{"pdf_atom_id": "ig34_p0033_a026", "pdf_atom_type": "HEADING", "pdf_source": "SDTMIG_v3.4", "pdf_page": 33, "pdf_parent_section": "§4.2.7.3 \"Specify\" Values for Topic Variables", "pdf_verbatim": "Events", "figure_ref": null, "candidates": [{"md_atom_id": "md_ch04_a442", "md_file": "knowledge_base/chapters/ch04_general_assumptions.md", "md_atom_type": "HEADING", "md_parent_section": "§4.3.5 [Storing Controlled Terminology for Synonym Qualifier Variables (MedDRA and WHODrug)]", "md_verbatim": "#### MedDRA Coding (Events)", "score": 0.5, "match_basis": "verbatim_token+chapter_route:ch04"}, {"md_atom_id": "md_ch04_a189", "md_file": "knowledge_base/chapters/ch04_general_assumptions.md", "md_atom_type": "HEADING", "md_parent_section": "§4.2.1 [Variable-Naming Conventions]", "md_verbatim": "#### 4.2.1.3 --TERM Conventions (Events)", "score": 0.4846, "match_basis": "verbatim_token+chapter_route:ch04"}, {"md_atom_id": "md_ch04_a987", "md_file": "knowledge_base/chapters/ch04_general_assumptions.md", "md_atom_type": "HEADING", "md_parent_section": "§4.5 [Other Assumptions]", "md_verbatim": "### 4.5.7 Presence or Absence of Prespecified Interventions and Events", "score": 0.38, "match_basis": "verbatim_token+chapter_route:ch04"}, {"md_atom_id": "md_ch04_a186", "md_file": "knowledge_base/chapters/ch04_general_assumptions.md", "md_atom_type": "HEADING", "md_parent_section": "§4.2.1 [Variable-Naming Conventions]", "md_verbatim": "#### 4.2.1.2 --TRT Conventions (Interventions)", "score": 0.3706, "match_basis": "verbatim_token+chapter_route:ch04"}, {"md_atom_id": "md_ch04_a951", "md_file": "knowledge_base/chapters/ch04_general_assumptions.md", "md_atom_type": "HEADING", "md_parent_section": "§4.5 [Other Assumptions]", "md_verbatim": "### 4.5.4 Evaluators in the Interventions and Events Observation Classes", "score": 0.3706, "match_basis": "verbatim_token+chapter_route:ch04"}, {"md_atom_id": "md_ch04_a704", "md_file": "knowledge_base/chapters/ch04_general_assumptions.md", "md_atom_type": "HEADING", "md_parent_section": "§4.4 [Use of Timing Variables]", "md_verbatim": "### 4.4.10 Representing Time Points", "score": 0.3667, "match_basis": "verbatim_token+chapter_route:ch04"}, {"md_atom_id": "md_ch04_a215", "md_file": "knowledge_base/chapters/ch04_general_assumptions.md", "md_atom_type": "HEADING", "md_parent_section": "§4.2 [General Variable Assumptions]", "md_verbatim": "### 4.2.5 Convention for Missing Values", "score": 0.36, "match_basis": "verbatim_token+chapter_route:ch04"}, {"md_atom_id": "md_ch04_a173", "md_file": "knowledge_base/chapters/ch04_general_assumptions.md", "md_atom_type": "HEADING", "md_parent_section": "§4.2 [General Variable Assumptions]", "md_verbatim": "### 4.2.1 Variable-Naming Conventions", "score": 0.3571, "match_basis": "verbatim_token+chapter_route:ch04"}, {"md_atom_id": "md_ch04_a347", "md_file": "knowledge_base/chapters/ch04_general_assumptions.md", "md_atom_type": "HEADING", "md_parent_section": "§4.2.8 [Multiple Values for a Variable]", "md_verbatim": "#### 4.2.8.1 Multiple Values for an Intervention or Event Topic Variable", "score": 0.3562, "match_basis": "verbatim_token+chapter_route:ch04"}, {"md_atom_id": "md_ch04_a182", "md_file": "knowledge_base/chapters/ch04_general_assumptions.md", "md_atom_type": "HEADING", "md_parent_section": "§4.2.1 [Variable-Naming Conventions]", "md_verbatim": "#### 4.2.1.1 --TEST and --TESTCD Conventions (Findings)", "score": 0.3545, "match_basis": "verbatim_token+chapter_route:ch04"}], "candidate_count": 10, "zero_candidate": false}
{"pdf_atom_id": "ig34_p0033_a027", "pdf_atom_type": "SENTENCE", "pdf_source": "SDTMIG_v3.4", "pdf_page": 33, "pdf_parent_section": "§4.2.7.3 \"Specify\" Values for Topic Variables", "pdf_verbatim": "\"Other, Specify\" for events may be handled similarly to Interventions.", "figure_ref": null, "candidates": [{"md_atom_id": "md_ch04_a332", "md_file": "knowledge_base/chapters/ch04_general_assumptions.md", "md_atom_type": "SENTENCE", "md_parent_section": "§4.2.7.3 [\"Specify\" Values for Topic Variables]", "md_verbatim": "\"Other, Specify\" for events may be handled similarly to Interventions.", "score": 0.9, "match_basis": "verbatim_token+chapter_route:ch04"}, {"md_atom_id": "md_ch04_a335", "md_file": "knowledge_base/chapters/ch04_general_assumptions.md", "md_atom_type": "SENTENCE", "md_parent_section": "§4.2.7.3 [\"Specify\" Values for Topic Variables]", "md_verbatim": "\"Other, Specify\" for tests may be handled similarly to Interventions.", "score": 0.8211, "match_basis": "verbatim_token+chapter_route:ch04"}, {"md_atom_id": "md_ch04_a997", "md_file": "knowledge_base/chapters/ch04_general_assumptions.md", "md_atom_type": "SENTENCE", "md_parent_section": "§4.5.7 [Presence or Absence of Prespecified Interventions and Events]", "md_verbatim": "If a study collects both prespecified interventions and events as well as free-text events and interventions, the value of --OCCUR should be \"Y\" or \"N\" for all prespecified interventions and events, and null for those reported as free text.", "score": 0.4595, "match_basis": "verbatim_token+chapter_route:ch04"}, {"md_atom_id": "md_ch04_a455", "md_file": "knowledge_base/chapters/ch04_general_assumptions.md", "md_atom_type": "SENTENCE", "md_parent_section": "§4.3.6 [Storing Topic Variables for General Domain Models]", "md_verbatim": "For an Interventions domain, the topic variable is --TRT.", "score": 0.4592, "match_basis": "verbatim_token+chapter_route:ch04"}, {"md_atom_id": "md_ch04_a977", "md_file": "knowledge_base/chapters/ch04_general_assumptions.md", "md_atom_type": "SENTENCE", "md_parent_section": "§4.5.6 [Supplemental Reason Variables]", "md_verbatim": "For Events and Interventions domains where prespecified occurrences have a reason for the \"Y\" or \"N\" value of --OCCUR, the reason can be represented with the variable --REASOC.", "score": 0.4556, "match_basis": "verbatim_token+chapter_route:ch04"}], "candidate_count": 5, "zero_candidate": false}
{"pdf_atom_id": "ig34_p0033_a028", "pdf_atom_type": "SENTENCE", "pdf_source": "SDTMIG_v3.4", "pdf_page": 33, "pdf_parent_section": "§4.2.7.3 \"Specify\" Values for Topic Variables", "pdf_verbatim": "--TERM should be populated with the description of the event found in the specified text and --PRESP could be used to distinguish between prespecified and free-text responses.", "figure_ref": null, "candidates": [{"md_atom_id": "md_ch04_a333", "md_file": "knowledge_base/chapters/ch04_general_assumptions.md", "md_atom_type": "SENTENCE", "md_parent_section": "§4.2.7.3 [\"Specify\" Values for Topic Variables]", "md_verbatim": "--TERM should be populated with the description of the event found in the specified text and --PRESP could be used to distinguish between prespecified and free-text responses.", "score": 0.9, "match_basis": "verbatim_token+chapter_route:ch04"}, {"md_atom_id": "md_ch04_a336", "md_file": "knowledge_base/chapters/ch04_general_assumptions.md", "md_atom_type": "SENTENCE", "md_parent_section": "§4.2.7.3 [\"Specify\" Values for Topic Variables]", "md_verbatim": "--TESTCD and --TEST should be populated with the code and description of the test found in the specified text.", "score": 0.5919, "match_basis": "verbatim_token+chapter_route:ch04"}, {"md_atom_id": "md_ch04_a319", "md_file": "knowledge_base/chapters/ch04_general_assumptions.md", "md_atom_type": "SENTENCE", "md_parent_section": "§4.2.7.3 [\"Specify\" Values for Topic Variables]", "md_verbatim": "If the sponsor wishes to distinguish between the prespecified list of treatments and those recorded in \"Other, Specify,\" the --PRESP variable could be used.", "score": 0.5121, "match_basis": "verbatim_token+chapter_route:ch04"}, {"md_atom_id": "md_ch04_a318", "md_file": "knowledge_base/chapters/ch04_general_assumptions.md", "md_atom_type": "SENTENCE", "md_parent_section": "§4.2.7.3 [\"Specify\" Values for Topic Variables]", "md_verbatim": "If a list of specific treatments is provided along with \"Other, Specify\", --TRT should be populated with the name of the treatment found in the specified text.", "score": 0.4826, "match_basis": "verbatim_token+chapter_route:ch04"}, {"md_atom_id": "md_ch04_a997", "md_file": "knowledge_base/chapters/ch04_general_assumptions.md", "md_atom_type": "SENTENCE", "md_parent_section": "§4.5.7 [Presence or Absence of Prespecified Interventions and Events]", "md_verbatim": "If a study collects both prespecified interventions and events as well as free-text events and interventions, the value of --OCCUR should be \"Y\" or \"N\" for all prespecified interventions and events, and null for those reported as free text.", "score": 0.46, "match_basis": "verbatim_token+chapter_route:ch04"}], "candidate_count": 5, "zero_candidate": false}
{"pdf_atom_id": "ig34_p0034_a001", "pdf_atom_type": "HEADING", "pdf_source": "SDTMIG_v3.4", "pdf_page": 34, "pdf_parent_section": "§4.2.7.3 \"Specify\" Values for Topic Variables", "pdf_verbatim": "Findings", "figure_ref": null, "candidates": [{"md_atom_id": "md_ch04_a182", "md_file": "knowledge_base/chapters/ch04_general_assumptions.md", "md_atom_type": "HEADING", "md_parent_section": "§4.2.1 [Variable-Naming Conventions]", "md_verbatim": "#### 4.2.1.1 --TEST and --TESTCD Conventions (Findings)", "score": 0.48, "match_basis": "verbatim_token+chapter_route:ch04"}, {"md_atom_id": "md_ch04_a680", "md_file": "knowledge_base/chapters/ch04_general_assumptions.md", "md_atom_type": "HEADING", "md_parent_section": "§4.4 [Use of Timing Variables]", "md_verbatim": "### 4.4.8 Date and Time Reported in a Domain Based on Findings", "score": 0.45, "match_basis": "verbatim_token+chapter_route:ch04"}, {"md_atom_id": "md_ch04_a352", "md_file": "knowledge_base/chapters/ch04_general_assumptions.md", "md_atom_type": "HEADING", "md_parent_section": "§4.2.8 [Multiple Values for a Variable]", "md_verbatim": "#### 4.2.8.2 Multiple Values for a Findings Result Variable", "score": 0.4385, "match_basis": "verbatim_token+chapter_route:ch04"}, {"md_atom_id": "md_ch04_a968", "md_file": "knowledge_base/chapters/ch04_general_assumptions.md", "md_atom_type": "HEADING", "md_parent_section": "§4.5 [Other Assumptions]", "md_verbatim": "### 4.5.5 Clinical Significance for Findings Observation Class Data", "score": 0.4, "match_basis": "verbatim_token+chapter_route:ch04"}, {"md_atom_id": "md_ch04_a442", "md_file": "knowledge_base/chapters/ch04_general_assumptions.md", "md_atom_type": "HEADING", "md_parent_section": "§4.3.5 [Storing Controlled Terminology for Synonym Qualifier Variables (MedDRA and WHODrug)]", "md_verbatim": "#### MedDRA Coding (Events)", "score": 0.375, "match_basis": "verbatim_token+chapter_route:ch04"}], "candidate_count": 5, "zero_candidate": false}
{"pdf_atom_id": "ig34_p0034_a002", "pdf_atom_type": "SENTENCE", "pdf_source": "SDTMIG_v3.4", "pdf_page": 34, "pdf_parent_section": "§4.2.7.3 \"Specify\" Values for Topic Variables", "pdf_verbatim": "\"Other, Specify\" for tests may be handled similarly to Interventions.", "figure_ref": null, "candidates": [{"md_atom_id": "md_ch04_a335", "md_file": "knowledge_base/chapters/ch04_general_assumptions.md", "md_atom_type": "SENTENCE", "md_parent_section": "§4.2.7.3 [\"Specify\" Values for Topic Variables]", "md_verbatim": "\"Other, Specify\" for tests may be handled similarly to Interventions.", "score": 0.9, "match_basis": "verbatim_token+chapter_route:ch04"}, {"md_atom_id": "md_ch04_a332", "md_file": "knowledge_base/chapters/ch04_general_assumptions.md", "md_atom_type": "SENTENCE", "md_parent_section": "§4.2.7.3 [\"Specify\" Values for Topic Variables]", "md_verbatim": "\"Other, Specify\" for events may be handled similarly to Interventions.", "score": 0.8211, "match_basis": "verbatim_token+chapter_route:ch04"}, {"md_atom_id": "md_ch04_a455", "md_file": "knowledge_base/chapters/ch04_general_assumptions.md", "md_atom_type": "SENTENCE", "md_parent_section": "§4.3.6 [Storing Topic Variables for General Domain Models]", "md_verbatim": "For an Interventions domain, the topic variable is --TRT.", "score": 0.456, "match_basis": "verbatim_token+chapter_route:ch04"}, {"md_atom_id": "md_ch04_a994", "md_file": "knowledge_base/chapters/ch04_general_assumptions.md", "md_atom_type": "SENTENCE", "md_parent_section": "§4.5.7 [Presence or Absence of Prespecified Interventions and Events]", "md_verbatim": "The --OCCUR variable is used to indicate whether a prespecified intervention or event occurred or did not occur.", "score": 0.4412, "match_basis": "verbatim_token+chapter_route:ch04"}, {"md_atom_id": "md_ch04_a990", "md_file": "knowledge_base/chapters/ch04_general_assumptions.md", "md_atom_type": "SENTENCE", "md_parent_section": "§4.5.7 [Presence or Absence of Prespecified Interventions and Events]", "md_verbatim": "The --PRESP variable is used to indicate whether a specific intervention (--TRT) or event (--TERM) was solicited.", "score": 0.4391, "match_basis": "verbatim_token+chapter_route:ch04"}], "candidate_count": 5, "zero_candidate": false}
{"pdf_atom_id": "ig34_p0034_a003", "pdf_atom_type": "SENTENCE", "pdf_source": "SDTMIG_v3.4", "pdf_page": 34, "pdf_parent_section": "§4.2.7.3 \"Specify\" Values for Topic Variables", "pdf_verbatim": "--TESTCD and --TEST should be populated with the code and description of the test found in the specified text.", "figure_ref": null, "candidates": [{"md_atom_id": "md_ch04_a336", "md_file": "knowledge_base/chapters/ch04_general_assumptions.md", "md_atom_type": "SENTENCE", "md_parent_section": "§4.2.7.3 [\"Specify\" Values for Topic Variables]", "md_verbatim": "--TESTCD and --TEST should be populated with the code and description of the test found in the specified text.", "score": 0.9, "match_basis": "verbatim_token+chapter_route:ch04"}, {"md_atom_id": "md_ch04_a333", "md_file": "knowledge_base/chapters/ch04_general_assumptions.md", "md_atom_type": "SENTENCE", "md_parent_section": "§4.2.7.3 [\"Specify\" Values for Topic Variables]", "md_verbatim": "--TERM should be populated with the description of the event found in the specified text and --PRESP could be used to distinguish between prespecified and free-text responses.", "score": 0.5919, "match_basis": "verbatim_token+chapter_route:ch04"}, {"md_atom_id": "md_ch04_a318", "md_file": "knowledge_base/chapters/ch04_general_assumptions.md", "md_atom_type": "SENTENCE", "md_parent_section": "§4.2.7.3 [\"Specify\" Values for Topic Variables]", "md_verbatim": "If a list of specific treatments is provided along with \"Other, Specify\", --TRT should be populated with the name of the treatment found in the specified text.", "score": 0.5294, "match_basis": "verbatim_token+chapter_route:ch04"}, {"md_atom_id": "md_ch04_a272", "md_file": "knowledge_base/chapters/ch04_general_assumptions.md", "md_atom_type": "SENTENCE", "md_parent_section": "§4.2.7.1 [\"Specify\" Values for Non-Result Qualifier Variables]", "md_verbatim": "The free-text description should be stored in the SUPPEX dataset.", "score": 0.4684, "match_basis": "verbatim_token+chapter_route:ch04"}, {"md_atom_id": "md_ch04_a997", "md_file": "knowledge_base/chapters/ch04_general_assumptions.md", "md_atom_type": "SENTENCE", "md_parent_section": "§4.5.7 [Presence or Absence of Prespecified Interventions and Events]", "md_verbatim": "If a study collects both prespecified interventions and events as well as free-text events and interventions, the value of --OCCUR should be \"Y\" or \"N\" for all prespecified interventions and events, and null for those reported as free text.", "score": 0.4213, "match_basis": "verbatim_token+chapter_route:ch04"}], "candidate_count": 5, "zero_candidate": false}
{"pdf_atom_id": "ig34_p0034_a004", "pdf_atom_type": "SENTENCE", "pdf_source": "SDTMIG_v3.4", "pdf_page": 34, "pdf_parent_section": "§4.2.7.3 \"Specify\" Values for Topic Variables", "pdf_verbatim": "If specific tests are not listed on the CRF and the investigator has the option of writing in tests, then the name of the test would have to be coded to ensure that all --TESTCD and --TEST values are consistent with the test controlled terminology.", "figure_ref": null, "candidates": [{"md_atom_id": "md_ch04_a337", "md_file": "knowledge_base/chapters/ch04_general_assumptions.md", "md_atom_type": "SENTENCE", "md_parent_section": "§4.2.7.3 [\"Specify\" Values for Topic Variables]", "md_verbatim": "If specific tests are not listed on the CRF and the investigator has the option of writing in tests, then the name of the test would have to be coded to ensure that all --TESTCD and --TEST values are consistent with the test controlled terminology.", "score": 0.9, "match_basis": "verbatim_token+chapter_route:ch04"}, {"md_atom_id": "md_ch04_a365", "md_file": "knowledge_base/chapters/ch04_general_assumptions.md", "md_atom_type": "SENTENCE", "md_parent_section": "§4.2.8.3 [Multiple Values for a Non-result Qualifier Variable]", "md_verbatim": "The values stored in QVAL should be consistent with the controlled terminology associated with the standard variable.", "score": 0.4982, "match_basis": "verbatim_token+chapter_route:ch04"}, {"md_atom_id": "md_ch04_a340", "md_file": "knowledge_base/chapters/ch04_general_assumptions.md", "md_atom_type": "SENTENCE", "md_parent_section": "§4.2.7.3 [\"Specify\" Values for Topic Variables]", "md_verbatim": "The sponsor would submit the controlled terminology for this test: LBTESTCD would be \"PT\" and LBTEST would be \"Prothrombin Time\", rather than the verbatim term, \"Prothrombin time\" supplied by the investigator.", "score": 0.479, "match_basis": "verbatim_token+chapter_route:ch04"}, {"md_atom_id": "md_ch04_a156", "md_file": "knowledge_base/chapters/ch04_general_assumptions.md", "md_atom_type": "SENTENCE", "md_parent_section": "§4.1.9 [Assigning Natural Keys in the Metadata]", "md_verbatim": "The use of generic test codes helps to create distinct lists of manageable controlled terminology for --TESTCD.", "score": 0.4568, "match_basis": "verbatim_token+chapter_route:ch04"}, {"md_atom_id": "md_ch04_a436", "md_file": "knowledge_base/chapters/ch04_general_assumptions.md", "md_atom_type": "SENTENCE", "md_parent_section": "§4.3.3 [Controlled Terminology Values]", "md_verbatim": "Future versions of the Define-XML specification are expected to include information on representing subsets of controlled terminology.", "score": 0.4559, "match_basis": "verbatim_token+chapter_route:ch04"}], "candidate_count": 5, "zero_candidate": false}
{"pdf_atom_id": "ig34_p0034_a005", "pdf_atom_type": "SENTENCE", "pdf_source": "SDTMIG_v3.4", "pdf_page": 34, "pdf_parent_section": "§4.2.7.3 \"Specify\" Values for Topic Variables", "pdf_verbatim": "For example, a lab CRF collected values for hemoglobin, hematocrit, and \"Other, specify\".", "figure_ref": null, "candidates": [{"md_atom_id": "md_ch04_a338", "md_file": "knowledge_base/chapters/ch04_general_assumptions.md", "md_atom_type": "SENTENCE", "md_parent_section": "§4.2.7.3 [\"Specify\" Values for Topic Variables]", "md_verbatim": "For example, a lab CRF collected values for hemoglobin, hematocrit, and \"Other, specify\".", "score": 0.9, "match_basis": "verbatim_token+chapter_route:ch04"}, {"md_atom_id": "md_ch04_a277", "md_file": "knowledge_base/chapters/ch04_general_assumptions.md", "md_atom_type": "SENTENCE", "md_parent_section": "§4.2.7.1 [\"Specify\" Values for Non-Result Qualifier Variables]", "md_verbatim": "For example, consider a CRF that collects the indication for an analgesic concomitant medication (CMINDC) using a list of prespecified values and an \"Other, specify\" field:", "score": 0.4613, "match_basis": "verbatim_token+chapter_route:ch04"}, {"md_atom_id": "md_ch04_a133", "md_file": "knowledge_base/chapters/ch04_general_assumptions.md", "md_atom_type": "SENTENCE", "md_parent_section": "§4.1.8.2 [Origin Metadata for Records]", "md_verbatim": "For example, some records in a Findings dataset such as Questionnaires (QS) contain values collected from the CRF; other records may contain derived values, such as a total score.", "score": 0.437, "match_basis": "verbatim_token+chapter_route:ch04"}, {"md_atom_id": "md_ch04_a305", "md_file": "knowledge_base/chapters/ch04_general_assumptions.md", "md_atom_type": "SENTENCE", "md_parent_section": "§4.2.7.2 [\"Specify\" Values for Result Qualifier Variables]", "md_verbatim": "An investigator has selected \"OTHER\" and specified \"BLUEISH GRAY\".", "score": 0.4313, "match_basis": "verbatim_token+chapter_route:ch04"}, {"md_atom_id": "md_ch04_a132", "md_file": "knowledge_base/chapters/ch04_general_assumptions.md", "md_atom_type": "SENTENCE", "md_parent_section": "§4.1.8.2 [Origin Metadata for Records]", "md_verbatim": "In some cases, both collected and derived values may be reported in the same field.", "score": 0.4292, "match_basis": "verbatim_token+chapter_route:ch04"}], "candidate_count": 5, "zero_candidate": false}
{"pdf_atom_id": "ig34_p0034_a006", "pdf_atom_type": "SENTENCE", "pdf_source": "SDTMIG_v3.4", "pdf_page": 34, "pdf_parent_section": "§4.2.7.3 \"Specify\" Values for Topic Variables", "pdf_verbatim": "The value the investigator wrote for \"Other, specify\" was \"Prothrombin time\" with an associated result and units.", "figure_ref": null, "candidates": [{"md_atom_id": "md_ch04_a339", "md_file": "knowledge_base/chapters/ch04_general_assumptions.md", "md_atom_type": "SENTENCE", "md_parent_section": "§4.2.7.3 [\"Specify\" Values for Topic Variables]", "md_verbatim": "The value the investigator wrote for \"Other, specify\" was \"Prothrombin time\" with an associated result and units.", "score": 0.9, "match_basis": "verbatim_token+chapter_route:ch04"}, {"md_atom_id": "md_ch04_a305", "md_file": "knowledge_base/chapters/ch04_general_assumptions.md", "md_atom_type": "SENTENCE", "md_parent_section": "§4.2.7.2 [\"Specify\" Values for Result Qualifier Variables]", "md_verbatim": "An investigator has selected \"OTHER\" and specified \"BLUEISH GRAY\".", "score": 0.4765, "match_basis": "verbatim_token+chapter_route:ch04"}, {"md_atom_id": "md_ch04_a285", "md_file": "knowledge_base/chapters/ch04_general_assumptions.md", "md_atom_type": "SENTENCE", "md_parent_section": "§4.2.7.1 [\"Specify\" Values for Non-Result Qualifier Variables]", "md_verbatim": "An investigator has selected \"OTHER\" and specified \"Broken arm\".", "score": 0.4701, "match_basis": "verbatim_token+chapter_route:ch04"}, {"md_atom_id": "md_ch04_a340", "md_file": "knowledge_base/chapters/ch04_general_assumptions.md", "md_atom_type": "SENTENCE", "md_parent_section": "§4.2.7.3 [\"Specify\" Values for Topic Variables]", "md_verbatim": "The sponsor would submit the controlled terminology for this test: LBTESTCD would be \"PT\" and LBTEST would be \"Prothrombin Time\", rather than the verbatim term, \"Prothrombin time\" supplied by the investigator.", "score": 0.4442, "match_basis": "verbatim_token+chapter_route:ch04"}, {"md_atom_id": "md_ch04_a338", "md_file": "knowledge_base/chapters/ch04_general_assumptions.md", "md_atom_type": "SENTENCE", "md_parent_section": "§4.2.7.3 [\"Specify\" Values for Topic Variables]", "md_verbatim": "For example, a lab CRF collected values for hemoglobin, hematocrit, and \"Other, specify\".", "score": 0.42, "match_basis": "verbatim_token+chapter_route:ch04"}], "candidate_count": 5, "zero_candidate": false}
{"pdf_atom_id": "ig34_p0034_a007", "pdf_atom_type": "SENTENCE", "pdf_source": "SDTMIG_v3.4", "pdf_page": 34, "pdf_parent_section": "§4.2.7.3 \"Specify\" Values for Topic Variables", "pdf_verbatim": "The sponsor would submit the controlled terminology for this test:  LBTESTCD would be \"PT\" and LBTEST would be \"Prothrombin Time\", rather than the verbatim term, \"Prothrombin time\" supplied by the investigator.", "figure_ref": null, "candidates": [{"md_atom_id": "md_ch04_a340", "md_file": "knowledge_base/chapters/ch04_general_assumptions.md", "md_atom_type": "SENTENCE", "md_parent_section": "§4.2.7.3 [\"Specify\" Values for Topic Variables]", "md_verbatim": "The sponsor would submit the controlled terminology for this test: LBTESTCD would be \"PT\" and LBTEST would be \"Prothrombin Time\", rather than the verbatim term, \"Prothrombin time\" supplied by the investigator.", "score": 0.9, "match_basis": "verbatim_token+chapter_route:ch04"}, {"md_atom_id": "md_ch04_a337", "md_file": "knowledge_base/chapters/ch04_general_assumptions.md", "md_atom_type": "SENTENCE", "md_parent_section": "§4.2.7.3 [\"Specify\" Values for Topic Variables]", "md_verbatim": "If specific tests are not listed on the CRF and the investigator has the option of writing in tests, then the name of the test would have to be coded to ensure that all --TESTCD and --TEST values are consistent with the test controlled terminology.", "score": 0.479, "match_basis": "verbatim_token+chapter_route:ch04"}, {"md_atom_id": "md_ch04_a457", "md_file": "knowledge_base/chapters/ch04_general_assumptions.md", "md_atom_type": "SENTENCE", "md_parent_section": "§4.3.6 [Storing Topic Variables for General Domain Models]", "md_verbatim": "If CDISC Controlled Terminology exists, it should be used; otherwise, sponsors should define their own controlled list of terms.", "score": 0.4604, "match_basis": "verbatim_token+chapter_route:ch04"}, {"md_atom_id": "md_ch04_a995", "md_file": "knowledge_base/chapters/ch04_general_assumptions.md", "md_atom_type": "SENTENCE", "md_parent_section": "§4.5.7 [Presence or Absence of Prespecified Interventions and Events]", "md_verbatim": "It has controlled terminology of \"Y\" and \"N\" (for \"Yes\" and \"No\").", "score": 0.4462, "match_basis": "verbatim_token+chapter_route:ch04"}, {"md_atom_id": "md_ch04_a339", "md_file": "knowledge_base/chapters/ch04_general_assumptions.md", "md_atom_type": "SENTENCE", "md_parent_section": "§4.2.7.3 [\"Specify\" Values for Topic Variables]", "md_verbatim": "The value the investigator wrote for \"Other, specify\" was \"Prothrombin time\" with an associated result and units.", "score": 0.4442, "match_basis": "verbatim_token+chapter_route:ch04"}], "candidate_count": 5, "zero_candidate": false}
{"pdf_atom_id": "ig34_p0034_a008", "pdf_atom_type": "HEADING", "pdf_source": "SDTMIG_v3.4", "pdf_page": 34, "pdf_parent_section": "§4.2.7.4 \"Specify\" Values for --OBJ", "pdf_verbatim": "4.2.7.4  \"Specify\" Values for --OBJ", "figure_ref": null, "candidates": [{"md_atom_id": "md_ch04_a341", "md_file": "knowledge_base/chapters/ch04_general_assumptions.md", "md_atom_type": "HEADING", "md_parent_section": "§4.2.7 [Submitting Free Text from the CRF]", "md_verbatim": "#### 4.2.7.4 \"Specify\" Values for --OBJ", "score": 0.9, "match_basis": "verbatim_token+chapter_route:ch04"}, {"md_atom_id": "md_ch04_a316", "md_file": "knowledge_base/chapters/ch04_general_assumptions.md", "md_atom_type": "HEADING", "md_parent_section": "§4.2.7 [Submitting Free Text from the CRF]", "md_verbatim": "#### 4.2.7.3 \"Specify\" Values for Topic Variables", "score": 0.5857, "match_basis": "verbatim_token+chapter_route:ch04"}, {"md_atom_id": "md_ch04_a296", "md_file": "knowledge_base/chapters/ch04_general_assumptions.md", "md_atom_type": "HEADING", "md_parent_section": "§4.2.7 [Submitting Free Text from the CRF]", "md_verbatim": "#### 4.2.7.2 \"Specify\" Values for Result Qualifier Variables", "score": 0.5069, "match_basis": "verbatim_token+chapter_route:ch04"}, {"md_atom_id": "md_ch04_a261", "md_file": "knowledge_base/chapters/ch04_general_assumptions.md", "md_atom_type": "HEADING", "md_parent_section": "§4.2.7 [Submitting Free Text from the CRF]", "md_verbatim": "#### 4.2.7.1 \"Specify\" Values for Non-Result Qualifier Variables", "score": 0.5, "match_basis": "verbatim_token+chapter_route:ch04"}, {"md_atom_id": "md_ch04_a467", "md_file": "knowledge_base/chapters/ch04_general_assumptions.md", "md_atom_type": "HEADING", "md_parent_section": "§4.3 [Coding and Controlled Terminology Assumptions]", "md_verbatim": "### 4.3.7 Use of \"Yes\" and \"No\" Values", "score": 0.4714, "match_basis": "verbatim_token+chapter_route:ch04"}], "candidate_count": 5, "zero_candidate": false}
{"pdf_atom_id": "ig34_p0034_a009", "pdf_atom_type": "SENTENCE", "pdf_source": "SDTMIG_v3.4", "pdf_page": 34, "pdf_parent_section": "§4.2.7.4 \"Specify\" Values for --OBJ", "pdf_verbatim": "As illustrated in the following figure, when findings are collected about an event or intervention, and the name of the event or intervention is collected in an \"Other, specify\" CRF field, the value in --OBJ variable depends on whether the Findings record has a parent record and whether the \"Other, specify\" value was coded.", "figure_ref": null, "candidates": [{"md_atom_id": "md_ch04_a342", "md_file": "knowledge_base/chapters/ch04_general_assumptions.md", "md_atom_type": "SENTENCE", "md_parent_section": "§4.2.7.4 [\"Specify\" Values for --OBJ]", "md_verbatim": "As illustrated in the following figure, when findings are collected about an event or intervention, and the name of the event or intervention is collected in an \"Other, specify\" CRF field, the value in --OBJ variable depends on whether the Findings record has a parent record and whether the \"Other, specify\" value was coded.", "score": 0.9, "match_basis": "verbatim_token+chapter_route:ch04"}, {"md_atom_id": "md_ch04_a990", "md_file": "knowledge_base/chapters/ch04_general_assumptions.md", "md_atom_type": "SENTENCE", "md_parent_section": "§4.5.7 [Presence or Absence of Prespecified Interventions and Events]", "md_verbatim": "The --PRESP variable is used to indicate whether a specific intervention (--TRT) or event (--TERM) was solicited.", "score": 0.4722, "match_basis": "verbatim_token+chapter_route:ch04"}, {"md_atom_id": "md_ch04_a994", "md_file": "knowledge_base/chapters/ch04_general_assumptions.md", "md_atom_type": "SENTENCE", "md_parent_section": "§4.5.7 [Presence or Absence of Prespecified Interventions and Events]", "md_verbatim": "The --OCCUR variable is used to indicate whether a prespecified intervention or event occurred or did not occur.", "score": 0.4667, "match_basis": "verbatim_token+chapter_route:ch04"}, {"md_atom_id": "md_ch04_a832", "md_file": "knowledge_base/chapters/ch04_general_assumptions.md", "md_atom_type": "SENTENCE", "md_parent_section": "§4.5.1.3 [Examples of Original and Standard Units and Test Not Done]", "md_verbatim": "The following examples illustrate the use of Findings results variables and are not meant as comprehensive domain examples.", "score": 0.45, "match_basis": "verbatim_token+chapter_route:ch04"}, {"md_atom_id": "md_ch04_a977", "md_file": "knowledge_base/chapters/ch04_general_assumptions.md", "md_atom_type": "SENTENCE", "md_parent_section": "§4.5.6 [Supplemental Reason Variables]", "md_verbatim": "For Events and Interventions domains where prespecified occurrences have a reason for the \"Y\" or \"N\" value of --OCCUR, the reason can be represented with the variable --REASOC.", "score": 0.4476, "match_basis": "verbatim_token+chapter_route:ch04"}], "candidate_count": 5, "zero_candidate": false}
{"pdf_atom_id": "ig34_p0034_a010", "pdf_atom_type": "CROSS_REF", "pdf_source": "SDTMIG_v3.4", "pdf_page": 34, "pdf_parent_section": "§4.2.7.4 \"Specify\" Values for --OBJ", "pdf_verbatim": "See also Section 6.4.3, Variables Unique to Findings About.", "figure_ref": null, "candidates": [{"md_atom_id": "md_ch04_a343", "md_file": "knowledge_base/chapters/ch04_general_assumptions.md", "md_atom_type": "SENTENCE", "md_parent_section": "§4.2.7.4 [\"Specify\" Values for --OBJ]", "md_verbatim": "See also Section 6.4.3, Variables Unique to Findings About.", "score": 0.69, "match_basis": "verbatim_token+chapter_route:ch04"}, {"md_atom_id": "md_ch04_a688", "md_file": "knowledge_base/chapters/ch04_general_assumptions.md", "md_atom_type": "SENTENCE", "md_parent_section": "§4.4.8 [Date and Time Reported in a Domain Based on Findings]", "md_verbatim": "**Collection type and variable usage (--STDTC should not be used in Findings):**", "score": 0.29, "match_basis": "verbatim_token+chapter_route:ch04"}, {"md_atom_id": "md_ch04_a352", "md_file": "knowledge_base/chapters/ch04_general_assumptions.md", "md_atom_type": "HEADING", "md_parent_section": "§4.2.8 [Multiple Values for a Variable]", "md_verbatim": "#### 4.2.8.2 Multiple Values for a Findings Result Variable", "score": 0.2614, "match_basis": "verbatim_token+chapter_route:ch04"}, {"md_atom_id": "md_ch04_a012", "md_file": "knowledge_base/chapters/ch04_general_assumptions.md", "md_atom_type": "HEADING", "md_parent_section": "§4.1 [General Domain Assumptions]", "md_verbatim": "### 4.1.3 Additional Timing Variables", "score": 0.2522, "match_basis": "verbatim_token+chapter_route:ch04"}, {"md_atom_id": "md_ch04_a031", "md_file": "knowledge_base/chapters/ch04_general_assumptions.md", "md_atom_type": "SENTENCE", "md_parent_section": "§4.1.4 [Order of the Variables]", "md_verbatim": "Within each role, variables must be ordered as shown in SDTM Sections 3.1.1, The Interventions Observation Class; 3.1.2, The Events Observation Class; 3.1.3, The Findings Observation Class; 3.1.3.1, Findings About Events or Interventions; 3.1.4, Identifiers for All Classes; and 3.1.5, Timing Variables for All Classes.", "score": 0.24, "match_basis": "verbatim_token+chapter_route:ch04"}], "candidate_count": 5, "zero_candidate": false}
{"pdf_atom_id": "ig34_p0034_a011", "pdf_atom_type": "HEADING", "pdf_source": "SDTMIG_v3.4", "pdf_page": 34, "pdf_parent_section": "§4.2.7.4 \"Specify\" Values for --OBJ", "pdf_verbatim": "Figure. Decision Tree for Populating --OBJ", "figure_ref": "pdf_p0034+middle", "candidates": [{"md_atom_id": "md_ch04_a509", "md_file": "knowledge_base/chapters/ch04_general_assumptions.md", "md_atom_type": "HEADING", "md_parent_section": "§4.4 [Actual and Relative Time Assumptions]", "md_verbatim": "### 4.4.2 Date/Time Precision", "score": 0.4071, "match_basis": "verbatim_token+chapter_route:ch04"}, {"md_atom_id": "md_ch04_a341", "md_file": "knowledge_base/chapters/ch04_general_assumptions.md", "md_atom_type": "HEADING", "md_parent_section": "§4.2.7 [Submitting Free Text from the CRF]", "md_verbatim": "#### 4.2.7.4 \"Specify\" Values for --OBJ", "score": 0.36, "match_basis": "verbatim_token+chapter_route:ch04"}, {"md_atom_id": "md_ch04_a257", "md_file": "knowledge_base/chapters/ch04_general_assumptions.md", "md_atom_type": "HEADING", "md_parent_section": "§4.2 [General Variable Assumptions]", "md_verbatim": "### 4.2.7 Submitting Free Text from the CRF", "score": 0.3514, "match_basis": "verbatim_token+chapter_route:ch04"}, {"md_atom_id": "md_ch04_a1008", "md_file": "knowledge_base/chapters/ch04_general_assumptions.md", "md_atom_type": "HEADING", "md_parent_section": "§4.5 [Other Assumptions]", "md_verbatim": "### 4.5.8 Accounting for Long-term Follow-up", "score": 0.35, "match_basis": "verbatim_token+chapter_route:ch04"}, {"md_atom_id": "md_ch04_a215", "md_file": "knowledge_base/chapters/ch04_general_assumptions.md", "md_atom_type": "HEADING", "md_parent_section": "§4.2 [General Variable Assumptions]", "md_verbatim": "### 4.2.5 Convention for Missing Values", "score": 0.3486, "match_basis": "verbatim_token+chapter_route:ch04"}], "candidate_count": 5, "zero_candidate": false}
{"pdf_atom_id": "ig34_p0034_a012", "pdf_atom_type": "FIGURE", "pdf_source": "SDTMIG_v3.4", "pdf_page": 34, "pdf_parent_section": "§4.2.7.4 \"Specify\" Values for --OBJ", "pdf_verbatim": "[FIGURE: Decision tree with root node 'Findings about data for an event or intervention where the name of the event or intervention was entered as free text'; branches: Topic variable coded? Yes→Paren [TRUNCATED:FIGURE]", "figure_ref": "pdf_p0034+middle", "candidates": [{"md_atom_id": "md_ch04_a345", "md_file": "knowledge_base/chapters/ch04_general_assumptions.md", "md_atom_type": "FIGURE", "md_parent_section": "§4.2.7.4 [\"Specify\" Values for --OBJ]", "md_verbatim": "```mermaid\ngraph TD\n    A[\"Findings about data for an event or intervention<br/>where the name of the event or intervention<br/>was entered as free text\"]\n    A --> B{\"Topic variable<br/>coded?\"}\n     [TRUNCATED:FIGURE]", "score": 0.75, "match_basis": "verbatim_token+global_figure"}, {"md_atom_id": "md_ch02_a080", "md_file": "knowledge_base/chapters/ch02_fundamentals.md", "md_atom_type": "FIGURE", "md_parent_section": "§2.6 [Creating a New Domain]", "md_verbatim": "```mermaid\ngraph TD\n    A[\"Identifier Variables\"] -- AND --> D[\"New Domain\"]\n    B[\"Timing Variables\"] -- AND --> D\n    C[\"Topic and Qualifier Variables\"] --> E[\"Interventions- Specific Variables\"]\n   [TRUNCATED:FIGURE]", "score": 0.4313, "match_basis": "verbatim_token+global_figure"}, {"md_atom_id": "md_model01_a013", "md_file": "knowledge_base/model/01_concepts_and_terms.md", "md_atom_type": "FIGURE", "md_parent_section": "§2.1 [Model Concepts and Terms — Variables]", "md_verbatim": "```mermaid\ngraph TD\n    %% Key:\n    %% Plain rounded box = Group of individually specified datasets\n    %% Filled box (:::extensible) = Extensible set of domains based on a common model\n\n    SDTM[\"Stu [TRUNCATED:FIGURE]", "score": 0.3764, "match_basis": "verbatim_token+global_figure"}, {"md_atom_id": "md_dmTA_ex_a226", "md_file": "knowledge_base/domains/TA/examples.md", "md_atom_type": "FIGURE", "md_parent_section": "§TA.7 [Example 7]", "md_verbatim": "```mermaid\ngraph LR\n    subgraph SE[\"Screen Epoch\"]\n        s1[Screen]\n        s2[Screen]\n    end\n    subgraph IE[\"Induction Treatment Epoch\"]\n        cr1[\"Chemo+Rad\"] --> cr2[\"Chemo+Rad*\"]\n        cs [TRUNCATED:FIGURE]", "score": 0.3436, "match_basis": "verbatim_token+global_figure"}, {"md_atom_id": "md_dmTD_ex_a027", "md_file": "knowledge_base/domains/TD/examples.md", "md_atom_type": "FIGURE", "md_parent_section": "§TD.3 [Example 3]", "md_verbatim": "```mermaid\ngraph LR\n    subgraph DBT[\"Double Blind Treatment (Standard vs. Experimental Treatment)\"]\n        ANCH1DT([\"ANCH1DT(anchor)\"])\n        subgraph S1[\"Schedule 1 — every 8 weeks (weeks 8–48)\"] [TRUNCATED:FIGURE]", "score": 0.3414, "match_basis": "verbatim_token+global_figure"}], "candidate_count": 5, "zero_candidate": false}
{"pdf_atom_id": "ig34_p0034_a013", "pdf_atom_type": "HEADING", "pdf_source": "SDTMIG_v3.4", "pdf_page": 34, "pdf_parent_section": "§4.2.8 Multiple Values for a Variable", "pdf_verbatim": "4.2.8 Multiple Values for a Variable", "figure_ref": null, "candidates": [{"md_atom_id": "md_ch04_a346", "md_file": "knowledge_base/chapters/ch04_general_assumptions.md", "md_atom_type": "HEADING", "md_parent_section": "§4.2 [General Variable Assumptions]", "md_verbatim": "### 4.2.8 Multiple Values for a Variable", "score": 0.9, "match_basis": "verbatim_token+chapter_route:ch04"}, {"md_atom_id": "md_ch04_a352", "md_file": "knowledge_base/chapters/ch04_general_assumptions.md", "md_atom_type": "HEADING", "md_parent_section": "§4.2.8 [Multiple Values for a Variable]", "md_verbatim": "#### 4.2.8.2 Multiple Values for a Findings Result Variable", "score": 0.6923, "match_basis": "verbatim_token+chapter_route:ch04"}, {"md_atom_id": "md_ch04_a359", "md_file": "knowledge_base/chapters/ch04_general_assumptions.md", "md_atom_type": "HEADING", "md_parent_section": "§4.2.8 [Multiple Values for a Variable]", "md_verbatim": "#### 4.2.8.3 Multiple Values for a Non-result Qualifier Variable", "score": 0.6643, "match_basis": "verbatim_token+chapter_route:ch04"}, {"md_atom_id": "md_ch04_a347", "md_file": "knowledge_base/chapters/ch04_general_assumptions.md", "md_atom_type": "HEADING", "md_parent_section": "§4.2.8 [Multiple Values for a Variable]", "md_verbatim": "#### 4.2.8.1 Multiple Values for an Intervention or Event Topic Variable", "score": 0.629, "match_basis": "verbatim_token+chapter_route:ch04"}, {"md_atom_id": "md_ch04_a400", "md_file": "knowledge_base/chapters/ch04_general_assumptions.md", "md_atom_type": "HEADING", "md_parent_section": "§4.2.8 [Multiple Values for a Variable]", "md_verbatim": "#### 4.2.8.4 Multiple Values for a Parameter", "score": 0.575, "match_basis": "verbatim_token+chapter_route:ch04"}], "candidate_count": 5, "zero_candidate": false}
{"pdf_atom_id": "ig34_p0034_a014", "pdf_atom_type": "HEADING", "pdf_source": "SDTMIG_v3.4", "pdf_page": 34, "pdf_parent_section": "§4.2.8.1 Multiple Values for an Intervention or Event Topic Variable", "pdf_verbatim": "4.2.8.1  Multiple Values for an Intervention or Event Topic Variable", "figure_ref": null, "candidates": [{"md_atom_id": "md_ch04_a347", "md_file": "knowledge_base/chapters/ch04_general_assumptions.md", "md_atom_type": "HEADING", "md_parent_section": "§4.2.8 [Multiple Values for a Variable]", "md_verbatim": "#### 4.2.8.1 Multiple Values for an Intervention or Event Topic Variable", "score": 0.9, "match_basis": "verbatim_token+chapter_route:ch04"}, {"md_atom_id": "md_ch04_a346", "md_file": "knowledge_base/chapters/ch04_general_assumptions.md", "md_atom_type": "HEADING", "md_parent_section": "§4.2 [General Variable Assumptions]", "md_verbatim": "### 4.2.8 Multiple Values for a Variable", "score": 0.629, "match_basis": "verbatim_token+chapter_route:ch04"}, {"md_atom_id": "md_ch04_a352", "md_file": "knowledge_base/chapters/ch04_general_assumptions.md", "md_atom_type": "HEADING", "md_parent_section": "§4.2.8 [Multiple Values for a Variable]", "md_verbatim": "#### 4.2.8.2 Multiple Values for a Findings Result Variable", "score": 0.555, "match_basis": "verbatim_token+chapter_route:ch04"}, {"md_atom_id": "md_ch04_a359", "md_file": "knowledge_base/chapters/ch04_general_assumptions.md", "md_atom_type": "HEADING", "md_parent_section": "§4.2.8 [Multiple Values for a Variable]", "md_verbatim": "#### 4.2.8.3 Multiple Values for a Non-result Qualifier Variable", "score": 0.5429, "match_basis": "verbatim_token+chapter_route:ch04"}, {"md_atom_id": "md_ch04_a316", "md_file": "knowledge_base/chapters/ch04_general_assumptions.md", "md_atom_type": "HEADING", "md_parent_section": "§4.2.7 [Submitting Free Text from the CRF]", "md_verbatim": "#### 4.2.7.3 \"Specify\" Values for Topic Variables", "score": 0.527, "match_basis": "verbatim_token+chapter_route:ch04"}], "candidate_count": 5, "zero_candidate": false}
{"pdf_atom_id": "ig34_p0034_a015", "pdf_atom_type": "SENTENCE", "pdf_source": "SDTMIG_v3.4", "pdf_page": 34, "pdf_parent_section": "§4.2.8.1 Multiple Values for an Intervention or Event Topic Variable", "pdf_verbatim": "If multiple values are reported for an intervention or event topic variable (e.g., --TRT in an Interventions general observation-class dataset or --TERM in an Events general observation-class dataset), it is expected that the sponsor will split the values into multiple records or otherwise resolve the multiplicity per the sponsor's data management standard operating procedures.", "figure_ref": null, "candidates": [{"md_atom_id": "md_ch04_a348", "md_file": "knowledge_base/chapters/ch04_general_assumptions.md", "md_atom_type": "SENTENCE", "md_parent_section": "§4.2.8.1 [Multiple Values for an Intervention or Event Topic Variable]", "md_verbatim": "If multiple values are reported for an intervention or event topic variable (e.g., --TRT in an Interventions general observation-class dataset or --TERM in an Events general observation-class dataset), it is expected that the sponsor will split the values into multiple records or otherwise resolve the multiplicity per the sponsor's data management standard operating procedures.", "score": 0.9, "match_basis": "verbatim_token+chapter_route:ch04"}, {"md_atom_id": "md_ch04_a453", "md_file": "knowledge_base/chapters/ch04_general_assumptions.md", "md_atom_type": "SENTENCE", "md_parent_section": "§4.3.6 [Storing Topic Variables for General Domain Models]", "md_verbatim": "The topic variable for the Interventions and Events general observation-class models is often stored as verbatim text.", "score": 0.4648, "match_basis": "verbatim_token+chapter_route:ch04"}, {"md_atom_id": "md_ch04_a955", "md_file": "knowledge_base/chapters/ch04_general_assumptions.md", "md_atom_type": "SENTENCE", "md_parent_section": "§4.5.4 [Evaluators in the Interventions and Events Observation Classes]", "md_verbatim": "For observations that have primary and secondary evaluations of specific qualifier variables, sponsors should put data from the primary evaluation into the standard domain dataset and data from the secondary evaluation into the Supplemental Qualifier datasets (SUPP--).", "score": 0.4607, "match_basis": "verbatim_token+chapter_route:ch04"}, {"md_atom_id": "md_ch04_a976", "md_file": "knowledge_base/chapters/ch04_general_assumptions.md", "md_atom_type": "SENTENCE", "md_parent_section": "§4.5.6 [Supplemental Reason Variables]", "md_verbatim": "The SDTM general observation classes include the --REASND variable to submit the reason a response is not present (a result in a findings class or an --OCCUR value in an events or interventions variable).", "score": 0.4585, "match_basis": "verbatim_token+chapter_route:ch04"}, {"md_atom_id": "md_ch04_a907", "md_file": "knowledge_base/chapters/ch04_general_assumptions.md", "md_atom_type": "SENTENCE", "md_parent_section": "§4.5.3.2 [Text Strings Greater than 200 Characters in Other Variables]", "md_verbatim": "For general observation-class variables and supplemental qualifiers (i.e., non-standard variables, NSVs), the conventions are as follows:", "score": 0.456, "match_basis": "verbatim_token+chapter_route:ch04"}], "candidate_count": 5, "zero_candidate": false}
{"pdf_atom_id": "ig34_p0034_a016", "pdf_atom_type": "SENTENCE", "pdf_source": "SDTMIG_v3.4", "pdf_page": 34, "pdf_parent_section": "§4.2.8.1 Multiple Values for an Intervention or Event Topic Variable", "pdf_verbatim": "For example, if an adverse event term of \"Headache and nausea\" or a concomitant medication of \"Tylenol and Benadryl\" is reported, sponsors will often split the original report into separate records and/or query the site for clarification.", "figure_ref": null, "candidates": [{"md_atom_id": "md_ch04_a349", "md_file": "knowledge_base/chapters/ch04_general_assumptions.md", "md_atom_type": "SENTENCE", "md_parent_section": "§4.2.8.1 [Multiple Values for an Intervention or Event Topic Variable]", "md_verbatim": "For example, if an adverse event term of \"Headache and nausea\" or a concomitant medication of \"Tylenol and Benadryl\" is reported, sponsors will often split the original report into separate records and/or query the site for clarification.", "score": 0.9, "match_basis": "verbatim_token+chapter_route:ch04"}, {"md_atom_id": "md_ch04_a663", "md_file": "knowledge_base/chapters/ch04_general_assumptions.md", "md_atom_type": "SENTENCE", "md_parent_section": "§4.4.7 [Use of Relative Timing Variables]", "md_verbatim": "**Example 2: Prior and Concomitant Medications**", "score": 0.4321, "match_basis": "verbatim_token+chapter_route:ch04"}, {"md_atom_id": "md_ch04_a348", "md_file": "knowledge_base/chapters/ch04_general_assumptions.md", "md_atom_type": "SENTENCE", "md_parent_section": "§4.2.8.1 [Multiple Values for an Intervention or Event Topic Variable]", "md_verbatim": "If multiple values are reported for an intervention or event topic variable (e.g., --TRT in an Interventions general observation-class dataset or --TERM in an Events general observation-class dataset), it is expected that the sponsor will split the values into multiple records or otherwise resolve the multiplicity per the sponsor's data management standard operating procedures.", "score": 0.4225, "match_basis": "verbatim_token+chapter_route:ch04"}, {"md_atom_id": "md_ch04_a988", "md_file": "knowledge_base/chapters/ch04_general_assumptions.md", "md_atom_type": "SENTENCE", "md_parent_section": "§4.5.7 [Presence or Absence of Prespecified Interventions and Events]", "md_verbatim": "Interventions (e.g., concomitant medications) and events (e.g., medical history) can generally be collected in 2 different ways, by recording either verbatim free text or the responses to a prespecified list of treatments or terms.", "score": 0.4221, "match_basis": "verbatim_token+chapter_route:ch04"}, {"md_atom_id": "md_ch04_a635", "md_file": "knowledge_base/chapters/ch04_general_assumptions.md", "md_atom_type": "SENTENCE", "md_parent_section": "§4.4.7 [Use of Relative Timing Variables]", "md_verbatim": "As an example, a CRF checkbox that identifies concomitant medication use that began prior to the study reference period would translate into CMSTRF = \"BEFORE\", if selected.", "score": 0.42, "match_basis": "verbatim_token+chapter_route:ch04"}], "candidate_count": 5, "zero_candidate": false}
{"pdf_atom_id": "ig34_p0034_a017", "pdf_atom_type": "SENTENCE", "pdf_source": "SDTMIG_v3.4", "pdf_page": 34, "pdf_parent_section": "§4.2.8.1 Multiple Values for an Intervention or Event Topic Variable", "pdf_verbatim": "By the time of submission, datasets should be in conformance with the record structures described in the SDTMIG.", "figure_ref": null, "candidates": [{"md_atom_id": "md_ch04_a350", "md_file": "knowledge_base/chapters/ch04_general_assumptions.md", "md_atom_type": "SENTENCE", "md_parent_section": "§4.2.8.1 [Multiple Values for an Intervention or Event Topic Variable]", "md_verbatim": "By the time of submission, datasets should be in conformance with the record structures described in the SDTMIG.", "score": 0.9, "match_basis": "verbatim_token+chapter_route:ch04"}, {"md_atom_id": "md_ch04_a272", "md_file": "knowledge_base/chapters/ch04_general_assumptions.md", "md_atom_type": "SENTENCE", "md_parent_section": "§4.2.7.1 [\"Specify\" Values for Non-Result Qualifier Variables]", "md_verbatim": "The free-text description should be stored in the SUPPEX dataset.", "score": 0.4268, "match_basis": "verbatim_token+chapter_route:ch04"}, {"md_atom_id": "md_ch04_a353", "md_file": "knowledge_base/chapters/ch04_general_assumptions.md", "md_atom_type": "SENTENCE", "md_parent_section": "§4.2.8.2 [Multiple Values for a Findings Result Variable]", "md_verbatim": "If multiple result values (--ORRES) are reported for a test in a Findings class dataset, multiple records should be submitted for that --TESTCD.", "score": 0.4137, "match_basis": "verbatim_token+chapter_route:ch04"}, {"md_atom_id": "md_ch04_a223", "md_file": "knowledge_base/chapters/ch04_general_assumptions.md", "md_atom_type": "SENTENCE", "md_parent_section": "§4.2.6 [Grouping Variables and Categorization]", "md_verbatim": "All records with the same USUBJID value are a group of records that describe that subject.", "score": 0.412, "match_basis": "verbatim_token+chapter_route:ch04"}, {"md_atom_id": "md_ch04_a703", "md_file": "knowledge_base/chapters/ch04_general_assumptions.md", "md_atom_type": "SENTENCE", "md_parent_section": "§4.4.9 [Use of Dates as Result Variables]", "md_verbatim": "Remember, in most cases, these dates should be timing variables associated with a record in an Intervention or Events dataset.", "score": 0.4113, "match_basis": "verbatim_token+chapter_route:ch04"}], "candidate_count": 5, "zero_candidate": false}
{"pdf_atom_id": "ig34_p0034_a018", "pdf_atom_type": "NOTE", "pdf_source": "SDTMIG_v3.4", "pdf_page": 34, "pdf_parent_section": "§4.2.8.1 Multiple Values for an Intervention or Event Topic Variable", "pdf_verbatim": "Note: The Disposition (DS) dataset is an exception to the general rule of splitting multiple topic values into separate records.", "figure_ref": null, "candidates": [{"md_atom_id": "md_ch04_a351", "md_file": "knowledge_base/chapters/ch04_general_assumptions.md", "md_atom_type": "NOTE", "md_parent_section": "§4.2.8.1 [Multiple Values for an Intervention or Event Topic Variable]", "md_verbatim": "**Note:** The Disposition (DS) dataset is an exception to the general rule of splitting multiple topic values into separate records. For DS, 1 record for each disposition or protocol milestone is permitted according to the domain structure. For cases of multiple reasons for discontinuation see Section 6.2.4, Disposition, assumption 5 for additional information.", "score": 0.5776, "match_basis": "verbatim_token+chapter_route:ch04"}, {"md_atom_id": "md_ch04_a235", "md_file": "knowledge_base/chapters/ch04_general_assumptions.md", "md_atom_type": "NOTE", "md_parent_section": "§4.2.6 [Grouping Variables and Categorization]", "md_verbatim": "**Within subjects (records with the same USUBJID values):**", "score": 0.3779, "match_basis": "verbatim_token+chapter_route:ch04"}, {"md_atom_id": "md_ch04_a068", "md_file": "knowledge_base/chapters/ch04_general_assumptions.md", "md_atom_type": "NOTE", "md_parent_section": "§4.1.7 [Splitting Domains]", "md_verbatim": "> **Note:** Submission of split SDTM domains may be subject to additional dataset-splitting conventions as defined by regulators via technical specifications and/or as negotiated with regulatory reviewers.", "score": 0.3771, "match_basis": "verbatim_token+chapter_route:ch04"}, {"md_atom_id": "md_ch04_a348", "md_file": "knowledge_base/chapters/ch04_general_assumptions.md", "md_atom_type": "SENTENCE", "md_parent_section": "§4.2.8.1 [Multiple Values for an Intervention or Event Topic Variable]", "md_verbatim": "If multiple values are reported for an intervention or event topic variable (e.g., --TRT in an Interventions general observation-class dataset or --TERM in an Events general observation-class dataset), it is expected that the sponsor will split the values into multiple records or otherwise resolve the multiplicity per the sponsor's data management standard operating procedures.", "score": 0.3744, "match_basis": "verbatim_token+chapter_route:ch04"}, {"md_atom_id": "md_ch04_a405", "md_file": "knowledge_base/chapters/ch04_general_assumptions.md", "md_atom_type": "SENTENCE", "md_parent_section": "§4.2.8.4 [Multiple Values for a Parameter]", "md_verbatim": "When a parameter can have multiple values, the key structure for the dataset must be adequate to distinguish between the multiple records.", "score": 0.3736, "match_basis": "verbatim_token+chapter_route:ch04"}], "candidate_count": 5, "zero_candidate": false}
{"pdf_atom_id": "ig34_p0034_a019", "pdf_atom_type": "SENTENCE", "pdf_source": "SDTMIG_v3.4", "pdf_page": 34, "pdf_parent_section": "§4.2.8.1 Multiple Values for an Intervention or Event Topic Variable", "pdf_verbatim": "For DS, 1 record for each disposition or protocol milestone is permitted according to the domain structure.", "figure_ref": null, "candidates": [{"md_atom_id": "md_ch04_a351", "md_file": "knowledge_base/chapters/ch04_general_assumptions.md", "md_atom_type": "NOTE", "md_parent_section": "§4.2.8.1 [Multiple Values for an Intervention or Event Topic Variable]", "md_verbatim": "**Note:** The Disposition (DS) dataset is an exception to the general rule of splitting multiple topic values into separate records. For DS, 1 record for each disposition or protocol milestone is permitted according to the domain structure. For cases of multiple reasons for discontinuation see Section 6.2.4, Disposition, assumption 5 for additional information.", "score": 0.4473, "match_basis": "verbatim_token+chapter_route:ch04"}, {"md_atom_id": "md_ch04_a146", "md_file": "knowledge_base/chapters/ch04_general_assumptions.md", "md_atom_type": "SENTENCE", "md_parent_section": "§4.1.9 [Assigning Natural Keys in the Metadata]", "md_verbatim": "The important concept here is that a domain is not limited by physical structure.", "score": 0.4063, "match_basis": "verbatim_token+chapter_route:ch04"}, {"md_atom_id": "md_ch04_a360", "md_file": "knowledge_base/chapters/ch04_general_assumptions.md", "md_atom_type": "SENTENCE", "md_parent_section": "§4.2.8.3 [Multiple Values for a Non-result Qualifier Variable]", "md_verbatim": "The SDTM permits 1 value for each qualifier variable per record.", "score": 0.4, "match_basis": "verbatim_token+chapter_route:ch04"}, {"md_atom_id": "md_ch04_a811", "md_file": "knowledge_base/chapters/ch04_general_assumptions.md", "md_atom_type": "SENTENCE", "md_parent_section": "§4.4.11 [Disease Milestones and Disease Milestone Timing Variables]", "md_verbatim": "If disease milestones were not defined for the study, it would be possible to link records associated with a disease milestone using RELREC, but the use of disease milestones has certain advantages over RELREC:", "score": 0.3973, "match_basis": "verbatim_token+chapter_route:ch04"}, {"md_atom_id": "md_ch04_a1013", "md_file": "knowledge_base/chapters/ch04_general_assumptions.md", "md_atom_type": "SENTENCE", "md_parent_section": "§4.5.8 [Accounting for Long-term Follow-up]", "md_verbatim": "Overall study conclusion in the Disposition (DS) domain occurs once all contact with the subject ceases.", "score": 0.3955, "match_basis": "verbatim_token+chapter_route:ch04"}], "candidate_count": 5, "zero_candidate": false}
{"pdf_atom_id": "ig34_p0034_a020", "pdf_atom_type": "SENTENCE", "pdf_source": "SDTMIG_v3.4", "pdf_page": 34, "pdf_parent_section": "§4.2.8.1 Multiple Values for an Intervention or Event Topic Variable", "pdf_verbatim": "For cases of multiple reasons for discontinuation see Section 6.2.4, Disposition, assumption 5 for additional information.", "figure_ref": null, "candidates": [{"md_atom_id": "md_ch04_a351", "md_file": "knowledge_base/chapters/ch04_general_assumptions.md", "md_atom_type": "NOTE", "md_parent_section": "§4.2.8.1 [Multiple Values for an Intervention or Event Topic Variable]", "md_verbatim": "**Note:** The Disposition (DS) dataset is an exception to the general rule of splitting multiple topic values into separate records. For DS, 1 record for each disposition or protocol milestone is permitted according to the domain structure. For cases of multiple reasons for discontinuation see Section 6.2.4, Disposition, assumption 5 for additional information.", "score": 0.4518, "match_basis": "verbatim_token+chapter_route:ch04"}, {"md_atom_id": "md_ch04_a1007", "md_file": "knowledge_base/chapters/ch04_general_assumptions.md", "md_atom_type": "SENTENCE", "md_parent_section": "§4.5.7 [Presence or Absence of Prespecified Interventions and Events]", "md_verbatim": "Refer to the standard domains in the Events and Interventions general observation classes for additional assumptions and examples.", "score": 0.425, "match_basis": "verbatim_token+chapter_route:ch04"}, {"md_atom_id": "md_ch04_a982", "md_file": "knowledge_base/chapters/ch04_general_assumptions.md", "md_atom_type": "SENTENCE", "md_parent_section": "§4.5.6 [Supplemental Reason Variables]", "md_verbatim": "If multiple reasons are reported, refer to Section 4.2.8.3, Multiple Values for a Non-result Qualifier Variable.", "score": 0.42, "match_basis": "verbatim_token+chapter_route:ch04"}, {"md_atom_id": "md_ch04_a674", "md_file": "knowledge_base/chapters/ch04_general_assumptions.md", "md_atom_type": "SENTENCE", "md_parent_section": "§4.4.7 [Use of Relative Timing Variables]", "md_verbatim": "No assessment date or visit information was collected.", "score": 0.4099, "match_basis": "verbatim_token+chapter_route:ch04"}, {"md_atom_id": "md_ch04_a267", "md_file": "knowledge_base/chapters/ch04_general_assumptions.md", "md_atom_type": "SENTENCE", "md_parent_section": "§4.2.7.1 [\"Specify\" Values for Non-Result Qualifier Variables]", "md_verbatim": "Another example is a CRF that collects reason for dose adjustment with additional free-text description:", "score": 0.4032, "match_basis": "verbatim_token+chapter_route:ch04"}], "candidate_count": 5, "zero_candidate": false}
{"pdf_atom_id": "ig34_p0034_a021", "pdf_atom_type": "HEADING", "pdf_source": "SDTMIG_v3.4", "pdf_page": 34, "pdf_parent_section": "§4.2.8.2 Multiple Values for a Findings Result Variable", "pdf_verbatim": "4.2.8.2  Multiple Values for a Findings Result Variable", "figure_ref": null, "candidates": [{"md_atom_id": "md_ch04_a352", "md_file": "knowledge_base/chapters/ch04_general_assumptions.md", "md_atom_type": "HEADING", "md_parent_section": "§4.2.8 [Multiple Values for a Variable]", "md_verbatim": "#### 4.2.8.2 Multiple Values for a Findings Result Variable", "score": 0.9, "match_basis": "verbatim_token+chapter_route:ch04"}, {"md_atom_id": "md_ch04_a346", "md_file": "knowledge_base/chapters/ch04_general_assumptions.md", "md_atom_type": "HEADING", "md_parent_section": "§4.2 [General Variable Assumptions]", "md_verbatim": "### 4.2.8 Multiple Values for a Variable", "score": 0.6923, "match_basis": "verbatim_token+chapter_route:ch04"}, {"md_atom_id": "md_ch04_a359", "md_file": "knowledge_base/chapters/ch04_general_assumptions.md", "md_atom_type": "HEADING", "md_parent_section": "§4.2.8 [Multiple Values for a Variable]", "md_verbatim": "#### 4.2.8.3 Multiple Values for a Non-result Qualifier Variable", "score": 0.6529, "match_basis": "verbatim_token+chapter_route:ch04"}, {"md_atom_id": "md_ch04_a347", "md_file": "knowledge_base/chapters/ch04_general_assumptions.md", "md_atom_type": "HEADING", "md_parent_section": "§4.2.8 [Multiple Values for a Variable]", "md_verbatim": "#### 4.2.8.1 Multiple Values for an Intervention or Event Topic Variable", "score": 0.555, "match_basis": "verbatim_token+chapter_route:ch04"}, {"md_atom_id": "md_ch04_a296", "md_file": "knowledge_base/chapters/ch04_general_assumptions.md", "md_atom_type": "HEADING", "md_parent_section": "§4.2.7 [Submitting Free Text from the CRF]", "md_verbatim": "#### 4.2.7.2 \"Specify\" Values for Result Qualifier Variables", "score": 0.5308, "match_basis": "verbatim_token+chapter_route:ch04"}], "candidate_count": 5, "zero_candidate": false}
{"pdf_atom_id": "ig34_p0034_a022", "pdf_atom_type": "SENTENCE", "pdf_source": "SDTMIG_v3.4", "pdf_page": 34, "pdf_parent_section": "§4.2.8.2 Multiple Values for a Findings Result Variable", "pdf_verbatim": "If multiple result values (--ORRES) are reported for a test in a Findings class dataset, multiple records should be submitted for that --TESTCD.", "figure_ref": null, "candidates": [{"md_atom_id": "md_ch04_a353", "md_file": "knowledge_base/chapters/ch04_general_assumptions.md", "md_atom_type": "SENTENCE", "md_parent_section": "§4.2.8.2 [Multiple Values for a Findings Result Variable]", "md_verbatim": "If multiple result values (--ORRES) are reported for a test in a Findings class dataset, multiple records should be submitted for that --TESTCD.", "score": 0.9, "match_basis": "verbatim_token+chapter_route:ch04"}, {"md_atom_id": "md_ch04_a401", "md_file": "knowledge_base/chapters/ch04_general_assumptions.md", "md_atom_type": "SENTENCE", "md_parent_section": "§4.2.8.4 [Multiple Values for a Parameter]", "md_verbatim": "If multiple values (--VAL) are reported for a parameter in a Trial Design or Study Reference dataset (e.g., TS, OI), multiple records should be submitted for that --PARMCD.", "score": 0.5824, "match_basis": "verbatim_token+chapter_route:ch04"}, {"md_atom_id": "md_ch04_a982", "md_file": "knowledge_base/chapters/ch04_general_assumptions.md", "md_atom_type": "SENTENCE", "md_parent_section": "§4.5.6 [Supplemental Reason Variables]", "md_verbatim": "If multiple reasons are reported, refer to Section 4.2.8.3, Multiple Values for a Non-result Qualifier Variable.", "score": 0.4482, "match_basis": "verbatim_token+chapter_route:ch04"}, {"md_atom_id": "md_ch04_a431", "md_file": "knowledge_base/chapters/ch04_general_assumptions.md", "md_atom_type": "SENTENCE", "md_parent_section": "§4.3.3 [Controlled Terminology Values]", "md_verbatim": "All values in the permissible value set for the study should be included, whether or not they are represented in submitted data.", "score": 0.4467, "match_basis": "verbatim_token+chapter_route:ch04"}, {"md_atom_id": "md_ch04_a133", "md_file": "knowledge_base/chapters/ch04_general_assumptions.md", "md_atom_type": "SENTENCE", "md_parent_section": "§4.1.8.2 [Origin Metadata for Records]", "md_verbatim": "For example, some records in a Findings dataset such as Questionnaires (QS) contain values collected from the CRF; other records may contain derived values, such as a total score.", "score": 0.4456, "match_basis": "verbatim_token+chapter_route:ch04"}], "candidate_count": 5, "zero_candidate": false}
{"pdf_atom_id": "ig34_p0035_a001", "pdf_atom_type": "SENTENCE", "pdf_source": "SDTMIG_v3.4", "pdf_page": 35, "pdf_parent_section": "§4.2.8.2 Multiple Values for a Findings Result Variable", "pdf_verbatim": "For example,", "figure_ref": null, "candidates": [{"md_atom_id": "md_ch04_a320", "md_file": "knowledge_base/chapters/ch04_general_assumptions.md", "md_atom_type": "SENTENCE", "md_parent_section": "§4.2.7.3 [\"Specify\" Values for Topic Variables]", "md_verbatim": "For example:", "score": 0.9, "match_basis": "verbatim_token+chapter_route:ch04"}, {"md_atom_id": "md_ch04_a354", "md_file": "knowledge_base/chapters/ch04_general_assumptions.md", "md_atom_type": "SENTENCE", "md_parent_section": "§4.2.8.2 [Multiple Values for a Findings Result Variable]", "md_verbatim": "For example:", "score": 0.9, "match_basis": "verbatim_token+chapter_route:ch04"}, {"md_atom_id": "md_ch04_a402", "md_file": "knowledge_base/chapters/ch04_general_assumptions.md", "md_atom_type": "SENTENCE", "md_parent_section": "§4.2.8.4 [Multiple Values for a Parameter]", "md_verbatim": "For example:", "score": 0.9, "match_basis": "verbatim_token+chapter_route:ch04"}, {"md_atom_id": "md_ch04_a834", "md_file": "knowledge_base/chapters/ch04_general_assumptions.md", "md_atom_type": "SENTENCE", "md_parent_section": "§4.5.1.3 [Examples of Original and Standard Units and Test Not Done]", "md_verbatim": "**Example 1 (lb.xpt)**", "score": 0.7286, "match_basis": "verbatim_token+chapter_route:ch04"}, {"md_atom_id": "md_ch04_a860", "md_file": "knowledge_base/chapters/ch04_general_assumptions.md", "md_atom_type": "SENTENCE", "md_parent_section": "§4.5.1.3 [Examples of Original and Standard Units and Test Not Done]", "md_verbatim": "**Example 2 (eg.xpt)**", "score": 0.7286, "match_basis": "verbatim_token+chapter_route:ch04"}], "candidate_count": 5, "zero_candidate": false}
{"pdf_atom_id": "ig34_p0035_a002", "pdf_atom_type": "LIST_ITEM", "pdf_source": "SDTMIG_v3.4", "pdf_page": 35, "pdf_parent_section": "§4.2.8.2 Multiple Values for a Findings Result Variable", "pdf_verbatim": "EGTESTCD = \"SPRTARRY\", EGTEST = \"Supraventricular Tachyarrhythmias\", EGORRES = \"ATRIAL FIBRILLATION\"", "figure_ref": null, "candidates": [{"md_atom_id": "md_ch04_a355", "md_file": "knowledge_base/chapters/ch04_general_assumptions.md", "md_atom_type": "LIST_ITEM", "md_parent_section": "§4.2.8.2 [Multiple Values for a Findings Result Variable]", "md_verbatim": "- EGTESTCD = \"SPRTARRY\", EGTEST = \"Supraventricular Tachyarrhythmias\", EGORRES = \"ATRIAL FIBRILLATION\"", "score": 0.9, "match_basis": "verbatim_token+chapter_route:ch04"}, {"md_atom_id": "md_ch04_a356", "md_file": "knowledge_base/chapters/ch04_general_assumptions.md", "md_atom_type": "LIST_ITEM", "md_parent_section": "§4.2.8.2 [Multiple Values for a Findings Result Variable]", "md_verbatim": "- EGTESTCD = \"SPRTARRY\", EGTEST = \"Supraventricular Tachyarrhythmias\", EGORRES = \"ATRIAL FLUTTER\"", "score": 0.7548, "match_basis": "verbatim_token+chapter_route:ch04"}, {"md_atom_id": "md_ch04_a872", "md_file": "knowledge_base/chapters/ch04_general_assumptions.md", "md_atom_type": "TABLE_ROW", "md_parent_section": "§4.5.1.3 [Examples of Original and Standard Units and Test Not Done]", "md_verbatim": "| 4 | SPRTARRY | Supraventricular Tachyarrhythmias | ATRIAL FLUTTER | | ATRIAL FLUTTER | | | | 1 | 2015-03-07 |", "score": 0.4875, "match_basis": "verbatim_token+chapter_route:ch04"}, {"md_atom_id": "md_ch04_a866", "md_file": "knowledge_base/chapters/ch04_general_assumptions.md", "md_atom_type": "LIST_ITEM", "md_parent_section": "§4.5.1.3 [Examples of Original and Standard Units and Test Not Done]", "md_verbatim": "- **Row 6:** The result for EGTESTCD = \"PRAG\" was missing at visit 2, as indicated by EGSTAT = \"NOT DONE\"; neither EGORRES nor EGSTRESC is populated.", "score": 0.3857, "match_basis": "verbatim_token+chapter_route:ch04"}, {"md_atom_id": "md_ch04_a165", "md_file": "knowledge_base/chapters/ch04_general_assumptions.md", "md_atom_type": "LIST_ITEM", "md_parent_section": "§4.1.9 [Assigning Natural Keys in the Metadata]", "md_verbatim": "- It results in the creation of a potentially large number of test codes.", "score": 0.3667, "match_basis": "verbatim_token+chapter_route:ch04"}], "candidate_count": 5, "zero_candidate": false}
{"pdf_atom_id": "ig34_p0035_a003", "pdf_atom_type": "CODE_LITERAL", "pdf_source": "SDTMIG_v3.4", "pdf_page": 35, "pdf_parent_section": "§4.2.8.2 Multiple Values for a Findings Result Variable", "pdf_verbatim": "EGTESTCD = \"SPRTARRY\", EGTEST = \"Supraventricular Tachyarrhythmias\", EGORRES = \"ATRIAL FIBRILLATION\"", "figure_ref": null, "candidates": [{"md_atom_id": "md_ch04_a355", "md_file": "knowledge_base/chapters/ch04_general_assumptions.md", "md_atom_type": "LIST_ITEM", "md_parent_section": "§4.2.8.2 [Multiple Values for a Findings Result Variable]", "md_verbatim": "- EGTESTCD = \"SPRTARRY\", EGTEST = \"Supraventricular Tachyarrhythmias\", EGORRES = \"ATRIAL FIBRILLATION\"", "score": 0.69, "match_basis": "verbatim_token+chapter_route:ch04"}, {"md_atom_id": "md_ch04_a356", "md_file": "knowledge_base/chapters/ch04_general_assumptions.md", "md_atom_type": "LIST_ITEM", "md_parent_section": "§4.2.8.2 [Multiple Values for a Findings Result Variable]", "md_verbatim": "- EGTESTCD = \"SPRTARRY\", EGTEST = \"Supraventricular Tachyarrhythmias\", EGORRES = \"ATRIAL FLUTTER\"", "score": 0.5448, "match_basis": "verbatim_token+chapter_route:ch04"}, {"md_atom_id": "md_ch04_a872", "md_file": "knowledge_base/chapters/ch04_general_assumptions.md", "md_atom_type": "TABLE_ROW", "md_parent_section": "§4.5.1.3 [Examples of Original and Standard Units and Test Not Done]", "md_verbatim": "| 4 | SPRTARRY | Supraventricular Tachyarrhythmias | ATRIAL FLUTTER | | ATRIAL FLUTTER | | | | 1 | 2015-03-07 |", "score": 0.4275, "match_basis": "verbatim_token+chapter_route:ch04"}, {"md_atom_id": "md_ch04_a970", "md_file": "knowledge_base/chapters/ch04_general_assumptions.md", "md_atom_type": "SENTENCE", "md_parent_section": "§4.5.5 [Clinical Significance for Findings Observation Class Data]", "md_verbatim": "For example, EGCLSIG = \"Y\" indicates that an ECG result of \"ATRIAL FIBRILLATION\" was clinically significant.", "score": 0.1911, "match_basis": "verbatim_token+chapter_route:ch04"}, {"md_atom_id": "md_ch04_a868", "md_file": "knowledge_base/chapters/ch04_general_assumptions.md", "md_atom_type": "TABLE_HEADER", "md_parent_section": "§4.5.1.3 [Examples of Original and Standard Units and Test Not Done]", "md_verbatim": "| Row | EGTESTCD | EGTEST | EGORRES | EGORRESU | EGSTRESC | EGSTRESN | EGSTRESU | EGSTAT | VISITNUM | EGDTC |\n|-----|----------|--------|---------|----------|----------|----------|----------|--------|----------|-------|", "score": 0.1768, "match_basis": "verbatim_token+chapter_route:ch04"}], "candidate_count": 5, "zero_candidate": false}
{"pdf_atom_id": "ig34_p0035_a004", "pdf_atom_type": "LIST_ITEM", "pdf_source": "SDTMIG_v3.4", "pdf_page": 35, "pdf_parent_section": "§4.2.8.2 Multiple Values for a Findings Result Variable", "pdf_verbatim": "EGTESTCD = \"SPRTARRY\", EGTEST = \"Supraventricular Tachyarrhythmias\", EGORRES = \"ATRIAL FLUTTER\"", "figure_ref": null, "candidates": [{"md_atom_id": "md_ch04_a356", "md_file": "knowledge_base/chapters/ch04_general_assumptions.md", "md_atom_type": "LIST_ITEM", "md_parent_section": "§4.2.8.2 [Multiple Values for a Findings Result Variable]", "md_verbatim": "- EGTESTCD = \"SPRTARRY\", EGTEST = \"Supraventricular Tachyarrhythmias\", EGORRES = \"ATRIAL FLUTTER\"", "score": 0.9, "match_basis": "verbatim_token+chapter_route:ch04"}, {"md_atom_id": "md_ch04_a355", "md_file": "knowledge_base/chapters/ch04_general_assumptions.md", "md_atom_type": "LIST_ITEM", "md_parent_section": "§4.2.8.2 [Multiple Values for a Findings Result Variable]", "md_verbatim": "- EGTESTCD = \"SPRTARRY\", EGTEST = \"Supraventricular Tachyarrhythmias\", EGORRES = \"ATRIAL FIBRILLATION\"", "score": 0.7548, "match_basis": "verbatim_token+chapter_route:ch04"}, {"md_atom_id": "md_ch04_a872", "md_file": "knowledge_base/chapters/ch04_general_assumptions.md", "md_atom_type": "TABLE_ROW", "md_parent_section": "§4.5.1.3 [Examples of Original and Standard Units and Test Not Done]", "md_verbatim": "| 4 | SPRTARRY | Supraventricular Tachyarrhythmias | ATRIAL FLUTTER | | ATRIAL FLUTTER | | | | 1 | 2015-03-07 |", "score": 0.6056, "match_basis": "verbatim_token+chapter_route:ch04"}, {"md_atom_id": "md_ch04_a866", "md_file": "knowledge_base/chapters/ch04_general_assumptions.md", "md_atom_type": "LIST_ITEM", "md_parent_section": "§4.5.1.3 [Examples of Original and Standard Units and Test Not Done]", "md_verbatim": "- **Row 6:** The result for EGTESTCD = \"PRAG\" was missing at visit 2, as indicated by EGSTAT = \"NOT DONE\"; neither EGORRES nor EGSTRESC is populated.", "score": 0.383, "match_basis": "verbatim_token+chapter_route:ch04"}, {"md_atom_id": "md_ch04_a879", "md_file": "knowledge_base/chapters/ch04_general_assumptions.md", "md_atom_type": "LIST_ITEM", "md_parent_section": "§4.5.1.3 [Examples of Original and Standard Units and Test Not Done]", "md_verbatim": "- **Row 3:** A result for VSTESTCD = \"HR\" is missing, as indicated by VSSTAT = \"NOT DONE\"; neither VSORRES nor VSSTRESC is populated.", "score": 0.3516, "match_basis": "verbatim_token+chapter_route:ch04"}], "candidate_count": 5, "zero_candidate": false}
{"pdf_atom_id": "ig34_p0035_a005", "pdf_atom_type": "CODE_LITERAL", "pdf_source": "SDTMIG_v3.4", "pdf_page": 35, "pdf_parent_section": "§4.2.8.2 Multiple Values for a Findings Result Variable", "pdf_verbatim": "EGTESTCD = \"SPRTARRY\", EGTEST = \"Supraventricular Tachyarrhythmias\", EGORRES = \"ATRIAL FLUTTER\"", "figure_ref": null, "candidates": [{"md_atom_id": "md_ch04_a356", "md_file": "knowledge_base/chapters/ch04_general_assumptions.md", "md_atom_type": "LIST_ITEM", "md_parent_section": "§4.2.8.2 [Multiple Values for a Findings Result Variable]", "md_verbatim": "- EGTESTCD = \"SPRTARRY\", EGTEST = \"Supraventricular Tachyarrhythmias\", EGORRES = \"ATRIAL FLUTTER\"", "score": 0.69, "match_basis": "verbatim_token+chapter_route:ch04"}, {"md_atom_id": "md_ch04_a872", "md_file": "knowledge_base/chapters/ch04_general_assumptions.md", "md_atom_type": "TABLE_ROW", "md_parent_section": "§4.5.1.3 [Examples of Original and Standard Units and Test Not Done]", "md_verbatim": "| 4 | SPRTARRY | Supraventricular Tachyarrhythmias | ATRIAL FLUTTER | | ATRIAL FLUTTER | | | | 1 | 2015-03-07 |", "score": 0.5456, "match_basis": "verbatim_token+chapter_route:ch04"}, {"md_atom_id": "md_ch04_a355", "md_file": "knowledge_base/chapters/ch04_general_assumptions.md", "md_atom_type": "LIST_ITEM", "md_parent_section": "§4.2.8.2 [Multiple Values for a Findings Result Variable]", "md_verbatim": "- EGTESTCD = \"SPRTARRY\", EGTEST = \"Supraventricular Tachyarrhythmias\", EGORRES = \"ATRIAL FIBRILLATION\"", "score": 0.5448, "match_basis": "verbatim_token+chapter_route:ch04"}, {"md_atom_id": "md_ch04_a868", "md_file": "knowledge_base/chapters/ch04_general_assumptions.md", "md_atom_type": "TABLE_HEADER", "md_parent_section": "§4.5.1.3 [Examples of Original and Standard Units and Test Not Done]", "md_verbatim": "| Row | EGTESTCD | EGTEST | EGORRES | EGORRESU | EGSTRESC | EGSTRESN | EGSTRESU | EGSTAT | VISITNUM | EGDTC |\n|-----|----------|--------|---------|----------|----------|----------|----------|--------|----------|-------|", "score": 0.183, "match_basis": "verbatim_token+chapter_route:ch04"}, {"md_atom_id": "md_ch04_a866", "md_file": "knowledge_base/chapters/ch04_general_assumptions.md", "md_atom_type": "LIST_ITEM", "md_parent_section": "§4.5.1.3 [Examples of Original and Standard Units and Test Not Done]", "md_verbatim": "- **Row 6:** The result for EGTESTCD = \"PRAG\" was missing at visit 2, as indicated by EGSTAT = \"NOT DONE\"; neither EGORRES nor EGSTRESC is populated.", "score": 0.173, "match_basis": "verbatim_token+chapter_route:ch04"}], "candidate_count": 5, "zero_candidate": false}
{"pdf_atom_id": "ig34_p0035_a006", "pdf_atom_type": "SENTENCE", "pdf_source": "SDTMIG_v3.4", "pdf_page": 35, "pdf_parent_section": "§4.2.8.2 Multiple Values for a Findings Result Variable", "pdf_verbatim": "When a finding can have multiple results, the key structure for the findings dataset must be adequate to distinguish between the multiple results.", "figure_ref": null, "candidates": [{"md_atom_id": "md_ch04_a357", "md_file": "knowledge_base/chapters/ch04_general_assumptions.md", "md_atom_type": "SENTENCE", "md_parent_section": "§4.2.8.2 [Multiple Values for a Findings Result Variable]", "md_verbatim": "When a finding can have multiple results, the key structure for the findings dataset must be adequate to distinguish between the multiple results.", "score": 0.9, "match_basis": "verbatim_token+chapter_route:ch04"}, {"md_atom_id": "md_ch04_a405", "md_file": "knowledge_base/chapters/ch04_general_assumptions.md", "md_atom_type": "SENTENCE", "md_parent_section": "§4.2.8.4 [Multiple Values for a Parameter]", "md_verbatim": "When a parameter can have multiple values, the key structure for the dataset must be adequate to distinguish between the multiple records.", "score": 0.6945, "match_basis": "verbatim_token+chapter_route:ch04"}, {"md_atom_id": "md_ch04_a353", "md_file": "knowledge_base/chapters/ch04_general_assumptions.md", "md_atom_type": "SENTENCE", "md_parent_section": "§4.2.8.2 [Multiple Values for a Findings Result Variable]", "md_verbatim": "If multiple result values (--ORRES) are reported for a test in a Findings class dataset, multiple records should be submitted for that --TESTCD.", "score": 0.434, "match_basis": "verbatim_token+chapter_route:ch04"}, {"md_atom_id": "md_ch04_a702", "md_file": "knowledge_base/chapters/ch04_general_assumptions.md", "md_atom_type": "SENTENCE", "md_parent_section": "§4.4.9 [Use of Dates as Result Variables]", "md_verbatim": "Again, use extreme caution when storing dates as the results of findings.", "score": 0.4263, "match_basis": "verbatim_token+chapter_route:ch04"}, {"md_atom_id": "md_ch04_a478", "md_file": "knowledge_base/chapters/ch04_general_assumptions.md", "md_atom_type": "SENTENCE", "md_parent_section": "§4.4 [Actual and Relative Time Assumptions]", "md_verbatim": "In the Findings observation class, where data are usually collected at multiple visits, at least 1 timing variable must be used.", "score": 0.4059, "match_basis": "verbatim_token+chapter_route:ch04"}], "candidate_count": 5, "zero_candidate": false}
{"pdf_atom_id": "ig34_p0035_a007", "pdf_atom_type": "CROSS_REF", "pdf_source": "SDTMIG_v3.4", "pdf_page": 35, "pdf_parent_section": "§4.2.8.2 Multiple Values for a Findings Result Variable", "pdf_verbatim": "See Section 4.1.9, Assigning Natural Keys in the Metadata.", "figure_ref": null, "candidates": [{"md_atom_id": "md_ch04_a358", "md_file": "knowledge_base/chapters/ch04_general_assumptions.md", "md_atom_type": "SENTENCE", "md_parent_section": "§4.2.8.2 [Multiple Values for a Findings Result Variable]", "md_verbatim": "See Section 4.1.9, Assigning Natural Keys in the Metadata.", "score": 0.69, "match_basis": "verbatim_token+chapter_route:ch04"}, {"md_atom_id": "md_ch04_a406", "md_file": "knowledge_base/chapters/ch04_general_assumptions.md", "md_atom_type": "SENTENCE", "md_parent_section": "§4.2.8.4 [Multiple Values for a Parameter]", "md_verbatim": "See Section 4.1.9, Assigning Natural Keys in the Metadata.", "score": 0.69, "match_basis": "verbatim_token+chapter_route:ch04"}, {"md_atom_id": "md_ch04_a135", "md_file": "knowledge_base/chapters/ch04_general_assumptions.md", "md_atom_type": "HEADING", "md_parent_section": "§4.1.9 [Assigning Natural Keys in the Metadata]", "md_verbatim": "### 4.1.9 Assigning Natural Keys in the Metadata", "score": 0.5567, "match_basis": "verbatim_token+chapter_route:ch04"}, {"md_atom_id": "md_ch04_a428", "md_file": "knowledge_base/chapters/ch04_general_assumptions.md", "md_atom_type": "SENTENCE", "md_parent_section": "§4.3.2 [Controlled Terminology Text Case]", "md_verbatim": "See Section 4.2.4, Text Case in Submitted Data.", "score": 0.2163, "match_basis": "verbatim_token+chapter_route:ch04"}, {"md_atom_id": "md_ch04_a136", "md_file": "knowledge_base/chapters/ch04_general_assumptions.md", "md_atom_type": "SENTENCE", "md_parent_section": "§4.1.9 [Assigning Natural Keys in the Metadata]", "md_verbatim": "Section 3.2, Using the CDISC Domain Models in Regulatory Submissions — Dataset Metadata, indicates that a sponsor should include in the metadata the variables that contribute to the natural key for a domain.", "score": 0.215, "match_basis": "verbatim_token+chapter_route:ch04"}], "candidate_count": 5, "zero_candidate": false}
{"pdf_atom_id": "ig34_p0035_a008", "pdf_atom_type": "HEADING", "pdf_source": "SDTMIG_v3.4", "pdf_page": 35, "pdf_parent_section": "§4.2.8.3 Multiple Values for a Non-result Qualifier Variable", "pdf_verbatim": "4.2.8.3  Multiple Values for a Non-result Qualifier Variable", "figure_ref": null, "candidates": [{"md_atom_id": "md_ch04_a359", "md_file": "knowledge_base/chapters/ch04_general_assumptions.md", "md_atom_type": "HEADING", "md_parent_section": "§4.2.8 [Multiple Values for a Variable]", "md_verbatim": "#### 4.2.8.3 Multiple Values for a Non-result Qualifier Variable", "score": 0.9, "match_basis": "verbatim_token+chapter_route:ch04"}, {"md_atom_id": "md_ch04_a261", "md_file": "knowledge_base/chapters/ch04_general_assumptions.md", "md_atom_type": "HEADING", "md_parent_section": "§4.2.7 [Submitting Free Text from the CRF]", "md_verbatim": "#### 4.2.7.1 \"Specify\" Values for Non-Result Qualifier Variables", "score": 0.7059, "match_basis": "verbatim_token+chapter_route:ch04"}, {"md_atom_id": "md_ch04_a296", "md_file": "knowledge_base/chapters/ch04_general_assumptions.md", "md_atom_type": "HEADING", "md_parent_section": "§4.2.7 [Submitting Free Text from the CRF]", "md_verbatim": "#### 4.2.7.2 \"Specify\" Values for Result Qualifier Variables", "score": 0.6882, "match_basis": "verbatim_token+chapter_route:ch04"}, {"md_atom_id": "md_ch04_a346", "md_file": "knowledge_base/chapters/ch04_general_assumptions.md", "md_atom_type": "HEADING", "md_parent_section": "§4.2 [General Variable Assumptions]", "md_verbatim": "### 4.2.8 Multiple Values for a Variable", "score": 0.6643, "match_basis": "verbatim_token+chapter_route:ch04"}, {"md_atom_id": "md_ch04_a352", "md_file": "knowledge_base/chapters/ch04_general_assumptions.md", "md_atom_type": "HEADING", "md_parent_section": "§4.2.8 [Multiple Values for a Variable]", "md_verbatim": "#### 4.2.8.2 Multiple Values for a Findings Result Variable", "score": 0.6529, "match_basis": "verbatim_token+chapter_route:ch04"}], "candidate_count": 5, "zero_candidate": false}
{"pdf_atom_id": "ig34_p0035_a009", "pdf_atom_type": "SENTENCE", "pdf_source": "SDTMIG_v3.4", "pdf_page": 35, "pdf_parent_section": "§4.2.8.3 Multiple Values for a Non-result Qualifier Variable", "pdf_verbatim": "The SDTM permits 1 value for each qualifier variable per record.", "figure_ref": null, "candidates": [{"md_atom_id": "md_ch04_a360", "md_file": "knowledge_base/chapters/ch04_general_assumptions.md", "md_atom_type": "SENTENCE", "md_parent_section": "§4.2.8.3 [Multiple Values for a Non-result Qualifier Variable]", "md_verbatim": "The SDTM permits 1 value for each qualifier variable per record.", "score": 0.9, "match_basis": "verbatim_token+chapter_route:ch04"}, {"md_atom_id": "md_ch04_a982", "md_file": "knowledge_base/chapters/ch04_general_assumptions.md", "md_atom_type": "SENTENCE", "md_parent_section": "§4.5.6 [Supplemental Reason Variables]", "md_verbatim": "If multiple reasons are reported, refer to Section 4.2.8.3, Multiple Values for a Non-result Qualifier Variable.", "score": 0.4645, "match_basis": "verbatim_token+chapter_route:ch04"}, {"md_atom_id": "md_ch04_a996", "md_file": "knowledge_base/chapters/ch04_general_assumptions.md", "md_atom_type": "SENTENCE", "md_parent_section": "§4.5.7 [Presence or Absence of Prespecified Interventions and Events]", "md_verbatim": "It is a permissible variable and may be omitted from the dataset if no topic-variable values were prespecified.", "score": 0.4524, "match_basis": "verbatim_token+chapter_route:ch04"}, {"md_atom_id": "md_ch04_a1032", "md_file": "knowledge_base/chapters/ch04_general_assumptions.md", "md_atom_type": "SENTENCE", "md_parent_section": "§4.5.9 [Baseline Values]", "md_verbatim": "In domains where --BLFL was permissible, the variable --LOBXFL was added with a core value of permissible.", "score": 0.4474, "match_basis": "verbatim_token+chapter_route:ch04"}, {"md_atom_id": "md_ch04_a956", "md_file": "knowledge_base/chapters/ch04_general_assumptions.md", "md_atom_type": "SENTENCE", "md_parent_section": "§4.5.4 [Evaluators in the Interventions and Events Observation Classes]", "md_verbatim": "Within each SUPP-- record, the value for QNAM should be formed by appending a \"1\" to the corresponding standard domain variable name.", "score": 0.4437, "match_basis": "verbatim_token+chapter_route:ch04"}], "candidate_count": 5, "zero_candidate": false}
{"pdf_atom_id": "ig34_p0035_a010", "pdf_atom_type": "SENTENCE", "pdf_source": "SDTMIG_v3.4", "pdf_page": 35, "pdf_parent_section": "§4.2.8.3 Multiple Values for a Non-result Qualifier Variable", "pdf_verbatim": "If multiple values exist (e.g., due to a \"Check all that apply\" instruction on a CRF), then the value for the qualifier variable should be \"MULTIPLE\" and SUPP-- should be used to store the individual responses.", "figure_ref": null, "candidates": [{"md_atom_id": "md_ch04_a361", "md_file": "knowledge_base/chapters/ch04_general_assumptions.md", "md_atom_type": "SENTENCE", "md_parent_section": "§4.2.8.3 [Multiple Values for a Non-result Qualifier Variable]", "md_verbatim": "If multiple values exist (e.g., due to a \"Check all that apply\" instruction on a CRF), then the value for the qualifier variable should be \"MULTIPLE\" and SUPP-- should be used to store the individual responses.", "score": 0.9, "match_basis": "verbatim_token+chapter_route:ch04"}, {"md_atom_id": "md_ch04_a982", "md_file": "knowledge_base/chapters/ch04_general_assumptions.md", "md_atom_type": "SENTENCE", "md_parent_section": "§4.5.6 [Supplemental Reason Variables]", "md_verbatim": "If multiple reasons are reported, refer to Section 4.2.8.3, Multiple Values for a Non-result Qualifier Variable.", "score": 0.4851, "match_basis": "verbatim_token+chapter_route:ch04"}, {"md_atom_id": "md_ch04_a955", "md_file": "knowledge_base/chapters/ch04_general_assumptions.md", "md_atom_type": "SENTENCE", "md_parent_section": "§4.5.4 [Evaluators in the Interventions and Events Observation Classes]", "md_verbatim": "For observations that have primary and secondary evaluations of specific qualifier variables, sponsors should put data from the primary evaluation into the standard domain dataset and data from the secondary evaluation into the Supplemental Qualifier datasets (SUPP--).", "score": 0.4511, "match_basis": "verbatim_token+chapter_route:ch04"}, {"md_atom_id": "md_ch04_a262", "md_file": "knowledge_base/chapters/ch04_general_assumptions.md", "md_atom_type": "SENTENCE", "md_parent_section": "§4.2.7.1 [\"Specify\" Values for Non-Result Qualifier Variables]", "md_verbatim": "When free-text information is collected to supplement a standard non-result qualifier field, the free-text value should be placed in the SUPP-- dataset described in Section 8.4, Relating Non-standard Variable Values to a Parent Domain.", "score": 0.45, "match_basis": "verbatim_token+chapter_route:ch04"}, {"md_atom_id": "md_ch04_a992", "md_file": "knowledge_base/chapters/ch04_general_assumptions.md", "md_atom_type": "SENTENCE", "md_parent_section": "§4.5.7 [Presence or Absence of Prespecified Interventions and Events]", "md_verbatim": "It is a permissible variable, and should only be used when the topic variable values come from a prespecified list.", "score": 0.444, "match_basis": "verbatim_token+chapter_route:ch04"}], "candidate_count": 5, "zero_candidate": false}
{"pdf_atom_id": "ig34_p0035_a011", "pdf_atom_type": "SENTENCE", "pdf_source": "SDTMIG_v3.4", "pdf_page": 35, "pdf_parent_section": "§4.2.8.3 Multiple Values for a Non-result Qualifier Variable", "pdf_verbatim": "It is recommended that the SUPP-- QNAM value reference the corresponding standard domain variable with an appended number or letter.", "figure_ref": null, "candidates": [{"md_atom_id": "md_ch04_a362", "md_file": "knowledge_base/chapters/ch04_general_assumptions.md", "md_atom_type": "SENTENCE", "md_parent_section": "§4.2.8.3 [Multiple Values for a Non-result Qualifier Variable]", "md_verbatim": "It is recommended that the SUPP-- QNAM value reference the corresponding standard domain variable with an appended number or letter.", "score": 0.9, "match_basis": "verbatim_token+chapter_route:ch04"}, {"md_atom_id": "md_ch04_a956", "md_file": "knowledge_base/chapters/ch04_general_assumptions.md", "md_atom_type": "SENTENCE", "md_parent_section": "§4.5.4 [Evaluators in the Interventions and Events Observation Classes]", "md_verbatim": "Within each SUPP-- record, the value for QNAM should be formed by appending a \"1\" to the corresponding standard domain variable name.", "score": 0.6225, "match_basis": "verbatim_token+chapter_route:ch04"}, {"md_atom_id": "md_ch04_a145", "md_file": "knowledge_base/chapters/ch04_general_assumptions.md", "md_atom_type": "SENTENCE", "md_parent_section": "§4.1.9 [Assigning Natural Keys in the Metadata]", "md_verbatim": "In certain instances a Supplemental Qualifier variable (i.e., a QNAM value; see Section 8.4, Relating Non-standard Variable Values to a Parent Domain) might also contribute to the natural key of a record, and therefore needs to be referenced as part of the natural key for a domain.", "score": 0.4636, "match_basis": "verbatim_token+chapter_route:ch04"}, {"md_atom_id": "md_ch04_a389", "md_file": "knowledge_base/chapters/ch04_general_assumptions.md", "md_atom_type": "SENTENCE", "md_parent_section": "§4.2.8.3 [Multiple Values for a Non-result Qualifier Variable]", "md_verbatim": "If the sponsor has clearly documented that one response is of primary interest (e.g., in the CRF, protocol, or analysis plan), the standard domain variable may be populated with the primary response and SUPP-- may be used to store the secondary response(s).", "score": 0.46, "match_basis": "verbatim_token+chapter_route:ch04"}, {"md_atom_id": "md_ch04_a961", "md_file": "knowledge_base/chapters/ch04_general_assumptions.md", "md_atom_type": "SENTENCE", "md_parent_section": "§4.5.4 [Evaluators in the Interventions and Events Observation Classes]", "md_verbatim": "See Section 8.4, Relating Non-standard Variable Values to a Parent Domain.", "score": 0.4537, "match_basis": "verbatim_token+chapter_route:ch04"}], "candidate_count": 5, "zero_candidate": false}
{"pdf_atom_id": "ig34_p0035_a012", "pdf_atom_type": "SENTENCE", "pdf_source": "SDTMIG_v3.4", "pdf_page": 35, "pdf_parent_section": "§4.2.8.3 Multiple Values for a Non-result Qualifier Variable", "pdf_verbatim": "In some cases, the standard variable name will be shortened to meet the 8-character variable name requirement, or it may be clearer to append a meaningful character string as shown in the second Adverse Events (AE) example below, where the first 3 characters of the drug name are appended.", "figure_ref": null, "candidates": [{"md_atom_id": "md_ch04_a363", "md_file": "knowledge_base/chapters/ch04_general_assumptions.md", "md_atom_type": "SENTENCE", "md_parent_section": "§4.2.8.3 [Multiple Values for a Non-result Qualifier Variable]", "md_verbatim": "In some cases, the standard variable name will be shortened to meet the 8-character variable name requirement, or it may be clearer to append a meaningful character string as shown in the second Adverse Events (AE) example below, where the first 3 characters of the drug name are appended.", "score": 0.9, "match_basis": "verbatim_token+chapter_route:ch04"}, {"md_atom_id": "md_ch04_a916", "md_file": "knowledge_base/chapters/ch04_general_assumptions.md", "md_atom_type": "SENTENCE", "md_parent_section": "§4.5.3.2 [Text Strings Greater than 200 Characters in Other Variables]", "md_verbatim": "**Example 1 (mh.xpt / suppmh.xpt):** MHTERM was longer than 200 characters and required 2 supplemental qualifier variables for the text that extended beyond what could be represented in the standard variable.", "score": 0.457, "match_basis": "verbatim_token+chapter_route:ch04"}, {"md_atom_id": "md_ch04_a926", "md_file": "knowledge_base/chapters/ch04_general_assumptions.md", "md_atom_type": "SENTENCE", "md_parent_section": "§4.5.3.2 [Text Strings Greater than 200 Characters in Other Variables]", "md_verbatim": "**Example 2 (ae.xpt / suppae.xpt):** AEACNOTH was longer than 200 characters, but required only 1 supplemental qualifier for the text that extended beyond what could be represented in the standard variable.", "score": 0.4519, "match_basis": "verbatim_token+chapter_route:ch04"}, {"md_atom_id": "md_ch04_a957", "md_file": "knowledge_base/chapters/ch04_general_assumptions.md", "md_atom_type": "SENTENCE", "md_parent_section": "§4.5.4 [Evaluators in the Interventions and Events Observation Classes]", "md_verbatim": "In cases where the standard domain variable name is already 8 characters in length, sponsors should replace the last character with a \"1\" (incremented for each additional attribution).", "score": 0.4373, "match_basis": "verbatim_token+chapter_route:ch04"}, {"md_atom_id": "md_ch04_a507", "md_file": "knowledge_base/chapters/ch04_general_assumptions.md", "md_atom_type": "SENTENCE", "md_parent_section": "§4.4.1 [Formats for Date/Time Variables]", "md_verbatim": "Implementation of the ISO 8601 standard means that date/time variables are character/text data types.", "score": 0.4355, "match_basis": "verbatim_token+chapter_route:ch04"}], "candidate_count": 5, "zero_candidate": false}
{"pdf_atom_id": "ig34_p0035_a013", "pdf_atom_type": "SENTENCE", "pdf_source": "SDTMIG_v3.4", "pdf_page": 35, "pdf_parent_section": "§4.2.8.3 Multiple Values for a Non-result Qualifier Variable", "pdf_verbatim": "Likewise, the QLABEL value should be similar to the standard label.", "figure_ref": null, "candidates": [{"md_atom_id": "md_ch04_a364", "md_file": "knowledge_base/chapters/ch04_general_assumptions.md", "md_atom_type": "SENTENCE", "md_parent_section": "§4.2.8.3 [Multiple Values for a Non-result Qualifier Variable]", "md_verbatim": "Likewise, the QLABEL value should be similar to the standard label.", "score": 0.9, "match_basis": "verbatim_token+chapter_route:ch04"}, {"md_atom_id": "md_ch04_a956", "md_file": "knowledge_base/chapters/ch04_general_assumptions.md", "md_atom_type": "SENTENCE", "md_parent_section": "§4.5.4 [Evaluators in the Interventions and Events Observation Classes]", "md_verbatim": "Within each SUPP-- record, the value for QNAM should be formed by appending a \"1\" to the corresponding standard domain variable name.", "score": 0.4167, "match_basis": "verbatim_token+chapter_route:ch04"}, {"md_atom_id": "md_ch04_a365", "md_file": "knowledge_base/chapters/ch04_general_assumptions.md", "md_atom_type": "SENTENCE", "md_parent_section": "§4.2.8.3 [Multiple Values for a Non-result Qualifier Variable]", "md_verbatim": "The values stored in QVAL should be consistent with the controlled terminology associated with the standard variable.", "score": 0.412, "match_basis": "verbatim_token+chapter_route:ch04"}, {"md_atom_id": "md_ch04_a901", "md_file": "knowledge_base/chapters/ch04_general_assumptions.md", "md_atom_type": "SENTENCE", "md_parent_section": "§4.5.3.1 [Test Name (--TEST) Greater than 40 Characters]", "md_verbatim": "This convention should also be applied to the qualifier value label (QLABEL) in Supplemental Qualifiers (SUPP--) datasets.", "score": 0.4059, "match_basis": "verbatim_token+chapter_route:ch04"}, {"md_atom_id": "md_ch04_a376", "md_file": "knowledge_base/chapters/ch04_general_assumptions.md", "md_atom_type": "SENTENCE", "md_parent_section": "§4.2.8.3 [Multiple Values for a Non-result Qualifier Variable]", "md_verbatim": "In some cases, values for QNAM and QLABEL more specific than these may be needed.", "score": 0.3982, "match_basis": "verbatim_token+chapter_route:ch04"}], "candidate_count": 5, "zero_candidate": false}
{"pdf_atom_id": "ig34_p0035_a014", "pdf_atom_type": "SENTENCE", "pdf_source": "SDTMIG_v3.4", "pdf_page": 35, "pdf_parent_section": "§4.2.8.3 Multiple Values for a Non-result Qualifier Variable", "pdf_verbatim": "The values stored in QVAL should be consistent with the controlled terminology associated with the standard variable.", "figure_ref": null, "candidates": [{"md_atom_id": "md_ch04_a365", "md_file": "knowledge_base/chapters/ch04_general_assumptions.md", "md_atom_type": "SENTENCE", "md_parent_section": "§4.2.8.3 [Multiple Values for a Non-result Qualifier Variable]", "md_verbatim": "The values stored in QVAL should be consistent with the controlled terminology associated with the standard variable.", "score": 0.9, "match_basis": "verbatim_token+chapter_route:ch04"}, {"md_atom_id": "md_ch04_a388", "md_file": "knowledge_base/chapters/ch04_general_assumptions.md", "md_atom_type": "SENTENCE", "md_parent_section": "§4.2.8.3 [Multiple Values for a Non-result Qualifier Variable]", "md_verbatim": "The controlled terminology used should be documented as part of value-level metadata.", "score": 0.5051, "match_basis": "verbatim_token+chapter_route:ch04"}, {"md_atom_id": "md_ch04_a337", "md_file": "knowledge_base/chapters/ch04_general_assumptions.md", "md_atom_type": "SENTENCE", "md_parent_section": "§4.2.7.3 [\"Specify\" Values for Topic Variables]", "md_verbatim": "If specific tests are not listed on the CRF and the investigator has the option of writing in tests, then the name of the test would have to be coded to ensure that all --TESTCD and --TEST values are consistent with the test controlled terminology.", "score": 0.4982, "match_basis": "verbatim_token+chapter_route:ch04"}, {"md_atom_id": "md_ch04_a991", "md_file": "knowledge_base/chapters/ch04_general_assumptions.md", "md_atom_type": "SENTENCE", "md_parent_section": "§4.5.7 [Presence or Absence of Prespecified Interventions and Events]", "md_verbatim": "It has controlled terminology of \"Y\" (for \"Yes\") or a null value.", "score": 0.4846, "match_basis": "verbatim_token+chapter_route:ch04"}, {"md_atom_id": "md_ch04_a456", "md_file": "knowledge_base/chapters/ch04_general_assumptions.md", "md_atom_type": "SENTENCE", "md_parent_section": "§4.3.6 [Storing Topic Variables for General Domain Models]", "md_verbatim": "For a Findings domain, the topic variable --TESTCD should use controlled terminology (e.g., \"SYSBP\" for systolic blood pressure).", "score": 0.4832, "match_basis": "verbatim_token+chapter_route:ch04"}], "candidate_count": 5, "zero_candidate": false}
{"pdf_atom_id": "ig34_p0035_a015", "pdf_atom_type": "SENTENCE", "pdf_source": "SDTMIG_v3.4", "pdf_page": 35, "pdf_parent_section": "§4.2.8.3 Multiple Values for a Non-result Qualifier Variable", "pdf_verbatim": "See Section 8.4, Relating Non-standard Variable Values to a Parent Domain, for additional guidance on maintaining appropriately unique QNAM values.", "figure_ref": null, "candidates": [{"md_atom_id": "md_ch04_a366", "md_file": "knowledge_base/chapters/ch04_general_assumptions.md", "md_atom_type": "SENTENCE", "md_parent_section": "§4.2.8.3 [Multiple Values for a Non-result Qualifier Variable]", "md_verbatim": "See Section 8.4, Relating Non-standard Variable Values to a Parent Domain, for additional guidance on maintaining appropriately unique QNAM values.", "score": 0.9, "match_basis": "verbatim_token+chapter_route:ch04"}, {"md_atom_id": "md_ch04_a961", "md_file": "knowledge_base/chapters/ch04_general_assumptions.md", "md_atom_type": "SENTENCE", "md_parent_section": "§4.5.4 [Evaluators in the Interventions and Events Observation Classes]", "md_verbatim": "See Section 8.4, Relating Non-standard Variable Values to a Parent Domain.", "score": 0.6127, "match_basis": "verbatim_token+chapter_route:ch04"}, {"md_atom_id": "md_ch04_a145", "md_file": "knowledge_base/chapters/ch04_general_assumptions.md", "md_atom_type": "SENTENCE", "md_parent_section": "§4.1.9 [Assigning Natural Keys in the Metadata]", "md_verbatim": "In certain instances a Supplemental Qualifier variable (i.e., a QNAM value; see Section 8.4, Relating Non-standard Variable Values to a Parent Domain) might also contribute to the natural key of a record, and therefore needs to be referenced as part of the natural key for a domain.", "score": 0.5047, "match_basis": "verbatim_token+chapter_route:ch04"}, {"md_atom_id": "md_ch04_a262", "md_file": "knowledge_base/chapters/ch04_general_assumptions.md", "md_atom_type": "SENTENCE", "md_parent_section": "§4.2.7.1 [\"Specify\" Values for Non-Result Qualifier Variables]", "md_verbatim": "When free-text information is collected to supplement a standard non-result qualifier field, the free-text value should be placed in the SUPP-- dataset described in Section 8.4, Relating Non-standard Variable Values to a Parent Domain.", "score": 0.4721, "match_basis": "verbatim_token+chapter_route:ch04"}, {"md_atom_id": "md_ch04_a908", "md_file": "knowledge_base/chapters/ch04_general_assumptions.md", "md_atom_type": "LIST_ITEM", "md_parent_section": "§4.5.3.2 [Text Strings Greater than 200 Characters in Other Variables]", "md_verbatim": "- The **first 200 characters** of text should be stored in the parent domain variable and each additional 200 characters of text should be stored in a record in the SUPP-- dataset (see Section 8.4, Relating Non-standard Variable Values to a Parent Domain)", "score": 0.4511, "match_basis": "verbatim_token+chapter_route:ch04"}], "candidate_count": 5, "zero_candidate": false}
{"pdf_atom_id": "ig34_p0035_a016", "pdf_atom_type": "SENTENCE", "pdf_source": "SDTMIG_v3.4", "pdf_page": 35, "pdf_parent_section": "§4.2.8.3 Multiple Values for a Non-result Qualifier Variable", "pdf_verbatim": "The following example includes selected variables from the ae.xpt and suppae.xpt datasets for a rash with locations on the face, neck, and chest.", "figure_ref": null, "candidates": [{"md_atom_id": "md_ch04_a898", "md_file": "knowledge_base/chapters/ch04_general_assumptions.md", "md_atom_type": "SENTENCE", "md_parent_section": "§4.5.3.1 [Test Name (--TEST) Greater than 40 Characters]", "md_verbatim": "Sponsors have the following options for including the full description for these variables in the study metadata:", "score": 0.478, "match_basis": "verbatim_token+chapter_route:ch04"}, {"md_atom_id": "md_ch04_a516", "md_file": "knowledge_base/chapters/ch04_general_assumptions.md", "md_atom_type": "SENTENCE", "md_parent_section": "§4.4.2 [Date/Time Precision]", "md_verbatim": "The following table provides examples of ISO 8601 representations of complete and truncated date/time values.", "score": 0.4531, "match_basis": "verbatim_token+chapter_route:ch04"}, {"md_atom_id": "md_ch04_a138", "md_file": "knowledge_base/chapters/ch04_general_assumptions.md", "md_atom_type": "SENTENCE", "md_parent_section": "§4.1.9 [Assigning Natural Keys in the Metadata]", "md_verbatim": "The following example illustrates how to do this, and include a case where a Supplemental Qualifier variable is referenced because it forms part of the natural key.", "score": 0.4487, "match_basis": "verbatim_token+chapter_route:ch04"}, {"md_atom_id": "md_ch04_a170", "md_file": "knowledge_base/chapters/ch04_general_assumptions.md", "md_atom_type": "SENTENCE", "md_parent_section": "§4.1.9 [Assigning Natural Keys in the Metadata]", "md_verbatim": "The following variables would be used to fully describe the test. The natural key for this domain includes both parent dataset variables and a supplemental qualifier variable that contribute to the natural key of each row and to describe the uniqueness of the test.", "score": 0.4477, "match_basis": "verbatim_token+chapter_route:ch04"}, {"md_atom_id": "md_ch04_a142", "md_file": "knowledge_base/chapters/ch04_general_assumptions.md", "md_atom_type": "SENTENCE", "md_parent_section": "§4.1.9 [Assigning Natural Keys in the Metadata]", "md_verbatim": "Sponsor B collects data in such a way that the location (MKLOC and MKLAT) and method (MKMETHOD) variables need to be included in the natural key to identify a unique row.", "score": 0.4458, "match_basis": "verbatim_token+chapter_route:ch04"}], "candidate_count": 5, "zero_candidate": false}
{"pdf_atom_id": "ig34_p0035_a017", "pdf_atom_type": "CODE_LITERAL", "pdf_source": "SDTMIG_v3.4", "pdf_page": 35, "pdf_parent_section": "§4.2.8.3 Multiple Values for a Non-result Qualifier Variable", "pdf_verbatim": "ae.xpt", "figure_ref": null, "candidates": [{"md_atom_id": "md_ch04_a207", "md_file": "knowledge_base/chapters/ch04_general_assumptions.md", "md_atom_type": "CODE_LITERAL", "md_parent_section": "§4.2.3 [Use of \"Subject\" and USUBJID]", "md_verbatim": "dm.xpt:", "score": 0.69, "match_basis": "verbatim_token+chapter_route:ch04"}, {"md_atom_id": "md_ch04_a210", "md_file": "knowledge_base/chapters/ch04_general_assumptions.md", "md_atom_type": "CODE_LITERAL", "md_parent_section": "§4.2.3 [Use of \"Subject\" and USUBJID]", "md_verbatim": "dm.xpt:", "score": 0.69, "match_basis": "verbatim_token+chapter_route:ch04"}, {"md_atom_id": "md_ch04_a368", "md_file": "knowledge_base/chapters/ch04_general_assumptions.md", "md_atom_type": "CODE_LITERAL", "md_parent_section": "§4.2.8.3 [Multiple Values for a Non-result Qualifier Variable]", "md_verbatim": "ae.xpt:", "score": 0.69, "match_basis": "verbatim_token+chapter_route:ch04"}, {"md_atom_id": "md_ch04_a378", "md_file": "knowledge_base/chapters/ch04_general_assumptions.md", "md_atom_type": "CODE_LITERAL", "md_parent_section": "§4.2.8.3 [Multiple Values for a Non-result Qualifier Variable]", "md_verbatim": "ae.xpt:", "score": 0.69, "match_basis": "verbatim_token+chapter_route:ch04"}, {"md_atom_id": "md_ch04_a391", "md_file": "knowledge_base/chapters/ch04_general_assumptions.md", "md_atom_type": "CODE_LITERAL", "md_parent_section": "§4.2.8.3 [Multiple Values for a Non-result Qualifier Variable]", "md_verbatim": "ae.xpt:", "score": 0.69, "match_basis": "verbatim_token+chapter_route:ch04"}, {"md_atom_id": "md_ch04_a835", "md_file": "knowledge_base/chapters/ch04_general_assumptions.md", "md_atom_type": "CODE_LITERAL", "md_parent_section": "§4.5.1.3 [Examples of Original and Standard Units and Test Not Done]", "md_verbatim": "lb.xpt", "score": 0.69, "match_basis": "verbatim_token+chapter_route:ch04"}, {"md_atom_id": "md_ch04_a861", "md_file": "knowledge_base/chapters/ch04_general_assumptions.md", "md_atom_type": "CODE_LITERAL", "md_parent_section": "§4.5.1.3 [Examples of Original and Standard Units and Test Not Done]", "md_verbatim": "eg.xpt", "score": 0.69, "match_basis": "verbatim_token+chapter_route:ch04"}, {"md_atom_id": "md_ch04_a877", "md_file": "knowledge_base/chapters/ch04_general_assumptions.md", "md_atom_type": "CODE_LITERAL", "md_parent_section": "§4.5.1.3 [Examples of Original and Standard Units and Test Not Done]", "md_verbatim": "vs.xpt", "score": 0.69, "match_basis": "verbatim_token+chapter_route:ch04"}, {"md_atom_id": "md_ch04_a917", "md_file": "knowledge_base/chapters/ch04_general_assumptions.md", "md_atom_type": "CODE_LITERAL", "md_parent_section": "§4.5.3.2 [Text Strings Greater than 200 Characters in Other Variables]", "md_verbatim": "mh.xpt", "score": 0.69, "match_basis": "verbatim_token+chapter_route:ch04"}, {"md_atom_id": "md_ch04_a919", "md_file": "knowledge_base/chapters/ch04_general_assumptions.md", "md_atom_type": "SENTENCE", "md_parent_section": "§4.5.3.2 [Text Strings Greater than 200 Characters in Other Variables]", "md_verbatim": "mh.xpt:", "score": 0.69, "match_basis": "verbatim_token+chapter_route:ch04"}], "candidate_count": 10, "zero_candidate": false}
{"pdf_atom_id": "ig34_p0035_a018", "pdf_atom_type": "TABLE_HEADER", "pdf_source": "SDTMIG_v3.4", "pdf_page": 35, "pdf_parent_section": "§4.2.8.3 Multiple Values for a Non-result Qualifier Variable", "pdf_verbatim": "AETERM | AELOC", "figure_ref": null, "candidates": [{"md_atom_id": "md_ch04_a369", "md_file": "knowledge_base/chapters/ch04_general_assumptions.md", "md_atom_type": "TABLE_HEADER", "md_parent_section": "§4.2.8.3 [Multiple Values for a Non-result Qualifier Variable]", "md_verbatim": "| AETERM | AELOC |\n|--------|-------|", "score": 0.9, "match_basis": "verbatim_token+chapter_route:ch04"}, {"md_atom_id": "md_ch04_a379", "md_file": "knowledge_base/chapters/ch04_general_assumptions.md", "md_atom_type": "TABLE_HEADER", "md_parent_section": "§4.2.8.3 [Multiple Values for a Non-result Qualifier Variable]", "md_verbatim": "| AETERM | AEREL | AEACN |\n|--------|-------|-------|", "score": 0.4846, "match_basis": "verbatim_token+chapter_route:ch04"}, {"md_atom_id": "md_ch04_a392", "md_file": "knowledge_base/chapters/ch04_general_assumptions.md", "md_atom_type": "TABLE_HEADER", "md_parent_section": "§4.2.8.3 [Multiple Values for a Non-result Qualifier Variable]", "md_verbatim": "| AETERM | AEREL | AEACN |\n|--------|-------|-------|", "score": 0.4846, "match_basis": "verbatim_token+chapter_route:ch04"}, {"md_atom_id": "md_ch04_a930", "md_file": "knowledge_base/chapters/ch04_general_assumptions.md", "md_atom_type": "TABLE_HEADER", "md_parent_section": "§4.5.3.2 [Text Strings Greater than 200 Characters in Other Variables]", "md_verbatim": "| Row | STUDYID | DOMAIN | USUBJID | AESEQ | AETERM | AEACNOTH |\n|-----|---------|--------|---------|-------|--------|----------|", "score": 0.3774, "match_basis": "verbatim_token+chapter_route:ch04"}, {"md_atom_id": "md_ch04_a462", "md_file": "knowledge_base/chapters/ch04_general_assumptions.md", "md_atom_type": "TABLE_ROW", "md_parent_section": "§4.3.6 [Storing Topic Variables for General Domain Models]", "md_verbatim": "| AE | AETERM | AEMODIFY | AEDECOD |", "score": 0.3733, "match_basis": "verbatim_token+chapter_route:ch04"}], "candidate_count": 5, "zero_candidate": false}
{"pdf_atom_id": "ig34_p0035_a019", "pdf_atom_type": "TABLE_ROW", "pdf_source": "SDTMIG_v3.4", "pdf_page": 35, "pdf_parent_section": "§4.2.8.3 Multiple Values for a Non-result Qualifier Variable", "pdf_verbatim": "RASH | MULTIPLE", "figure_ref": null, "candidates": [{"md_atom_id": "md_ch04_a370", "md_file": "knowledge_base/chapters/ch04_general_assumptions.md", "md_atom_type": "TABLE_ROW", "md_parent_section": "§4.2.8.3 [Multiple Values for a Non-result Qualifier Variable]", "md_verbatim": "| RASH | MULTIPLE |", "score": 0.9, "match_basis": "verbatim_token+chapter_route:ch04"}, {"md_atom_id": "md_ch04_a380", "md_file": "knowledge_base/chapters/ch04_general_assumptions.md", "md_atom_type": "TABLE_ROW", "md_parent_section": "§4.2.8.3 [Multiple Values for a Non-result Qualifier Variable]", "md_verbatim": "| RASH | MULTIPLE | MULTIPLE |", "score": 0.9, "match_basis": "verbatim_token+chapter_route:ch04"}, {"md_atom_id": "md_ch04_a393", "md_file": "knowledge_base/chapters/ch04_general_assumptions.md", "md_atom_type": "TABLE_ROW", "md_parent_section": "§4.2.8.3 [Multiple Values for a Non-result Qualifier Variable]", "md_verbatim": "| RASH | POSSIBLY RELATED | DOSE REDUCED |", "score": 0.3462, "match_basis": "verbatim_token+chapter_route:ch04"}, {"md_atom_id": "md_ch04_a875", "md_file": "knowledge_base/chapters/ch04_general_assumptions.md", "md_atom_type": "TABLE_ROW", "md_parent_section": "§4.5.1.3 [Examples of Original and Standard Units and Test Not Done]", "md_verbatim": "| 7 | EGALL | ECG Test Results | | | | | | NOT DONE | 3 | 2015-03-21 |", "score": 0.3261, "match_basis": "verbatim_token+chapter_route:ch04"}, {"md_atom_id": "md_ch04_a034", "md_file": "knowledge_base/chapters/ch04_general_assumptions.md", "md_atom_type": "TABLE_ROW", "md_parent_section": "§4.1.5 [SDTM Core Designations]", "md_verbatim": "| **Req** (Required) | A Required variable is any variable that is basic to the identification of a data record (i.e., essential key variables and a topic variable) or is necessary to make the record meaningful. Required variables must always be included in the dataset and cannot be null for any record. | Must always be populated; cannot be null for any record |", "score": 0.3, "match_basis": "verbatim_token+chapter_route:ch04"}], "candidate_count": 5, "zero_candidate": false}
{"pdf_atom_id": "ig34_p0035_a020", "pdf_atom_type": "CODE_LITERAL", "pdf_source": "SDTMIG_v3.4", "pdf_page": 35, "pdf_parent_section": "§4.2.8.3 Multiple Values for a Non-result Qualifier Variable", "pdf_verbatim": "suppae.xpt", "figure_ref": null, "candidates": [{"md_atom_id": "md_ch04_a371", "md_file": "knowledge_base/chapters/ch04_general_assumptions.md", "md_atom_type": "CODE_LITERAL", "md_parent_section": "§4.2.8.3 [Multiple Values for a Non-result Qualifier Variable]", "md_verbatim": "suppae.xpt:", "score": 0.69, "match_basis": "verbatim_token+chapter_route:ch04"}, {"md_atom_id": "md_ch04_a381", "md_file": "knowledge_base/chapters/ch04_general_assumptions.md", "md_atom_type": "CODE_LITERAL", "md_parent_section": "§4.2.8.3 [Multiple Values for a Non-result Qualifier Variable]", "md_verbatim": "suppae.xpt:", "score": 0.69, "match_basis": "verbatim_token+chapter_route:ch04"}, {"md_atom_id": "md_ch04_a394", "md_file": "knowledge_base/chapters/ch04_general_assumptions.md", "md_atom_type": "CODE_LITERAL", "md_parent_section": "§4.2.8.3 [Multiple Values for a Non-result Qualifier Variable]", "md_verbatim": "suppae.xpt:", "score": 0.69, "match_basis": "verbatim_token+chapter_route:ch04"}, {"md_atom_id": "md_ch04_a928", "md_file": "knowledge_base/chapters/ch04_general_assumptions.md", "md_atom_type": "CODE_LITERAL", "md_parent_section": "§4.5.3.2 [Text Strings Greater than 200 Characters in Other Variables]", "md_verbatim": "suppae.xpt", "score": 0.69, "match_basis": "verbatim_token+chapter_route:ch04"}, {"md_atom_id": "md_ch04_a932", "md_file": "knowledge_base/chapters/ch04_general_assumptions.md", "md_atom_type": "SENTENCE", "md_parent_section": "§4.5.3.2 [Text Strings Greater than 200 Characters in Other Variables]", "md_verbatim": "suppae.xpt:", "score": 0.69, "match_basis": "verbatim_token+chapter_route:ch04"}, {"md_atom_id": "md_ch04_a963", "md_file": "knowledge_base/chapters/ch04_general_assumptions.md", "md_atom_type": "SENTENCE", "md_parent_section": "§4.5.4 [Evaluators in the Interventions and Events Observation Classes]", "md_verbatim": "suppae.xpt:", "score": 0.69, "match_basis": "verbatim_token+chapter_route:ch04"}, {"md_atom_id": "md_ch04_a918", "md_file": "knowledge_base/chapters/ch04_general_assumptions.md", "md_atom_type": "CODE_LITERAL", "md_parent_section": "§4.5.3.2 [Text Strings Greater than 200 Characters in Other Variables]", "md_verbatim": "suppmh.xpt", "score": 0.3471, "match_basis": "verbatim_token+chapter_route:ch04"}, {"md_atom_id": "md_ch04_a922", "md_file": "knowledge_base/chapters/ch04_general_assumptions.md", "md_atom_type": "SENTENCE", "md_parent_section": "§4.5.3.2 [Text Strings Greater than 200 Characters in Other Variables]", "md_verbatim": "suppmh.xpt:", "score": 0.3471, "match_basis": "verbatim_token+chapter_route:ch04"}, {"md_atom_id": "md_ch04_a937", "md_file": "knowledge_base/chapters/ch04_general_assumptions.md", "md_atom_type": "CODE_LITERAL", "md_parent_section": "§4.5.3.2 [Text Strings Greater than 200 Characters in Other Variables]", "md_verbatim": "supppr.xpt", "score": 0.3471, "match_basis": "verbatim_token+chapter_route:ch04"}, {"md_atom_id": "md_ch04_a941", "md_file": "knowledge_base/chapters/ch04_general_assumptions.md", "md_atom_type": "SENTENCE", "md_parent_section": "§4.5.3.2 [Text Strings Greater than 200 Characters in Other Variables]", "md_verbatim": "supppr.xpt:", "score": 0.3471, "match_basis": "verbatim_token+chapter_route:ch04"}], "candidate_count": 10, "zero_candidate": false}
{"pdf_atom_id": "ig34_p0035_a021", "pdf_atom_type": "TABLE_HEADER", "pdf_source": "SDTMIG_v3.4", "pdf_page": 35, "pdf_parent_section": "§4.2.8.3 Multiple Values for a Non-result Qualifier Variable", "pdf_verbatim": "QNAM | QLABEL | QVAL", "figure_ref": null, "candidates": [{"md_atom_id": "md_ch04_a372", "md_file": "knowledge_base/chapters/ch04_general_assumptions.md", "md_atom_type": "TABLE_HEADER", "md_parent_section": "§4.2.8.3 [Multiple Values for a Non-result Qualifier Variable]", "md_verbatim": "| QNAM | QLABEL | QVAL |\n|------|--------|------|", "score": 0.9, "match_basis": "verbatim_token+chapter_route:ch04"}, {"md_atom_id": "md_ch04_a382", "md_file": "knowledge_base/chapters/ch04_general_assumptions.md", "md_atom_type": "TABLE_HEADER", "md_parent_section": "§4.2.8.3 [Multiple Values for a Non-result Qualifier Variable]", "md_verbatim": "| QNAM | QLABEL | QVAL |\n|------|--------|------|", "score": 0.9, "match_basis": "verbatim_token+chapter_route:ch04"}, {"md_atom_id": "md_ch04_a395", "md_file": "knowledge_base/chapters/ch04_general_assumptions.md", "md_atom_type": "TABLE_HEADER", "md_parent_section": "§4.2.8.3 [Multiple Values for a Non-result Qualifier Variable]", "md_verbatim": "| QNAM | QLABEL | QVAL |\n|------|--------|------|", "score": 0.9, "match_basis": "verbatim_token+chapter_route:ch04"}, {"md_atom_id": "md_ch04_a923", "md_file": "knowledge_base/chapters/ch04_general_assumptions.md", "md_atom_type": "TABLE_HEADER", "md_parent_section": "§4.5.3.2 [Text Strings Greater than 200 Characters in Other Variables]", "md_verbatim": "| Row | STUDYID | RDOMAIN | USUBJID | IDVAR | IDVARVAL | QNAM | QLABEL | QVAL | QORIG |\n|-----|---------|---------|---------|-------|----------|------|--------|------|-------|", "score": 0.45, "match_basis": "verbatim_token+chapter_route:ch04"}, {"md_atom_id": "md_ch04_a933", "md_file": "knowledge_base/chapters/ch04_general_assumptions.md", "md_atom_type": "TABLE_HEADER", "md_parent_section": "§4.5.3.2 [Text Strings Greater than 200 Characters in Other Variables]", "md_verbatim": "| Row | STUDYID | RDOMAIN | USUBJID | IDVAR | IDVARVAL | QNAM | QLABEL | QVAL | QORIG |\n|-----|---------|---------|---------|-------|----------|------|--------|------|-------|", "score": 0.45, "match_basis": "verbatim_token+chapter_route:ch04"}], "candidate_count": 5, "zero_candidate": false}
{"pdf_atom_id": "ig34_p0035_a022", "pdf_atom_type": "TABLE_ROW", "pdf_source": "SDTMIG_v3.4", "pdf_page": 35, "pdf_parent_section": "§4.2.8.3 Multiple Values for a Non-result Qualifier Variable", "pdf_verbatim": "AELOC1 | Location of the Reaction 1 | FACE", "figure_ref": null, "candidates": [{"md_atom_id": "md_ch04_a373", "md_file": "knowledge_base/chapters/ch04_general_assumptions.md", "md_atom_type": "TABLE_ROW", "md_parent_section": "§4.2.8.3 [Multiple Values for a Non-result Qualifier Variable]", "md_verbatim": "| AELOC1 | Location of the Reaction 1 | FACE |", "score": 0.9, "match_basis": "verbatim_token+chapter_route:ch04"}, {"md_atom_id": "md_ch04_a374", "md_file": "knowledge_base/chapters/ch04_general_assumptions.md", "md_atom_type": "TABLE_ROW", "md_parent_section": "§4.2.8.3 [Multiple Values for a Non-result Qualifier Variable]", "md_verbatim": "| AELOC2 | Location of the Reaction 2 | NECK |", "score": 0.7105, "match_basis": "verbatim_token+chapter_route:ch04"}, {"md_atom_id": "md_ch04_a375", "md_file": "knowledge_base/chapters/ch04_general_assumptions.md", "md_atom_type": "TABLE_ROW", "md_parent_section": "§4.2.8.3 [Multiple Values for a Non-result Qualifier Variable]", "md_verbatim": "| AELOC3 | Location of the Reaction 3 | CHEST |", "score": 0.69, "match_basis": "verbatim_token+chapter_route:ch04"}, {"md_atom_id": "md_ch04_a385", "md_file": "knowledge_base/chapters/ch04_general_assumptions.md", "md_atom_type": "TABLE_ROW", "md_parent_section": "§4.2.8.3 [Multiple Values for a Non-result Qualifier Variable]", "md_verbatim": "| AEACNABC | Action Taken with Abcicin | DOSE REDUCED |", "score": 0.3811, "match_basis": "verbatim_token+chapter_route:ch04"}, {"md_atom_id": "md_ch04_a397", "md_file": "knowledge_base/chapters/ch04_general_assumptions.md", "md_atom_type": "TABLE_ROW", "md_parent_section": "§4.2.8.3 [Multiple Values for a Non-result Qualifier Variable]", "md_verbatim": "| AEACNX | Action Taken with Xyzamin | DOSE NOT CHANGED |", "score": 0.3811, "match_basis": "verbatim_token+chapter_route:ch04"}], "candidate_count": 5, "zero_candidate": false}
{"pdf_atom_id": "ig34_p0035_a023", "pdf_atom_type": "TABLE_ROW", "pdf_source": "SDTMIG_v3.4", "pdf_page": 35, "pdf_parent_section": "§4.2.8.3 Multiple Values for a Non-result Qualifier Variable", "pdf_verbatim": "AELOC2 | Location of the Reaction 2 | NECK", "figure_ref": null, "candidates": [{"md_atom_id": "md_ch04_a374", "md_file": "knowledge_base/chapters/ch04_general_assumptions.md", "md_atom_type": "TABLE_ROW", "md_parent_section": "§4.2.8.3 [Multiple Values for a Non-result Qualifier Variable]", "md_verbatim": "| AELOC2 | Location of the Reaction 2 | NECK |", "score": 0.9, "match_basis": "verbatim_token+chapter_route:ch04"}, {"md_atom_id": "md_ch04_a373", "md_file": "knowledge_base/chapters/ch04_general_assumptions.md", "md_atom_type": "TABLE_ROW", "md_parent_section": "§4.2.8.3 [Multiple Values for a Non-result Qualifier Variable]", "md_verbatim": "| AELOC1 | Location of the Reaction 1 | FACE |", "score": 0.7105, "match_basis": "verbatim_token+chapter_route:ch04"}, {"md_atom_id": "md_ch04_a375", "md_file": "knowledge_base/chapters/ch04_general_assumptions.md", "md_atom_type": "TABLE_ROW", "md_parent_section": "§4.2.8.3 [Multiple Values for a Non-result Qualifier Variable]", "md_verbatim": "| AELOC3 | Location of the Reaction 3 | CHEST |", "score": 0.69, "match_basis": "verbatim_token+chapter_route:ch04"}, {"md_atom_id": "md_ch04_a385", "md_file": "knowledge_base/chapters/ch04_general_assumptions.md", "md_atom_type": "TABLE_ROW", "md_parent_section": "§4.2.8.3 [Multiple Values for a Non-result Qualifier Variable]", "md_verbatim": "| AEACNABC | Action Taken with Abcicin | DOSE REDUCED |", "score": 0.3811, "match_basis": "verbatim_token+chapter_route:ch04"}, {"md_atom_id": "md_ch04_a397", "md_file": "knowledge_base/chapters/ch04_general_assumptions.md", "md_atom_type": "TABLE_ROW", "md_parent_section": "§4.2.8.3 [Multiple Values for a Non-result Qualifier Variable]", "md_verbatim": "| AEACNX | Action Taken with Xyzamin | DOSE NOT CHANGED |", "score": 0.3811, "match_basis": "verbatim_token+chapter_route:ch04"}], "candidate_count": 5, "zero_candidate": false}
{"pdf_atom_id": "ig34_p0035_a024", "pdf_atom_type": "TABLE_ROW", "pdf_source": "SDTMIG_v3.4", "pdf_page": 35, "pdf_parent_section": "§4.2.8.3 Multiple Values for a Non-result Qualifier Variable", "pdf_verbatim": "AELOC3 | Location of the Reaction 3 | CHEST", "figure_ref": null, "candidates": [{"md_atom_id": "md_ch04_a375", "md_file": "knowledge_base/chapters/ch04_general_assumptions.md", "md_atom_type": "TABLE_ROW", "md_parent_section": "§4.2.8.3 [Multiple Values for a Non-result Qualifier Variable]", "md_verbatim": "| AELOC3 | Location of the Reaction 3 | CHEST |", "score": 0.9, "match_basis": "verbatim_token+chapter_route:ch04"}, {"md_atom_id": "md_ch04_a373", "md_file": "knowledge_base/chapters/ch04_general_assumptions.md", "md_atom_type": "TABLE_ROW", "md_parent_section": "§4.2.8.3 [Multiple Values for a Non-result Qualifier Variable]", "md_verbatim": "| AELOC1 | Location of the Reaction 1 | FACE |", "score": 0.69, "match_basis": "verbatim_token+chapter_route:ch04"}, {"md_atom_id": "md_ch04_a374", "md_file": "knowledge_base/chapters/ch04_general_assumptions.md", "md_atom_type": "TABLE_ROW", "md_parent_section": "§4.2.8.3 [Multiple Values for a Non-result Qualifier Variable]", "md_verbatim": "| AELOC2 | Location of the Reaction 2 | NECK |", "score": 0.69, "match_basis": "verbatim_token+chapter_route:ch04"}, {"md_atom_id": "md_ch04_a385", "md_file": "knowledge_base/chapters/ch04_general_assumptions.md", "md_atom_type": "TABLE_ROW", "md_parent_section": "§4.2.8.3 [Multiple Values for a Non-result Qualifier Variable]", "md_verbatim": "| AEACNABC | Action Taken with Abcicin | DOSE REDUCED |", "score": 0.3789, "match_basis": "verbatim_token+chapter_route:ch04"}, {"md_atom_id": "md_ch04_a397", "md_file": "knowledge_base/chapters/ch04_general_assumptions.md", "md_atom_type": "TABLE_ROW", "md_parent_section": "§4.2.8.3 [Multiple Values for a Non-result Qualifier Variable]", "md_verbatim": "| AEACNX | Action Taken with Xyzamin | DOSE NOT CHANGED |", "score": 0.3789, "match_basis": "verbatim_token+chapter_route:ch04"}], "candidate_count": 5, "zero_candidate": false}
{"pdf_atom_id": "ig34_p0035_a025", "pdf_atom_type": "SENTENCE", "pdf_source": "SDTMIG_v3.4", "pdf_page": 35, "pdf_parent_section": "§4.2.8.3 Multiple Values for a Non-result Qualifier Variable", "pdf_verbatim": "In some cases, values for QNAM and QLABEL more specific than these may be needed.", "figure_ref": null, "candidates": [{"md_atom_id": "md_ch04_a376", "md_file": "knowledge_base/chapters/ch04_general_assumptions.md", "md_atom_type": "SENTENCE", "md_parent_section": "§4.2.8.3 [Multiple Values for a Non-result Qualifier Variable]", "md_verbatim": "In some cases, values for QNAM and QLABEL more specific than these may be needed.", "score": 0.9, "match_basis": "verbatim_token+chapter_route:ch04"}, {"md_atom_id": "md_ch04_a132", "md_file": "knowledge_base/chapters/ch04_general_assumptions.md", "md_atom_type": "SENTENCE", "md_parent_section": "§4.1.8.2 [Origin Metadata for Records]", "md_verbatim": "In some cases, both collected and derived values may be reported in the same field.", "score": 0.422, "match_basis": "verbatim_token+chapter_route:ch04"}, {"md_atom_id": "md_ch04_a996", "md_file": "knowledge_base/chapters/ch04_general_assumptions.md", "md_atom_type": "SENTENCE", "md_parent_section": "§4.5.7 [Presence or Absence of Prespecified Interventions and Events]", "md_verbatim": "It is a permissible variable and may be omitted from the dataset if no topic-variable values were prespecified.", "score": 0.4114, "match_basis": "verbatim_token+chapter_route:ch04"}, {"md_atom_id": "md_ch04_a338", "md_file": "knowledge_base/chapters/ch04_general_assumptions.md", "md_atom_type": "SENTENCE", "md_parent_section": "§4.2.7.3 [\"Specify\" Values for Topic Variables]", "md_verbatim": "For example, a lab CRF collected values for hemoglobin, hematocrit, and \"Other, specify\".", "score": 0.4091, "match_basis": "verbatim_token+chapter_route:ch04"}, {"md_atom_id": "md_ch04_a1038", "md_file": "knowledge_base/chapters/ch04_general_assumptions.md", "md_atom_type": "SENTENCE", "md_parent_section": "§4.5.9 [Baseline Values]", "md_verbatim": "As shown in the table, each variable serves a specific need.", "score": 0.4059, "match_basis": "verbatim_token+chapter_route:ch04"}], "candidate_count": 5, "zero_candidate": false}
{"pdf_atom_id": "ig34_p0035_a026", "pdf_atom_type": "SENTENCE", "pdf_source": "SDTMIG_v3.4", "pdf_page": 35, "pdf_parent_section": "§4.2.8.3 Multiple Values for a Non-result Qualifier Variable", "pdf_verbatim": "For example, a sponsor might conduct a study with 2 study drugs (e.g., open-label study of Abcicin + Xyzamin), and may require the investigator assess causality and describe action taken for each drug for the rash:", "figure_ref": null, "candidates": [{"md_atom_id": "md_ch04_a377", "md_file": "knowledge_base/chapters/ch04_general_assumptions.md", "md_atom_type": "NOTE", "md_parent_section": "§4.2.8.3 [Multiple Values for a Non-result Qualifier Variable]", "md_verbatim": "**Example 2:** A study with 2 study drugs (Abcicin + Xyzamin), requiring causality and action for each drug:", "score": 0.4869, "match_basis": "verbatim_token+chapter_route:ch04"}, {"md_atom_id": "md_ch04_a256", "md_file": "knowledge_base/chapters/ch04_general_assumptions.md", "md_atom_type": "SENTENCE", "md_parent_section": "§4.2.6 [Grouping Variables and Categorization]", "md_verbatim": "--CAT and --SCAT by contrast, are generally defined by the sponsor or used by the investigator at the point of collection, not after assessing the value of Findings results.", "score": 0.4147, "match_basis": "verbatim_token+chapter_route:ch04"}, {"md_atom_id": "md_ch04_a952", "md_file": "knowledge_base/chapters/ch04_general_assumptions.md", "md_atom_type": "SENTENCE", "md_parent_section": "§4.5.4 [Evaluators in the Interventions and Events Observation Classes]", "md_verbatim": "Because observations may originate from more than 1 source (e.g., investigator, independent assessor), observations recorded in the Findings class include the --EVAL qualifier.", "score": 0.3966, "match_basis": "verbatim_token+chapter_route:ch04"}, {"md_atom_id": "md_ch04_a298", "md_file": "knowledge_base/chapters/ch04_general_assumptions.md", "md_atom_type": "SENTENCE", "md_parent_section": "§4.2.7.2 [\"Specify\" Values for Result Qualifier Variables]", "md_verbatim": "For example, consider a CRF where the sponsor requests the subject's eye color:", "score": 0.3889, "match_basis": "verbatim_token+chapter_route:ch04"}, {"md_atom_id": "md_ch04_a293", "md_file": "knowledge_base/chapters/ch04_general_assumptions.md", "md_atom_type": "SENTENCE", "md_parent_section": "§4.2.7.1 [\"Specify\" Values for Non-Result Qualifier Variables]", "md_verbatim": "   Note that the sponsor might choose a different value for CMINDC (e.g., \"BONE FRACTURE\") depending on the sponsor's coding practice and analysis requirements.", "score": 0.3876, "match_basis": "verbatim_token+chapter_route:ch04"}], "candidate_count": 5, "zero_candidate": false}
{"pdf_atom_id": "ig34_p0035_a027", "pdf_atom_type": "CODE_LITERAL", "pdf_source": "SDTMIG_v3.4", "pdf_page": 35, "pdf_parent_section": "§4.2.8.3 Multiple Values for a Non-result Qualifier Variable", "pdf_verbatim": "ae.xpt", "figure_ref": null, "candidates": [{"md_atom_id": "md_ch04_a207", "md_file": "knowledge_base/chapters/ch04_general_assumptions.md", "md_atom_type": "CODE_LITERAL", "md_parent_section": "§4.2.3 [Use of \"Subject\" and USUBJID]", "md_verbatim": "dm.xpt:", "score": 0.69, "match_basis": "verbatim_token+chapter_route:ch04"}, {"md_atom_id": "md_ch04_a210", "md_file": "knowledge_base/chapters/ch04_general_assumptions.md", "md_atom_type": "CODE_LITERAL", "md_parent_section": "§4.2.3 [Use of \"Subject\" and USUBJID]", "md_verbatim": "dm.xpt:", "score": 0.69, "match_basis": "verbatim_token+chapter_route:ch04"}, {"md_atom_id": "md_ch04_a368", "md_file": "knowledge_base/chapters/ch04_general_assumptions.md", "md_atom_type": "CODE_LITERAL", "md_parent_section": "§4.2.8.3 [Multiple Values for a Non-result Qualifier Variable]", "md_verbatim": "ae.xpt:", "score": 0.69, "match_basis": "verbatim_token+chapter_route:ch04"}, {"md_atom_id": "md_ch04_a378", "md_file": "knowledge_base/chapters/ch04_general_assumptions.md", "md_atom_type": "CODE_LITERAL", "md_parent_section": "§4.2.8.3 [Multiple Values for a Non-result Qualifier Variable]", "md_verbatim": "ae.xpt:", "score": 0.69, "match_basis": "verbatim_token+chapter_route:ch04"}, {"md_atom_id": "md_ch04_a391", "md_file": "knowledge_base/chapters/ch04_general_assumptions.md", "md_atom_type": "CODE_LITERAL", "md_parent_section": "§4.2.8.3 [Multiple Values for a Non-result Qualifier Variable]", "md_verbatim": "ae.xpt:", "score": 0.69, "match_basis": "verbatim_token+chapter_route:ch04"}, {"md_atom_id": "md_ch04_a835", "md_file": "knowledge_base/chapters/ch04_general_assumptions.md", "md_atom_type": "CODE_LITERAL", "md_parent_section": "§4.5.1.3 [Examples of Original and Standard Units and Test Not Done]", "md_verbatim": "lb.xpt", "score": 0.69, "match_basis": "verbatim_token+chapter_route:ch04"}, {"md_atom_id": "md_ch04_a861", "md_file": "knowledge_base/chapters/ch04_general_assumptions.md", "md_atom_type": "CODE_LITERAL", "md_parent_section": "§4.5.1.3 [Examples of Original and Standard Units and Test Not Done]", "md_verbatim": "eg.xpt", "score": 0.69, "match_basis": "verbatim_token+chapter_route:ch04"}, {"md_atom_id": "md_ch04_a877", "md_file": "knowledge_base/chapters/ch04_general_assumptions.md", "md_atom_type": "CODE_LITERAL", "md_parent_section": "§4.5.1.3 [Examples of Original and Standard Units and Test Not Done]", "md_verbatim": "vs.xpt", "score": 0.69, "match_basis": "verbatim_token+chapter_route:ch04"}, {"md_atom_id": "md_ch04_a917", "md_file": "knowledge_base/chapters/ch04_general_assumptions.md", "md_atom_type": "CODE_LITERAL", "md_parent_section": "§4.5.3.2 [Text Strings Greater than 200 Characters in Other Variables]", "md_verbatim": "mh.xpt", "score": 0.69, "match_basis": "verbatim_token+chapter_route:ch04"}, {"md_atom_id": "md_ch04_a919", "md_file": "knowledge_base/chapters/ch04_general_assumptions.md", "md_atom_type": "SENTENCE", "md_parent_section": "§4.5.3.2 [Text Strings Greater than 200 Characters in Other Variables]", "md_verbatim": "mh.xpt:", "score": 0.69, "match_basis": "verbatim_token+chapter_route:ch04"}], "candidate_count": 10, "zero_candidate": false}
{"pdf_atom_id": "ig34_p0035_a028", "pdf_atom_type": "TABLE_HEADER", "pdf_source": "SDTMIG_v3.4", "pdf_page": 35, "pdf_parent_section": "§4.2.8.3 Multiple Values for a Non-result Qualifier Variable", "pdf_verbatim": "AETERM | AEREL | AEACN", "figure_ref": null, "candidates": [{"md_atom_id": "md_ch04_a379", "md_file": "knowledge_base/chapters/ch04_general_assumptions.md", "md_atom_type": "TABLE_HEADER", "md_parent_section": "§4.2.8.3 [Multiple Values for a Non-result Qualifier Variable]", "md_verbatim": "| AETERM | AEREL | AEACN |\n|--------|-------|-------|", "score": 0.9, "match_basis": "verbatim_token+chapter_route:ch04"}, {"md_atom_id": "md_ch04_a392", "md_file": "knowledge_base/chapters/ch04_general_assumptions.md", "md_atom_type": "TABLE_HEADER", "md_parent_section": "§4.2.8.3 [Multiple Values for a Non-result Qualifier Variable]", "md_verbatim": "| AETERM | AEREL | AEACN |\n|--------|-------|-------|", "score": 0.9, "match_basis": "verbatim_token+chapter_route:ch04"}, {"md_atom_id": "md_ch04_a369", "md_file": "knowledge_base/chapters/ch04_general_assumptions.md", "md_atom_type": "TABLE_HEADER", "md_parent_section": "§4.2.8.3 [Multiple Values for a Non-result Qualifier Variable]", "md_verbatim": "| AETERM | AELOC |\n|--------|-------|", "score": 0.4846, "match_basis": "verbatim_token+chapter_route:ch04"}, {"md_atom_id": "md_ch04_a930", "md_file": "knowledge_base/chapters/ch04_general_assumptions.md", "md_atom_type": "TABLE_HEADER", "md_parent_section": "§4.5.3.2 [Text Strings Greater than 200 Characters in Other Variables]", "md_verbatim": "| Row | STUDYID | DOMAIN | USUBJID | AESEQ | AETERM | AEACNOTH |\n|-----|---------|--------|---------|-------|--------|----------|", "score": 0.4355, "match_basis": "verbatim_token+chapter_route:ch04"}, {"md_atom_id": "md_ch04_a462", "md_file": "knowledge_base/chapters/ch04_general_assumptions.md", "md_atom_type": "TABLE_ROW", "md_parent_section": "§4.3.6 [Storing Topic Variables for General Domain Models]", "md_verbatim": "| AE | AETERM | AEMODIFY | AEDECOD |", "score": 0.3543, "match_basis": "verbatim_token+chapter_route:ch04"}], "candidate_count": 5, "zero_candidate": false}
{"pdf_atom_id": "ig34_p0035_a029", "pdf_atom_type": "TABLE_ROW", "pdf_source": "SDTMIG_v3.4", "pdf_page": 35, "pdf_parent_section": "§4.2.8.3 Multiple Values for a Non-result Qualifier Variable", "pdf_verbatim": "RASH | MULTIPLE | MULTIPLE", "figure_ref": null, "candidates": [{"md_atom_id": "md_ch04_a370", "md_file": "knowledge_base/chapters/ch04_general_assumptions.md", "md_atom_type": "TABLE_ROW", "md_parent_section": "§4.2.8.3 [Multiple Values for a Non-result Qualifier Variable]", "md_verbatim": "| RASH | MULTIPLE |", "score": 0.9, "match_basis": "verbatim_token+chapter_route:ch04"}, {"md_atom_id": "md_ch04_a380", "md_file": "knowledge_base/chapters/ch04_general_assumptions.md", "md_atom_type": "TABLE_ROW", "md_parent_section": "§4.2.8.3 [Multiple Values for a Non-result Qualifier Variable]", "md_verbatim": "| RASH | MULTIPLE | MULTIPLE |", "score": 0.9, "match_basis": "verbatim_token+chapter_route:ch04"}, {"md_atom_id": "md_ch04_a393", "md_file": "knowledge_base/chapters/ch04_general_assumptions.md", "md_atom_type": "TABLE_ROW", "md_parent_section": "§4.2.8.3 [Multiple Values for a Non-result Qualifier Variable]", "md_verbatim": "| RASH | POSSIBLY RELATED | DOSE REDUCED |", "score": 0.3462, "match_basis": "verbatim_token+chapter_route:ch04"}, {"md_atom_id": "md_ch04_a875", "md_file": "knowledge_base/chapters/ch04_general_assumptions.md", "md_atom_type": "TABLE_ROW", "md_parent_section": "§4.5.1.3 [Examples of Original and Standard Units and Test Not Done]", "md_verbatim": "| 7 | EGALL | ECG Test Results | | | | | | NOT DONE | 3 | 2015-03-21 |", "score": 0.3261, "match_basis": "verbatim_token+chapter_route:ch04"}, {"md_atom_id": "md_ch04_a034", "md_file": "knowledge_base/chapters/ch04_general_assumptions.md", "md_atom_type": "TABLE_ROW", "md_parent_section": "§4.1.5 [SDTM Core Designations]", "md_verbatim": "| **Req** (Required) | A Required variable is any variable that is basic to the identification of a data record (i.e., essential key variables and a topic variable) or is necessary to make the record meaningful. Required variables must always be included in the dataset and cannot be null for any record. | Must always be populated; cannot be null for any record |", "score": 0.3, "match_basis": "verbatim_token+chapter_route:ch04"}], "candidate_count": 5, "zero_candidate": false}
{"pdf_atom_id": "ig34_p0035_a030", "pdf_atom_type": "CODE_LITERAL", "pdf_source": "SDTMIG_v3.4", "pdf_page": 35, "pdf_parent_section": "§4.2.8.3 Multiple Values for a Non-result Qualifier Variable", "pdf_verbatim": "suppae.xpt", "figure_ref": null, "candidates": [{"md_atom_id": "md_ch04_a371", "md_file": "knowledge_base/chapters/ch04_general_assumptions.md", "md_atom_type": "CODE_LITERAL", "md_parent_section": "§4.2.8.3 [Multiple Values for a Non-result Qualifier Variable]", "md_verbatim": "suppae.xpt:", "score": 0.69, "match_basis": "verbatim_token+chapter_route:ch04"}, {"md_atom_id": "md_ch04_a381", "md_file": "knowledge_base/chapters/ch04_general_assumptions.md", "md_atom_type": "CODE_LITERAL", "md_parent_section": "§4.2.8.3 [Multiple Values for a Non-result Qualifier Variable]", "md_verbatim": "suppae.xpt:", "score": 0.69, "match_basis": "verbatim_token+chapter_route:ch04"}, {"md_atom_id": "md_ch04_a394", "md_file": "knowledge_base/chapters/ch04_general_assumptions.md", "md_atom_type": "CODE_LITERAL", "md_parent_section": "§4.2.8.3 [Multiple Values for a Non-result Qualifier Variable]", "md_verbatim": "suppae.xpt:", "score": 0.69, "match_basis": "verbatim_token+chapter_route:ch04"}, {"md_atom_id": "md_ch04_a928", "md_file": "knowledge_base/chapters/ch04_general_assumptions.md", "md_atom_type": "CODE_LITERAL", "md_parent_section": "§4.5.3.2 [Text Strings Greater than 200 Characters in Other Variables]", "md_verbatim": "suppae.xpt", "score": 0.69, "match_basis": "verbatim_token+chapter_route:ch04"}, {"md_atom_id": "md_ch04_a932", "md_file": "knowledge_base/chapters/ch04_general_assumptions.md", "md_atom_type": "SENTENCE", "md_parent_section": "§4.5.3.2 [Text Strings Greater than 200 Characters in Other Variables]", "md_verbatim": "suppae.xpt:", "score": 0.69, "match_basis": "verbatim_token+chapter_route:ch04"}, {"md_atom_id": "md_ch04_a963", "md_file": "knowledge_base/chapters/ch04_general_assumptions.md", "md_atom_type": "SENTENCE", "md_parent_section": "§4.5.4 [Evaluators in the Interventions and Events Observation Classes]", "md_verbatim": "suppae.xpt:", "score": 0.69, "match_basis": "verbatim_token+chapter_route:ch04"}, {"md_atom_id": "md_ch04_a918", "md_file": "knowledge_base/chapters/ch04_general_assumptions.md", "md_atom_type": "CODE_LITERAL", "md_parent_section": "§4.5.3.2 [Text Strings Greater than 200 Characters in Other Variables]", "md_verbatim": "suppmh.xpt", "score": 0.3471, "match_basis": "verbatim_token+chapter_route:ch04"}, {"md_atom_id": "md_ch04_a922", "md_file": "knowledge_base/chapters/ch04_general_assumptions.md", "md_atom_type": "SENTENCE", "md_parent_section": "§4.5.3.2 [Text Strings Greater than 200 Characters in Other Variables]", "md_verbatim": "suppmh.xpt:", "score": 0.3471, "match_basis": "verbatim_token+chapter_route:ch04"}, {"md_atom_id": "md_ch04_a937", "md_file": "knowledge_base/chapters/ch04_general_assumptions.md", "md_atom_type": "CODE_LITERAL", "md_parent_section": "§4.5.3.2 [Text Strings Greater than 200 Characters in Other Variables]", "md_verbatim": "supppr.xpt", "score": 0.3471, "match_basis": "verbatim_token+chapter_route:ch04"}, {"md_atom_id": "md_ch04_a941", "md_file": "knowledge_base/chapters/ch04_general_assumptions.md", "md_atom_type": "SENTENCE", "md_parent_section": "§4.5.3.2 [Text Strings Greater than 200 Characters in Other Variables]", "md_verbatim": "supppr.xpt:", "score": 0.3471, "match_basis": "verbatim_token+chapter_route:ch04"}], "candidate_count": 10, "zero_candidate": false}
{"pdf_atom_id": "ig34_p0035_a031", "pdf_atom_type": "TABLE_HEADER", "pdf_source": "SDTMIG_v3.4", "pdf_page": 35, "pdf_parent_section": "§4.2.8.3 Multiple Values for a Non-result Qualifier Variable", "pdf_verbatim": "QNAM | QLABEL | QVAL", "figure_ref": null, "candidates": [{"md_atom_id": "md_ch04_a372", "md_file": "knowledge_base/chapters/ch04_general_assumptions.md", "md_atom_type": "TABLE_HEADER", "md_parent_section": "§4.2.8.3 [Multiple Values for a Non-result Qualifier Variable]", "md_verbatim": "| QNAM | QLABEL | QVAL |\n|------|--------|------|", "score": 0.9, "match_basis": "verbatim_token+chapter_route:ch04"}, {"md_atom_id": "md_ch04_a382", "md_file": "knowledge_base/chapters/ch04_general_assumptions.md", "md_atom_type": "TABLE_HEADER", "md_parent_section": "§4.2.8.3 [Multiple Values for a Non-result Qualifier Variable]", "md_verbatim": "| QNAM | QLABEL | QVAL |\n|------|--------|------|", "score": 0.9, "match_basis": "verbatim_token+chapter_route:ch04"}, {"md_atom_id": "md_ch04_a395", "md_file": "knowledge_base/chapters/ch04_general_assumptions.md", "md_atom_type": "TABLE_HEADER", "md_parent_section": "§4.2.8.3 [Multiple Values for a Non-result Qualifier Variable]", "md_verbatim": "| QNAM | QLABEL | QVAL |\n|------|--------|------|", "score": 0.9, "match_basis": "verbatim_token+chapter_route:ch04"}, {"md_atom_id": "md_ch04_a923", "md_file": "knowledge_base/chapters/ch04_general_assumptions.md", "md_atom_type": "TABLE_HEADER", "md_parent_section": "§4.5.3.2 [Text Strings Greater than 200 Characters in Other Variables]", "md_verbatim": "| Row | STUDYID | RDOMAIN | USUBJID | IDVAR | IDVARVAL | QNAM | QLABEL | QVAL | QORIG |\n|-----|---------|---------|---------|-------|----------|------|--------|------|-------|", "score": 0.45, "match_basis": "verbatim_token+chapter_route:ch04"}, {"md_atom_id": "md_ch04_a933", "md_file": "knowledge_base/chapters/ch04_general_assumptions.md", "md_atom_type": "TABLE_HEADER", "md_parent_section": "§4.5.3.2 [Text Strings Greater than 200 Characters in Other Variables]", "md_verbatim": "| Row | STUDYID | RDOMAIN | USUBJID | IDVAR | IDVARVAL | QNAM | QLABEL | QVAL | QORIG |\n|-----|---------|---------|---------|-------|----------|------|--------|------|-------|", "score": 0.45, "match_basis": "verbatim_token+chapter_route:ch04"}], "candidate_count": 5, "zero_candidate": false}
{"pdf_atom_id": "ig34_p0035_a032", "pdf_atom_type": "TABLE_ROW", "pdf_source": "SDTMIG_v3.4", "pdf_page": 35, "pdf_parent_section": "§4.2.8.3 Multiple Values for a Non-result Qualifier Variable", "pdf_verbatim": "AERELABC | Causality of Abcicin | POSSIBLY RELATED", "figure_ref": null, "candidates": [{"md_atom_id": "md_ch04_a383", "md_file": "knowledge_base/chapters/ch04_general_assumptions.md", "md_atom_type": "TABLE_ROW", "md_parent_section": "§4.2.8.3 [Multiple Values for a Non-result Qualifier Variable]", "md_verbatim": "| AERELABC | Causality of Abcicin | POSSIBLY RELATED |", "score": 0.9, "match_basis": "verbatim_token+chapter_route:ch04"}, {"md_atom_id": "md_ch04_a966", "md_file": "knowledge_base/chapters/ch04_general_assumptions.md", "md_atom_type": "TABLE_ROW", "md_parent_section": "§4.5.4 [Evaluators in the Interventions and Events Observation Classes]", "md_verbatim": "| 2 | 12345 | AE | 99-123 | AESEQ | 3 | AEREL1 | Causality | POSSIBLY RELATED | CRF | ADJUDICATION COMMITTEE |", "score": 0.5353, "match_basis": "verbatim_token+chapter_route:ch04"}, {"md_atom_id": "md_ch04_a396", "md_file": "knowledge_base/chapters/ch04_general_assumptions.md", "md_atom_type": "TABLE_ROW", "md_parent_section": "§4.2.8.3 [Multiple Values for a Non-result Qualifier Variable]", "md_verbatim": "| AERELX | Causality of Xyzamin | UNLIKELY RELATED |", "score": 0.5211, "match_basis": "verbatim_token+chapter_route:ch04"}, {"md_atom_id": "md_ch04_a384", "md_file": "knowledge_base/chapters/ch04_general_assumptions.md", "md_atom_type": "TABLE_ROW", "md_parent_section": "§4.2.8.3 [Multiple Values for a Non-result Qualifier Variable]", "md_verbatim": "| AERELXYZ | Causality of Xyzamin | UNLIKELY RELATED |", "score": 0.5154, "match_basis": "verbatim_token+chapter_route:ch04"}, {"md_atom_id": "md_ch04_a393", "md_file": "knowledge_base/chapters/ch04_general_assumptions.md", "md_atom_type": "TABLE_ROW", "md_parent_section": "§4.2.8.3 [Multiple Values for a Non-result Qualifier Variable]", "md_verbatim": "| RASH | POSSIBLY RELATED | DOSE REDUCED |", "score": 0.4886, "match_basis": "verbatim_token+chapter_route:ch04"}], "candidate_count": 5, "zero_candidate": false}
{"pdf_atom_id": "ig34_p0035_a033", "pdf_atom_type": "TABLE_ROW", "pdf_source": "SDTMIG_v3.4", "pdf_page": 35, "pdf_parent_section": "§4.2.8.3 Multiple Values for a Non-result Qualifier Variable", "pdf_verbatim": "AERELXYZ | Causality of Xyzamin | UNLIKELY RELATED", "figure_ref": null, "candidates": [{"md_atom_id": "md_ch04_a384", "md_file": "knowledge_base/chapters/ch04_general_assumptions.md", "md_atom_type": "TABLE_ROW", "md_parent_section": "§4.2.8.3 [Multiple Values for a Non-result Qualifier Variable]", "md_verbatim": "| AERELXYZ | Causality of Xyzamin | UNLIKELY RELATED |", "score": 0.9, "match_basis": "verbatim_token+chapter_route:ch04"}, {"md_atom_id": "md_ch04_a396", "md_file": "knowledge_base/chapters/ch04_general_assumptions.md", "md_atom_type": "TABLE_ROW", "md_parent_section": "§4.2.8.3 [Multiple Values for a Non-result Qualifier Variable]", "md_verbatim": "| AERELX | Causality of Xyzamin | UNLIKELY RELATED |", "score": 0.8778, "match_basis": "verbatim_token+chapter_route:ch04"}, {"md_atom_id": "md_ch04_a383", "md_file": "knowledge_base/chapters/ch04_general_assumptions.md", "md_atom_type": "TABLE_ROW", "md_parent_section": "§4.2.8.3 [Multiple Values for a Non-result Qualifier Variable]", "md_verbatim": "| AERELABC | Causality of Abcicin | POSSIBLY RELATED |", "score": 0.5154, "match_basis": "verbatim_token+chapter_route:ch04"}, {"md_atom_id": "md_ch04_a966", "md_file": "knowledge_base/chapters/ch04_general_assumptions.md", "md_atom_type": "TABLE_ROW", "md_parent_section": "§4.5.4 [Evaluators in the Interventions and Events Observation Classes]", "md_verbatim": "| 2 | 12345 | AE | 99-123 | AESEQ | 3 | AEREL1 | Causality | POSSIBLY RELATED | CRF | ADJUDICATION COMMITTEE |", "score": 0.4448, "match_basis": "verbatim_token+chapter_route:ch04"}, {"md_atom_id": "md_ch04_a393", "md_file": "knowledge_base/chapters/ch04_general_assumptions.md", "md_atom_type": "TABLE_ROW", "md_parent_section": "§4.2.8.3 [Multiple Values for a Non-result Qualifier Variable]", "md_verbatim": "| RASH | POSSIBLY RELATED | DOSE REDUCED |", "score": 0.3714, "match_basis": "verbatim_token+chapter_route:ch04"}], "candidate_count": 5, "zero_candidate": false}
{"pdf_atom_id": "ig34_p0035_a034", "pdf_atom_type": "TABLE_ROW", "pdf_source": "SDTMIG_v3.4", "pdf_page": 35, "pdf_parent_section": "§4.2.8.3 Multiple Values for a Non-result Qualifier Variable", "pdf_verbatim": "AEACNABC | Action Taken with Abcicin | DOSE REDUCED", "figure_ref": null, "candidates": [{"md_atom_id": "md_ch04_a385", "md_file": "knowledge_base/chapters/ch04_general_assumptions.md", "md_atom_type": "TABLE_ROW", "md_parent_section": "§4.2.8.3 [Multiple Values for a Non-result Qualifier Variable]", "md_verbatim": "| AEACNABC | Action Taken with Abcicin | DOSE REDUCED |", "score": 0.9, "match_basis": "verbatim_token+chapter_route:ch04"}, {"md_atom_id": "md_ch04_a397", "md_file": "knowledge_base/chapters/ch04_general_assumptions.md", "md_atom_type": "TABLE_ROW", "md_parent_section": "§4.2.8.3 [Multiple Values for a Non-result Qualifier Variable]", "md_verbatim": "| AEACNX | Action Taken with Xyzamin | DOSE NOT CHANGED |", "score": 0.5211, "match_basis": "verbatim_token+chapter_route:ch04"}, {"md_atom_id": "md_ch04_a386", "md_file": "knowledge_base/chapters/ch04_general_assumptions.md", "md_atom_type": "TABLE_ROW", "md_parent_section": "§4.2.8.3 [Multiple Values for a Non-result Qualifier Variable]", "md_verbatim": "| AEACNXYZ | Action Taken with Xyzamin | DOSE NOT CHANGED |", "score": 0.5154, "match_basis": "verbatim_token+chapter_route:ch04"}, {"md_atom_id": "md_ch04_a934", "md_file": "knowledge_base/chapters/ch04_general_assumptions.md", "md_atom_type": "TABLE_ROW", "md_parent_section": "§4.5.3.2 [Text Strings Greater than 200 Characters in Other Variables]", "md_verbatim": "| 1 | 12345 | AE | 99-123 | AESEQ | 4 | AEACNOT1 | Other Action Taken | remaining characters of text | CRF |", "score": 0.4091, "match_basis": "verbatim_token+chapter_route:ch04"}, {"md_atom_id": "md_ch04_a393", "md_file": "knowledge_base/chapters/ch04_general_assumptions.md", "md_atom_type": "TABLE_ROW", "md_parent_section": "§4.2.8.3 [Multiple Values for a Non-result Qualifier Variable]", "md_verbatim": "| RASH | POSSIBLY RELATED | DOSE REDUCED |", "score": 0.4077, "match_basis": "verbatim_token+chapter_route:ch04"}], "candidate_count": 5, "zero_candidate": false}
{"pdf_atom_id": "ig34_p0035_a035", "pdf_atom_type": "TABLE_ROW", "pdf_source": "SDTMIG_v3.4", "pdf_page": 35, "pdf_parent_section": "§4.2.8.3 Multiple Values for a Non-result Qualifier Variable", "pdf_verbatim": "AEACNXYZ | Action Taken with Xyzamin | DOSE NOT CHANGED", "figure_ref": null, "candidates": [{"md_atom_id": "md_ch04_a386", "md_file": "knowledge_base/chapters/ch04_general_assumptions.md", "md_atom_type": "TABLE_ROW", "md_parent_section": "§4.2.8.3 [Multiple Values for a Non-result Qualifier Variable]", "md_verbatim": "| AEACNXYZ | Action Taken with Xyzamin | DOSE NOT CHANGED |", "score": 0.9, "match_basis": "verbatim_token+chapter_route:ch04"}, {"md_atom_id": "md_ch04_a397", "md_file": "knowledge_base/chapters/ch04_general_assumptions.md", "md_atom_type": "TABLE_ROW", "md_parent_section": "§4.2.8.3 [Multiple Values for a Non-result Qualifier Variable]", "md_verbatim": "| AEACNX | Action Taken with Xyzamin | DOSE NOT CHANGED |", "score": 0.8778, "match_basis": "verbatim_token+chapter_route:ch04"}, {"md_atom_id": "md_ch04_a385", "md_file": "knowledge_base/chapters/ch04_general_assumptions.md", "md_atom_type": "TABLE_ROW", "md_parent_section": "§4.2.8.3 [Multiple Values for a Non-result Qualifier Variable]", "md_verbatim": "| AEACNABC | Action Taken with Abcicin | DOSE REDUCED |", "score": 0.5154, "match_basis": "verbatim_token+chapter_route:ch04"}, {"md_atom_id": "md_ch04_a934", "md_file": "knowledge_base/chapters/ch04_general_assumptions.md", "md_atom_type": "TABLE_ROW", "md_parent_section": "§4.5.3.2 [Text Strings Greater than 200 Characters in Other Variables]", "md_verbatim": "| 1 | 12345 | AE | 99-123 | AESEQ | 4 | AEACNOT1 | Other Action Taken | remaining characters of text | CRF |", "score": 0.4333, "match_basis": "verbatim_token+chapter_route:ch04"}, {"md_atom_id": "md_ch04_a373", "md_file": "knowledge_base/chapters/ch04_general_assumptions.md", "md_atom_type": "TABLE_ROW", "md_parent_section": "§4.2.8.3 [Multiple Values for a Non-result Qualifier Variable]", "md_verbatim": "| AELOC1 | Location of the Reaction 1 | FACE |", "score": 0.3789, "match_basis": "verbatim_token+chapter_route:ch04"}], "candidate_count": 5, "zero_candidate": false}
{"pdf_atom_id": "ig34_p0035_a036", "pdf_atom_type": "SENTENCE", "pdf_source": "SDTMIG_v3.4", "pdf_page": 35, "pdf_parent_section": "§4.2.8.3 Multiple Values for a Non-result Qualifier Variable", "pdf_verbatim": "In each of these examples, the use of SUPPAE should be documented in the Define-XML document and the annotated CRF.", "figure_ref": null, "candidates": [{"md_atom_id": "md_ch04_a387", "md_file": "knowledge_base/chapters/ch04_general_assumptions.md", "md_atom_type": "SENTENCE", "md_parent_section": "§4.2.8.3 [Multiple Values for a Non-result Qualifier Variable]", "md_verbatim": "In each of these examples, the use of SUPPAE should be documented in the Define-XML document and the annotated CRF.", "score": 0.9, "match_basis": "verbatim_token+chapter_route:ch04"}, {"md_atom_id": "md_ch04_a399", "md_file": "knowledge_base/chapters/ch04_general_assumptions.md", "md_atom_type": "SENTENCE", "md_parent_section": "§4.2.8.3 [Multiple Values for a Non-result Qualifier Variable]", "md_verbatim": "This association must be clearly documented in the metadata and annotated CRF.", "score": 0.4569, "match_basis": "verbatim_token+chapter_route:ch04"}, {"md_atom_id": "md_ch04_a028", "md_file": "knowledge_base/chapters/ch04_general_assumptions.md", "md_atom_type": "SENTENCE", "md_parent_section": "§4.1.4 [Order of the Variables]", "md_verbatim": "The order of variables in the Define-XML document must reflect the order of variables in the dataset.", "score": 0.4258, "match_basis": "verbatim_token+chapter_route:ch04"}, {"md_atom_id": "md_ch04_a127", "md_file": "knowledge_base/chapters/ch04_general_assumptions.md", "md_atom_type": "SENTENCE", "md_parent_section": "§4.1.8.1 [Origin Metadata for Variables]", "md_verbatim": "For example, data could be collected (on the CRF, from a vendor, or from a device), derived, or assigned; CRF data should be traceable to an annotated CRF and derived data should be traceable to some derivation algorithm.", "score": 0.4226, "match_basis": "verbatim_token+chapter_route:ch04"}, {"md_atom_id": "md_ch04_a388", "md_file": "knowledge_base/chapters/ch04_general_assumptions.md", "md_atom_type": "SENTENCE", "md_parent_section": "§4.2.8.3 [Multiple Values for a Non-result Qualifier Variable]", "md_verbatim": "The controlled terminology used should be documented as part of value-level metadata.", "score": 0.4151, "match_basis": "verbatim_token+chapter_route:ch04"}], "candidate_count": 5, "zero_candidate": false}
{"pdf_atom_id": "ig34_p0035_a037", "pdf_atom_type": "SENTENCE", "pdf_source": "SDTMIG_v3.4", "pdf_page": 35, "pdf_parent_section": "§4.2.8.3 Multiple Values for a Non-result Qualifier Variable", "pdf_verbatim": "The controlled terminology used should be documented as part of value-level metadata.", "figure_ref": null, "candidates": [{"md_atom_id": "md_ch04_a388", "md_file": "knowledge_base/chapters/ch04_general_assumptions.md", "md_atom_type": "SENTENCE", "md_parent_section": "§4.2.8.3 [Multiple Values for a Non-result Qualifier Variable]", "md_verbatim": "The controlled terminology used should be documented as part of value-level metadata.", "score": 0.9, "match_basis": "verbatim_token+chapter_route:ch04"}, {"md_atom_id": "md_ch04_a991", "md_file": "knowledge_base/chapters/ch04_general_assumptions.md", "md_atom_type": "SENTENCE", "md_parent_section": "§4.5.7 [Presence or Absence of Prespecified Interventions and Events]", "md_verbatim": "It has controlled terminology of \"Y\" (for \"Yes\") or a null value.", "score": 0.5353, "match_basis": "verbatim_token+chapter_route:ch04"}, {"md_atom_id": "md_ch04_a430", "md_file": "knowledge_base/chapters/ch04_general_assumptions.md", "md_atom_type": "SENTENCE", "md_parent_section": "§4.3.3 [Controlled Terminology Values]", "md_verbatim": "The controlled terminology or a reference to it should be included in the Define-XML document wherever applicable.", "score": 0.5289, "match_basis": "verbatim_token+chapter_route:ch04"}, {"md_atom_id": "md_ch04_a365", "md_file": "knowledge_base/chapters/ch04_general_assumptions.md", "md_atom_type": "SENTENCE", "md_parent_section": "§4.2.8.3 [Multiple Values for a Non-result Qualifier Variable]", "md_verbatim": "The values stored in QVAL should be consistent with the controlled terminology associated with the standard variable.", "score": 0.5051, "match_basis": "verbatim_token+chapter_route:ch04"}, {"md_atom_id": "md_ch04_a995", "md_file": "knowledge_base/chapters/ch04_general_assumptions.md", "md_atom_type": "SENTENCE", "md_parent_section": "§4.5.7 [Presence or Absence of Prespecified Interventions and Events]", "md_verbatim": "It has controlled terminology of \"Y\" and \"N\" (for \"Yes\" and \"No\").", "score": 0.504, "match_basis": "verbatim_token+chapter_route:ch04"}], "candidate_count": 5, "zero_candidate": false}
{"pdf_atom_id": "ig34_p0035_a038", "pdf_atom_type": "SENTENCE", "pdf_source": "SDTMIG_v3.4", "pdf_page": 35, "pdf_parent_section": "§4.2.8.3 Multiple Values for a Non-result Qualifier Variable", "pdf_verbatim": "If the sponsor has clearly documented that one response is of primary interest (e.g., in the CRF, protocol, or analysis plan), the standard domain variable may be populated with the primary response and SUPP-- may be used to store the secondary response(s).", "figure_ref": null, "candidates": [{"md_atom_id": "md_ch04_a389", "md_file": "knowledge_base/chapters/ch04_general_assumptions.md", "md_atom_type": "SENTENCE", "md_parent_section": "§4.2.8.3 [Multiple Values for a Non-result Qualifier Variable]", "md_verbatim": "If the sponsor has clearly documented that one response is of primary interest (e.g., in the CRF, protocol, or analysis plan), the standard domain variable may be populated with the primary response and SUPP-- may be used to store the secondary response(s).", "score": 0.9, "match_basis": "verbatim_token+chapter_route:ch04"}, {"md_atom_id": "md_ch04_a955", "md_file": "knowledge_base/chapters/ch04_general_assumptions.md", "md_atom_type": "SENTENCE", "md_parent_section": "§4.5.4 [Evaluators in the Interventions and Events Observation Classes]", "md_verbatim": "For observations that have primary and secondary evaluations of specific qualifier variables, sponsors should put data from the primary evaluation into the standard domain dataset and data from the secondary evaluation into the Supplemental Qualifier datasets (SUPP--).", "score": 0.4664, "match_basis": "verbatim_token+chapter_route:ch04"}, {"md_atom_id": "md_ch04_a362", "md_file": "knowledge_base/chapters/ch04_general_assumptions.md", "md_atom_type": "SENTENCE", "md_parent_section": "§4.2.8.3 [Multiple Values for a Non-result Qualifier Variable]", "md_verbatim": "It is recommended that the SUPP-- QNAM value reference the corresponding standard domain variable with an appended number or letter.", "score": 0.46, "match_basis": "verbatim_token+chapter_route:ch04"}, {"md_atom_id": "md_ch04_a956", "md_file": "knowledge_base/chapters/ch04_general_assumptions.md", "md_atom_type": "SENTENCE", "md_parent_section": "§4.5.4 [Evaluators in the Interventions and Events Observation Classes]", "md_verbatim": "Within each SUPP-- record, the value for QNAM should be formed by appending a \"1\" to the corresponding standard domain variable name.", "score": 0.4397, "match_basis": "verbatim_token+chapter_route:ch04"}, {"md_atom_id": "md_ch04_a957", "md_file": "knowledge_base/chapters/ch04_general_assumptions.md", "md_atom_type": "SENTENCE", "md_parent_section": "§4.5.4 [Evaluators in the Interventions and Events Observation Classes]", "md_verbatim": "In cases where the standard domain variable name is already 8 characters in length, sponsors should replace the last character with a \"1\" (incremented for each additional attribution).", "score": 0.4352, "match_basis": "verbatim_token+chapter_route:ch04"}], "candidate_count": 5, "zero_candidate": false}
{"pdf_atom_id": "ig34_p0035_a039", "pdf_atom_type": "SENTENCE", "pdf_source": "SDTMIG_v3.4", "pdf_page": 35, "pdf_parent_section": "§4.2.8.3 Multiple Values for a Non-result Qualifier Variable", "pdf_verbatim": "For example, if Abcicin is designated as the primary study drug in the example above:", "figure_ref": null, "candidates": [{"md_atom_id": "md_ch04_a390", "md_file": "knowledge_base/chapters/ch04_general_assumptions.md", "md_atom_type": "NOTE", "md_parent_section": "§4.2.8.3 [Multiple Values for a Non-result Qualifier Variable]", "md_verbatim": "**Example 3:** If Abcicin is designated as the primary study drug in the example above:", "score": 0.7918, "match_basis": "verbatim_token+chapter_route:ch04"}, {"md_atom_id": "md_ch04_a320", "md_file": "knowledge_base/chapters/ch04_general_assumptions.md", "md_atom_type": "SENTENCE", "md_parent_section": "§4.2.7.3 [\"Specify\" Values for Topic Variables]", "md_verbatim": "For example:", "score": 0.4091, "match_basis": "verbatim_token+chapter_route:ch04"}, {"md_atom_id": "md_ch04_a354", "md_file": "knowledge_base/chapters/ch04_general_assumptions.md", "md_atom_type": "SENTENCE", "md_parent_section": "§4.2.8.2 [Multiple Values for a Findings Result Variable]", "md_verbatim": "For example:", "score": 0.4091, "match_basis": "verbatim_token+chapter_route:ch04"}, {"md_atom_id": "md_ch04_a402", "md_file": "knowledge_base/chapters/ch04_general_assumptions.md", "md_atom_type": "SENTENCE", "md_parent_section": "§4.2.8.4 [Multiple Values for a Parameter]", "md_verbatim": "For example:", "score": 0.4091, "match_basis": "verbatim_token+chapter_route:ch04"}, {"md_atom_id": "md_ch04_a834", "md_file": "knowledge_base/chapters/ch04_general_assumptions.md", "md_atom_type": "SENTENCE", "md_parent_section": "§4.5.1.3 [Examples of Original and Standard Units and Test Not Done]", "md_verbatim": "**Example 1 (lb.xpt)**", "score": 0.3882, "match_basis": "verbatim_token+chapter_route:ch04"}], "candidate_count": 5, "zero_candidate": false}
{"pdf_atom_id": "ig34_p0035_a040", "pdf_atom_type": "CODE_LITERAL", "pdf_source": "SDTMIG_v3.4", "pdf_page": 35, "pdf_parent_section": "§4.2.8.3 Multiple Values for a Non-result Qualifier Variable", "pdf_verbatim": "ae.xpt", "figure_ref": null, "candidates": [{"md_atom_id": "md_ch04_a207", "md_file": "knowledge_base/chapters/ch04_general_assumptions.md", "md_atom_type": "CODE_LITERAL", "md_parent_section": "§4.2.3 [Use of \"Subject\" and USUBJID]", "md_verbatim": "dm.xpt:", "score": 0.69, "match_basis": "verbatim_token+chapter_route:ch04"}, {"md_atom_id": "md_ch04_a210", "md_file": "knowledge_base/chapters/ch04_general_assumptions.md", "md_atom_type": "CODE_LITERAL", "md_parent_section": "§4.2.3 [Use of \"Subject\" and USUBJID]", "md_verbatim": "dm.xpt:", "score": 0.69, "match_basis": "verbatim_token+chapter_route:ch04"}, {"md_atom_id": "md_ch04_a368", "md_file": "knowledge_base/chapters/ch04_general_assumptions.md", "md_atom_type": "CODE_LITERAL", "md_parent_section": "§4.2.8.3 [Multiple Values for a Non-result Qualifier Variable]", "md_verbatim": "ae.xpt:", "score": 0.69, "match_basis": "verbatim_token+chapter_route:ch04"}, {"md_atom_id": "md_ch04_a378", "md_file": "knowledge_base/chapters/ch04_general_assumptions.md", "md_atom_type": "CODE_LITERAL", "md_parent_section": "§4.2.8.3 [Multiple Values for a Non-result Qualifier Variable]", "md_verbatim": "ae.xpt:", "score": 0.69, "match_basis": "verbatim_token+chapter_route:ch04"}, {"md_atom_id": "md_ch04_a391", "md_file": "knowledge_base/chapters/ch04_general_assumptions.md", "md_atom_type": "CODE_LITERAL", "md_parent_section": "§4.2.8.3 [Multiple Values for a Non-result Qualifier Variable]", "md_verbatim": "ae.xpt:", "score": 0.69, "match_basis": "verbatim_token+chapter_route:ch04"}, {"md_atom_id": "md_ch04_a835", "md_file": "knowledge_base/chapters/ch04_general_assumptions.md", "md_atom_type": "CODE_LITERAL", "md_parent_section": "§4.5.1.3 [Examples of Original and Standard Units and Test Not Done]", "md_verbatim": "lb.xpt", "score": 0.69, "match_basis": "verbatim_token+chapter_route:ch04"}, {"md_atom_id": "md_ch04_a861", "md_file": "knowledge_base/chapters/ch04_general_assumptions.md", "md_atom_type": "CODE_LITERAL", "md_parent_section": "§4.5.1.3 [Examples of Original and Standard Units and Test Not Done]", "md_verbatim": "eg.xpt", "score": 0.69, "match_basis": "verbatim_token+chapter_route:ch04"}, {"md_atom_id": "md_ch04_a877", "md_file": "knowledge_base/chapters/ch04_general_assumptions.md", "md_atom_type": "CODE_LITERAL", "md_parent_section": "§4.5.1.3 [Examples of Original and Standard Units and Test Not Done]", "md_verbatim": "vs.xpt", "score": 0.69, "match_basis": "verbatim_token+chapter_route:ch04"}, {"md_atom_id": "md_ch04_a917", "md_file": "knowledge_base/chapters/ch04_general_assumptions.md", "md_atom_type": "CODE_LITERAL", "md_parent_section": "§4.5.3.2 [Text Strings Greater than 200 Characters in Other Variables]", "md_verbatim": "mh.xpt", "score": 0.69, "match_basis": "verbatim_token+chapter_route:ch04"}, {"md_atom_id": "md_ch04_a919", "md_file": "knowledge_base/chapters/ch04_general_assumptions.md", "md_atom_type": "SENTENCE", "md_parent_section": "§4.5.3.2 [Text Strings Greater than 200 Characters in Other Variables]", "md_verbatim": "mh.xpt:", "score": 0.69, "match_basis": "verbatim_token+chapter_route:ch04"}], "candidate_count": 10, "zero_candidate": false}
{"pdf_atom_id": "ig34_p0035_a041", "pdf_atom_type": "TABLE_HEADER", "pdf_source": "SDTMIG_v3.4", "pdf_page": 35, "pdf_parent_section": "§4.2.8.3 Multiple Values for a Non-result Qualifier Variable", "pdf_verbatim": "AETERM | AEREL | AEACN", "figure_ref": null, "candidates": [{"md_atom_id": "md_ch04_a379", "md_file": "knowledge_base/chapters/ch04_general_assumptions.md", "md_atom_type": "TABLE_HEADER", "md_parent_section": "§4.2.8.3 [Multiple Values for a Non-result Qualifier Variable]", "md_verbatim": "| AETERM | AEREL | AEACN |\n|--------|-------|-------|", "score": 0.9, "match_basis": "verbatim_token+chapter_route:ch04"}, {"md_atom_id": "md_ch04_a392", "md_file": "knowledge_base/chapters/ch04_general_assumptions.md", "md_atom_type": "TABLE_HEADER", "md_parent_section": "§4.2.8.3 [Multiple Values for a Non-result Qualifier Variable]", "md_verbatim": "| AETERM | AEREL | AEACN |\n|--------|-------|-------|", "score": 0.9, "match_basis": "verbatim_token+chapter_route:ch04"}, {"md_atom_id": "md_ch04_a369", "md_file": "knowledge_base/chapters/ch04_general_assumptions.md", "md_atom_type": "TABLE_HEADER", "md_parent_section": "§4.2.8.3 [Multiple Values for a Non-result Qualifier Variable]", "md_verbatim": "| AETERM | AELOC |\n|--------|-------|", "score": 0.4846, "match_basis": "verbatim_token+chapter_route:ch04"}, {"md_atom_id": "md_ch04_a930", "md_file": "knowledge_base/chapters/ch04_general_assumptions.md", "md_atom_type": "TABLE_HEADER", "md_parent_section": "§4.5.3.2 [Text Strings Greater than 200 Characters in Other Variables]", "md_verbatim": "| Row | STUDYID | DOMAIN | USUBJID | AESEQ | AETERM | AEACNOTH |\n|-----|---------|--------|---------|-------|--------|----------|", "score": 0.4355, "match_basis": "verbatim_token+chapter_route:ch04"}, {"md_atom_id": "md_ch04_a462", "md_file": "knowledge_base/chapters/ch04_general_assumptions.md", "md_atom_type": "TABLE_ROW", "md_parent_section": "§4.3.6 [Storing Topic Variables for General Domain Models]", "md_verbatim": "| AE | AETERM | AEMODIFY | AEDECOD |", "score": 0.3543, "match_basis": "verbatim_token+chapter_route:ch04"}], "candidate_count": 5, "zero_candidate": false}
{"pdf_atom_id": "ig34_p0035_a042", "pdf_atom_type": "TABLE_ROW", "pdf_source": "SDTMIG_v3.4", "pdf_page": 35, "pdf_parent_section": "§4.2.8.3 Multiple Values for a Non-result Qualifier Variable", "pdf_verbatim": "RASH | POSSIBLY RELATED | DOSE REDUCED", "figure_ref": null, "candidates": [{"md_atom_id": "md_ch04_a393", "md_file": "knowledge_base/chapters/ch04_general_assumptions.md", "md_atom_type": "TABLE_ROW", "md_parent_section": "§4.2.8.3 [Multiple Values for a Non-result Qualifier Variable]", "md_verbatim": "| RASH | POSSIBLY RELATED | DOSE REDUCED |", "score": 0.9, "match_basis": "verbatim_token+chapter_route:ch04"}, {"md_atom_id": "md_ch04_a383", "md_file": "knowledge_base/chapters/ch04_general_assumptions.md", "md_atom_type": "TABLE_ROW", "md_parent_section": "§4.2.8.3 [Multiple Values for a Non-result Qualifier Variable]", "md_verbatim": "| AERELABC | Causality of Abcicin | POSSIBLY RELATED |", "score": 0.4886, "match_basis": "verbatim_token+chapter_route:ch04"}, {"md_atom_id": "md_ch04_a966", "md_file": "knowledge_base/chapters/ch04_general_assumptions.md", "md_atom_type": "TABLE_ROW", "md_parent_section": "§4.5.4 [Evaluators in the Interventions and Events Observation Classes]", "md_verbatim": "| 2 | 12345 | AE | 99-123 | AESEQ | 3 | AEREL1 | Causality | POSSIBLY RELATED | CRF | ADJUDICATION COMMITTEE |", "score": 0.4222, "match_basis": "verbatim_token+chapter_route:ch04"}, {"md_atom_id": "md_ch04_a385", "md_file": "knowledge_base/chapters/ch04_general_assumptions.md", "md_atom_type": "TABLE_ROW", "md_parent_section": "§4.2.8.3 [Multiple Values for a Non-result Qualifier Variable]", "md_verbatim": "| AEACNABC | Action Taken with Abcicin | DOSE REDUCED |", "score": 0.4077, "match_basis": "verbatim_token+chapter_route:ch04"}, {"md_atom_id": "md_ch04_a967", "md_file": "knowledge_base/chapters/ch04_general_assumptions.md", "md_atom_type": "TABLE_ROW", "md_parent_section": "§4.5.4 [Evaluators in the Interventions and Events Observation Classes]", "md_verbatim": "| 3 | 12345 | AE | 99-123 | AESEQ | 3 | AERELNS1 | Relationship to Non-study Treatment | Possibly related to aspirin use | CRF | ADJUDICATION COMMITTEE |", "score": 0.3943, "match_basis": "verbatim_token+chapter_route:ch04"}], "candidate_count": 5, "zero_candidate": false}
{"pdf_atom_id": "ig34_p0036_a001", "pdf_atom_type": "CODE_LITERAL", "pdf_source": "SDTMIG_v3.4", "pdf_page": 36, "pdf_parent_section": "§4.2.8.3 Multiple Values for a Non-result Qualifier Variable", "pdf_verbatim": "suppae.xpt", "figure_ref": null, "candidates": [{"md_atom_id": "md_ch04_a371", "md_file": "knowledge_base/chapters/ch04_general_assumptions.md", "md_atom_type": "CODE_LITERAL", "md_parent_section": "§4.2.8.3 [Multiple Values for a Non-result Qualifier Variable]", "md_verbatim": "suppae.xpt:", "score": 0.69, "match_basis": "verbatim_token+chapter_route:ch04"}, {"md_atom_id": "md_ch04_a381", "md_file": "knowledge_base/chapters/ch04_general_assumptions.md", "md_atom_type": "CODE_LITERAL", "md_parent_section": "§4.2.8.3 [Multiple Values for a Non-result Qualifier Variable]", "md_verbatim": "suppae.xpt:", "score": 0.69, "match_basis": "verbatim_token+chapter_route:ch04"}, {"md_atom_id": "md_ch04_a394", "md_file": "knowledge_base/chapters/ch04_general_assumptions.md", "md_atom_type": "CODE_LITERAL", "md_parent_section": "§4.2.8.3 [Multiple Values for a Non-result Qualifier Variable]", "md_verbatim": "suppae.xpt:", "score": 0.69, "match_basis": "verbatim_token+chapter_route:ch04"}, {"md_atom_id": "md_ch04_a928", "md_file": "knowledge_base/chapters/ch04_general_assumptions.md", "md_atom_type": "CODE_LITERAL", "md_parent_section": "§4.5.3.2 [Text Strings Greater than 200 Characters in Other Variables]", "md_verbatim": "suppae.xpt", "score": 0.69, "match_basis": "verbatim_token+chapter_route:ch04"}, {"md_atom_id": "md_ch04_a932", "md_file": "knowledge_base/chapters/ch04_general_assumptions.md", "md_atom_type": "SENTENCE", "md_parent_section": "§4.5.3.2 [Text Strings Greater than 200 Characters in Other Variables]", "md_verbatim": "suppae.xpt:", "score": 0.69, "match_basis": "verbatim_token+chapter_route:ch04"}, {"md_atom_id": "md_ch04_a963", "md_file": "knowledge_base/chapters/ch04_general_assumptions.md", "md_atom_type": "SENTENCE", "md_parent_section": "§4.5.4 [Evaluators in the Interventions and Events Observation Classes]", "md_verbatim": "suppae.xpt:", "score": 0.69, "match_basis": "verbatim_token+chapter_route:ch04"}, {"md_atom_id": "md_ch04_a918", "md_file": "knowledge_base/chapters/ch04_general_assumptions.md", "md_atom_type": "CODE_LITERAL", "md_parent_section": "§4.5.3.2 [Text Strings Greater than 200 Characters in Other Variables]", "md_verbatim": "suppmh.xpt", "score": 0.3471, "match_basis": "verbatim_token+chapter_route:ch04"}, {"md_atom_id": "md_ch04_a922", "md_file": "knowledge_base/chapters/ch04_general_assumptions.md", "md_atom_type": "SENTENCE", "md_parent_section": "§4.5.3.2 [Text Strings Greater than 200 Characters in Other Variables]", "md_verbatim": "suppmh.xpt:", "score": 0.3471, "match_basis": "verbatim_token+chapter_route:ch04"}, {"md_atom_id": "md_ch04_a937", "md_file": "knowledge_base/chapters/ch04_general_assumptions.md", "md_atom_type": "CODE_LITERAL", "md_parent_section": "§4.5.3.2 [Text Strings Greater than 200 Characters in Other Variables]", "md_verbatim": "supppr.xpt", "score": 0.3471, "match_basis": "verbatim_token+chapter_route:ch04"}, {"md_atom_id": "md_ch04_a941", "md_file": "knowledge_base/chapters/ch04_general_assumptions.md", "md_atom_type": "SENTENCE", "md_parent_section": "§4.5.3.2 [Text Strings Greater than 200 Characters in Other Variables]", "md_verbatim": "supppr.xpt:", "score": 0.3471, "match_basis": "verbatim_token+chapter_route:ch04"}], "candidate_count": 10, "zero_candidate": false}
{"pdf_atom_id": "ig34_p0036_a002", "pdf_atom_type": "TABLE_HEADER", "pdf_source": "SDTMIG_v3.4", "pdf_page": 36, "pdf_parent_section": "§4.2.8.3 Multiple Values for a Non-result Qualifier Variable", "pdf_verbatim": "QNAM | QLABEL | QVAL", "figure_ref": null, "candidates": [{"md_atom_id": "md_ch04_a372", "md_file": "knowledge_base/chapters/ch04_general_assumptions.md", "md_atom_type": "TABLE_HEADER", "md_parent_section": "§4.2.8.3 [Multiple Values for a Non-result Qualifier Variable]", "md_verbatim": "| QNAM | QLABEL | QVAL |\n|------|--------|------|", "score": 0.9, "match_basis": "verbatim_token+chapter_route:ch04"}, {"md_atom_id": "md_ch04_a382", "md_file": "knowledge_base/chapters/ch04_general_assumptions.md", "md_atom_type": "TABLE_HEADER", "md_parent_section": "§4.2.8.3 [Multiple Values for a Non-result Qualifier Variable]", "md_verbatim": "| QNAM | QLABEL | QVAL |\n|------|--------|------|", "score": 0.9, "match_basis": "verbatim_token+chapter_route:ch04"}, {"md_atom_id": "md_ch04_a395", "md_file": "knowledge_base/chapters/ch04_general_assumptions.md", "md_atom_type": "TABLE_HEADER", "md_parent_section": "§4.2.8.3 [Multiple Values for a Non-result Qualifier Variable]", "md_verbatim": "| QNAM | QLABEL | QVAL |\n|------|--------|------|", "score": 0.9, "match_basis": "verbatim_token+chapter_route:ch04"}, {"md_atom_id": "md_ch04_a923", "md_file": "knowledge_base/chapters/ch04_general_assumptions.md", "md_atom_type": "TABLE_HEADER", "md_parent_section": "§4.5.3.2 [Text Strings Greater than 200 Characters in Other Variables]", "md_verbatim": "| Row | STUDYID | RDOMAIN | USUBJID | IDVAR | IDVARVAL | QNAM | QLABEL | QVAL | QORIG |\n|-----|---------|---------|---------|-------|----------|------|--------|------|-------|", "score": 0.45, "match_basis": "verbatim_token+chapter_route:ch04"}, {"md_atom_id": "md_ch04_a933", "md_file": "knowledge_base/chapters/ch04_general_assumptions.md", "md_atom_type": "TABLE_HEADER", "md_parent_section": "§4.5.3.2 [Text Strings Greater than 200 Characters in Other Variables]", "md_verbatim": "| Row | STUDYID | RDOMAIN | USUBJID | IDVAR | IDVARVAL | QNAM | QLABEL | QVAL | QORIG |\n|-----|---------|---------|---------|-------|----------|------|--------|------|-------|", "score": 0.45, "match_basis": "verbatim_token+chapter_route:ch04"}], "candidate_count": 5, "zero_candidate": false}
{"pdf_atom_id": "ig34_p0036_a003", "pdf_atom_type": "TABLE_ROW", "pdf_source": "SDTMIG_v3.4", "pdf_page": 36, "pdf_parent_section": "§4.2.8.3 Multiple Values for a Non-result Qualifier Variable", "pdf_verbatim": "AERELX | Causality of Xyzamin | UNLIKELY RELATED", "figure_ref": null, "candidates": [{"md_atom_id": "md_ch04_a396", "md_file": "knowledge_base/chapters/ch04_general_assumptions.md", "md_atom_type": "TABLE_ROW", "md_parent_section": "§4.2.8.3 [Multiple Values for a Non-result Qualifier Variable]", "md_verbatim": "| AERELX | Causality of Xyzamin | UNLIKELY RELATED |", "score": 0.9, "match_basis": "verbatim_token+chapter_route:ch04"}, {"md_atom_id": "md_ch04_a384", "md_file": "knowledge_base/chapters/ch04_general_assumptions.md", "md_atom_type": "TABLE_ROW", "md_parent_section": "§4.2.8.3 [Multiple Values for a Non-result Qualifier Variable]", "md_verbatim": "| AERELXYZ | Causality of Xyzamin | UNLIKELY RELATED |", "score": 0.8778, "match_basis": "verbatim_token+chapter_route:ch04"}, {"md_atom_id": "md_ch04_a383", "md_file": "knowledge_base/chapters/ch04_general_assumptions.md", "md_atom_type": "TABLE_ROW", "md_parent_section": "§4.2.8.3 [Multiple Values for a Non-result Qualifier Variable]", "md_verbatim": "| AERELABC | Causality of Abcicin | POSSIBLY RELATED |", "score": 0.5211, "match_basis": "verbatim_token+chapter_route:ch04"}, {"md_atom_id": "md_ch04_a966", "md_file": "knowledge_base/chapters/ch04_general_assumptions.md", "md_atom_type": "TABLE_ROW", "md_parent_section": "§4.5.4 [Evaluators in the Interventions and Events Observation Classes]", "md_verbatim": "| 2 | 12345 | AE | 99-123 | AESEQ | 3 | AEREL1 | Causality | POSSIBLY RELATED | CRF | ADJUDICATION COMMITTEE |", "score": 0.4474, "match_basis": "verbatim_token+chapter_route:ch04"}, {"md_atom_id": "md_ch04_a393", "md_file": "knowledge_base/chapters/ch04_general_assumptions.md", "md_atom_type": "TABLE_ROW", "md_parent_section": "§4.2.8.3 [Multiple Values for a Non-result Qualifier Variable]", "md_verbatim": "| RASH | POSSIBLY RELATED | DOSE REDUCED |", "score": 0.3732, "match_basis": "verbatim_token+chapter_route:ch04"}], "candidate_count": 5, "zero_candidate": false}
{"pdf_atom_id": "ig34_p0036_a004", "pdf_atom_type": "TABLE_ROW", "pdf_source": "SDTMIG_v3.4", "pdf_page": 36, "pdf_parent_section": "§4.2.8.3 Multiple Values for a Non-result Qualifier Variable", "pdf_verbatim": "AEACNX | Action Taken with Xyzamin | DOSE NOT CHANGED", "figure_ref": null, "candidates": [{"md_atom_id": "md_ch04_a397", "md_file": "knowledge_base/chapters/ch04_general_assumptions.md", "md_atom_type": "TABLE_ROW", "md_parent_section": "§4.2.8.3 [Multiple Values for a Non-result Qualifier Variable]", "md_verbatim": "| AEACNX | Action Taken with Xyzamin | DOSE NOT CHANGED |", "score": 0.9, "match_basis": "verbatim_token+chapter_route:ch04"}, {"md_atom_id": "md_ch04_a386", "md_file": "knowledge_base/chapters/ch04_general_assumptions.md", "md_atom_type": "TABLE_ROW", "md_parent_section": "§4.2.8.3 [Multiple Values for a Non-result Qualifier Variable]", "md_verbatim": "| AEACNXYZ | Action Taken with Xyzamin | DOSE NOT CHANGED |", "score": 0.8778, "match_basis": "verbatim_token+chapter_route:ch04"}, {"md_atom_id": "md_ch04_a385", "md_file": "knowledge_base/chapters/ch04_general_assumptions.md", "md_atom_type": "TABLE_ROW", "md_parent_section": "§4.2.8.3 [Multiple Values for a Non-result Qualifier Variable]", "md_verbatim": "| AEACNABC | Action Taken with Abcicin | DOSE REDUCED |", "score": 0.5211, "match_basis": "verbatim_token+chapter_route:ch04"}, {"md_atom_id": "md_ch04_a934", "md_file": "knowledge_base/chapters/ch04_general_assumptions.md", "md_atom_type": "TABLE_ROW", "md_parent_section": "§4.5.3.2 [Text Strings Greater than 200 Characters in Other Variables]", "md_verbatim": "| 1 | 12345 | AE | 99-123 | AESEQ | 4 | AEACNOT1 | Other Action Taken | remaining characters of text | CRF |", "score": 0.4358, "match_basis": "verbatim_token+chapter_route:ch04"}, {"md_atom_id": "md_ch04_a373", "md_file": "knowledge_base/chapters/ch04_general_assumptions.md", "md_atom_type": "TABLE_ROW", "md_parent_section": "§4.2.8.3 [Multiple Values for a Non-result Qualifier Variable]", "md_verbatim": "| AELOC1 | Location of the Reaction 1 | FACE |", "score": 0.3811, "match_basis": "verbatim_token+chapter_route:ch04"}], "candidate_count": 5, "zero_candidate": false}
{"pdf_atom_id": "ig34_p0036_a005", "pdf_atom_type": "SENTENCE", "pdf_source": "SDTMIG_v3.4", "pdf_page": 36, "pdf_parent_section": "§4.2.8.3 Multiple Values for a Non-result Qualifier Variable", "pdf_verbatim": "Note that in the latter case, the label for standard variables AEREL and AEACN will have no indication that they pertain to Abcicin.", "figure_ref": null, "candidates": [{"md_atom_id": "md_ch04_a398", "md_file": "knowledge_base/chapters/ch04_general_assumptions.md", "md_atom_type": "SENTENCE", "md_parent_section": "§4.2.8.3 [Multiple Values for a Non-result Qualifier Variable]", "md_verbatim": "Note that in the latter case, the label for standard variables AEREL and AEACN will have no indication that they pertain to Abcicin.", "score": 0.9, "match_basis": "verbatim_token+chapter_route:ch04"}, {"md_atom_id": "md_ch04_a961", "md_file": "knowledge_base/chapters/ch04_general_assumptions.md", "md_atom_type": "SENTENCE", "md_parent_section": "§4.5.4 [Evaluators in the Interventions and Events Observation Classes]", "md_verbatim": "See Section 8.4, Relating Non-standard Variable Values to a Parent Domain.", "score": 0.4421, "match_basis": "verbatim_token+chapter_route:ch04"}, {"md_atom_id": "md_ch04_a507", "md_file": "knowledge_base/chapters/ch04_general_assumptions.md", "md_atom_type": "SENTENCE", "md_parent_section": "§4.4.1 [Formats for Date/Time Variables]", "md_verbatim": "Implementation of the ISO 8601 standard means that date/time variables are character/text data types.", "score": 0.4348, "match_basis": "verbatim_token+chapter_route:ch04"}, {"md_atom_id": "md_ch04_a425", "md_file": "knowledge_base/chapters/ch04_general_assumptions.md", "md_atom_type": "SENTENCE", "md_parent_section": "§4.3.1 [Controlled Terms, Codelist or Format Column]", "md_verbatim": "In addition, the Controlled Terms, Codelist or Format column has been used to indicate variables that use an ISO 8601 format.", "score": 0.4226, "match_basis": "verbatim_token+chapter_route:ch04"}, {"md_atom_id": "md_ch04_a955", "md_file": "knowledge_base/chapters/ch04_general_assumptions.md", "md_atom_type": "SENTENCE", "md_parent_section": "§4.5.4 [Evaluators in the Interventions and Events Observation Classes]", "md_verbatim": "For observations that have primary and secondary evaluations of specific qualifier variables, sponsors should put data from the primary evaluation into the standard domain dataset and data from the secondary evaluation into the Supplemental Qualifier datasets (SUPP--).", "score": 0.418, "match_basis": "verbatim_token+chapter_route:ch04"}], "candidate_count": 5, "zero_candidate": false}
{"pdf_atom_id": "ig34_p0036_a006", "pdf_atom_type": "SENTENCE", "pdf_source": "SDTMIG_v3.4", "pdf_page": 36, "pdf_parent_section": "§4.2.8.3 Multiple Values for a Non-result Qualifier Variable", "pdf_verbatim": "This association must be clearly documented in the metadata and annotated CRF.", "figure_ref": null, "candidates": [{"md_atom_id": "md_ch04_a399", "md_file": "knowledge_base/chapters/ch04_general_assumptions.md", "md_atom_type": "SENTENCE", "md_parent_section": "§4.2.8.3 [Multiple Values for a Non-result Qualifier Variable]", "md_verbatim": "This association must be clearly documented in the metadata and annotated CRF.", "score": 0.9, "match_basis": "verbatim_token+chapter_route:ch04"}, {"md_atom_id": "md_ch04_a387", "md_file": "knowledge_base/chapters/ch04_general_assumptions.md", "md_atom_type": "SENTENCE", "md_parent_section": "§4.2.8.3 [Multiple Values for a Non-result Qualifier Variable]", "md_verbatim": "In each of these examples, the use of SUPPAE should be documented in the Define-XML document and the annotated CRF.", "score": 0.4569, "match_basis": "verbatim_token+chapter_route:ch04"}, {"md_atom_id": "md_ch04_a388", "md_file": "knowledge_base/chapters/ch04_general_assumptions.md", "md_atom_type": "SENTENCE", "md_parent_section": "§4.2.8.3 [Multiple Values for a Non-result Qualifier Variable]", "md_verbatim": "The controlled terminology used should be documented as part of value-level metadata.", "score": 0.425, "match_basis": "verbatim_token+chapter_route:ch04"}, {"md_atom_id": "md_ch04_a703", "md_file": "knowledge_base/chapters/ch04_general_assumptions.md", "md_atom_type": "SENTENCE", "md_parent_section": "§4.4.9 [Use of Dates as Result Variables]", "md_verbatim": "Remember, in most cases, these dates should be timing variables associated with a record in an Intervention or Events dataset.", "score": 0.4047, "match_basis": "verbatim_token+chapter_route:ch04"}, {"md_atom_id": "md_ch04_a595", "md_file": "knowledge_base/chapters/ch04_general_assumptions.md", "md_atom_type": "SENTENCE", "md_parent_section": "§4.4.3.2 [Interval with Uncertainty]", "md_verbatim": "Note that this is the recommended representation of elapsed time, given a start date/time and the duration elapsed.", "score": 0.404, "match_basis": "verbatim_token+chapter_route:ch04"}], "candidate_count": 5, "zero_candidate": false}
{"pdf_atom_id": "ig34_p0036_a007", "pdf_atom_type": "HEADING", "pdf_source": "SDTMIG_v3.4", "pdf_page": 36, "pdf_parent_section": "§4.2.8.4 Multiple Values for a Parameter", "pdf_verbatim": "4.2.8.4  Multiple Values for a Parameter", "figure_ref": null, "candidates": [{"md_atom_id": "md_ch04_a400", "md_file": "knowledge_base/chapters/ch04_general_assumptions.md", "md_atom_type": "HEADING", "md_parent_section": "§4.2.8 [Multiple Values for a Variable]", "md_verbatim": "#### 4.2.8.4 Multiple Values for a Parameter", "score": 0.9, "match_basis": "verbatim_token+chapter_route:ch04"}, {"md_atom_id": "md_ch04_a346", "md_file": "knowledge_base/chapters/ch04_general_assumptions.md", "md_atom_type": "HEADING", "md_parent_section": "§4.2 [General Variable Assumptions]", "md_verbatim": "### 4.2.8 Multiple Values for a Variable", "score": 0.575, "match_basis": "verbatim_token+chapter_route:ch04"}, {"md_atom_id": "md_ch04_a352", "md_file": "knowledge_base/chapters/ch04_general_assumptions.md", "md_atom_type": "HEADING", "md_parent_section": "§4.2.8 [Multiple Values for a Variable]", "md_verbatim": "#### 4.2.8.2 Multiple Values for a Findings Result Variable", "score": 0.5, "match_basis": "verbatim_token+chapter_route:ch04"}, {"md_atom_id": "md_ch04_a347", "md_file": "knowledge_base/chapters/ch04_general_assumptions.md", "md_atom_type": "HEADING", "md_parent_section": "§4.2.8 [Multiple Values for a Variable]", "md_verbatim": "#### 4.2.8.1 Multiple Values for an Intervention or Event Topic Variable", "score": 0.4946, "match_basis": "verbatim_token+chapter_route:ch04"}, {"md_atom_id": "md_ch04_a359", "md_file": "knowledge_base/chapters/ch04_general_assumptions.md", "md_atom_type": "HEADING", "md_parent_section": "§4.2.8 [Multiple Values for a Variable]", "md_verbatim": "#### 4.2.8.3 Multiple Values for a Non-result Qualifier Variable", "score": 0.4886, "match_basis": "verbatim_token+chapter_route:ch04"}], "candidate_count": 5, "zero_candidate": false}
{"pdf_atom_id": "ig34_p0036_a008", "pdf_atom_type": "SENTENCE", "pdf_source": "SDTMIG_v3.4", "pdf_page": 36, "pdf_parent_section": "§4.2.8.4 Multiple Values for a Parameter", "pdf_verbatim": "If multiple values (--VAL) are reported for a parameter in a Trial Design or Study Reference dataset (e.g., TS, OI), multiple records should be submitted for that --PARMCD.", "figure_ref": null, "candidates": [{"md_atom_id": "md_ch04_a401", "md_file": "knowledge_base/chapters/ch04_general_assumptions.md", "md_atom_type": "SENTENCE", "md_parent_section": "§4.2.8.4 [Multiple Values for a Parameter]", "md_verbatim": "If multiple values (--VAL) are reported for a parameter in a Trial Design or Study Reference dataset (e.g., TS, OI), multiple records should be submitted for that --PARMCD.", "score": 0.9, "match_basis": "verbatim_token+chapter_route:ch04"}, {"md_atom_id": "md_ch04_a353", "md_file": "knowledge_base/chapters/ch04_general_assumptions.md", "md_atom_type": "SENTENCE", "md_parent_section": "§4.2.8.2 [Multiple Values for a Findings Result Variable]", "md_verbatim": "If multiple result values (--ORRES) are reported for a test in a Findings class dataset, multiple records should be submitted for that --TESTCD.", "score": 0.5824, "match_basis": "verbatim_token+chapter_route:ch04"}, {"md_atom_id": "md_ch04_a405", "md_file": "knowledge_base/chapters/ch04_general_assumptions.md", "md_atom_type": "SENTENCE", "md_parent_section": "§4.2.8.4 [Multiple Values for a Parameter]", "md_verbatim": "When a parameter can have multiple values, the key structure for the dataset must be adequate to distinguish between the multiple records.", "score": 0.4631, "match_basis": "verbatim_token+chapter_route:ch04"}, {"md_atom_id": "md_ch04_a431", "md_file": "knowledge_base/chapters/ch04_general_assumptions.md", "md_atom_type": "SENTENCE", "md_parent_section": "§4.3.3 [Controlled Terminology Values]", "md_verbatim": "All values in the permissible value set for the study should be included, whether or not they are represented in submitted data.", "score": 0.4485, "match_basis": "verbatim_token+chapter_route:ch04"}, {"md_atom_id": "md_ch04_a982", "md_file": "knowledge_base/chapters/ch04_general_assumptions.md", "md_atom_type": "SENTENCE", "md_parent_section": "§4.5.6 [Supplemental Reason Variables]", "md_verbatim": "If multiple reasons are reported, refer to Section 4.2.8.3, Multiple Values for a Non-result Qualifier Variable.", "score": 0.4419, "match_basis": "verbatim_token+chapter_route:ch04"}], "candidate_count": 5, "zero_candidate": false}
{"pdf_atom_id": "ig34_p0036_a009", "pdf_atom_type": "SENTENCE", "pdf_source": "SDTMIG_v3.4", "pdf_page": 36, "pdf_parent_section": "§4.2.8.4 Multiple Values for a Parameter", "pdf_verbatim": "For example,", "figure_ref": null, "candidates": [{"md_atom_id": "md_ch04_a320", "md_file": "knowledge_base/chapters/ch04_general_assumptions.md", "md_atom_type": "SENTENCE", "md_parent_section": "§4.2.7.3 [\"Specify\" Values for Topic Variables]", "md_verbatim": "For example:", "score": 0.9, "match_basis": "verbatim_token+chapter_route:ch04"}, {"md_atom_id": "md_ch04_a354", "md_file": "knowledge_base/chapters/ch04_general_assumptions.md", "md_atom_type": "SENTENCE", "md_parent_section": "§4.2.8.2 [Multiple Values for a Findings Result Variable]", "md_verbatim": "For example:", "score": 0.9, "match_basis": "verbatim_token+chapter_route:ch04"}, {"md_atom_id": "md_ch04_a402", "md_file": "knowledge_base/chapters/ch04_general_assumptions.md", "md_atom_type": "SENTENCE", "md_parent_section": "§4.2.8.4 [Multiple Values for a Parameter]", "md_verbatim": "For example:", "score": 0.9, "match_basis": "verbatim_token+chapter_route:ch04"}, {"md_atom_id": "md_ch04_a834", "md_file": "knowledge_base/chapters/ch04_general_assumptions.md", "md_atom_type": "SENTENCE", "md_parent_section": "§4.5.1.3 [Examples of Original and Standard Units and Test Not Done]", "md_verbatim": "**Example 1 (lb.xpt)**", "score": 0.7286, "match_basis": "verbatim_token+chapter_route:ch04"}, {"md_atom_id": "md_ch04_a860", "md_file": "knowledge_base/chapters/ch04_general_assumptions.md", "md_atom_type": "SENTENCE", "md_parent_section": "§4.5.1.3 [Examples of Original and Standard Units and Test Not Done]", "md_verbatim": "**Example 2 (eg.xpt)**", "score": 0.7286, "match_basis": "verbatim_token+chapter_route:ch04"}], "candidate_count": 5, "zero_candidate": false}
{"pdf_atom_id": "ig34_p0036_a010", "pdf_atom_type": "LIST_ITEM", "pdf_source": "SDTMIG_v3.4", "pdf_page": 36, "pdf_parent_section": "§4.2.8.4 Multiple Values for a Parameter", "pdf_verbatim": "TSPARMCD = \"TTYPE\", TSPARM = \"Trial Type\", TSVAL = \"EFFICACY\"", "figure_ref": null, "candidates": [{"md_atom_id": "md_ch04_a403", "md_file": "knowledge_base/chapters/ch04_general_assumptions.md", "md_atom_type": "LIST_ITEM", "md_parent_section": "§4.2.8.4 [Multiple Values for a Parameter]", "md_verbatim": "- TSPARMCD = \"TTYPE\", TSPARM = \"Trial Type\", TSVAL = \"EFFICACY\"", "score": 0.9, "match_basis": "verbatim_token+chapter_route:ch04"}, {"md_atom_id": "md_ch04_a404", "md_file": "knowledge_base/chapters/ch04_general_assumptions.md", "md_atom_type": "LIST_ITEM", "md_parent_section": "§4.2.8.4 [Multiple Values for a Parameter]", "md_verbatim": "- TSPARMCD = \"TTYPE\", TSPARM = \"Trial Type\", TSVAL = \"SAFETY\"", "score": 0.66, "match_basis": "verbatim_token+chapter_route:ch04"}, {"md_atom_id": "md_ch04_a178", "md_file": "knowledge_base/chapters/ch04_general_assumptions.md", "md_atom_type": "LIST_ITEM", "md_parent_section": "§4.2.1 [Variable-Naming Conventions]", "md_verbatim": "- ETCD (the companion to ELEMENT) and TSPARMCD (the companion to TSPARM) are limited to 8 characters and do not have the character restrictions that apply to --TESTCD. These values should be short for ease of use in programming, but it is not expected that they will need to serve as variable names.", "score": 0.3474, "match_basis": "verbatim_token+chapter_route:ch04"}, {"md_atom_id": "md_ch04_a1026", "md_file": "knowledge_base/chapters/ch04_general_assumptions.md", "md_atom_type": "LIST_ITEM", "md_parent_section": "§4.5.8 [Accounting for Long-term Follow-up]", "md_verbatim": "5. The long-term follow-up phase would be represented in Trial Arms (TA), Trial Elements (TE), and Trial Visits (TV).", "score": 0.3429, "match_basis": "verbatim_token+chapter_route:ch04"}, {"md_atom_id": "md_ch04_a422", "md_file": "knowledge_base/chapters/ch04_general_assumptions.md", "md_atom_type": "LIST_ITEM", "md_parent_section": "§4.3.1 [Controlled Terms, Codelist or Format Column]", "md_verbatim": "- The single applicable value for the variable DOMAIN (e.g., \"PR\")", "score": 0.3419, "match_basis": "verbatim_token+chapter_route:ch04"}], "candidate_count": 5, "zero_candidate": false}
{"pdf_atom_id": "ig34_p0036_a011", "pdf_atom_type": "CODE_LITERAL", "pdf_source": "SDTMIG_v3.4", "pdf_page": 36, "pdf_parent_section": "§4.2.8.4 Multiple Values for a Parameter", "pdf_verbatim": "TSPARMCD = \"TTYPE\", TSPARM = \"Trial Type\", TSVAL = \"EFFICACY\"", "figure_ref": null, "candidates": [{"md_atom_id": "md_ch04_a403", "md_file": "knowledge_base/chapters/ch04_general_assumptions.md", "md_atom_type": "LIST_ITEM", "md_parent_section": "§4.2.8.4 [Multiple Values for a Parameter]", "md_verbatim": "- TSPARMCD = \"TTYPE\", TSPARM = \"Trial Type\", TSVAL = \"EFFICACY\"", "score": 0.69, "match_basis": "verbatim_token+chapter_route:ch04"}, {"md_atom_id": "md_ch04_a404", "md_file": "knowledge_base/chapters/ch04_general_assumptions.md", "md_atom_type": "LIST_ITEM", "md_parent_section": "§4.2.8.4 [Multiple Values for a Parameter]", "md_verbatim": "- TSPARMCD = \"TTYPE\", TSPARM = \"Trial Type\", TSVAL = \"SAFETY\"", "score": 0.45, "match_basis": "verbatim_token+chapter_route:ch04"}, {"md_atom_id": "md_ch04_a401", "md_file": "knowledge_base/chapters/ch04_general_assumptions.md", "md_atom_type": "SENTENCE", "md_parent_section": "§4.2.8.4 [Multiple Values for a Parameter]", "md_verbatim": "If multiple values (--VAL) are reported for a parameter in a Trial Design or Study Reference dataset (e.g., TS, OI), multiple records should be submitted for that --PARMCD.", "score": 0.15, "match_basis": "verbatim_token+chapter_route:ch04"}, {"md_atom_id": "md_ch04_a950", "md_file": "knowledge_base/chapters/ch04_general_assumptions.md", "md_atom_type": "TABLE_ROW", "md_parent_section": "§4.5.3.2 [Text Strings Greater than 200 Characters in Other Variables]", "md_verbatim": "| Label | QLABEL should be the original domain variable label | Variable labels for COVAL1 to COVALn should be \"Comment\" | Variable labels for TSVAL1 to TSVALn should be \"Parameter Value\" | Not applicable |", "score": 0.1414, "match_basis": "verbatim_token+chapter_route:ch04"}, {"md_atom_id": "md_ch04_a178", "md_file": "knowledge_base/chapters/ch04_general_assumptions.md", "md_atom_type": "LIST_ITEM", "md_parent_section": "§4.2.1 [Variable-Naming Conventions]", "md_verbatim": "- ETCD (the companion to ELEMENT) and TSPARMCD (the companion to TSPARM) are limited to 8 characters and do not have the character restrictions that apply to --TESTCD. These values should be short for ease of use in programming, but it is not expected that they will need to serve as variable names.", "score": 0.1374, "match_basis": "verbatim_token+chapter_route:ch04"}], "candidate_count": 5, "zero_candidate": false}
{"pdf_atom_id": "ig34_p0036_a012", "pdf_atom_type": "LIST_ITEM", "pdf_source": "SDTMIG_v3.4", "pdf_page": 36, "pdf_parent_section": "§4.2.8.4 Multiple Values for a Parameter", "pdf_verbatim": "TSPARMCD = \"TTYPE\", TSPARM = \"Trial Type\", TSVAL = \"SAFETY\"", "figure_ref": null, "candidates": [{"md_atom_id": "md_ch04_a404", "md_file": "knowledge_base/chapters/ch04_general_assumptions.md", "md_atom_type": "LIST_ITEM", "md_parent_section": "§4.2.8.4 [Multiple Values for a Parameter]", "md_verbatim": "- TSPARMCD = \"TTYPE\", TSPARM = \"Trial Type\", TSVAL = \"SAFETY\"", "score": 0.9, "match_basis": "verbatim_token+chapter_route:ch04"}, {"md_atom_id": "md_ch04_a403", "md_file": "knowledge_base/chapters/ch04_general_assumptions.md", "md_atom_type": "LIST_ITEM", "md_parent_section": "§4.2.8.4 [Multiple Values for a Parameter]", "md_verbatim": "- TSPARMCD = \"TTYPE\", TSPARM = \"Trial Type\", TSVAL = \"EFFICACY\"", "score": 0.66, "match_basis": "verbatim_token+chapter_route:ch04"}, {"md_atom_id": "md_ch04_a178", "md_file": "knowledge_base/chapters/ch04_general_assumptions.md", "md_atom_type": "LIST_ITEM", "md_parent_section": "§4.2.1 [Variable-Naming Conventions]", "md_verbatim": "- ETCD (the companion to ELEMENT) and TSPARMCD (the companion to TSPARM) are limited to 8 characters and do not have the character restrictions that apply to --TESTCD. These values should be short for ease of use in programming, but it is not expected that they will need to serve as variable names.", "score": 0.3482, "match_basis": "verbatim_token+chapter_route:ch04"}, {"md_atom_id": "md_ch04_a1026", "md_file": "knowledge_base/chapters/ch04_general_assumptions.md", "md_atom_type": "LIST_ITEM", "md_parent_section": "§4.5.8 [Accounting for Long-term Follow-up]", "md_verbatim": "5. The long-term follow-up phase would be represented in Trial Arms (TA), Trial Elements (TE), and Trial Visits (TV).", "score": 0.3444, "match_basis": "verbatim_token+chapter_route:ch04"}, {"md_atom_id": "md_ch04_a199", "md_file": "knowledge_base/chapters/ch04_general_assumptions.md", "md_atom_type": "LIST_ITEM", "md_parent_section": "§4.2.2 [Two-character Domain Identifier]", "md_verbatim": "- All variables in RELREC and SUPPQUAL, and some variables in the Comments and Trial Design datasets", "score": 0.3321, "match_basis": "verbatim_token+chapter_route:ch04"}], "candidate_count": 5, "zero_candidate": false}
