{"pdf_atom_id": "ig34_p0277_a003", "pdf_atom_type": "TABLE_HEADER", "pdf_source": "SDTMIG_v3.4", "pdf_page": 277, "pdf_parent_section": "§6.3.5.9.3 Relating PP Records to PC Records", "pdf_verbatim": "Row | STUDYID | DOMAIN | USUBJID | PPSEQ | PPGRPID (Example 1) | PPGRPID (Example 2) | PPGRPID (Example 3) | PPGRPID (Example 4) | PPTESTCD | PPTEST | PPCAT | PPORRES | PPORRESU | PPSTRESC | PPSTRESN | PPSTRESU | PPSPEC | PPNOMDY | PPRFTDTC", "figure_ref": null, "candidates": [{"md_atom_id": "md_dmPP_ex_a084", "md_file": "knowledge_base/domains/PP/examples.md", "md_atom_type": "TABLE_HEADER", "md_parent_section": "§PP [PP — Examples]", "md_verbatim": "| Row | STUDYID | DOMAIN | USUBJID | PPSEQ | PPGRPID (Example 1) | PPGRPID (Example 2) | PPGRPID (Example 3) | PPGRPID (Example 4) | PPTESTCD | PPTEST | PPCAT | PPORRES | PPORRESU | PPSTRESC | PPSTRESN | PPSTRESU | PPSPEC | PPNOMDY | PPRFDTC |\n|-----|---------|--------|---------|-------|---------------------|---------------------|---------------------|---------------------|----------|--------|-------|---------|----------|----------|----------|----------|--------|---------|---------|", "score": 0.9531, "match_basis": "verbatim_token+domain_route:PP"}, {"md_atom_id": "md_dmPP_ex_a009", "md_file": "knowledge_base/domains/PP/examples.md", "md_atom_type": "TABLE_HEADER", "md_parent_section": "§PP.1 [Example 1]", "md_verbatim": "| Row | STUDYID | DOMAIN | USUBJID | PPSEQ | PPGRPID | PPTESTCD | PPTEST | PPCAT | PPORRES | PPORRESU | PPSTRESC | PPSTRESN | PPSTRESU | PPSPEC | VISITNUM | VISIT | PPDTC | PPRFDTC |\n|-----|---------|--------|---------|-------|---------|----------|--------|-------|---------|----------|----------|----------|----------|--------|----------|-------|-------|---------|", "score": 0.8083, "match_basis": "verbatim_token+domain_route:PP"}, {"md_atom_id": "md_dmPP_ex_a051", "md_file": "knowledge_base/domains/PP/examples.md", "md_atom_type": "TABLE_HEADER", "md_parent_section": "§PP.2 [Example 2]", "md_verbatim": "| Row | STUDYID | DOMAIN | USUBJID | PPSEQ | PPRFID | PPTESTCD | PPTEST | PPCAT | PPSCAT | PPORRES | PPORRESU | PPSTRESC | PPSTRESN | PPSTRESU | PPSPEC | PPANMETH | PPFAST | PPNOMDY | PPRFDTC |\n|-----|---------|--------|---------|-------|--------|----------|--------|-------|--------|---------|----------|----------|----------|----------|--------|----------|--------|---------|---------|", "score": 0.7769, "match_basis": "verbatim_token+domain_route:PP"}, {"md_atom_id": "md_dmPP_ex_a064", "md_file": "knowledge_base/domains/PP/examples.md", "md_atom_type": "TABLE_HEADER", "md_parent_section": "§PP.3 [Example 3]", "md_verbatim": "| Row | STUDYID | DOMAIN | USUBJID | PPSEQ | PPGRPID | PPTESTCD | PPTEST | PPCAT | PPORRES | PPORRESU | PPSTRESC | PPSTRESN | PPSTRESU | PPSPEC | VISITNUM | VISIT | PPDTC | PPRFDTC | PPSTINT | PPENINT |\n|-----|---------|--------|---------|-------|---------|----------|--------|-------|---------|----------|----------|----------|----------|--------|----------|-------|-------|---------|---------|---------|", "score": 0.7722, "match_basis": "verbatim_token+domain_route:PP"}, {"md_atom_id": "md_dmPP_ex_a036", "md_file": "knowledge_base/domains/PP/examples.md", "md_atom_type": "TABLE_HEADER", "md_parent_section": "§PP.1 [Example 1]", "md_verbatim": "| Row | STUDYID | RDOMAIN | USUBJID | IDVAR | IDVARVAL | QNAM | QLABEL | QVAL | QORIG | QEVAL |\n|-----|---------|---------|---------|-------|----------|------|--------|------|-------|-------|", "score": 0.5111, "match_basis": "verbatim_token+domain_route:PP"}], "candidate_count": 5, "zero_candidate": false}
{"pdf_atom_id": "ig34_p0277_a004", "pdf_atom_type": "TABLE_ROW", "pdf_source": "SDTMIG_v3.4", "pdf_page": 277, "pdf_parent_section": "§6.3.5.9.3 Relating PP Records to PC Records", "pdf_verbatim": "1 | ABC-123 | PP | ABC-123-0001 | 1 | DY1DRGX | DY1DRGX | DY1DRGX_A | DY1DRGX | TMAX | Time of CMAX | DRUG X | 1.87 | h | 1.87 | 1.87 | h | PLASMA | 1 | 2001-02-01T08:35", "figure_ref": null, "candidates": [{"md_atom_id": "md_dmPP_ex_a085", "md_file": "knowledge_base/domains/PP/examples.md", "md_atom_type": "TABLE_ROW", "md_parent_section": "§PP [PP — Examples]", "md_verbatim": "| 1 | ABC-123 | PP | ABC-123-0001 | 1 | DY1DRGX | DY1DRGX | DY1DRGX_A | TMAX | TMAX | Time of CMAX | DRUG X | 1.87 | h | 1.87 | 1.87 | h | PLASMA | 1 | 2001-02-01T08:35 |", "score": 1.0, "match_basis": "verbatim_token+domain_route:PP"}, {"md_atom_id": "md_dmPP_ex_a086", "md_file": "knowledge_base/domains/PP/examples.md", "md_atom_type": "TABLE_ROW", "md_parent_section": "§PP [PP — Examples]", "md_verbatim": "| 2 | ABC-123 | PP | ABC-123-0001 | 2 | DY1DRGX | DY1DRGX | DY1DRGX_A | CMAX | CMAX | Max Conc | DRUG X | 44.5 | ng/mL | 44.5 | 44.5 | ng/mL | PLASMA | 1 | 2001-02-01T08:35 |", "score": 0.8846, "match_basis": "verbatim_token+domain_route:PP"}, {"md_atom_id": "md_dmPP_ex_a087", "md_file": "knowledge_base/domains/PP/examples.md", "md_atom_type": "TABLE_ROW", "md_parent_section": "§PP [PP — Examples]", "md_verbatim": "| 3 | ABC-123 | PP | ABC-123-0001 | 3 | DY1DRGX | DY1DRGX | DY1DRGX_A | AUC | AUCALL | AUC All | DRUG X | 294.7 | h*ug/mL | 294.7 | 294.7 | h*ug/mL | PLASMA | 1 | 2001-02-01T08:35 |", "score": 0.7931, "match_basis": "verbatim_token+domain_route:PP"}, {"md_atom_id": "md_dmPP_ex_a089", "md_file": "knowledge_base/domains/PP/examples.md", "md_atom_type": "TABLE_ROW", "md_parent_section": "§PP [PP — Examples]", "md_verbatim": "| 5 | ABC-123 | PP | ABC-123-0001 | 6 | DY1DRGX | DY1DRGX | DY1DRGX_A | OTHER | VZO | Vz Obs | DRUG X | 10.9 | L | 10.9 | 10.9 | L | PLASMA | 1 | 2001-02-01T08:35 |", "score": 0.7931, "match_basis": "verbatim_token+domain_route:PP"}, {"md_atom_id": "md_dmPP_ex_a091", "md_file": "knowledge_base/domains/PP/examples.md", "md_atom_type": "TABLE_ROW", "md_parent_section": "§PP [PP — Examples]", "md_verbatim": "| 7 | ABC-123 | PP | ABC-123-0001 | 8 | DY8DRGX | DY8DRGX | DY8DRGX | DY8DRGX | TMAX | Time of CMAX | DRUG X | 1.91 | h | 1.91 | 1.91 | h | PLASMA | 8 | 2001-02-08T08:35 |", "score": 0.7931, "match_basis": "verbatim_token+domain_route:PP"}], "candidate_count": 5, "zero_candidate": false}
{"pdf_atom_id": "ig34_p0277_a005", "pdf_atom_type": "TABLE_ROW", "pdf_source": "SDTMIG_v3.4", "pdf_page": 277, "pdf_parent_section": "§6.3.5.9.3 Relating PP Records to PC Records", "pdf_verbatim": "2 | ABC-123 | PP | ABC-123-0001 | 2 | DY1DRGX | DY1DRGX | DY1DRGX_A | DY1DRGX | CMAX | Max Conc | DRUG X | 44.5 | ng/mL | 44.5 | 44.5 | ng/mL | PLASMA | 1 | 2001-02-01T08:35", "figure_ref": null, "candidates": [{"md_atom_id": "md_dmPP_ex_a086", "md_file": "knowledge_base/domains/PP/examples.md", "md_atom_type": "TABLE_ROW", "md_parent_section": "§PP [PP — Examples]", "md_verbatim": "| 2 | ABC-123 | PP | ABC-123-0001 | 2 | DY1DRGX | DY1DRGX | DY1DRGX_A | CMAX | CMAX | Max Conc | DRUG X | 44.5 | ng/mL | 44.5 | 44.5 | ng/mL | PLASMA | 1 | 2001-02-01T08:35 |", "score": 1.0, "match_basis": "verbatim_token+domain_route:PP"}, {"md_atom_id": "md_dmPP_ex_a085", "md_file": "knowledge_base/domains/PP/examples.md", "md_atom_type": "TABLE_ROW", "md_parent_section": "§PP [PP — Examples]", "md_verbatim": "| 1 | ABC-123 | PP | ABC-123-0001 | 1 | DY1DRGX | DY1DRGX | DY1DRGX_A | TMAX | TMAX | Time of CMAX | DRUG X | 1.87 | h | 1.87 | 1.87 | h | PLASMA | 1 | 2001-02-01T08:35 |", "score": 0.8846, "match_basis": "verbatim_token+domain_route:PP"}, {"md_atom_id": "md_dmPP_ex_a087", "md_file": "knowledge_base/domains/PP/examples.md", "md_atom_type": "TABLE_ROW", "md_parent_section": "§PP [PP — Examples]", "md_verbatim": "| 3 | ABC-123 | PP | ABC-123-0001 | 3 | DY1DRGX | DY1DRGX | DY1DRGX_A | AUC | AUCALL | AUC All | DRUG X | 294.7 | h*ug/mL | 294.7 | 294.7 | h*ug/mL | PLASMA | 1 | 2001-02-01T08:35 |", "score": 0.8071, "match_basis": "verbatim_token+domain_route:PP"}, {"md_atom_id": "md_dmPP_ex_a089", "md_file": "knowledge_base/domains/PP/examples.md", "md_atom_type": "TABLE_ROW", "md_parent_section": "§PP [PP — Examples]", "md_verbatim": "| 5 | ABC-123 | PP | ABC-123-0001 | 6 | DY1DRGX | DY1DRGX | DY1DRGX_A | OTHER | VZO | Vz Obs | DRUG X | 10.9 | L | 10.9 | 10.9 | L | PLASMA | 1 | 2001-02-01T08:35 |", "score": 0.8071, "match_basis": "verbatim_token+domain_route:PP"}, {"md_atom_id": "md_dmPP_ex_a092", "md_file": "knowledge_base/domains/PP/examples.md", "md_atom_type": "TABLE_ROW", "md_parent_section": "§PP [PP — Examples]", "md_verbatim": "| 8 | ABC-123 | PP | ABC-123-0001 | 9 | DY8DRGX | DY8DRGX | DY8DRGX | DY8DRGX | CMAX | Max Conc | DRUG X | 46.0 | ng/mL | 46.0 | 46.0 | ng/mL | PLASMA | 8 | 2001-02-08T08:35 |", "score": 0.7857, "match_basis": "verbatim_token+domain_route:PP"}], "candidate_count": 5, "zero_candidate": false}
{"pdf_atom_id": "ig34_p0277_a006", "pdf_atom_type": "TABLE_ROW", "pdf_source": "SDTMIG_v3.4", "pdf_page": 277, "pdf_parent_section": "§6.3.5.9.3 Relating PP Records to PC Records", "pdf_verbatim": "3 | ABC-123 | PP | ABC-123-0001 | 3 | DY1DRGX | DY1DRGX | DY1DRGX_A | DY1DRGX | AUCALL | AUC All | DRUG X | 294.7 | h*ug/mL | 294.7 | 294.7 | h*ug/mL | PLASMA | 1 | 2001-02-01T08:35", "figure_ref": null, "candidates": [{"md_atom_id": "md_dmPP_ex_a087", "md_file": "knowledge_base/domains/PP/examples.md", "md_atom_type": "TABLE_ROW", "md_parent_section": "§PP [PP — Examples]", "md_verbatim": "| 3 | ABC-123 | PP | ABC-123-0001 | 3 | DY1DRGX | DY1DRGX | DY1DRGX_A | AUC | AUCALL | AUC All | DRUG X | 294.7 | h*ug/mL | 294.7 | 294.7 | h*ug/mL | PLASMA | 1 | 2001-02-01T08:35 |", "score": 1.0, "match_basis": "verbatim_token+domain_route:PP"}, {"md_atom_id": "md_dmPP_ex_a086", "md_file": "knowledge_base/domains/PP/examples.md", "md_atom_type": "TABLE_ROW", "md_parent_section": "§PP [PP — Examples]", "md_verbatim": "| 2 | ABC-123 | PP | ABC-123-0001 | 2 | DY1DRGX | DY1DRGX | DY1DRGX_A | CMAX | CMAX | Max Conc | DRUG X | 44.5 | ng/mL | 44.5 | 44.5 | ng/mL | PLASMA | 1 | 2001-02-01T08:35 |", "score": 0.8071, "match_basis": "verbatim_token+domain_route:PP"}, {"md_atom_id": "md_dmPP_ex_a085", "md_file": "knowledge_base/domains/PP/examples.md", "md_atom_type": "TABLE_ROW", "md_parent_section": "§PP [PP — Examples]", "md_verbatim": "| 1 | ABC-123 | PP | ABC-123-0001 | 1 | DY1DRGX | DY1DRGX | DY1DRGX_A | TMAX | TMAX | Time of CMAX | DRUG X | 1.87 | h | 1.87 | 1.87 | h | PLASMA | 1 | 2001-02-01T08:35 |", "score": 0.7931, "match_basis": "verbatim_token+domain_route:PP"}, {"md_atom_id": "md_dmPP_ex_a089", "md_file": "knowledge_base/domains/PP/examples.md", "md_atom_type": "TABLE_ROW", "md_parent_section": "§PP [PP — Examples]", "md_verbatim": "| 5 | ABC-123 | PP | ABC-123-0001 | 6 | DY1DRGX | DY1DRGX | DY1DRGX_A | OTHER | VZO | Vz Obs | DRUG X | 10.9 | L | 10.9 | 10.9 | L | PLASMA | 1 | 2001-02-01T08:35 |", "score": 0.7931, "match_basis": "verbatim_token+domain_route:PP"}, {"md_atom_id": "md_dmPP_ex_a093", "md_file": "knowledge_base/domains/PP/examples.md", "md_atom_type": "TABLE_ROW", "md_parent_section": "§PP [PP — Examples]", "md_verbatim": "| 9 | ABC-123 | PP | ABC-123-0001 | 10 | DY8DRGX | DY8DRGX | DY8DRGX | DY8DRGX | AUCALL | AUC All | DRUG X | 289.0 | h*ug/mL | 289.0 | 289.0 | h*ug/mL | PLASMA | 8 | 2001-02-08T08:35 |", "score": 0.76, "match_basis": "verbatim_token+domain_route:PP"}], "candidate_count": 5, "zero_candidate": false}
{"pdf_atom_id": "ig34_p0277_a007", "pdf_atom_type": "TABLE_ROW", "pdf_source": "SDTMIG_v3.4", "pdf_page": 277, "pdf_parent_section": "§6.3.5.9.3 Relating PP Records to PC Records", "pdf_verbatim": "4 | ABC-123 | PP | ABC-123-0001 | 4 | DY1DRGX | DY1DRGX | DY1DRGX_HALF | DY1DRGX | LAMZHL | Half-Life Lambda z | DRUG X | 4.69 | h | 4.69 | 4.69 | h | PLASMA | 1 | 2001-02-01T08:35", "figure_ref": null, "candidates": [{"md_atom_id": "md_dmPP_ex_a088", "md_file": "knowledge_base/domains/PP/examples.md", "md_atom_type": "TABLE_ROW", "md_parent_section": "§PP [PP — Examples]", "md_verbatim": "| 4 | ABC-123 | PP | ABC-123-0001 | 5 | DY1DRGX | DY1DRGX | DY1DRGX_HALF | OTHER | LAMZHL | Half-Life Lambda z | DRUG X | 4.69 | h | 4.69 | 4.69 | h | PLASMA | 1 | 2001-02-01T08:35 |", "score": 0.9455, "match_basis": "verbatim_token+domain_route:PP"}, {"md_atom_id": "md_dmPP_ex_a094", "md_file": "knowledge_base/domains/PP/examples.md", "md_atom_type": "TABLE_ROW", "md_parent_section": "§PP [PP — Examples]", "md_verbatim": "| 10 | ABC-123 | PP | ABC-123-0001 | 12 | DY8DRGX | DY8DRGX | DY8DRGX | DY8DRGX | LAMZHL | Half-Life Lambda z | DRUG X | 4.50 | h | 4.50 | 4.50 | h | PLASMA | 8 | 2001-02-08T08:35 |", "score": 0.8286, "match_basis": "verbatim_token+domain_route:PP"}, {"md_atom_id": "md_dmPP_ex_a014", "md_file": "knowledge_base/domains/PP/examples.md", "md_atom_type": "TABLE_ROW", "md_parent_section": "§PP.1 [Example 1]", "md_verbatim": "| 5 | ABC-123 | PP | ABC-123-001 | 5 | DRUGA_DAY1 | LAMZHL | Half-Life Lambda z | DRUG A PARENT | 7.74 | h | 7.74 | 7.74 | h | PLASMA | 1 | DAY 1 | 2001-02-25 | 2001-02-25T08:00 |", "score": 0.7385, "match_basis": "verbatim_token+domain_route:PP"}, {"md_atom_id": "md_dmPP_ex_a069", "md_file": "knowledge_base/domains/PP/examples.md", "md_atom_type": "TABLE_ROW", "md_parent_section": "§PP.3 [Example 3]", "md_verbatim": "| 5 | ABC-123 | PP | ABC-123-001 | 5 | DRUGA_DAY1 | LAMZHL | Half-Life Lambda z | DRUG A PARENT | 7.74 | h | 7.74 | 7.74 | h | PLASMA | 1 | DAY 1 | 2001-02-25 | 2001-02-25T08:00 | | |", "score": 0.7385, "match_basis": "verbatim_token+domain_route:PP"}, {"md_atom_id": "md_dmPP_ex_a086", "md_file": "knowledge_base/domains/PP/examples.md", "md_atom_type": "TABLE_ROW", "md_parent_section": "§PP [PP — Examples]", "md_verbatim": "| 2 | ABC-123 | PP | ABC-123-0001 | 2 | DY1DRGX | DY1DRGX | DY1DRGX_A | CMAX | CMAX | Max Conc | DRUG X | 44.5 | ng/mL | 44.5 | 44.5 | ng/mL | PLASMA | 1 | 2001-02-01T08:35 |", "score": 0.7353, "match_basis": "verbatim_token+domain_route:PP"}], "candidate_count": 5, "zero_candidate": false}
{"pdf_atom_id": "ig34_p0277_a008", "pdf_atom_type": "TABLE_ROW", "pdf_source": "SDTMIG_v3.4", "pdf_page": 277, "pdf_parent_section": "§6.3.5.9.3 Relating PP Records to PC Records", "pdf_verbatim": "5 | ABC-123 | PP | ABC-123-0001 | 5 | DY1DRGX | DY1DRGX | DY1DRGX_A | DY1DRGX | VZO | Vz Obs | DRUG X | 10.9 | L | 10.9 | 10.9 | L | PLASMA | 1 | 2001-02-01T08:35", "figure_ref": null, "candidates": [{"md_atom_id": "md_dmPP_ex_a089", "md_file": "knowledge_base/domains/PP/examples.md", "md_atom_type": "TABLE_ROW", "md_parent_section": "§PP [PP — Examples]", "md_verbatim": "| 5 | ABC-123 | PP | ABC-123-0001 | 6 | DY1DRGX | DY1DRGX | DY1DRGX_A | OTHER | VZO | Vz Obs | DRUG X | 10.9 | L | 10.9 | 10.9 | L | PLASMA | 1 | 2001-02-01T08:35 |", "score": 0.925, "match_basis": "verbatim_token+domain_route:PP"}, {"md_atom_id": "md_dmPP_ex_a086", "md_file": "knowledge_base/domains/PP/examples.md", "md_atom_type": "TABLE_ROW", "md_parent_section": "§PP [PP — Examples]", "md_verbatim": "| 2 | ABC-123 | PP | ABC-123-0001 | 2 | DY1DRGX | DY1DRGX | DY1DRGX_A | CMAX | CMAX | Max Conc | DRUG X | 44.5 | ng/mL | 44.5 | 44.5 | ng/mL | PLASMA | 1 | 2001-02-01T08:35 |", "score": 0.856, "match_basis": "verbatim_token+domain_route:PP"}, {"md_atom_id": "md_dmPP_ex_a085", "md_file": "knowledge_base/domains/PP/examples.md", "md_atom_type": "TABLE_ROW", "md_parent_section": "§PP [PP — Examples]", "md_verbatim": "| 1 | ABC-123 | PP | ABC-123-0001 | 1 | DY1DRGX | DY1DRGX | DY1DRGX_A | TMAX | TMAX | Time of CMAX | DRUG X | 1.87 | h | 1.87 | 1.87 | h | PLASMA | 1 | 2001-02-01T08:35 |", "score": 0.8385, "match_basis": "verbatim_token+domain_route:PP"}, {"md_atom_id": "md_dmPP_ex_a087", "md_file": "knowledge_base/domains/PP/examples.md", "md_atom_type": "TABLE_ROW", "md_parent_section": "§PP [PP — Examples]", "md_verbatim": "| 3 | ABC-123 | PP | ABC-123-0001 | 3 | DY1DRGX | DY1DRGX | DY1DRGX_A | AUC | AUCALL | AUC All | DRUG X | 294.7 | h*ug/mL | 294.7 | 294.7 | h*ug/mL | PLASMA | 1 | 2001-02-01T08:35 |", "score": 0.8385, "match_basis": "verbatim_token+domain_route:PP"}, {"md_atom_id": "md_dmPP_ex_a090", "md_file": "knowledge_base/domains/PP/examples.md", "md_atom_type": "TABLE_ROW", "md_parent_section": "§PP [PP — Examples]", "md_verbatim": "| 6 | ABC-123 | PP | ABC-123-0001 | 7 | DY1DRGX | DY1DRGX | DY1DRGX_A | OTHER | CLO | Total CL Obs | DRUG X | 1.68 | L/h | 1.68 | 1.68 | L/h | PLASMA | 1 | 2001-02-01T08:35 |", "score": 0.8286, "match_basis": "verbatim_token+domain_route:PP"}], "candidate_count": 5, "zero_candidate": false}
{"pdf_atom_id": "ig34_p0277_a009", "pdf_atom_type": "TABLE_ROW", "pdf_source": "SDTMIG_v3.4", "pdf_page": 277, "pdf_parent_section": "§6.3.5.9.3 Relating PP Records to PC Records", "pdf_verbatim": "6 | ABC-123 | PP | ABC-123-0001 | 6 | DY1DRGX | DY1DRGX | DY1DRGX_A | DY1DRGX | CLO | Total CL Obs | DRUG X | 1.68 | L/h | 1.68 | 1.68 | L/h | PLASMA | 1 | 2001-02-01T08:35", "figure_ref": null, "candidates": [{"md_atom_id": "md_dmPP_ex_a090", "md_file": "knowledge_base/domains/PP/examples.md", "md_atom_type": "TABLE_ROW", "md_parent_section": "§PP [PP — Examples]", "md_verbatim": "| 6 | ABC-123 | PP | ABC-123-0001 | 7 | DY1DRGX | DY1DRGX | DY1DRGX_A | OTHER | CLO | Total CL Obs | DRUG X | 1.68 | L/h | 1.68 | 1.68 | L/h | PLASMA | 1 | 2001-02-01T08:35 |", "score": 0.9333, "match_basis": "verbatim_token+domain_route:PP"}, {"md_atom_id": "md_dmPP_ex_a089", "md_file": "knowledge_base/domains/PP/examples.md", "md_atom_type": "TABLE_ROW", "md_parent_section": "§PP [PP — Examples]", "md_verbatim": "| 5 | ABC-123 | PP | ABC-123-0001 | 6 | DY1DRGX | DY1DRGX | DY1DRGX_A | OTHER | VZO | Vz Obs | DRUG X | 10.9 | L | 10.9 | 10.9 | L | PLASMA | 1 | 2001-02-01T08:35 |", "score": 0.8286, "match_basis": "verbatim_token+domain_route:PP"}, {"md_atom_id": "md_dmPP_ex_a086", "md_file": "knowledge_base/domains/PP/examples.md", "md_atom_type": "TABLE_ROW", "md_parent_section": "§PP [PP — Examples]", "md_verbatim": "| 2 | ABC-123 | PP | ABC-123-0001 | 2 | DY1DRGX | DY1DRGX | DY1DRGX_A | CMAX | CMAX | Max Conc | DRUG X | 44.5 | ng/mL | 44.5 | 44.5 | ng/mL | PLASMA | 1 | 2001-02-01T08:35 |", "score": 0.8071, "match_basis": "verbatim_token+domain_route:PP"}, {"md_atom_id": "md_dmPP_ex_a085", "md_file": "knowledge_base/domains/PP/examples.md", "md_atom_type": "TABLE_ROW", "md_parent_section": "§PP [PP — Examples]", "md_verbatim": "| 1 | ABC-123 | PP | ABC-123-0001 | 1 | DY1DRGX | DY1DRGX | DY1DRGX_A | TMAX | TMAX | Time of CMAX | DRUG X | 1.87 | h | 1.87 | 1.87 | h | PLASMA | 1 | 2001-02-01T08:35 |", "score": 0.7931, "match_basis": "verbatim_token+domain_route:PP"}, {"md_atom_id": "md_dmPP_ex_a087", "md_file": "knowledge_base/domains/PP/examples.md", "md_atom_type": "TABLE_ROW", "md_parent_section": "§PP [PP — Examples]", "md_verbatim": "| 3 | ABC-123 | PP | ABC-123-0001 | 3 | DY1DRGX | DY1DRGX | DY1DRGX_A | AUC | AUCALL | AUC All | DRUG X | 294.7 | h*ug/mL | 294.7 | 294.7 | h*ug/mL | PLASMA | 1 | 2001-02-01T08:35 |", "score": 0.7931, "match_basis": "verbatim_token+domain_route:PP"}], "candidate_count": 5, "zero_candidate": false}
{"pdf_atom_id": "ig34_p0277_a010", "pdf_atom_type": "TABLE_ROW", "pdf_source": "SDTMIG_v3.4", "pdf_page": 277, "pdf_parent_section": "§6.3.5.9.3 Relating PP Records to PC Records", "pdf_verbatim": "7 | ABC-123 | PP | ABC-123-0001 | 7 | DY8DRGX | DY8DRGX | DY8DRGX | DY8DRGX | TMAX | Time of CMAX | DRUG X | 1.91 | h | 1.91 | 1.91 | h | PLASMA | 8 | 2001-02-08T08:35", "figure_ref": null, "candidates": [{"md_atom_id": "md_dmPP_ex_a091", "md_file": "knowledge_base/domains/PP/examples.md", "md_atom_type": "TABLE_ROW", "md_parent_section": "§PP [PP — Examples]", "md_verbatim": "| 7 | ABC-123 | PP | ABC-123-0001 | 8 | DY8DRGX | DY8DRGX | DY8DRGX | DY8DRGX | TMAX | Time of CMAX | DRUG X | 1.91 | h | 1.91 | 1.91 | h | PLASMA | 8 | 2001-02-08T08:35 |", "score": 1.0, "match_basis": "verbatim_token+domain_route:PP"}, {"md_atom_id": "md_dmPP_ex_a092", "md_file": "knowledge_base/domains/PP/examples.md", "md_atom_type": "TABLE_ROW", "md_parent_section": "§PP [PP — Examples]", "md_verbatim": "| 8 | ABC-123 | PP | ABC-123-0001 | 9 | DY8DRGX | DY8DRGX | DY8DRGX | DY8DRGX | CMAX | Max Conc | DRUG X | 46.0 | ng/mL | 46.0 | 46.0 | ng/mL | PLASMA | 8 | 2001-02-08T08:35 |", "score": 0.8846, "match_basis": "verbatim_token+domain_route:PP"}, {"md_atom_id": "md_dmPP_ex_a095", "md_file": "knowledge_base/domains/PP/examples.md", "md_atom_type": "TABLE_ROW", "md_parent_section": "§PP [PP — Examples]", "md_verbatim": "| 11 | ABC-123 | PP | ABC-123-0001 | 13 | DY8DRGX | DY8DRGX | DY8DRGX | DY8DRGX | VZO | Vz Obs | DRUG X | 10.7 | L | 10.7 | 10.7 | L | PLASMA | 8 | 2001-02-08T08:35 |", "score": 0.8385, "match_basis": "verbatim_token+domain_route:PP"}, {"md_atom_id": "md_dmPP_ex_a085", "md_file": "knowledge_base/domains/PP/examples.md", "md_atom_type": "TABLE_ROW", "md_parent_section": "§PP [PP — Examples]", "md_verbatim": "| 1 | ABC-123 | PP | ABC-123-0001 | 1 | DY1DRGX | DY1DRGX | DY1DRGX_A | TMAX | TMAX | Time of CMAX | DRUG X | 1.87 | h | 1.87 | 1.87 | h | PLASMA | 1 | 2001-02-01T08:35 |", "score": 0.7931, "match_basis": "verbatim_token+domain_route:PP"}, {"md_atom_id": "md_dmPP_ex_a093", "md_file": "knowledge_base/domains/PP/examples.md", "md_atom_type": "TABLE_ROW", "md_parent_section": "§PP [PP — Examples]", "md_verbatim": "| 9 | ABC-123 | PP | ABC-123-0001 | 10 | DY8DRGX | DY8DRGX | DY8DRGX | DY8DRGX | AUCALL | AUC All | DRUG X | 289.0 | h*ug/mL | 289.0 | 289.0 | h*ug/mL | PLASMA | 8 | 2001-02-08T08:35 |", "score": 0.7931, "match_basis": "verbatim_token+domain_route:PP"}], "candidate_count": 5, "zero_candidate": false}
{"pdf_atom_id": "ig34_p0277_a011", "pdf_atom_type": "TABLE_ROW", "pdf_source": "SDTMIG_v3.4", "pdf_page": 277, "pdf_parent_section": "§6.3.5.9.3 Relating PP Records to PC Records", "pdf_verbatim": "8 | ABC-123 | PP | ABC-123-0001 | 8 | DY8DRGX | DY8DRGX | DY8DRGX | DY8DRGX | CMAX | Max Conc | DRUG X | 46.0 | ng/mL | 46.0 | 46.0 | ng/mL | PLASMA | 8 | 2001-02-08T08:35", "figure_ref": null, "candidates": [{"md_atom_id": "md_dmPP_ex_a092", "md_file": "knowledge_base/domains/PP/examples.md", "md_atom_type": "TABLE_ROW", "md_parent_section": "§PP [PP — Examples]", "md_verbatim": "| 8 | ABC-123 | PP | ABC-123-0001 | 9 | DY8DRGX | DY8DRGX | DY8DRGX | DY8DRGX | CMAX | Max Conc | DRUG X | 46.0 | ng/mL | 46.0 | 46.0 | ng/mL | PLASMA | 8 | 2001-02-08T08:35 |", "score": 1.0, "match_basis": "verbatim_token+domain_route:PP"}, {"md_atom_id": "md_dmPP_ex_a091", "md_file": "knowledge_base/domains/PP/examples.md", "md_atom_type": "TABLE_ROW", "md_parent_section": "§PP [PP — Examples]", "md_verbatim": "| 7 | ABC-123 | PP | ABC-123-0001 | 8 | DY8DRGX | DY8DRGX | DY8DRGX | DY8DRGX | TMAX | Time of CMAX | DRUG X | 1.91 | h | 1.91 | 1.91 | h | PLASMA | 8 | 2001-02-08T08:35 |", "score": 0.8846, "match_basis": "verbatim_token+domain_route:PP"}, {"md_atom_id": "md_dmPP_ex_a095", "md_file": "knowledge_base/domains/PP/examples.md", "md_atom_type": "TABLE_ROW", "md_parent_section": "§PP [PP — Examples]", "md_verbatim": "| 11 | ABC-123 | PP | ABC-123-0001 | 13 | DY8DRGX | DY8DRGX | DY8DRGX | DY8DRGX | VZO | Vz Obs | DRUG X | 10.7 | L | 10.7 | 10.7 | L | PLASMA | 8 | 2001-02-08T08:35 |", "score": 0.856, "match_basis": "verbatim_token+domain_route:PP"}, {"md_atom_id": "md_dmPP_ex_a093", "md_file": "knowledge_base/domains/PP/examples.md", "md_atom_type": "TABLE_ROW", "md_parent_section": "§PP [PP — Examples]", "md_verbatim": "| 9 | ABC-123 | PP | ABC-123-0001 | 10 | DY8DRGX | DY8DRGX | DY8DRGX | DY8DRGX | AUCALL | AUC All | DRUG X | 289.0 | h*ug/mL | 289.0 | 289.0 | h*ug/mL | PLASMA | 8 | 2001-02-08T08:35 |", "score": 0.8071, "match_basis": "verbatim_token+domain_route:PP"}, {"md_atom_id": "md_dmPP_ex_a096", "md_file": "knowledge_base/domains/PP/examples.md", "md_atom_type": "TABLE_ROW", "md_parent_section": "§PP [PP — Examples]", "md_verbatim": "| 12 | ABC-123 | PP | ABC-123-0001 | 14 | DY8DRGX | DY8DRGX | DY8DRGX | DY8DRGX | CLO | Total CL Obs | DRUG X | 1.75 | L/h | 1.75 | 1.75 | L/h | PLASMA | 8 | 2001-02-08T08:35 |", "score": 0.8071, "match_basis": "verbatim_token+domain_route:PP"}], "candidate_count": 5, "zero_candidate": false}
{"pdf_atom_id": "ig34_p0277_a012", "pdf_atom_type": "TABLE_ROW", "pdf_source": "SDTMIG_v3.4", "pdf_page": 277, "pdf_parent_section": "§6.3.5.9.3 Relating PP Records to PC Records", "pdf_verbatim": "9 | ABC-123 | PP | ABC-123-0001 | 9 | DY8DRGX | DY8DRGX | DY8DRGX | DY8DRGX | AUCALL | AUC All | DRUG X | 289.0 | h*ug/mL | 289.0 | 289.0 | h*ug/mL | PLASMA | 8 | 2001-02-08T08:35", "figure_ref": null, "candidates": [{"md_atom_id": "md_dmPP_ex_a093", "md_file": "knowledge_base/domains/PP/examples.md", "md_atom_type": "TABLE_ROW", "md_parent_section": "§PP [PP — Examples]", "md_verbatim": "| 9 | ABC-123 | PP | ABC-123-0001 | 10 | DY8DRGX | DY8DRGX | DY8DRGX | DY8DRGX | AUCALL | AUC All | DRUG X | 289.0 | h*ug/mL | 289.0 | 289.0 | h*ug/mL | PLASMA | 8 | 2001-02-08T08:35 |", "score": 1.0, "match_basis": "verbatim_token+domain_route:PP"}, {"md_atom_id": "md_dmPP_ex_a095", "md_file": "knowledge_base/domains/PP/examples.md", "md_atom_type": "TABLE_ROW", "md_parent_section": "§PP [PP — Examples]", "md_verbatim": "| 11 | ABC-123 | PP | ABC-123-0001 | 13 | DY8DRGX | DY8DRGX | DY8DRGX | DY8DRGX | VZO | Vz Obs | DRUG X | 10.7 | L | 10.7 | 10.7 | L | PLASMA | 8 | 2001-02-08T08:35 |", "score": 0.8385, "match_basis": "verbatim_token+domain_route:PP"}, {"md_atom_id": "md_dmPP_ex_a092", "md_file": "knowledge_base/domains/PP/examples.md", "md_atom_type": "TABLE_ROW", "md_parent_section": "§PP [PP — Examples]", "md_verbatim": "| 8 | ABC-123 | PP | ABC-123-0001 | 9 | DY8DRGX | DY8DRGX | DY8DRGX | DY8DRGX | CMAX | Max Conc | DRUG X | 46.0 | ng/mL | 46.0 | 46.0 | ng/mL | PLASMA | 8 | 2001-02-08T08:35 |", "score": 0.8071, "match_basis": "verbatim_token+domain_route:PP"}, {"md_atom_id": "md_dmPP_ex_a091", "md_file": "knowledge_base/domains/PP/examples.md", "md_atom_type": "TABLE_ROW", "md_parent_section": "§PP [PP — Examples]", "md_verbatim": "| 7 | ABC-123 | PP | ABC-123-0001 | 8 | DY8DRGX | DY8DRGX | DY8DRGX | DY8DRGX | TMAX | Time of CMAX | DRUG X | 1.91 | h | 1.91 | 1.91 | h | PLASMA | 8 | 2001-02-08T08:35 |", "score": 0.7931, "match_basis": "verbatim_token+domain_route:PP"}, {"md_atom_id": "md_dmPP_ex_a096", "md_file": "knowledge_base/domains/PP/examples.md", "md_atom_type": "TABLE_ROW", "md_parent_section": "§PP [PP — Examples]", "md_verbatim": "| 12 | ABC-123 | PP | ABC-123-0001 | 14 | DY8DRGX | DY8DRGX | DY8DRGX | DY8DRGX | CLO | Total CL Obs | DRUG X | 1.75 | L/h | 1.75 | 1.75 | L/h | PLASMA | 8 | 2001-02-08T08:35 |", "score": 0.7931, "match_basis": "verbatim_token+domain_route:PP"}], "candidate_count": 5, "zero_candidate": false}
{"pdf_atom_id": "ig34_p0277_a013", "pdf_atom_type": "TABLE_ROW", "pdf_source": "SDTMIG_v3.4", "pdf_page": 277, "pdf_parent_section": "§6.3.5.9.3 Relating PP Records to PC Records", "pdf_verbatim": "10 | ABC-123 | PP | ABC-123-0001 | 10 | DY8DRGX | DY8DRGX | DY8DRGX | DY8DRGX | LAMZHL | Half-Life Lambda z | DRUG X | 4.50 | h | 4.50 | 4.50 | h | PLASMA | 8 | 2001-02-08T08:35", "figure_ref": null, "candidates": [{"md_atom_id": "md_dmPP_ex_a094", "md_file": "knowledge_base/domains/PP/examples.md", "md_atom_type": "TABLE_ROW", "md_parent_section": "§PP [PP — Examples]", "md_verbatim": "| 10 | ABC-123 | PP | ABC-123-0001 | 12 | DY8DRGX | DY8DRGX | DY8DRGX | DY8DRGX | LAMZHL | Half-Life Lambda z | DRUG X | 4.50 | h | 4.50 | 4.50 | h | PLASMA | 8 | 2001-02-08T08:35 |", "score": 1.0, "match_basis": "verbatim_token+domain_route:PP"}, {"md_atom_id": "md_dmPP_ex_a088", "md_file": "knowledge_base/domains/PP/examples.md", "md_atom_type": "TABLE_ROW", "md_parent_section": "§PP [PP — Examples]", "md_verbatim": "| 4 | ABC-123 | PP | ABC-123-0001 | 5 | DY1DRGX | DY1DRGX | DY1DRGX_HALF | OTHER | LAMZHL | Half-Life Lambda z | DRUG X | 4.69 | h | 4.69 | 4.69 | h | PLASMA | 1 | 2001-02-01T08:35 |", "score": 0.7947, "match_basis": "verbatim_token+domain_route:PP"}, {"md_atom_id": "md_dmPP_ex_a095", "md_file": "knowledge_base/domains/PP/examples.md", "md_atom_type": "TABLE_ROW", "md_parent_section": "§PP [PP — Examples]", "md_verbatim": "| 11 | ABC-123 | PP | ABC-123-0001 | 13 | DY8DRGX | DY8DRGX | DY8DRGX | DY8DRGX | VZO | Vz Obs | DRUG X | 10.7 | L | 10.7 | 10.7 | L | PLASMA | 8 | 2001-02-08T08:35 |", "score": 0.7562, "match_basis": "verbatim_token+domain_route:PP"}, {"md_atom_id": "md_dmPP_ex_a014", "md_file": "knowledge_base/domains/PP/examples.md", "md_atom_type": "TABLE_ROW", "md_parent_section": "§PP.1 [Example 1]", "md_verbatim": "| 5 | ABC-123 | PP | ABC-123-001 | 5 | DRUGA_DAY1 | LAMZHL | Half-Life Lambda z | DRUG A PARENT | 7.74 | h | 7.74 | 7.74 | h | PLASMA | 1 | DAY 1 | 2001-02-25 | 2001-02-25T08:00 |", "score": 0.7385, "match_basis": "verbatim_token+domain_route:PP"}, {"md_atom_id": "md_dmPP_ex_a069", "md_file": "knowledge_base/domains/PP/examples.md", "md_atom_type": "TABLE_ROW", "md_parent_section": "§PP.3 [Example 3]", "md_verbatim": "| 5 | ABC-123 | PP | ABC-123-001 | 5 | DRUGA_DAY1 | LAMZHL | Half-Life Lambda z | DRUG A PARENT | 7.74 | h | 7.74 | 7.74 | h | PLASMA | 1 | DAY 1 | 2001-02-25 | 2001-02-25T08:00 | | |", "score": 0.7385, "match_basis": "verbatim_token+domain_route:PP"}], "candidate_count": 5, "zero_candidate": false}
{"pdf_atom_id": "ig34_p0277_a014", "pdf_atom_type": "TABLE_ROW", "pdf_source": "SDTMIG_v3.4", "pdf_page": 277, "pdf_parent_section": "§6.3.5.9.3 Relating PP Records to PC Records", "pdf_verbatim": "11 | ABC-123 | PP | ABC-123-0001 | 11 | DY8DRGX | DY8DRGX | DY8DRGX | DY8DRGX | VZO | Vz Obs | DRUG X | 10.7 | L | 10.7 | 10.7 | L | PLASMA | 8 | 2001-02-08T08:35", "figure_ref": null, "candidates": [{"md_atom_id": "md_dmPP_ex_a095", "md_file": "knowledge_base/domains/PP/examples.md", "md_atom_type": "TABLE_ROW", "md_parent_section": "§PP [PP — Examples]", "md_verbatim": "| 11 | ABC-123 | PP | ABC-123-0001 | 13 | DY8DRGX | DY8DRGX | DY8DRGX | DY8DRGX | VZO | Vz Obs | DRUG X | 10.7 | L | 10.7 | 10.7 | L | PLASMA | 8 | 2001-02-08T08:35 |", "score": 1.0, "match_basis": "verbatim_token+domain_route:PP"}, {"md_atom_id": "md_dmPP_ex_a096", "md_file": "knowledge_base/domains/PP/examples.md", "md_atom_type": "TABLE_ROW", "md_parent_section": "§PP [PP — Examples]", "md_verbatim": "| 12 | ABC-123 | PP | ABC-123-0001 | 14 | DY8DRGX | DY8DRGX | DY8DRGX | DY8DRGX | CLO | Total CL Obs | DRUG X | 1.75 | L/h | 1.75 | 1.75 | L/h | PLASMA | 8 | 2001-02-08T08:35 |", "score": 0.88, "match_basis": "verbatim_token+domain_route:PP"}, {"md_atom_id": "md_dmPP_ex_a092", "md_file": "knowledge_base/domains/PP/examples.md", "md_atom_type": "TABLE_ROW", "md_parent_section": "§PP [PP — Examples]", "md_verbatim": "| 8 | ABC-123 | PP | ABC-123-0001 | 9 | DY8DRGX | DY8DRGX | DY8DRGX | DY8DRGX | CMAX | Max Conc | DRUG X | 46.0 | ng/mL | 46.0 | 46.0 | ng/mL | PLASMA | 8 | 2001-02-08T08:35 |", "score": 0.856, "match_basis": "verbatim_token+domain_route:PP"}, {"md_atom_id": "md_dmPP_ex_a091", "md_file": "knowledge_base/domains/PP/examples.md", "md_atom_type": "TABLE_ROW", "md_parent_section": "§PP [PP — Examples]", "md_verbatim": "| 7 | ABC-123 | PP | ABC-123-0001 | 8 | DY8DRGX | DY8DRGX | DY8DRGX | DY8DRGX | TMAX | Time of CMAX | DRUG X | 1.91 | h | 1.91 | 1.91 | h | PLASMA | 8 | 2001-02-08T08:35 |", "score": 0.8385, "match_basis": "verbatim_token+domain_route:PP"}, {"md_atom_id": "md_dmPP_ex_a093", "md_file": "knowledge_base/domains/PP/examples.md", "md_atom_type": "TABLE_ROW", "md_parent_section": "§PP [PP — Examples]", "md_verbatim": "| 9 | ABC-123 | PP | ABC-123-0001 | 10 | DY8DRGX | DY8DRGX | DY8DRGX | DY8DRGX | AUCALL | AUC All | DRUG X | 289.0 | h*ug/mL | 289.0 | 289.0 | h*ug/mL | PLASMA | 8 | 2001-02-08T08:35 |", "score": 0.8385, "match_basis": "verbatim_token+domain_route:PP"}], "candidate_count": 5, "zero_candidate": false}
{"pdf_atom_id": "ig34_p0277_a015", "pdf_atom_type": "TABLE_ROW", "pdf_source": "SDTMIG_v3.4", "pdf_page": 277, "pdf_parent_section": "§6.3.5.9.3 Relating PP Records to PC Records", "pdf_verbatim": "12 | ABC-123 | PP | ABC-123-0001 | 12 | DY8DRGX | DY8DRGX | DY8DRGX | DY8DRGX | CLO | Total CL Obs | DRUG X | 1.75 | L/h | 1.75 | 1.75 | L/h | PLASMA | 8 | 2001-02-08T08:35", "figure_ref": null, "candidates": [{"md_atom_id": "md_dmPP_ex_a096", "md_file": "knowledge_base/domains/PP/examples.md", "md_atom_type": "TABLE_ROW", "md_parent_section": "§PP [PP — Examples]", "md_verbatim": "| 12 | ABC-123 | PP | ABC-123-0001 | 14 | DY8DRGX | DY8DRGX | DY8DRGX | DY8DRGX | CLO | Total CL Obs | DRUG X | 1.75 | L/h | 1.75 | 1.75 | L/h | PLASMA | 8 | 2001-02-08T08:35 |", "score": 1.0, "match_basis": "verbatim_token+domain_route:PP"}, {"md_atom_id": "md_dmPP_ex_a095", "md_file": "knowledge_base/domains/PP/examples.md", "md_atom_type": "TABLE_ROW", "md_parent_section": "§PP [PP — Examples]", "md_verbatim": "| 11 | ABC-123 | PP | ABC-123-0001 | 13 | DY8DRGX | DY8DRGX | DY8DRGX | DY8DRGX | VZO | Vz Obs | DRUG X | 10.7 | L | 10.7 | 10.7 | L | PLASMA | 8 | 2001-02-08T08:35 |", "score": 0.88, "match_basis": "verbatim_token+domain_route:PP"}, {"md_atom_id": "md_dmPP_ex_a092", "md_file": "knowledge_base/domains/PP/examples.md", "md_atom_type": "TABLE_ROW", "md_parent_section": "§PP [PP — Examples]", "md_verbatim": "| 8 | ABC-123 | PP | ABC-123-0001 | 9 | DY8DRGX | DY8DRGX | DY8DRGX | DY8DRGX | CMAX | Max Conc | DRUG X | 46.0 | ng/mL | 46.0 | 46.0 | ng/mL | PLASMA | 8 | 2001-02-08T08:35 |", "score": 0.8071, "match_basis": "verbatim_token+domain_route:PP"}, {"md_atom_id": "md_dmPP_ex_a091", "md_file": "knowledge_base/domains/PP/examples.md", "md_atom_type": "TABLE_ROW", "md_parent_section": "§PP [PP — Examples]", "md_verbatim": "| 7 | ABC-123 | PP | ABC-123-0001 | 8 | DY8DRGX | DY8DRGX | DY8DRGX | DY8DRGX | TMAX | Time of CMAX | DRUG X | 1.91 | h | 1.91 | 1.91 | h | PLASMA | 8 | 2001-02-08T08:35 |", "score": 0.7931, "match_basis": "verbatim_token+domain_route:PP"}, {"md_atom_id": "md_dmPP_ex_a093", "md_file": "knowledge_base/domains/PP/examples.md", "md_atom_type": "TABLE_ROW", "md_parent_section": "§PP [PP — Examples]", "md_verbatim": "| 9 | ABC-123 | PP | ABC-123-0001 | 10 | DY8DRGX | DY8DRGX | DY8DRGX | DY8DRGX | AUCALL | AUC All | DRUG X | 289.0 | h*ug/mL | 289.0 | 289.0 | h*ug/mL | PLASMA | 8 | 2001-02-08T08:35 |", "score": 0.7931, "match_basis": "verbatim_token+domain_route:PP"}], "candidate_count": 5, "zero_candidate": false}
{"pdf_atom_id": "ig34_p0277_a016", "pdf_atom_type": "HEADING", "pdf_source": "SDTMIG_v3.4", "pdf_page": 277, "pdf_parent_section": "§6.3.5.9.3 Relating PP Records to PC Records", "pdf_verbatim": "Example 1", "figure_ref": null, "candidates": [{"md_atom_id": "md_dmPP_ex_a004", "md_file": "knowledge_base/domains/PP/examples.md", "md_atom_type": "HEADING", "md_parent_section": "§PP [PP — Examples]", "md_verbatim": "## Example 1", "score": 1.0, "match_basis": "verbatim_token+domain_route:PP"}, {"md_atom_id": "md_dmPP_ex_a044", "md_file": "knowledge_base/domains/PP/examples.md", "md_atom_type": "HEADING", "md_parent_section": "§PP [PP — Examples]", "md_verbatim": "## Example 2", "score": 1.0, "match_basis": "verbatim_token+domain_route:PP"}, {"md_atom_id": "md_dmPP_ex_a059", "md_file": "knowledge_base/domains/PP/examples.md", "md_atom_type": "HEADING", "md_parent_section": "§PP [PP — Examples]", "md_verbatim": "## Example 3", "score": 1.0, "match_basis": "verbatim_token+domain_route:PP"}, {"md_atom_id": "md_dmPP_ex_a001", "md_file": "knowledge_base/domains/PP/examples.md", "md_atom_type": "HEADING", "md_parent_section": "§PP [PP — Examples]", "md_verbatim": "# PP — Examples", "score": 0.9, "match_basis": "verbatim_token+domain_route:PP"}, {"md_atom_id": "md_dmPP_ex_a081", "md_file": "knowledge_base/domains/PP/examples.md", "md_atom_type": "HEADING", "md_parent_section": "§PP [PP — Examples]", "md_verbatim": "## Shared PP Dataset for RELREC Examples", "score": 0.55, "match_basis": "verbatim_token+domain_route:PP"}, {"md_atom_id": "md_dmPP_assn_a001", "md_file": "knowledge_base/domains/PP/assumptions.md", "md_atom_type": "HEADING", "md_parent_section": "§PP [PP — Assumptions]", "md_verbatim": "# PP — Assumptions", "score": 0.4, "match_basis": "verbatim_token+domain_route:PP"}], "candidate_count": 6, "zero_candidate": false}
{"pdf_atom_id": "ig34_p0277_a017", "pdf_atom_type": "SENTENCE", "pdf_source": "SDTMIG_v3.4", "pdf_page": 277, "pdf_parent_section": "§6.3.5.9.3 Relating PP Records to PC Records", "pdf_verbatim": "All PC records used to calculate all pharmacokinetic parameters.", "figure_ref": null, "candidates": [{"md_atom_id": "md_dmPP_ex_a006", "md_file": "knowledge_base/domains/PP/examples.md", "md_atom_type": "SENTENCE", "md_parent_section": "§PP.1 [Example 1]", "md_verbatim": "**Rows 1-12:** Show parameters for day 1.", "score": 0.5143, "match_basis": "verbatim_token+domain_route:PP"}, {"md_atom_id": "md_dmPP_ex_a007", "md_file": "knowledge_base/domains/PP/examples.md", "md_atom_type": "SENTENCE", "md_parent_section": "§PP.1 [Example 1]", "md_verbatim": "**Rows 13-24:** Show parameters for day 11.", "score": 0.5143, "match_basis": "verbatim_token+domain_route:PP"}, {"md_atom_id": "md_dmPP_ex_a061", "md_file": "knowledge_base/domains/PP/examples.md", "md_atom_type": "SENTENCE", "md_parent_section": "§PP.3 [Example 3]", "md_verbatim": "**Rows 1-7:** Show parameters for day 1.", "score": 0.5143, "match_basis": "verbatim_token+domain_route:PP"}, {"md_atom_id": "md_dmPP_ex_a062", "md_file": "knowledge_base/domains/PP/examples.md", "md_atom_type": "SENTENCE", "md_parent_section": "§PP.3 [Example 3]", "md_verbatim": "**Rows 8-14:** Show parameters for day 14.", "score": 0.5143, "match_basis": "verbatim_token+domain_route:PP"}, {"md_atom_id": "md_dmPP_ex_a046", "md_file": "knowledge_base/domains/PP/examples.md", "md_atom_type": "SENTENCE", "md_parent_section": "§PP.2 [Example 2]", "md_verbatim": "**Rows 1-3:** Show the \"AUC from T1 to T2\" measurements for Drug Parent (row 1), Drug Metabolite 1 (row 2) and Drug Metabolite 2 (row 3). These parameters are calculated using the LIN-LOG TRAPEZOIDAL METHOD which is in PPANMETH.", "score": 0.4957, "match_basis": "verbatim_token+domain_route:PP"}], "candidate_count": 5, "zero_candidate": false}
{"pdf_atom_id": "ig34_p0277_a018", "pdf_atom_type": "SENTENCE", "pdf_source": "SDTMIG_v3.4", "pdf_page": 277, "pdf_parent_section": "§6.3.5.9.3 Relating PP Records to PC Records", "pdf_verbatim": "This example uses --GRPID values in the PCGRPID (Example 1) and PPGRPID (Example 1) columns.", "figure_ref": null, "candidates": [{"md_atom_id": "md_dmPP_ex_a082", "md_file": "knowledge_base/domains/PP/examples.md", "md_atom_type": "SENTENCE", "md_parent_section": "§PP [PP — Examples]", "md_verbatim": "The shared PP dataset contains 12 rows showing PK parameters (TMAX, CMAX, AUCALL, LAMZHL, VZO, CLO) for Drug X (STUDYDRUG analyte) across Day 1 and Day 8, with 4 PPGRPID columns showing the grouping values for the 4 RELREC method examples described in the PC examples section.", "score": 0.5096, "match_basis": "verbatim_token+domain_route:PP"}, {"md_atom_id": "md_dmPP_ex_a060", "md_file": "knowledge_base/domains/PP/examples.md", "md_atom_type": "SENTENCE", "md_parent_section": "§PP.3 [Example 3]", "md_verbatim": "This example shows the use of PPSTINT and PPENINT to describe the AUC segments for the test code \"AUCINT\", the area under the curve from time T1 to time T2. Time T1 is represented in PPSTINT as the elapsed time since PPRFDTC and time T2 is represented in PPENINT as the elapsed time since PPRFDTC.", "score": 0.4652, "match_basis": "verbatim_token+domain_route:PP"}, {"md_atom_id": "md_dmPP_ex_a045", "md_file": "knowledge_base/domains/PP/examples.md", "md_atom_type": "SENTENCE", "md_parent_section": "§PP.2 [Example 2]", "md_verbatim": "This example shows various AUCs calculated using sponsor-defined formulas or the linear-log trapezoidal method.", "score": 0.46, "match_basis": "verbatim_token+domain_route:PP"}, {"md_atom_id": "md_dmPP_ex_a003", "md_file": "knowledge_base/domains/PP/examples.md", "md_atom_type": "SENTENCE", "md_parent_section": "§PP [PP — Examples]", "md_verbatim": "Due to space limitations, not all expected or permissible findings variables are included in the example for this domain.", "score": 0.4593, "match_basis": "verbatim_token+domain_route:PP"}, {"md_atom_id": "md_dmPP_ex_a097", "md_file": "knowledge_base/domains/PP/examples.md", "md_atom_type": "SENTENCE", "md_parent_section": "§PP [PP — Examples]", "md_verbatim": "*See PC examples for the full description of RELREC Methods A through D and their corresponding relrec.xpt tables.*", "score": 0.4583, "match_basis": "verbatim_token+domain_route:PP"}], "candidate_count": 5, "zero_candidate": false}
{"pdf_atom_id": "ig34_p0277_a019", "pdf_atom_type": "HEADING", "pdf_source": "SDTMIG_v3.4", "pdf_page": 277, "pdf_parent_section": "§6.3.5.9.3 Relating PP Records to PC Records — Example 1", "pdf_verbatim": "Method A (Many to Many, Using PCGRPID and PPGRPID)", "figure_ref": null, "candidates": [{"md_atom_id": "md_dmPP_assn_a001", "md_file": "knowledge_base/domains/PP/assumptions.md", "md_atom_type": "HEADING", "md_parent_section": "§PP [PP — Assumptions]", "md_verbatim": "# PP — Assumptions", "score": 0.4, "match_basis": "verbatim_token+domain_route:PP"}, {"md_atom_id": "md_dmPP_ex_a001", "md_file": "knowledge_base/domains/PP/examples.md", "md_atom_type": "HEADING", "md_parent_section": "§PP [PP — Examples]", "md_verbatim": "# PP — Examples", "score": 0.4, "match_basis": "verbatim_token+domain_route:PP"}, {"md_atom_id": "md_dmPP_ex_a004", "md_file": "knowledge_base/domains/PP/examples.md", "md_atom_type": "HEADING", "md_parent_section": "§PP [PP — Examples]", "md_verbatim": "## Example 1", "score": 0.4, "match_basis": "verbatim_token+domain_route:PP"}, {"md_atom_id": "md_dmPP_ex_a044", "md_file": "knowledge_base/domains/PP/examples.md", "md_atom_type": "HEADING", "md_parent_section": "§PP [PP — Examples]", "md_verbatim": "## Example 2", "score": 0.4, "match_basis": "verbatim_token+domain_route:PP"}, {"md_atom_id": "md_dmPP_ex_a059", "md_file": "knowledge_base/domains/PP/examples.md", "md_atom_type": "HEADING", "md_parent_section": "§PP [PP — Examples]", "md_verbatim": "## Example 3", "score": 0.4, "match_basis": "verbatim_token+domain_route:PP"}], "candidate_count": 5, "zero_candidate": false}
{"pdf_atom_id": "ig34_p0277_a020", "pdf_atom_type": "LIST_ITEM", "pdf_source": "SDTMIG_v3.4", "pdf_page": 277, "pdf_parent_section": "§6.3.5.9.3 Relating PP Records to PC Records — Example 1", "pdf_verbatim": "Rows 1-2: The relationship with RELID \"1\" includes all PC records with PCGRPID = \"DY1_DRGX\" and all PP records with PPGRPID = \"DY1DRGX\".", "figure_ref": null, "candidates": [{"md_atom_id": "md_dmPP_assn_a003", "md_file": "knowledge_base/domains/PP/assumptions.md", "md_atom_type": "LIST_ITEM", "md_parent_section": "§PP [PP — Assumptions]", "md_verbatim": "2. Information pertaining to all parameters (e.g., number of exponents, model weighting) should be submitted in the SUPPPP dataset.", "score": 0.4291, "match_basis": "verbatim_token+domain_route:PP"}, {"md_atom_id": "md_dmPP_assn_a005", "md_file": "knowledge_base/domains/PP/assumptions.md", "md_atom_type": "LIST_ITEM", "md_parent_section": "§PP [PP — Assumptions]", "md_verbatim": "4. Multiple subset codelists were created for the unique unit expressions of the same concept across codelists. This approach allows study-context appropriate use of unit values for pharmacokinetics (PK) analysis subtypes. Controlled Terminology Rules for PK are available at https://www.cdisc.org/standards/terminology/controlled-terminology.", "score": 0.4267, "match_basis": "verbatim_token+domain_route:PP"}, {"md_atom_id": "md_dmPP_assn_a006", "md_file": "knowledge_base/domains/PP/assumptions.md", "md_atom_type": "LIST_ITEM", "md_parent_section": "§PP [PP — Assumptions]", "md_verbatim": "5. Any Identifiers, Timing variables, or Findings general observation class qualifiers may be added to the PP domain, but the following qualifiers would not generally be used: --BODSYS, --SEV.", "score": 0.4265, "match_basis": "verbatim_token+domain_route:PP"}, {"md_atom_id": "md_dmPP_assn_a002", "md_file": "knowledge_base/domains/PP/assumptions.md", "md_atom_type": "LIST_ITEM", "md_parent_section": "§PP [PP — Assumptions]", "md_verbatim": "1. Pharmacokinetics Parameters is a derived dataset, and may be produced from an analysis dataset with a different structure. As a result, some sponsors may need to normalize their analysis dataset in order for it to fit into the SDTM-based PP domain.", "score": 0.4263, "match_basis": "verbatim_token+domain_route:PP"}, {"md_atom_id": "md_dmPP_assn_a004", "md_file": "knowledge_base/domains/PP/assumptions.md", "md_atom_type": "LIST_ITEM", "md_parent_section": "§PP [PP — Assumptions]", "md_verbatim": "3. There are separate codelists used for PPORRESU/PPSTRESU where the choice depends on whether the value of the pharmacokinetic parameter is normalized.\n   a. Codelist \"PKUNIT\" is used for non-normalized parameters.\n   b. Codelists \"PKUDMG\" and \"PKUDUG\" are used when parameters are normalized by dose amount in milligrams or micrograms, respectively.\n   c. Codelists \"PKUWG\" and \"PKUWKG\" are used when parameters are normalized by weight in grams or kilograms, respectively.", "score": 0.4113, "match_basis": "verbatim_token+domain_route:PP"}], "candidate_count": 5, "zero_candidate": false}
{"pdf_atom_id": "ig34_p0277_a021", "pdf_atom_type": "LIST_ITEM", "pdf_source": "SDTMIG_v3.4", "pdf_page": 277, "pdf_parent_section": "§6.3.5.9.3 Relating PP Records to PC Records — Example 1", "pdf_verbatim": "Rows 3-4: The relationship with RELID \"2\" includes all PC records with GRPID = \"DY8_DRGX\" and all PP records with GRPID = \"DY8DRGX\".", "figure_ref": null, "candidates": [{"md_atom_id": "md_dmPP_assn_a003", "md_file": "knowledge_base/domains/PP/assumptions.md", "md_atom_type": "LIST_ITEM", "md_parent_section": "§PP [PP — Assumptions]", "md_verbatim": "2. Information pertaining to all parameters (e.g., number of exponents, model weighting) should be submitted in the SUPPPP dataset.", "score": 0.4303, "match_basis": "verbatim_token+domain_route:PP"}, {"md_atom_id": "md_dmPP_assn_a006", "md_file": "knowledge_base/domains/PP/assumptions.md", "md_atom_type": "LIST_ITEM", "md_parent_section": "§PP [PP — Assumptions]", "md_verbatim": "5. Any Identifiers, Timing variables, or Findings general observation class qualifiers may be added to the PP domain, but the following qualifiers would not generally be used: --BODSYS, --SEV.", "score": 0.4275, "match_basis": "verbatim_token+domain_route:PP"}, {"md_atom_id": "md_dmPP_assn_a005", "md_file": "knowledge_base/domains/PP/assumptions.md", "md_atom_type": "LIST_ITEM", "md_parent_section": "§PP [PP — Assumptions]", "md_verbatim": "4. Multiple subset codelists were created for the unique unit expressions of the same concept across codelists. This approach allows study-context appropriate use of unit values for pharmacokinetics (PK) analysis subtypes. Controlled Terminology Rules for PK are available at https://www.cdisc.org/standards/terminology/controlled-terminology.", "score": 0.4273, "match_basis": "verbatim_token+domain_route:PP"}, {"md_atom_id": "md_dmPP_assn_a002", "md_file": "knowledge_base/domains/PP/assumptions.md", "md_atom_type": "LIST_ITEM", "md_parent_section": "§PP [PP — Assumptions]", "md_verbatim": "1. Pharmacokinetics Parameters is a derived dataset, and may be produced from an analysis dataset with a different structure. As a result, some sponsors may need to normalize their analysis dataset in order for it to fit into the SDTM-based PP domain.", "score": 0.4271, "match_basis": "verbatim_token+domain_route:PP"}, {"md_atom_id": "md_dmPP_assn_a004", "md_file": "knowledge_base/domains/PP/assumptions.md", "md_atom_type": "LIST_ITEM", "md_parent_section": "§PP [PP — Assumptions]", "md_verbatim": "3. There are separate codelists used for PPORRESU/PPSTRESU where the choice depends on whether the value of the pharmacokinetic parameter is normalized.\n   a. Codelist \"PKUNIT\" is used for non-normalized parameters.\n   b. Codelists \"PKUDMG\" and \"PKUDUG\" are used when parameters are normalized by dose amount in milligrams or micrograms, respectively.\n   c. Codelists \"PKUWG\" and \"PKUWKG\" are used when parameters are normalized by weight in grams or kilograms, respectively.", "score": 0.4115, "match_basis": "verbatim_token+domain_route:PP"}], "candidate_count": 5, "zero_candidate": false}
{"pdf_atom_id": "ig34_p0277_a022", "pdf_atom_type": "CODE_LITERAL", "pdf_source": "SDTMIG_v3.4", "pdf_page": 277, "pdf_parent_section": "§6.3.5.9.3 Relating PP Records to PC Records — Example 1", "pdf_verbatim": "relrec.xpt", "figure_ref": null, "candidates": [{"md_atom_id": "md_dmPP_ex_a008", "md_file": "knowledge_base/domains/PP/examples.md", "md_atom_type": "SENTENCE", "md_parent_section": "§PP.1 [Example 1]", "md_verbatim": "**pp.xpt**", "score": 0.31, "match_basis": "verbatim_token+domain_route:PP"}, {"md_atom_id": "md_dmPP_ex_a050", "md_file": "knowledge_base/domains/PP/examples.md", "md_atom_type": "SENTENCE", "md_parent_section": "§PP.2 [Example 2]", "md_verbatim": "**pp.xpt**", "score": 0.31, "match_basis": "verbatim_token+domain_route:PP"}, {"md_atom_id": "md_dmPP_ex_a063", "md_file": "knowledge_base/domains/PP/examples.md", "md_atom_type": "SENTENCE", "md_parent_section": "§PP.3 [Example 3]", "md_verbatim": "**pp.xpt**", "score": 0.31, "match_basis": "verbatim_token+domain_route:PP"}, {"md_atom_id": "md_dmPP_ex_a083", "md_file": "knowledge_base/domains/PP/examples.md", "md_atom_type": "SENTENCE", "md_parent_section": "§PP [PP — Examples]", "md_verbatim": "**pp.xpt**", "score": 0.31, "match_basis": "verbatim_token+domain_route:PP"}, {"md_atom_id": "md_dmPP_ex_a081", "md_file": "knowledge_base/domains/PP/examples.md", "md_atom_type": "HEADING", "md_parent_section": "§PP [PP — Examples]", "md_verbatim": "## Shared PP Dataset for RELREC Examples", "score": 0.3043, "match_basis": "verbatim_token+domain_route:PP"}, {"md_atom_id": "md_dmPP_ex_a035", "md_file": "knowledge_base/domains/PP/examples.md", "md_atom_type": "SENTENCE", "md_parent_section": "§PP.1 [Example 1]", "md_verbatim": "**supppp.xpt**", "score": 0.265, "match_basis": "verbatim_token+domain_route:PP"}, {"md_atom_id": "md_dmPP_ex_a097", "md_file": "knowledge_base/domains/PP/examples.md", "md_atom_type": "SENTENCE", "md_parent_section": "§PP [PP — Examples]", "md_verbatim": "*See PC examples for the full description of RELREC Methods A through D and their corresponding relrec.xpt tables.*", "score": 0.2477, "match_basis": "verbatim_token+domain_route:PP"}, {"md_atom_id": "md_dmPP_ex_a002", "md_file": "knowledge_base/domains/PP/examples.md", "md_atom_type": "SENTENCE", "md_parent_section": "§PP [PP — Examples]", "md_verbatim": "*Note: PC and PP share a combined examples section (6.3.5.9.3 Relating PP Records to PC Records). The PP parameter data tables are shown here; see also PC examples for the concentration data and detailed RELREC method descriptions.*", "score": 0.2186, "match_basis": "verbatim_token+domain_route:PP"}, {"md_atom_id": "md_dmPP_ex_a082", "md_file": "knowledge_base/domains/PP/examples.md", "md_atom_type": "SENTENCE", "md_parent_section": "§PP [PP — Examples]", "md_verbatim": "The shared PP dataset contains 12 rows showing PK parameters (TMAX, CMAX, AUCALL, LAMZHL, VZO, CLO) for Drug X (STUDYDRUG analyte) across Day 1 and Day 8, with 4 PPGRPID columns showing the grouping values for the 4 RELREC method examples described in the PC examples section.", "score": 0.2118, "match_basis": "verbatim_token+domain_route:PP"}, {"md_atom_id": "md_dmPP_ex_a005", "md_file": "knowledge_base/domains/PP/examples.md", "md_atom_type": "SENTENCE", "md_parent_section": "§PP.1 [Example 1]", "md_verbatim": "This example shows PK parameters calculated from time-concentration profiles for the parent drug and 1 metabolite in plasma and urine for one subject. Note that PPRFDTC is populated in order to link the PP records to the respective PC records. In this example, PPSPEC is null for observed total clearance (PPTESTCD = \"CLO\") records because it is calculated from multiple specimen sources (i.e., plasma and urine).", "score": 0.194, "match_basis": "verbatim_token+domain_route:PP"}], "candidate_count": 10, "zero_candidate": false}
{"pdf_atom_id": "ig34_p0277_a023", "pdf_atom_type": "TABLE_HEADER", "pdf_source": "SDTMIG_v3.4", "pdf_page": 277, "pdf_parent_section": "§6.3.5.9.3 Relating PP Records to PC Records — Example 1", "pdf_verbatim": "Row | STUDYID | RDOMAIN | USUBJID | IDVAR | IDVARVAL | RELTYPE | RELID", "figure_ref": null, "candidates": [{"md_atom_id": "md_dmPP_ex_a036", "md_file": "knowledge_base/domains/PP/examples.md", "md_atom_type": "TABLE_HEADER", "md_parent_section": "§PP.1 [Example 1]", "md_verbatim": "| Row | STUDYID | RDOMAIN | USUBJID | IDVAR | IDVARVAL | QNAM | QLABEL | QVAL | QORIG | QEVAL |\n|-----|---------|---------|---------|-------|----------|------|--------|------|-------|-------|", "score": 0.722, "match_basis": "verbatim_token+domain_route:PP"}, {"md_atom_id": "md_dmPP_ex_a009", "md_file": "knowledge_base/domains/PP/examples.md", "md_atom_type": "TABLE_HEADER", "md_parent_section": "§PP.1 [Example 1]", "md_verbatim": "| Row | STUDYID | DOMAIN | USUBJID | PPSEQ | PPGRPID | PPTESTCD | PPTEST | PPCAT | PPORRES | PPORRESU | PPSTRESC | PPSTRESN | PPSTRESU | PPSPEC | VISITNUM | VISIT | PPDTC | PPRFDTC |\n|-----|---------|--------|---------|-------|---------|----------|--------|-------|---------|----------|----------|----------|----------|--------|----------|-------|-------|---------|", "score": 0.5233, "match_basis": "verbatim_token+domain_route:PP"}, {"md_atom_id": "md_dmPP_ex_a084", "md_file": "knowledge_base/domains/PP/examples.md", "md_atom_type": "TABLE_HEADER", "md_parent_section": "§PP [PP — Examples]", "md_verbatim": "| Row | STUDYID | DOMAIN | USUBJID | PPSEQ | PPGRPID (Example 1) | PPGRPID (Example 2) | PPGRPID (Example 3) | PPGRPID (Example 4) | PPTESTCD | PPTEST | PPCAT | PPORRES | PPORRESU | PPSTRESC | PPSTRESN | PPSTRESU | PPSPEC | PPNOMDY | PPRFDTC |\n|-----|---------|--------|---------|-------|---------------------|---------------------|---------------------|---------------------|----------|--------|-------|---------|----------|----------|----------|----------|--------|---------|---------|", "score": 0.52, "match_basis": "verbatim_token+domain_route:PP"}, {"md_atom_id": "md_dmPP_ex_a051", "md_file": "knowledge_base/domains/PP/examples.md", "md_atom_type": "TABLE_HEADER", "md_parent_section": "§PP.2 [Example 2]", "md_verbatim": "| Row | STUDYID | DOMAIN | USUBJID | PPSEQ | PPRFID | PPTESTCD | PPTEST | PPCAT | PPSCAT | PPORRES | PPORRESU | PPSTRESC | PPSTRESN | PPSTRESU | PPSPEC | PPANMETH | PPFAST | PPNOMDY | PPRFDTC |\n|-----|---------|--------|---------|-------|--------|----------|--------|-------|--------|---------|----------|----------|----------|----------|--------|----------|--------|---------|---------|", "score": 0.5139, "match_basis": "verbatim_token+domain_route:PP"}, {"md_atom_id": "md_dmPP_ex_a064", "md_file": "knowledge_base/domains/PP/examples.md", "md_atom_type": "TABLE_HEADER", "md_parent_section": "§PP.3 [Example 3]", "md_verbatim": "| Row | STUDYID | DOMAIN | USUBJID | PPSEQ | PPGRPID | PPTESTCD | PPTEST | PPCAT | PPORRES | PPORRESU | PPSTRESC | PPSTRESN | PPSTRESU | PPSPEC | VISITNUM | VISIT | PPDTC | PPRFDTC | PPSTINT | PPENINT |\n|-----|---------|--------|---------|-------|---------|----------|--------|-------|---------|----------|----------|----------|----------|--------|----------|-------|-------|---------|---------|---------|", "score": 0.5125, "match_basis": "verbatim_token+domain_route:PP"}], "candidate_count": 5, "zero_candidate": false}
{"pdf_atom_id": "ig34_p0277_a024", "pdf_atom_type": "TABLE_ROW", "pdf_source": "SDTMIG_v3.4", "pdf_page": 277, "pdf_parent_section": "§6.3.5.9.3 Relating PP Records to PC Records — Example 1", "pdf_verbatim": "1 | ABC-123 | PC | ABC-123-0001 | PCGRPID | DY1_DRGX | | 1", "figure_ref": null, "candidates": [{"md_atom_id": "md_dmPP_ex_a086", "md_file": "knowledge_base/domains/PP/examples.md", "md_atom_type": "TABLE_ROW", "md_parent_section": "§PP [PP — Examples]", "md_verbatim": "| 2 | ABC-123 | PP | ABC-123-0001 | 2 | DY1DRGX | DY1DRGX | DY1DRGX_A | CMAX | CMAX | Max Conc | DRUG X | 44.5 | ng/mL | 44.5 | 44.5 | ng/mL | PLASMA | 1 | 2001-02-01T08:35 |", "score": 0.55, "match_basis": "verbatim_token+domain_route:PP"}, {"md_atom_id": "md_dmPP_ex_a085", "md_file": "knowledge_base/domains/PP/examples.md", "md_atom_type": "TABLE_ROW", "md_parent_section": "§PP [PP — Examples]", "md_verbatim": "| 1 | ABC-123 | PP | ABC-123-0001 | 1 | DY1DRGX | DY1DRGX | DY1DRGX_A | TMAX | TMAX | Time of CMAX | DRUG X | 1.87 | h | 1.87 | 1.87 | h | PLASMA | 1 | 2001-02-01T08:35 |", "score": 0.5448, "match_basis": "verbatim_token+domain_route:PP"}, {"md_atom_id": "md_dmPP_ex_a087", "md_file": "knowledge_base/domains/PP/examples.md", "md_atom_type": "TABLE_ROW", "md_parent_section": "§PP [PP — Examples]", "md_verbatim": "| 3 | ABC-123 | PP | ABC-123-0001 | 3 | DY1DRGX | DY1DRGX | DY1DRGX_A | AUC | AUCALL | AUC All | DRUG X | 294.7 | h*ug/mL | 294.7 | 294.7 | h*ug/mL | PLASMA | 1 | 2001-02-01T08:35 |", "score": 0.5448, "match_basis": "verbatim_token+domain_route:PP"}, {"md_atom_id": "md_dmPP_ex_a089", "md_file": "knowledge_base/domains/PP/examples.md", "md_atom_type": "TABLE_ROW", "md_parent_section": "§PP [PP — Examples]", "md_verbatim": "| 5 | ABC-123 | PP | ABC-123-0001 | 6 | DY1DRGX | DY1DRGX | DY1DRGX_A | OTHER | VZO | Vz Obs | DRUG X | 10.9 | L | 10.9 | 10.9 | L | PLASMA | 1 | 2001-02-01T08:35 |", "score": 0.5448, "match_basis": "verbatim_token+domain_route:PP"}, {"md_atom_id": "md_dmPP_ex_a095", "md_file": "knowledge_base/domains/PP/examples.md", "md_atom_type": "TABLE_ROW", "md_parent_section": "§PP [PP — Examples]", "md_verbatim": "| 11 | ABC-123 | PP | ABC-123-0001 | 13 | DY8DRGX | DY8DRGX | DY8DRGX | DY8DRGX | VZO | Vz Obs | DRUG X | 10.7 | L | 10.7 | 10.7 | L | PLASMA | 8 | 2001-02-08T08:35 |", "score": 0.5333, "match_basis": "verbatim_token+domain_route:PP"}], "candidate_count": 5, "zero_candidate": false}
{"pdf_atom_id": "ig34_p0277_a025", "pdf_atom_type": "TABLE_ROW", "pdf_source": "SDTMIG_v3.4", "pdf_page": 277, "pdf_parent_section": "§6.3.5.9.3 Relating PP Records to PC Records — Example 1", "pdf_verbatim": "2 | ABC-123 | PP | ABC-123-0001 | PPGRPID | DY1DRGX | | 1", "figure_ref": null, "candidates": [{"md_atom_id": "md_dmPP_ex_a086", "md_file": "knowledge_base/domains/PP/examples.md", "md_atom_type": "TABLE_ROW", "md_parent_section": "§PP [PP — Examples]", "md_verbatim": "| 2 | ABC-123 | PP | ABC-123-0001 | 2 | DY1DRGX | DY1DRGX | DY1DRGX_A | CMAX | CMAX | Max Conc | DRUG X | 44.5 | ng/mL | 44.5 | 44.5 | ng/mL | PLASMA | 1 | 2001-02-01T08:35 |", "score": 0.5929, "match_basis": "verbatim_token+domain_route:PP"}, {"md_atom_id": "md_dmPP_ex_a085", "md_file": "knowledge_base/domains/PP/examples.md", "md_atom_type": "TABLE_ROW", "md_parent_section": "§PP [PP — Examples]", "md_verbatim": "| 1 | ABC-123 | PP | ABC-123-0001 | 1 | DY1DRGX | DY1DRGX | DY1DRGX_A | TMAX | TMAX | Time of CMAX | DRUG X | 1.87 | h | 1.87 | 1.87 | h | PLASMA | 1 | 2001-02-01T08:35 |", "score": 0.5862, "match_basis": "verbatim_token+domain_route:PP"}, {"md_atom_id": "md_dmPP_ex_a087", "md_file": "knowledge_base/domains/PP/examples.md", "md_atom_type": "TABLE_ROW", "md_parent_section": "§PP [PP — Examples]", "md_verbatim": "| 3 | ABC-123 | PP | ABC-123-0001 | 3 | DY1DRGX | DY1DRGX | DY1DRGX_A | AUC | AUCALL | AUC All | DRUG X | 294.7 | h*ug/mL | 294.7 | 294.7 | h*ug/mL | PLASMA | 1 | 2001-02-01T08:35 |", "score": 0.5862, "match_basis": "verbatim_token+domain_route:PP"}, {"md_atom_id": "md_dmPP_ex_a089", "md_file": "knowledge_base/domains/PP/examples.md", "md_atom_type": "TABLE_ROW", "md_parent_section": "§PP [PP — Examples]", "md_verbatim": "| 5 | ABC-123 | PP | ABC-123-0001 | 6 | DY1DRGX | DY1DRGX | DY1DRGX_A | OTHER | VZO | Vz Obs | DRUG X | 10.9 | L | 10.9 | 10.9 | L | PLASMA | 1 | 2001-02-01T08:35 |", "score": 0.5862, "match_basis": "verbatim_token+domain_route:PP"}, {"md_atom_id": "md_dmPP_ex_a090", "md_file": "knowledge_base/domains/PP/examples.md", "md_atom_type": "TABLE_ROW", "md_parent_section": "§PP [PP — Examples]", "md_verbatim": "| 6 | ABC-123 | PP | ABC-123-0001 | 7 | DY1DRGX | DY1DRGX | DY1DRGX_A | OTHER | CLO | Total CL Obs | DRUG X | 1.68 | L/h | 1.68 | 1.68 | L/h | PLASMA | 1 | 2001-02-01T08:35 |", "score": 0.5687, "match_basis": "verbatim_token+domain_route:PP"}], "candidate_count": 5, "zero_candidate": false}
{"pdf_atom_id": "ig34_p0277_a026", "pdf_atom_type": "TABLE_ROW", "pdf_source": "SDTMIG_v3.4", "pdf_page": 277, "pdf_parent_section": "§6.3.5.9.3 Relating PP Records to PC Records — Example 1", "pdf_verbatim": "3 | ABC-123 | PC | ABC-123-0001 | PCGRPID | DY8_DRGX | | 2", "figure_ref": null, "candidates": [{"md_atom_id": "md_dmPP_ex_a095", "md_file": "knowledge_base/domains/PP/examples.md", "md_atom_type": "TABLE_ROW", "md_parent_section": "§PP [PP — Examples]", "md_verbatim": "| 11 | ABC-123 | PP | ABC-123-0001 | 13 | DY8DRGX | DY8DRGX | DY8DRGX | DY8DRGX | VZO | Vz Obs | DRUG X | 10.7 | L | 10.7 | 10.7 | L | PLASMA | 8 | 2001-02-08T08:35 |", "score": 0.5615, "match_basis": "verbatim_token+domain_route:PP"}, {"md_atom_id": "md_dmPP_ex_a092", "md_file": "knowledge_base/domains/PP/examples.md", "md_atom_type": "TABLE_ROW", "md_parent_section": "§PP [PP — Examples]", "md_verbatim": "| 8 | ABC-123 | PP | ABC-123-0001 | 9 | DY8DRGX | DY8DRGX | DY8DRGX | DY8DRGX | CMAX | Max Conc | DRUG X | 46.0 | ng/mL | 46.0 | 46.0 | ng/mL | PLASMA | 8 | 2001-02-08T08:35 |", "score": 0.55, "match_basis": "verbatim_token+domain_route:PP"}, {"md_atom_id": "md_dmPP_ex_a091", "md_file": "knowledge_base/domains/PP/examples.md", "md_atom_type": "TABLE_ROW", "md_parent_section": "§PP [PP — Examples]", "md_verbatim": "| 7 | ABC-123 | PP | ABC-123-0001 | 8 | DY8DRGX | DY8DRGX | DY8DRGX | DY8DRGX | TMAX | Time of CMAX | DRUG X | 1.91 | h | 1.91 | 1.91 | h | PLASMA | 8 | 2001-02-08T08:35 |", "score": 0.5448, "match_basis": "verbatim_token+domain_route:PP"}, {"md_atom_id": "md_dmPP_ex_a093", "md_file": "knowledge_base/domains/PP/examples.md", "md_atom_type": "TABLE_ROW", "md_parent_section": "§PP [PP — Examples]", "md_verbatim": "| 9 | ABC-123 | PP | ABC-123-0001 | 10 | DY8DRGX | DY8DRGX | DY8DRGX | DY8DRGX | AUCALL | AUC All | DRUG X | 289.0 | h*ug/mL | 289.0 | 289.0 | h*ug/mL | PLASMA | 8 | 2001-02-08T08:35 |", "score": 0.5448, "match_basis": "verbatim_token+domain_route:PP"}, {"md_atom_id": "md_dmPP_ex_a096", "md_file": "knowledge_base/domains/PP/examples.md", "md_atom_type": "TABLE_ROW", "md_parent_section": "§PP [PP — Examples]", "md_verbatim": "| 12 | ABC-123 | PP | ABC-123-0001 | 14 | DY8DRGX | DY8DRGX | DY8DRGX | DY8DRGX | CLO | Total CL Obs | DRUG X | 1.75 | L/h | 1.75 | 1.75 | L/h | PLASMA | 8 | 2001-02-08T08:35 |", "score": 0.5448, "match_basis": "verbatim_token+domain_route:PP"}], "candidate_count": 5, "zero_candidate": false}
{"pdf_atom_id": "ig34_p0277_a027", "pdf_atom_type": "TABLE_ROW", "pdf_source": "SDTMIG_v3.4", "pdf_page": 277, "pdf_parent_section": "§6.3.5.9.3 Relating PP Records to PC Records — Example 1", "pdf_verbatim": "4 | ABC-123 | PP | ABC-123-0001 | PPGRPID | DY8DRGX | | 2", "figure_ref": null, "candidates": [{"md_atom_id": "md_dmPP_ex_a095", "md_file": "knowledge_base/domains/PP/examples.md", "md_atom_type": "TABLE_ROW", "md_parent_section": "§PP [PP — Examples]", "md_verbatim": "| 11 | ABC-123 | PP | ABC-123-0001 | 13 | DY8DRGX | DY8DRGX | DY8DRGX | DY8DRGX | VZO | Vz Obs | DRUG X | 10.7 | L | 10.7 | 10.7 | L | PLASMA | 8 | 2001-02-08T08:35 |", "score": 0.6077, "match_basis": "verbatim_token+domain_route:PP"}, {"md_atom_id": "md_dmPP_ex_a092", "md_file": "knowledge_base/domains/PP/examples.md", "md_atom_type": "TABLE_ROW", "md_parent_section": "§PP [PP — Examples]", "md_verbatim": "| 8 | ABC-123 | PP | ABC-123-0001 | 9 | DY8DRGX | DY8DRGX | DY8DRGX | DY8DRGX | CMAX | Max Conc | DRUG X | 46.0 | ng/mL | 46.0 | 46.0 | ng/mL | PLASMA | 8 | 2001-02-08T08:35 |", "score": 0.5929, "match_basis": "verbatim_token+domain_route:PP"}, {"md_atom_id": "md_dmPP_ex_a091", "md_file": "knowledge_base/domains/PP/examples.md", "md_atom_type": "TABLE_ROW", "md_parent_section": "§PP [PP — Examples]", "md_verbatim": "| 7 | ABC-123 | PP | ABC-123-0001 | 8 | DY8DRGX | DY8DRGX | DY8DRGX | DY8DRGX | TMAX | Time of CMAX | DRUG X | 1.91 | h | 1.91 | 1.91 | h | PLASMA | 8 | 2001-02-08T08:35 |", "score": 0.5862, "match_basis": "verbatim_token+domain_route:PP"}, {"md_atom_id": "md_dmPP_ex_a093", "md_file": "knowledge_base/domains/PP/examples.md", "md_atom_type": "TABLE_ROW", "md_parent_section": "§PP [PP — Examples]", "md_verbatim": "| 9 | ABC-123 | PP | ABC-123-0001 | 10 | DY8DRGX | DY8DRGX | DY8DRGX | DY8DRGX | AUCALL | AUC All | DRUG X | 289.0 | h*ug/mL | 289.0 | 289.0 | h*ug/mL | PLASMA | 8 | 2001-02-08T08:35 |", "score": 0.5862, "match_basis": "verbatim_token+domain_route:PP"}, {"md_atom_id": "md_dmPP_ex_a096", "md_file": "knowledge_base/domains/PP/examples.md", "md_atom_type": "TABLE_ROW", "md_parent_section": "§PP [PP — Examples]", "md_verbatim": "| 12 | ABC-123 | PP | ABC-123-0001 | 14 | DY8DRGX | DY8DRGX | DY8DRGX | DY8DRGX | CLO | Total CL Obs | DRUG X | 1.75 | L/h | 1.75 | 1.75 | L/h | PLASMA | 8 | 2001-02-08T08:35 |", "score": 0.5862, "match_basis": "verbatim_token+domain_route:PP"}], "candidate_count": 5, "zero_candidate": false}
{"pdf_atom_id": "ig34_p0277_a028", "pdf_atom_type": "HEADING", "pdf_source": "SDTMIG_v3.4", "pdf_page": 277, "pdf_parent_section": "§6.3.5.9.3 Relating PP Records to PC Records — Example 1", "pdf_verbatim": "Method B (One to Many, Using PCSEQ and PPGRPID)", "figure_ref": null, "candidates": [{"md_atom_id": "md_dmPP_assn_a001", "md_file": "knowledge_base/domains/PP/assumptions.md", "md_atom_type": "HEADING", "md_parent_section": "§PP [PP — Assumptions]", "md_verbatim": "# PP — Assumptions", "score": 0.4, "match_basis": "verbatim_token+domain_route:PP"}, {"md_atom_id": "md_dmPP_ex_a001", "md_file": "knowledge_base/domains/PP/examples.md", "md_atom_type": "HEADING", "md_parent_section": "§PP [PP — Examples]", "md_verbatim": "# PP — Examples", "score": 0.4, "match_basis": "verbatim_token+domain_route:PP"}, {"md_atom_id": "md_dmPP_ex_a004", "md_file": "knowledge_base/domains/PP/examples.md", "md_atom_type": "HEADING", "md_parent_section": "§PP [PP — Examples]", "md_verbatim": "## Example 1", "score": 0.4, "match_basis": "verbatim_token+domain_route:PP"}, {"md_atom_id": "md_dmPP_ex_a044", "md_file": "knowledge_base/domains/PP/examples.md", "md_atom_type": "HEADING", "md_parent_section": "§PP [PP — Examples]", "md_verbatim": "## Example 2", "score": 0.4, "match_basis": "verbatim_token+domain_route:PP"}, {"md_atom_id": "md_dmPP_ex_a059", "md_file": "knowledge_base/domains/PP/examples.md", "md_atom_type": "HEADING", "md_parent_section": "§PP [PP — Examples]", "md_verbatim": "## Example 3", "score": 0.4, "match_basis": "verbatim_token+domain_route:PP"}], "candidate_count": 5, "zero_candidate": false}
{"pdf_atom_id": "ig34_p0277_a029", "pdf_atom_type": "LIST_ITEM", "pdf_source": "SDTMIG_v3.4", "pdf_page": 277, "pdf_parent_section": "§6.3.5.9.3 Relating PP Records to PC Records — Example 1", "pdf_verbatim": "Rows 1-13: The relationship with RELID \"1\" includes the individual PC records with PCSEQ values \"1\" to \"12\" and all PP records with PPGRPID = \"DY1DRGX\".", "figure_ref": null, "candidates": [{"md_atom_id": "md_dmPP_assn_a006", "md_file": "knowledge_base/domains/PP/assumptions.md", "md_atom_type": "LIST_ITEM", "md_parent_section": "§PP [PP — Assumptions]", "md_verbatim": "5. Any Identifiers, Timing variables, or Findings general observation class qualifiers may be added to the PP domain, but the following qualifiers would not generally be used: --BODSYS, --SEV.", "score": 0.439, "match_basis": "verbatim_token+domain_route:PP"}, {"md_atom_id": "md_dmPP_assn_a005", "md_file": "knowledge_base/domains/PP/assumptions.md", "md_atom_type": "LIST_ITEM", "md_parent_section": "§PP [PP — Assumptions]", "md_verbatim": "4. Multiple subset codelists were created for the unique unit expressions of the same concept across codelists. This approach allows study-context appropriate use of unit values for pharmacokinetics (PK) analysis subtypes. Controlled Terminology Rules for PK are available at https://www.cdisc.org/standards/terminology/controlled-terminology.", "score": 0.4381, "match_basis": "verbatim_token+domain_route:PP"}, {"md_atom_id": "md_dmPP_assn_a003", "md_file": "knowledge_base/domains/PP/assumptions.md", "md_atom_type": "LIST_ITEM", "md_parent_section": "§PP [PP — Assumptions]", "md_verbatim": "2. Information pertaining to all parameters (e.g., number of exponents, model weighting) should be submitted in the SUPPPP dataset.", "score": 0.4259, "match_basis": "verbatim_token+domain_route:PP"}, {"md_atom_id": "md_dmPP_assn_a002", "md_file": "knowledge_base/domains/PP/assumptions.md", "md_atom_type": "LIST_ITEM", "md_parent_section": "§PP [PP — Assumptions]", "md_verbatim": "1. Pharmacokinetics Parameters is a derived dataset, and may be produced from an analysis dataset with a different structure. As a result, some sponsors may need to normalize their analysis dataset in order for it to fit into the SDTM-based PP domain.", "score": 0.424, "match_basis": "verbatim_token+domain_route:PP"}, {"md_atom_id": "md_dmPP_assn_a004", "md_file": "knowledge_base/domains/PP/assumptions.md", "md_atom_type": "LIST_ITEM", "md_parent_section": "§PP [PP — Assumptions]", "md_verbatim": "3. There are separate codelists used for PPORRESU/PPSTRESU where the choice depends on whether the value of the pharmacokinetic parameter is normalized.\n   a. Codelist \"PKUNIT\" is used for non-normalized parameters.\n   b. Codelists \"PKUDMG\" and \"PKUDUG\" are used when parameters are normalized by dose amount in milligrams or micrograms, respectively.\n   c. Codelists \"PKUWG\" and \"PKUWKG\" are used when parameters are normalized by weight in grams or kilograms, respectively.", "score": 0.4212, "match_basis": "verbatim_token+domain_route:PP"}], "candidate_count": 5, "zero_candidate": false}
{"pdf_atom_id": "ig34_p0277_a030", "pdf_atom_type": "LIST_ITEM", "pdf_source": "SDTMIG_v3.4", "pdf_page": 277, "pdf_parent_section": "§6.3.5.9.3 Relating PP Records to PC Records — Example 1", "pdf_verbatim": "Rows 14-26: The relationship with RELID \"2\" includes the individual PC records with PCSEQ values \"13\" to \"24\" and all PP records with PPGRPID = \"DY8DRGX\".", "figure_ref": null, "candidates": [{"md_atom_id": "md_dmPP_assn_a006", "md_file": "knowledge_base/domains/PP/assumptions.md", "md_atom_type": "LIST_ITEM", "md_parent_section": "§PP [PP — Assumptions]", "md_verbatim": "5. Any Identifiers, Timing variables, or Findings general observation class qualifiers may be added to the PP domain, but the following qualifiers would not generally be used: --BODSYS, --SEV.", "score": 0.439, "match_basis": "verbatim_token+domain_route:PP"}, {"md_atom_id": "md_dmPP_assn_a005", "md_file": "knowledge_base/domains/PP/assumptions.md", "md_atom_type": "LIST_ITEM", "md_parent_section": "§PP [PP — Assumptions]", "md_verbatim": "4. Multiple subset codelists were created for the unique unit expressions of the same concept across codelists. This approach allows study-context appropriate use of unit values for pharmacokinetics (PK) analysis subtypes. Controlled Terminology Rules for PK are available at https://www.cdisc.org/standards/terminology/controlled-terminology.", "score": 0.4381, "match_basis": "verbatim_token+domain_route:PP"}, {"md_atom_id": "md_dmPP_assn_a003", "md_file": "knowledge_base/domains/PP/assumptions.md", "md_atom_type": "LIST_ITEM", "md_parent_section": "§PP [PP — Assumptions]", "md_verbatim": "2. Information pertaining to all parameters (e.g., number of exponents, model weighting) should be submitted in the SUPPPP dataset.", "score": 0.4259, "match_basis": "verbatim_token+domain_route:PP"}, {"md_atom_id": "md_dmPP_assn_a002", "md_file": "knowledge_base/domains/PP/assumptions.md", "md_atom_type": "LIST_ITEM", "md_parent_section": "§PP [PP — Assumptions]", "md_verbatim": "1. Pharmacokinetics Parameters is a derived dataset, and may be produced from an analysis dataset with a different structure. As a result, some sponsors may need to normalize their analysis dataset in order for it to fit into the SDTM-based PP domain.", "score": 0.424, "match_basis": "verbatim_token+domain_route:PP"}, {"md_atom_id": "md_dmPP_assn_a004", "md_file": "knowledge_base/domains/PP/assumptions.md", "md_atom_type": "LIST_ITEM", "md_parent_section": "§PP [PP — Assumptions]", "md_verbatim": "3. There are separate codelists used for PPORRESU/PPSTRESU where the choice depends on whether the value of the pharmacokinetic parameter is normalized.\n   a. Codelist \"PKUNIT\" is used for non-normalized parameters.\n   b. Codelists \"PKUDMG\" and \"PKUDUG\" are used when parameters are normalized by dose amount in milligrams or micrograms, respectively.\n   c. Codelists \"PKUWG\" and \"PKUWKG\" are used when parameters are normalized by weight in grams or kilograms, respectively.", "score": 0.4212, "match_basis": "verbatim_token+domain_route:PP"}], "candidate_count": 5, "zero_candidate": false}
{"pdf_atom_id": "ig34_p0278_a001", "pdf_atom_type": "CODE_LITERAL", "pdf_source": "SDTMIG_v3.4", "pdf_page": 278, "pdf_parent_section": "§6.3.5.9.3 Relating PP Records to PC Records — Example 1", "pdf_verbatim": "relrec.xpt", "figure_ref": null, "candidates": [{"md_atom_id": "md_dmPP_ex_a008", "md_file": "knowledge_base/domains/PP/examples.md", "md_atom_type": "SENTENCE", "md_parent_section": "§PP.1 [Example 1]", "md_verbatim": "**pp.xpt**", "score": 0.31, "match_basis": "verbatim_token+domain_route:PP"}, {"md_atom_id": "md_dmPP_ex_a050", "md_file": "knowledge_base/domains/PP/examples.md", "md_atom_type": "SENTENCE", "md_parent_section": "§PP.2 [Example 2]", "md_verbatim": "**pp.xpt**", "score": 0.31, "match_basis": "verbatim_token+domain_route:PP"}, {"md_atom_id": "md_dmPP_ex_a063", "md_file": "knowledge_base/domains/PP/examples.md", "md_atom_type": "SENTENCE", "md_parent_section": "§PP.3 [Example 3]", "md_verbatim": "**pp.xpt**", "score": 0.31, "match_basis": "verbatim_token+domain_route:PP"}, {"md_atom_id": "md_dmPP_ex_a083", "md_file": "knowledge_base/domains/PP/examples.md", "md_atom_type": "SENTENCE", "md_parent_section": "§PP [PP — Examples]", "md_verbatim": "**pp.xpt**", "score": 0.31, "match_basis": "verbatim_token+domain_route:PP"}, {"md_atom_id": "md_dmPP_ex_a081", "md_file": "knowledge_base/domains/PP/examples.md", "md_atom_type": "HEADING", "md_parent_section": "§PP [PP — Examples]", "md_verbatim": "## Shared PP Dataset for RELREC Examples", "score": 0.3043, "match_basis": "verbatim_token+domain_route:PP"}, {"md_atom_id": "md_dmPP_ex_a035", "md_file": "knowledge_base/domains/PP/examples.md", "md_atom_type": "SENTENCE", "md_parent_section": "§PP.1 [Example 1]", "md_verbatim": "**supppp.xpt**", "score": 0.265, "match_basis": "verbatim_token+domain_route:PP"}, {"md_atom_id": "md_dmPP_ex_a097", "md_file": "knowledge_base/domains/PP/examples.md", "md_atom_type": "SENTENCE", "md_parent_section": "§PP [PP — Examples]", "md_verbatim": "*See PC examples for the full description of RELREC Methods A through D and their corresponding relrec.xpt tables.*", "score": 0.2477, "match_basis": "verbatim_token+domain_route:PP"}, {"md_atom_id": "md_dmPP_ex_a002", "md_file": "knowledge_base/domains/PP/examples.md", "md_atom_type": "SENTENCE", "md_parent_section": "§PP [PP — Examples]", "md_verbatim": "*Note: PC and PP share a combined examples section (6.3.5.9.3 Relating PP Records to PC Records). The PP parameter data tables are shown here; see also PC examples for the concentration data and detailed RELREC method descriptions.*", "score": 0.2186, "match_basis": "verbatim_token+domain_route:PP"}, {"md_atom_id": "md_dmPP_ex_a082", "md_file": "knowledge_base/domains/PP/examples.md", "md_atom_type": "SENTENCE", "md_parent_section": "§PP [PP — Examples]", "md_verbatim": "The shared PP dataset contains 12 rows showing PK parameters (TMAX, CMAX, AUCALL, LAMZHL, VZO, CLO) for Drug X (STUDYDRUG analyte) across Day 1 and Day 8, with 4 PPGRPID columns showing the grouping values for the 4 RELREC method examples described in the PC examples section.", "score": 0.2118, "match_basis": "verbatim_token+domain_route:PP"}, {"md_atom_id": "md_dmPP_ex_a005", "md_file": "knowledge_base/domains/PP/examples.md", "md_atom_type": "SENTENCE", "md_parent_section": "§PP.1 [Example 1]", "md_verbatim": "This example shows PK parameters calculated from time-concentration profiles for the parent drug and 1 metabolite in plasma and urine for one subject. Note that PPRFDTC is populated in order to link the PP records to the respective PC records. In this example, PPSPEC is null for observed total clearance (PPTESTCD = \"CLO\") records because it is calculated from multiple specimen sources (i.e., plasma and urine).", "score": 0.194, "match_basis": "verbatim_token+domain_route:PP"}], "candidate_count": 10, "zero_candidate": false}
{"pdf_atom_id": "ig34_p0278_a002", "pdf_atom_type": "TABLE_HEADER", "pdf_source": "SDTMIG_v3.4", "pdf_page": 278, "pdf_parent_section": "§6.3.5.9.3 Relating PP Records to PC Records — Example 1", "pdf_verbatim": "Row | STUDYID | RDOMAIN | USUBJID | IDVAR | IDVARVAL | RELTYPE | RELID", "figure_ref": null, "candidates": [{"md_atom_id": "md_dmPP_ex_a036", "md_file": "knowledge_base/domains/PP/examples.md", "md_atom_type": "TABLE_HEADER", "md_parent_section": "§PP.1 [Example 1]", "md_verbatim": "| Row | STUDYID | RDOMAIN | USUBJID | IDVAR | IDVARVAL | QNAM | QLABEL | QVAL | QORIG | QEVAL |\n|-----|---------|---------|---------|-------|----------|------|--------|------|-------|-------|", "score": 0.722, "match_basis": "verbatim_token+domain_route:PP"}, {"md_atom_id": "md_dmPP_ex_a009", "md_file": "knowledge_base/domains/PP/examples.md", "md_atom_type": "TABLE_HEADER", "md_parent_section": "§PP.1 [Example 1]", "md_verbatim": "| Row | STUDYID | DOMAIN | USUBJID | PPSEQ | PPGRPID | PPTESTCD | PPTEST | PPCAT | PPORRES | PPORRESU | PPSTRESC | PPSTRESN | PPSTRESU | PPSPEC | VISITNUM | VISIT | PPDTC | PPRFDTC |\n|-----|---------|--------|---------|-------|---------|----------|--------|-------|---------|----------|----------|----------|----------|--------|----------|-------|-------|---------|", "score": 0.5233, "match_basis": "verbatim_token+domain_route:PP"}, {"md_atom_id": "md_dmPP_ex_a084", "md_file": "knowledge_base/domains/PP/examples.md", "md_atom_type": "TABLE_HEADER", "md_parent_section": "§PP [PP — Examples]", "md_verbatim": "| Row | STUDYID | DOMAIN | USUBJID | PPSEQ | PPGRPID (Example 1) | PPGRPID (Example 2) | PPGRPID (Example 3) | PPGRPID (Example 4) | PPTESTCD | PPTEST | PPCAT | PPORRES | PPORRESU | PPSTRESC | PPSTRESN | PPSTRESU | PPSPEC | PPNOMDY | PPRFDTC |\n|-----|---------|--------|---------|-------|---------------------|---------------------|---------------------|---------------------|----------|--------|-------|---------|----------|----------|----------|----------|--------|---------|---------|", "score": 0.52, "match_basis": "verbatim_token+domain_route:PP"}, {"md_atom_id": "md_dmPP_ex_a051", "md_file": "knowledge_base/domains/PP/examples.md", "md_atom_type": "TABLE_HEADER", "md_parent_section": "§PP.2 [Example 2]", "md_verbatim": "| Row | STUDYID | DOMAIN | USUBJID | PPSEQ | PPRFID | PPTESTCD | PPTEST | PPCAT | PPSCAT | PPORRES | PPORRESU | PPSTRESC | PPSTRESN | PPSTRESU | PPSPEC | PPANMETH | PPFAST | PPNOMDY | PPRFDTC |\n|-----|---------|--------|---------|-------|--------|----------|--------|-------|--------|---------|----------|----------|----------|----------|--------|----------|--------|---------|---------|", "score": 0.5139, "match_basis": "verbatim_token+domain_route:PP"}, {"md_atom_id": "md_dmPP_ex_a064", "md_file": "knowledge_base/domains/PP/examples.md", "md_atom_type": "TABLE_HEADER", "md_parent_section": "§PP.3 [Example 3]", "md_verbatim": "| Row | STUDYID | DOMAIN | USUBJID | PPSEQ | PPGRPID | PPTESTCD | PPTEST | PPCAT | PPORRES | PPORRESU | PPSTRESC | PPSTRESN | PPSTRESU | PPSPEC | VISITNUM | VISIT | PPDTC | PPRFDTC | PPSTINT | PPENINT |\n|-----|---------|--------|---------|-------|---------|----------|--------|-------|---------|----------|----------|----------|----------|--------|----------|-------|-------|---------|---------|---------|", "score": 0.5125, "match_basis": "verbatim_token+domain_route:PP"}], "candidate_count": 5, "zero_candidate": false}
{"pdf_atom_id": "ig34_p0278_a003", "pdf_atom_type": "TABLE_ROW", "pdf_source": "SDTMIG_v3.4", "pdf_page": 278, "pdf_parent_section": "§6.3.5.9.3 Relating PP Records to PC Records — Example 1", "pdf_verbatim": "1 | ABC-123 | PC | ABC-123-0001 | PCSEQ | 1 | | 1", "figure_ref": null, "candidates": [{"md_atom_id": "md_dmPP_ex_a095", "md_file": "knowledge_base/domains/PP/examples.md", "md_atom_type": "TABLE_ROW", "md_parent_section": "§PP [PP — Examples]", "md_verbatim": "| 11 | ABC-123 | PP | ABC-123-0001 | 13 | DY8DRGX | DY8DRGX | DY8DRGX | DY8DRGX | VZO | Vz Obs | DRUG X | 10.7 | L | 10.7 | 10.7 | L | PLASMA | 8 | 2001-02-08T08:35 |", "score": 0.5, "match_basis": "verbatim_token+domain_route:PP"}, {"md_atom_id": "md_dmPP_ex_a086", "md_file": "knowledge_base/domains/PP/examples.md", "md_atom_type": "TABLE_ROW", "md_parent_section": "§PP [PP — Examples]", "md_verbatim": "| 2 | ABC-123 | PP | ABC-123-0001 | 2 | DY1DRGX | DY1DRGX | DY1DRGX_A | CMAX | CMAX | Max Conc | DRUG X | 44.5 | ng/mL | 44.5 | 44.5 | ng/mL | PLASMA | 1 | 2001-02-01T08:35 |", "score": 0.4923, "match_basis": "verbatim_token+domain_route:PP"}, {"md_atom_id": "md_dmPP_ex_a092", "md_file": "knowledge_base/domains/PP/examples.md", "md_atom_type": "TABLE_ROW", "md_parent_section": "§PP [PP — Examples]", "md_verbatim": "| 8 | ABC-123 | PP | ABC-123-0001 | 9 | DY8DRGX | DY8DRGX | DY8DRGX | DY8DRGX | CMAX | Max Conc | DRUG X | 46.0 | ng/mL | 46.0 | 46.0 | ng/mL | PLASMA | 8 | 2001-02-08T08:35 |", "score": 0.4923, "match_basis": "verbatim_token+domain_route:PP"}, {"md_atom_id": "md_dmPP_ex_a085", "md_file": "knowledge_base/domains/PP/examples.md", "md_atom_type": "TABLE_ROW", "md_parent_section": "§PP [PP — Examples]", "md_verbatim": "| 1 | ABC-123 | PP | ABC-123-0001 | 1 | DY1DRGX | DY1DRGX | DY1DRGX_A | TMAX | TMAX | Time of CMAX | DRUG X | 1.87 | h | 1.87 | 1.87 | h | PLASMA | 1 | 2001-02-01T08:35 |", "score": 0.4889, "match_basis": "verbatim_token+domain_route:PP"}, {"md_atom_id": "md_dmPP_ex_a087", "md_file": "knowledge_base/domains/PP/examples.md", "md_atom_type": "TABLE_ROW", "md_parent_section": "§PP [PP — Examples]", "md_verbatim": "| 3 | ABC-123 | PP | ABC-123-0001 | 3 | DY1DRGX | DY1DRGX | DY1DRGX_A | AUC | AUCALL | AUC All | DRUG X | 294.7 | h*ug/mL | 294.7 | 294.7 | h*ug/mL | PLASMA | 1 | 2001-02-01T08:35 |", "score": 0.4889, "match_basis": "verbatim_token+domain_route:PP"}], "candidate_count": 5, "zero_candidate": false}
{"pdf_atom_id": "ig34_p0278_a004", "pdf_atom_type": "TABLE_ROW", "pdf_source": "SDTMIG_v3.4", "pdf_page": 278, "pdf_parent_section": "§6.3.5.9.3 Relating PP Records to PC Records — Example 1", "pdf_verbatim": "2 | ABC-123 | PC | ABC-123-0001 | PCSEQ | 2 | | 1", "figure_ref": null, "candidates": [{"md_atom_id": "md_dmPP_ex_a095", "md_file": "knowledge_base/domains/PP/examples.md", "md_atom_type": "TABLE_ROW", "md_parent_section": "§PP [PP — Examples]", "md_verbatim": "| 11 | ABC-123 | PP | ABC-123-0001 | 13 | DY8DRGX | DY8DRGX | DY8DRGX | DY8DRGX | VZO | Vz Obs | DRUG X | 10.7 | L | 10.7 | 10.7 | L | PLASMA | 8 | 2001-02-08T08:35 |", "score": 0.5, "match_basis": "verbatim_token+domain_route:PP"}, {"md_atom_id": "md_dmPP_ex_a086", "md_file": "knowledge_base/domains/PP/examples.md", "md_atom_type": "TABLE_ROW", "md_parent_section": "§PP [PP — Examples]", "md_verbatim": "| 2 | ABC-123 | PP | ABC-123-0001 | 2 | DY1DRGX | DY1DRGX | DY1DRGX_A | CMAX | CMAX | Max Conc | DRUG X | 44.5 | ng/mL | 44.5 | 44.5 | ng/mL | PLASMA | 1 | 2001-02-01T08:35 |", "score": 0.4923, "match_basis": "verbatim_token+domain_route:PP"}, {"md_atom_id": "md_dmPP_ex_a092", "md_file": "knowledge_base/domains/PP/examples.md", "md_atom_type": "TABLE_ROW", "md_parent_section": "§PP [PP — Examples]", "md_verbatim": "| 8 | ABC-123 | PP | ABC-123-0001 | 9 | DY8DRGX | DY8DRGX | DY8DRGX | DY8DRGX | CMAX | Max Conc | DRUG X | 46.0 | ng/mL | 46.0 | 46.0 | ng/mL | PLASMA | 8 | 2001-02-08T08:35 |", "score": 0.4923, "match_basis": "verbatim_token+domain_route:PP"}, {"md_atom_id": "md_dmPP_ex_a085", "md_file": "knowledge_base/domains/PP/examples.md", "md_atom_type": "TABLE_ROW", "md_parent_section": "§PP [PP — Examples]", "md_verbatim": "| 1 | ABC-123 | PP | ABC-123-0001 | 1 | DY1DRGX | DY1DRGX | DY1DRGX_A | TMAX | TMAX | Time of CMAX | DRUG X | 1.87 | h | 1.87 | 1.87 | h | PLASMA | 1 | 2001-02-01T08:35 |", "score": 0.4889, "match_basis": "verbatim_token+domain_route:PP"}, {"md_atom_id": "md_dmPP_ex_a087", "md_file": "knowledge_base/domains/PP/examples.md", "md_atom_type": "TABLE_ROW", "md_parent_section": "§PP [PP — Examples]", "md_verbatim": "| 3 | ABC-123 | PP | ABC-123-0001 | 3 | DY1DRGX | DY1DRGX | DY1DRGX_A | AUC | AUCALL | AUC All | DRUG X | 294.7 | h*ug/mL | 294.7 | 294.7 | h*ug/mL | PLASMA | 1 | 2001-02-01T08:35 |", "score": 0.4889, "match_basis": "verbatim_token+domain_route:PP"}], "candidate_count": 5, "zero_candidate": false}
{"pdf_atom_id": "ig34_p0278_a005", "pdf_atom_type": "TABLE_ROW", "pdf_source": "SDTMIG_v3.4", "pdf_page": 278, "pdf_parent_section": "§6.3.5.9.3 Relating PP Records to PC Records — Example 1", "pdf_verbatim": "3 | ABC-123 | PC | ABC-123-0001 | PCSEQ | 3 | | 1", "figure_ref": null, "candidates": [{"md_atom_id": "md_dmPP_ex_a095", "md_file": "knowledge_base/domains/PP/examples.md", "md_atom_type": "TABLE_ROW", "md_parent_section": "§PP [PP — Examples]", "md_verbatim": "| 11 | ABC-123 | PP | ABC-123-0001 | 13 | DY8DRGX | DY8DRGX | DY8DRGX | DY8DRGX | VZO | Vz Obs | DRUG X | 10.7 | L | 10.7 | 10.7 | L | PLASMA | 8 | 2001-02-08T08:35 |", "score": 0.5, "match_basis": "verbatim_token+domain_route:PP"}, {"md_atom_id": "md_dmPP_ex_a086", "md_file": "knowledge_base/domains/PP/examples.md", "md_atom_type": "TABLE_ROW", "md_parent_section": "§PP [PP — Examples]", "md_verbatim": "| 2 | ABC-123 | PP | ABC-123-0001 | 2 | DY1DRGX | DY1DRGX | DY1DRGX_A | CMAX | CMAX | Max Conc | DRUG X | 44.5 | ng/mL | 44.5 | 44.5 | ng/mL | PLASMA | 1 | 2001-02-01T08:35 |", "score": 0.4923, "match_basis": "verbatim_token+domain_route:PP"}, {"md_atom_id": "md_dmPP_ex_a092", "md_file": "knowledge_base/domains/PP/examples.md", "md_atom_type": "TABLE_ROW", "md_parent_section": "§PP [PP — Examples]", "md_verbatim": "| 8 | ABC-123 | PP | ABC-123-0001 | 9 | DY8DRGX | DY8DRGX | DY8DRGX | DY8DRGX | CMAX | Max Conc | DRUG X | 46.0 | ng/mL | 46.0 | 46.0 | ng/mL | PLASMA | 8 | 2001-02-08T08:35 |", "score": 0.4923, "match_basis": "verbatim_token+domain_route:PP"}, {"md_atom_id": "md_dmPP_ex_a085", "md_file": "knowledge_base/domains/PP/examples.md", "md_atom_type": "TABLE_ROW", "md_parent_section": "§PP [PP — Examples]", "md_verbatim": "| 1 | ABC-123 | PP | ABC-123-0001 | 1 | DY1DRGX | DY1DRGX | DY1DRGX_A | TMAX | TMAX | Time of CMAX | DRUG X | 1.87 | h | 1.87 | 1.87 | h | PLASMA | 1 | 2001-02-01T08:35 |", "score": 0.4889, "match_basis": "verbatim_token+domain_route:PP"}, {"md_atom_id": "md_dmPP_ex_a087", "md_file": "knowledge_base/domains/PP/examples.md", "md_atom_type": "TABLE_ROW", "md_parent_section": "§PP [PP — Examples]", "md_verbatim": "| 3 | ABC-123 | PP | ABC-123-0001 | 3 | DY1DRGX | DY1DRGX | DY1DRGX_A | AUC | AUCALL | AUC All | DRUG X | 294.7 | h*ug/mL | 294.7 | 294.7 | h*ug/mL | PLASMA | 1 | 2001-02-01T08:35 |", "score": 0.4889, "match_basis": "verbatim_token+domain_route:PP"}], "candidate_count": 5, "zero_candidate": false}
{"pdf_atom_id": "ig34_p0278_a006", "pdf_atom_type": "TABLE_ROW", "pdf_source": "SDTMIG_v3.4", "pdf_page": 278, "pdf_parent_section": "§6.3.5.9.3 Relating PP Records to PC Records — Example 1", "pdf_verbatim": "4 | ABC-123 | PC | ABC-123-0001 | PCSEQ | 4 | | 1", "figure_ref": null, "candidates": [{"md_atom_id": "md_dmPP_ex_a095", "md_file": "knowledge_base/domains/PP/examples.md", "md_atom_type": "TABLE_ROW", "md_parent_section": "§PP [PP — Examples]", "md_verbatim": "| 11 | ABC-123 | PP | ABC-123-0001 | 13 | DY8DRGX | DY8DRGX | DY8DRGX | DY8DRGX | VZO | Vz Obs | DRUG X | 10.7 | L | 10.7 | 10.7 | L | PLASMA | 8 | 2001-02-08T08:35 |", "score": 0.5, "match_basis": "verbatim_token+domain_route:PP"}, {"md_atom_id": "md_dmPP_ex_a086", "md_file": "knowledge_base/domains/PP/examples.md", "md_atom_type": "TABLE_ROW", "md_parent_section": "§PP [PP — Examples]", "md_verbatim": "| 2 | ABC-123 | PP | ABC-123-0001 | 2 | DY1DRGX | DY1DRGX | DY1DRGX_A | CMAX | CMAX | Max Conc | DRUG X | 44.5 | ng/mL | 44.5 | 44.5 | ng/mL | PLASMA | 1 | 2001-02-01T08:35 |", "score": 0.4923, "match_basis": "verbatim_token+domain_route:PP"}, {"md_atom_id": "md_dmPP_ex_a092", "md_file": "knowledge_base/domains/PP/examples.md", "md_atom_type": "TABLE_ROW", "md_parent_section": "§PP [PP — Examples]", "md_verbatim": "| 8 | ABC-123 | PP | ABC-123-0001 | 9 | DY8DRGX | DY8DRGX | DY8DRGX | DY8DRGX | CMAX | Max Conc | DRUG X | 46.0 | ng/mL | 46.0 | 46.0 | ng/mL | PLASMA | 8 | 2001-02-08T08:35 |", "score": 0.4923, "match_basis": "verbatim_token+domain_route:PP"}, {"md_atom_id": "md_dmPP_ex_a085", "md_file": "knowledge_base/domains/PP/examples.md", "md_atom_type": "TABLE_ROW", "md_parent_section": "§PP [PP — Examples]", "md_verbatim": "| 1 | ABC-123 | PP | ABC-123-0001 | 1 | DY1DRGX | DY1DRGX | DY1DRGX_A | TMAX | TMAX | Time of CMAX | DRUG X | 1.87 | h | 1.87 | 1.87 | h | PLASMA | 1 | 2001-02-01T08:35 |", "score": 0.4889, "match_basis": "verbatim_token+domain_route:PP"}, {"md_atom_id": "md_dmPP_ex_a087", "md_file": "knowledge_base/domains/PP/examples.md", "md_atom_type": "TABLE_ROW", "md_parent_section": "§PP [PP — Examples]", "md_verbatim": "| 3 | ABC-123 | PP | ABC-123-0001 | 3 | DY1DRGX | DY1DRGX | DY1DRGX_A | AUC | AUCALL | AUC All | DRUG X | 294.7 | h*ug/mL | 294.7 | 294.7 | h*ug/mL | PLASMA | 1 | 2001-02-01T08:35 |", "score": 0.4889, "match_basis": "verbatim_token+domain_route:PP"}], "candidate_count": 5, "zero_candidate": false}
{"pdf_atom_id": "ig34_p0278_a007", "pdf_atom_type": "TABLE_ROW", "pdf_source": "SDTMIG_v3.4", "pdf_page": 278, "pdf_parent_section": "§6.3.5.9.3 Relating PP Records to PC Records — Example 1", "pdf_verbatim": "5 | ABC-123 | PC | ABC-123-0001 | PCSEQ | 5 | | 1", "figure_ref": null, "candidates": [{"md_atom_id": "md_dmPP_ex_a095", "md_file": "knowledge_base/domains/PP/examples.md", "md_atom_type": "TABLE_ROW", "md_parent_section": "§PP [PP — Examples]", "md_verbatim": "| 11 | ABC-123 | PP | ABC-123-0001 | 13 | DY8DRGX | DY8DRGX | DY8DRGX | DY8DRGX | VZO | Vz Obs | DRUG X | 10.7 | L | 10.7 | 10.7 | L | PLASMA | 8 | 2001-02-08T08:35 |", "score": 0.5, "match_basis": "verbatim_token+domain_route:PP"}, {"md_atom_id": "md_dmPP_ex_a086", "md_file": "knowledge_base/domains/PP/examples.md", "md_atom_type": "TABLE_ROW", "md_parent_section": "§PP [PP — Examples]", "md_verbatim": "| 2 | ABC-123 | PP | ABC-123-0001 | 2 | DY1DRGX | DY1DRGX | DY1DRGX_A | CMAX | CMAX | Max Conc | DRUG X | 44.5 | ng/mL | 44.5 | 44.5 | ng/mL | PLASMA | 1 | 2001-02-01T08:35 |", "score": 0.4923, "match_basis": "verbatim_token+domain_route:PP"}, {"md_atom_id": "md_dmPP_ex_a092", "md_file": "knowledge_base/domains/PP/examples.md", "md_atom_type": "TABLE_ROW", "md_parent_section": "§PP [PP — Examples]", "md_verbatim": "| 8 | ABC-123 | PP | ABC-123-0001 | 9 | DY8DRGX | DY8DRGX | DY8DRGX | DY8DRGX | CMAX | Max Conc | DRUG X | 46.0 | ng/mL | 46.0 | 46.0 | ng/mL | PLASMA | 8 | 2001-02-08T08:35 |", "score": 0.4923, "match_basis": "verbatim_token+domain_route:PP"}, {"md_atom_id": "md_dmPP_ex_a085", "md_file": "knowledge_base/domains/PP/examples.md", "md_atom_type": "TABLE_ROW", "md_parent_section": "§PP [PP — Examples]", "md_verbatim": "| 1 | ABC-123 | PP | ABC-123-0001 | 1 | DY1DRGX | DY1DRGX | DY1DRGX_A | TMAX | TMAX | Time of CMAX | DRUG X | 1.87 | h | 1.87 | 1.87 | h | PLASMA | 1 | 2001-02-01T08:35 |", "score": 0.4889, "match_basis": "verbatim_token+domain_route:PP"}, {"md_atom_id": "md_dmPP_ex_a087", "md_file": "knowledge_base/domains/PP/examples.md", "md_atom_type": "TABLE_ROW", "md_parent_section": "§PP [PP — Examples]", "md_verbatim": "| 3 | ABC-123 | PP | ABC-123-0001 | 3 | DY1DRGX | DY1DRGX | DY1DRGX_A | AUC | AUCALL | AUC All | DRUG X | 294.7 | h*ug/mL | 294.7 | 294.7 | h*ug/mL | PLASMA | 1 | 2001-02-01T08:35 |", "score": 0.4889, "match_basis": "verbatim_token+domain_route:PP"}], "candidate_count": 5, "zero_candidate": false}
{"pdf_atom_id": "ig34_p0278_a008", "pdf_atom_type": "TABLE_ROW", "pdf_source": "SDTMIG_v3.4", "pdf_page": 278, "pdf_parent_section": "§6.3.5.9.3 Relating PP Records to PC Records — Example 1", "pdf_verbatim": "6 | ABC-123 | PC | ABC-123-0001 | PCSEQ | 6 | | 1", "figure_ref": null, "candidates": [{"md_atom_id": "md_dmPP_ex_a095", "md_file": "knowledge_base/domains/PP/examples.md", "md_atom_type": "TABLE_ROW", "md_parent_section": "§PP [PP — Examples]", "md_verbatim": "| 11 | ABC-123 | PP | ABC-123-0001 | 13 | DY8DRGX | DY8DRGX | DY8DRGX | DY8DRGX | VZO | Vz Obs | DRUG X | 10.7 | L | 10.7 | 10.7 | L | PLASMA | 8 | 2001-02-08T08:35 |", "score": 0.5, "match_basis": "verbatim_token+domain_route:PP"}, {"md_atom_id": "md_dmPP_ex_a086", "md_file": "knowledge_base/domains/PP/examples.md", "md_atom_type": "TABLE_ROW", "md_parent_section": "§PP [PP — Examples]", "md_verbatim": "| 2 | ABC-123 | PP | ABC-123-0001 | 2 | DY1DRGX | DY1DRGX | DY1DRGX_A | CMAX | CMAX | Max Conc | DRUG X | 44.5 | ng/mL | 44.5 | 44.5 | ng/mL | PLASMA | 1 | 2001-02-01T08:35 |", "score": 0.4923, "match_basis": "verbatim_token+domain_route:PP"}, {"md_atom_id": "md_dmPP_ex_a092", "md_file": "knowledge_base/domains/PP/examples.md", "md_atom_type": "TABLE_ROW", "md_parent_section": "§PP [PP — Examples]", "md_verbatim": "| 8 | ABC-123 | PP | ABC-123-0001 | 9 | DY8DRGX | DY8DRGX | DY8DRGX | DY8DRGX | CMAX | Max Conc | DRUG X | 46.0 | ng/mL | 46.0 | 46.0 | ng/mL | PLASMA | 8 | 2001-02-08T08:35 |", "score": 0.4923, "match_basis": "verbatim_token+domain_route:PP"}, {"md_atom_id": "md_dmPP_ex_a085", "md_file": "knowledge_base/domains/PP/examples.md", "md_atom_type": "TABLE_ROW", "md_parent_section": "§PP [PP — Examples]", "md_verbatim": "| 1 | ABC-123 | PP | ABC-123-0001 | 1 | DY1DRGX | DY1DRGX | DY1DRGX_A | TMAX | TMAX | Time of CMAX | DRUG X | 1.87 | h | 1.87 | 1.87 | h | PLASMA | 1 | 2001-02-01T08:35 |", "score": 0.4889, "match_basis": "verbatim_token+domain_route:PP"}, {"md_atom_id": "md_dmPP_ex_a087", "md_file": "knowledge_base/domains/PP/examples.md", "md_atom_type": "TABLE_ROW", "md_parent_section": "§PP [PP — Examples]", "md_verbatim": "| 3 | ABC-123 | PP | ABC-123-0001 | 3 | DY1DRGX | DY1DRGX | DY1DRGX_A | AUC | AUCALL | AUC All | DRUG X | 294.7 | h*ug/mL | 294.7 | 294.7 | h*ug/mL | PLASMA | 1 | 2001-02-01T08:35 |", "score": 0.4889, "match_basis": "verbatim_token+domain_route:PP"}], "candidate_count": 5, "zero_candidate": false}
{"pdf_atom_id": "ig34_p0278_a009", "pdf_atom_type": "TABLE_ROW", "pdf_source": "SDTMIG_v3.4", "pdf_page": 278, "pdf_parent_section": "§6.3.5.9.3 Relating PP Records to PC Records — Example 1", "pdf_verbatim": "7 | ABC-123 | PC | ABC-123-0001 | PCSEQ | 7 | | 1", "figure_ref": null, "candidates": [{"md_atom_id": "md_dmPP_ex_a095", "md_file": "knowledge_base/domains/PP/examples.md", "md_atom_type": "TABLE_ROW", "md_parent_section": "§PP [PP — Examples]", "md_verbatim": "| 11 | ABC-123 | PP | ABC-123-0001 | 13 | DY8DRGX | DY8DRGX | DY8DRGX | DY8DRGX | VZO | Vz Obs | DRUG X | 10.7 | L | 10.7 | 10.7 | L | PLASMA | 8 | 2001-02-08T08:35 |", "score": 0.5, "match_basis": "verbatim_token+domain_route:PP"}, {"md_atom_id": "md_dmPP_ex_a086", "md_file": "knowledge_base/domains/PP/examples.md", "md_atom_type": "TABLE_ROW", "md_parent_section": "§PP [PP — Examples]", "md_verbatim": "| 2 | ABC-123 | PP | ABC-123-0001 | 2 | DY1DRGX | DY1DRGX | DY1DRGX_A | CMAX | CMAX | Max Conc | DRUG X | 44.5 | ng/mL | 44.5 | 44.5 | ng/mL | PLASMA | 1 | 2001-02-01T08:35 |", "score": 0.4923, "match_basis": "verbatim_token+domain_route:PP"}, {"md_atom_id": "md_dmPP_ex_a092", "md_file": "knowledge_base/domains/PP/examples.md", "md_atom_type": "TABLE_ROW", "md_parent_section": "§PP [PP — Examples]", "md_verbatim": "| 8 | ABC-123 | PP | ABC-123-0001 | 9 | DY8DRGX | DY8DRGX | DY8DRGX | DY8DRGX | CMAX | Max Conc | DRUG X | 46.0 | ng/mL | 46.0 | 46.0 | ng/mL | PLASMA | 8 | 2001-02-08T08:35 |", "score": 0.4923, "match_basis": "verbatim_token+domain_route:PP"}, {"md_atom_id": "md_dmPP_ex_a085", "md_file": "knowledge_base/domains/PP/examples.md", "md_atom_type": "TABLE_ROW", "md_parent_section": "§PP [PP — Examples]", "md_verbatim": "| 1 | ABC-123 | PP | ABC-123-0001 | 1 | DY1DRGX | DY1DRGX | DY1DRGX_A | TMAX | TMAX | Time of CMAX | DRUG X | 1.87 | h | 1.87 | 1.87 | h | PLASMA | 1 | 2001-02-01T08:35 |", "score": 0.4889, "match_basis": "verbatim_token+domain_route:PP"}, {"md_atom_id": "md_dmPP_ex_a087", "md_file": "knowledge_base/domains/PP/examples.md", "md_atom_type": "TABLE_ROW", "md_parent_section": "§PP [PP — Examples]", "md_verbatim": "| 3 | ABC-123 | PP | ABC-123-0001 | 3 | DY1DRGX | DY1DRGX | DY1DRGX_A | AUC | AUCALL | AUC All | DRUG X | 294.7 | h*ug/mL | 294.7 | 294.7 | h*ug/mL | PLASMA | 1 | 2001-02-01T08:35 |", "score": 0.4889, "match_basis": "verbatim_token+domain_route:PP"}], "candidate_count": 5, "zero_candidate": false}
{"pdf_atom_id": "ig34_p0278_a010", "pdf_atom_type": "TABLE_ROW", "pdf_source": "SDTMIG_v3.4", "pdf_page": 278, "pdf_parent_section": "§6.3.5.9.3 Relating PP Records to PC Records — Example 1", "pdf_verbatim": "8 | ABC-123 | PC | ABC-123-0001 | PCSEQ | 8 | | 1", "figure_ref": null, "candidates": [{"md_atom_id": "md_dmPP_ex_a095", "md_file": "knowledge_base/domains/PP/examples.md", "md_atom_type": "TABLE_ROW", "md_parent_section": "§PP [PP — Examples]", "md_verbatim": "| 11 | ABC-123 | PP | ABC-123-0001 | 13 | DY8DRGX | DY8DRGX | DY8DRGX | DY8DRGX | VZO | Vz Obs | DRUG X | 10.7 | L | 10.7 | 10.7 | L | PLASMA | 8 | 2001-02-08T08:35 |", "score": 0.5, "match_basis": "verbatim_token+domain_route:PP"}, {"md_atom_id": "md_dmPP_ex_a086", "md_file": "knowledge_base/domains/PP/examples.md", "md_atom_type": "TABLE_ROW", "md_parent_section": "§PP [PP — Examples]", "md_verbatim": "| 2 | ABC-123 | PP | ABC-123-0001 | 2 | DY1DRGX | DY1DRGX | DY1DRGX_A | CMAX | CMAX | Max Conc | DRUG X | 44.5 | ng/mL | 44.5 | 44.5 | ng/mL | PLASMA | 1 | 2001-02-01T08:35 |", "score": 0.4923, "match_basis": "verbatim_token+domain_route:PP"}, {"md_atom_id": "md_dmPP_ex_a092", "md_file": "knowledge_base/domains/PP/examples.md", "md_atom_type": "TABLE_ROW", "md_parent_section": "§PP [PP — Examples]", "md_verbatim": "| 8 | ABC-123 | PP | ABC-123-0001 | 9 | DY8DRGX | DY8DRGX | DY8DRGX | DY8DRGX | CMAX | Max Conc | DRUG X | 46.0 | ng/mL | 46.0 | 46.0 | ng/mL | PLASMA | 8 | 2001-02-08T08:35 |", "score": 0.4923, "match_basis": "verbatim_token+domain_route:PP"}, {"md_atom_id": "md_dmPP_ex_a085", "md_file": "knowledge_base/domains/PP/examples.md", "md_atom_type": "TABLE_ROW", "md_parent_section": "§PP [PP — Examples]", "md_verbatim": "| 1 | ABC-123 | PP | ABC-123-0001 | 1 | DY1DRGX | DY1DRGX | DY1DRGX_A | TMAX | TMAX | Time of CMAX | DRUG X | 1.87 | h | 1.87 | 1.87 | h | PLASMA | 1 | 2001-02-01T08:35 |", "score": 0.4889, "match_basis": "verbatim_token+domain_route:PP"}, {"md_atom_id": "md_dmPP_ex_a087", "md_file": "knowledge_base/domains/PP/examples.md", "md_atom_type": "TABLE_ROW", "md_parent_section": "§PP [PP — Examples]", "md_verbatim": "| 3 | ABC-123 | PP | ABC-123-0001 | 3 | DY1DRGX | DY1DRGX | DY1DRGX_A | AUC | AUCALL | AUC All | DRUG X | 294.7 | h*ug/mL | 294.7 | 294.7 | h*ug/mL | PLASMA | 1 | 2001-02-01T08:35 |", "score": 0.4889, "match_basis": "verbatim_token+domain_route:PP"}], "candidate_count": 5, "zero_candidate": false}
{"pdf_atom_id": "ig34_p0278_a011", "pdf_atom_type": "TABLE_ROW", "pdf_source": "SDTMIG_v3.4", "pdf_page": 278, "pdf_parent_section": "§6.3.5.9.3 Relating PP Records to PC Records — Example 1", "pdf_verbatim": "9 | ABC-123 | PC | ABC-123-0001 | PCSEQ | 9 | | 1", "figure_ref": null, "candidates": [{"md_atom_id": "md_dmPP_ex_a095", "md_file": "knowledge_base/domains/PP/examples.md", "md_atom_type": "TABLE_ROW", "md_parent_section": "§PP [PP — Examples]", "md_verbatim": "| 11 | ABC-123 | PP | ABC-123-0001 | 13 | DY8DRGX | DY8DRGX | DY8DRGX | DY8DRGX | VZO | Vz Obs | DRUG X | 10.7 | L | 10.7 | 10.7 | L | PLASMA | 8 | 2001-02-08T08:35 |", "score": 0.5, "match_basis": "verbatim_token+domain_route:PP"}, {"md_atom_id": "md_dmPP_ex_a086", "md_file": "knowledge_base/domains/PP/examples.md", "md_atom_type": "TABLE_ROW", "md_parent_section": "§PP [PP — Examples]", "md_verbatim": "| 2 | ABC-123 | PP | ABC-123-0001 | 2 | DY1DRGX | DY1DRGX | DY1DRGX_A | CMAX | CMAX | Max Conc | DRUG X | 44.5 | ng/mL | 44.5 | 44.5 | ng/mL | PLASMA | 1 | 2001-02-01T08:35 |", "score": 0.4923, "match_basis": "verbatim_token+domain_route:PP"}, {"md_atom_id": "md_dmPP_ex_a092", "md_file": "knowledge_base/domains/PP/examples.md", "md_atom_type": "TABLE_ROW", "md_parent_section": "§PP [PP — Examples]", "md_verbatim": "| 8 | ABC-123 | PP | ABC-123-0001 | 9 | DY8DRGX | DY8DRGX | DY8DRGX | DY8DRGX | CMAX | Max Conc | DRUG X | 46.0 | ng/mL | 46.0 | 46.0 | ng/mL | PLASMA | 8 | 2001-02-08T08:35 |", "score": 0.4923, "match_basis": "verbatim_token+domain_route:PP"}, {"md_atom_id": "md_dmPP_ex_a085", "md_file": "knowledge_base/domains/PP/examples.md", "md_atom_type": "TABLE_ROW", "md_parent_section": "§PP [PP — Examples]", "md_verbatim": "| 1 | ABC-123 | PP | ABC-123-0001 | 1 | DY1DRGX | DY1DRGX | DY1DRGX_A | TMAX | TMAX | Time of CMAX | DRUG X | 1.87 | h | 1.87 | 1.87 | h | PLASMA | 1 | 2001-02-01T08:35 |", "score": 0.4889, "match_basis": "verbatim_token+domain_route:PP"}, {"md_atom_id": "md_dmPP_ex_a087", "md_file": "knowledge_base/domains/PP/examples.md", "md_atom_type": "TABLE_ROW", "md_parent_section": "§PP [PP — Examples]", "md_verbatim": "| 3 | ABC-123 | PP | ABC-123-0001 | 3 | DY1DRGX | DY1DRGX | DY1DRGX_A | AUC | AUCALL | AUC All | DRUG X | 294.7 | h*ug/mL | 294.7 | 294.7 | h*ug/mL | PLASMA | 1 | 2001-02-01T08:35 |", "score": 0.4889, "match_basis": "verbatim_token+domain_route:PP"}], "candidate_count": 5, "zero_candidate": false}
{"pdf_atom_id": "ig34_p0278_a012", "pdf_atom_type": "TABLE_ROW", "pdf_source": "SDTMIG_v3.4", "pdf_page": 278, "pdf_parent_section": "§6.3.5.9.3 Relating PP Records to PC Records — Example 1", "pdf_verbatim": "10 | ABC-123 | PC | ABC-123-0001 | PCSEQ | 10 | | 1", "figure_ref": null, "candidates": [{"md_atom_id": "md_dmPP_ex_a095", "md_file": "knowledge_base/domains/PP/examples.md", "md_atom_type": "TABLE_ROW", "md_parent_section": "§PP [PP — Examples]", "md_verbatim": "| 11 | ABC-123 | PP | ABC-123-0001 | 13 | DY8DRGX | DY8DRGX | DY8DRGX | DY8DRGX | VZO | Vz Obs | DRUG X | 10.7 | L | 10.7 | 10.7 | L | PLASMA | 8 | 2001-02-08T08:35 |", "score": 0.5, "match_basis": "verbatim_token+domain_route:PP"}, {"md_atom_id": "md_dmPP_ex_a086", "md_file": "knowledge_base/domains/PP/examples.md", "md_atom_type": "TABLE_ROW", "md_parent_section": "§PP [PP — Examples]", "md_verbatim": "| 2 | ABC-123 | PP | ABC-123-0001 | 2 | DY1DRGX | DY1DRGX | DY1DRGX_A | CMAX | CMAX | Max Conc | DRUG X | 44.5 | ng/mL | 44.5 | 44.5 | ng/mL | PLASMA | 1 | 2001-02-01T08:35 |", "score": 0.4923, "match_basis": "verbatim_token+domain_route:PP"}, {"md_atom_id": "md_dmPP_ex_a092", "md_file": "knowledge_base/domains/PP/examples.md", "md_atom_type": "TABLE_ROW", "md_parent_section": "§PP [PP — Examples]", "md_verbatim": "| 8 | ABC-123 | PP | ABC-123-0001 | 9 | DY8DRGX | DY8DRGX | DY8DRGX | DY8DRGX | CMAX | Max Conc | DRUG X | 46.0 | ng/mL | 46.0 | 46.0 | ng/mL | PLASMA | 8 | 2001-02-08T08:35 |", "score": 0.4923, "match_basis": "verbatim_token+domain_route:PP"}, {"md_atom_id": "md_dmPP_ex_a085", "md_file": "knowledge_base/domains/PP/examples.md", "md_atom_type": "TABLE_ROW", "md_parent_section": "§PP [PP — Examples]", "md_verbatim": "| 1 | ABC-123 | PP | ABC-123-0001 | 1 | DY1DRGX | DY1DRGX | DY1DRGX_A | TMAX | TMAX | Time of CMAX | DRUG X | 1.87 | h | 1.87 | 1.87 | h | PLASMA | 1 | 2001-02-01T08:35 |", "score": 0.4889, "match_basis": "verbatim_token+domain_route:PP"}, {"md_atom_id": "md_dmPP_ex_a087", "md_file": "knowledge_base/domains/PP/examples.md", "md_atom_type": "TABLE_ROW", "md_parent_section": "§PP [PP — Examples]", "md_verbatim": "| 3 | ABC-123 | PP | ABC-123-0001 | 3 | DY1DRGX | DY1DRGX | DY1DRGX_A | AUC | AUCALL | AUC All | DRUG X | 294.7 | h*ug/mL | 294.7 | 294.7 | h*ug/mL | PLASMA | 1 | 2001-02-01T08:35 |", "score": 0.4889, "match_basis": "verbatim_token+domain_route:PP"}], "candidate_count": 5, "zero_candidate": false}
{"pdf_atom_id": "ig34_p0278_a013", "pdf_atom_type": "TABLE_ROW", "pdf_source": "SDTMIG_v3.4", "pdf_page": 278, "pdf_parent_section": "§6.3.5.9.3 Relating PP Records to PC Records — Example 1", "pdf_verbatim": "11 | ABC-123 | PC | ABC-123-0001 | PCSEQ | 11 | | 1", "figure_ref": null, "candidates": [{"md_atom_id": "md_dmPP_ex_a095", "md_file": "knowledge_base/domains/PP/examples.md", "md_atom_type": "TABLE_ROW", "md_parent_section": "§PP [PP — Examples]", "md_verbatim": "| 11 | ABC-123 | PP | ABC-123-0001 | 13 | DY8DRGX | DY8DRGX | DY8DRGX | DY8DRGX | VZO | Vz Obs | DRUG X | 10.7 | L | 10.7 | 10.7 | L | PLASMA | 8 | 2001-02-08T08:35 |", "score": 0.5, "match_basis": "verbatim_token+domain_route:PP"}, {"md_atom_id": "md_dmPP_ex_a086", "md_file": "knowledge_base/domains/PP/examples.md", "md_atom_type": "TABLE_ROW", "md_parent_section": "§PP [PP — Examples]", "md_verbatim": "| 2 | ABC-123 | PP | ABC-123-0001 | 2 | DY1DRGX | DY1DRGX | DY1DRGX_A | CMAX | CMAX | Max Conc | DRUG X | 44.5 | ng/mL | 44.5 | 44.5 | ng/mL | PLASMA | 1 | 2001-02-01T08:35 |", "score": 0.4923, "match_basis": "verbatim_token+domain_route:PP"}, {"md_atom_id": "md_dmPP_ex_a092", "md_file": "knowledge_base/domains/PP/examples.md", "md_atom_type": "TABLE_ROW", "md_parent_section": "§PP [PP — Examples]", "md_verbatim": "| 8 | ABC-123 | PP | ABC-123-0001 | 9 | DY8DRGX | DY8DRGX | DY8DRGX | DY8DRGX | CMAX | Max Conc | DRUG X | 46.0 | ng/mL | 46.0 | 46.0 | ng/mL | PLASMA | 8 | 2001-02-08T08:35 |", "score": 0.4923, "match_basis": "verbatim_token+domain_route:PP"}, {"md_atom_id": "md_dmPP_ex_a085", "md_file": "knowledge_base/domains/PP/examples.md", "md_atom_type": "TABLE_ROW", "md_parent_section": "§PP [PP — Examples]", "md_verbatim": "| 1 | ABC-123 | PP | ABC-123-0001 | 1 | DY1DRGX | DY1DRGX | DY1DRGX_A | TMAX | TMAX | Time of CMAX | DRUG X | 1.87 | h | 1.87 | 1.87 | h | PLASMA | 1 | 2001-02-01T08:35 |", "score": 0.4889, "match_basis": "verbatim_token+domain_route:PP"}, {"md_atom_id": "md_dmPP_ex_a087", "md_file": "knowledge_base/domains/PP/examples.md", "md_atom_type": "TABLE_ROW", "md_parent_section": "§PP [PP — Examples]", "md_verbatim": "| 3 | ABC-123 | PP | ABC-123-0001 | 3 | DY1DRGX | DY1DRGX | DY1DRGX_A | AUC | AUCALL | AUC All | DRUG X | 294.7 | h*ug/mL | 294.7 | 294.7 | h*ug/mL | PLASMA | 1 | 2001-02-01T08:35 |", "score": 0.4889, "match_basis": "verbatim_token+domain_route:PP"}], "candidate_count": 5, "zero_candidate": false}
{"pdf_atom_id": "ig34_p0278_a014", "pdf_atom_type": "TABLE_ROW", "pdf_source": "SDTMIG_v3.4", "pdf_page": 278, "pdf_parent_section": "§6.3.5.9.3 Relating PP Records to PC Records — Example 1", "pdf_verbatim": "12 | ABC-123 | PC | ABC-123-0001 | PCSEQ | 12 | | 1", "figure_ref": null, "candidates": [{"md_atom_id": "md_dmPP_ex_a095", "md_file": "knowledge_base/domains/PP/examples.md", "md_atom_type": "TABLE_ROW", "md_parent_section": "§PP [PP — Examples]", "md_verbatim": "| 11 | ABC-123 | PP | ABC-123-0001 | 13 | DY8DRGX | DY8DRGX | DY8DRGX | DY8DRGX | VZO | Vz Obs | DRUG X | 10.7 | L | 10.7 | 10.7 | L | PLASMA | 8 | 2001-02-08T08:35 |", "score": 0.5, "match_basis": "verbatim_token+domain_route:PP"}, {"md_atom_id": "md_dmPP_ex_a086", "md_file": "knowledge_base/domains/PP/examples.md", "md_atom_type": "TABLE_ROW", "md_parent_section": "§PP [PP — Examples]", "md_verbatim": "| 2 | ABC-123 | PP | ABC-123-0001 | 2 | DY1DRGX | DY1DRGX | DY1DRGX_A | CMAX | CMAX | Max Conc | DRUG X | 44.5 | ng/mL | 44.5 | 44.5 | ng/mL | PLASMA | 1 | 2001-02-01T08:35 |", "score": 0.4923, "match_basis": "verbatim_token+domain_route:PP"}, {"md_atom_id": "md_dmPP_ex_a092", "md_file": "knowledge_base/domains/PP/examples.md", "md_atom_type": "TABLE_ROW", "md_parent_section": "§PP [PP — Examples]", "md_verbatim": "| 8 | ABC-123 | PP | ABC-123-0001 | 9 | DY8DRGX | DY8DRGX | DY8DRGX | DY8DRGX | CMAX | Max Conc | DRUG X | 46.0 | ng/mL | 46.0 | 46.0 | ng/mL | PLASMA | 8 | 2001-02-08T08:35 |", "score": 0.4923, "match_basis": "verbatim_token+domain_route:PP"}, {"md_atom_id": "md_dmPP_ex_a085", "md_file": "knowledge_base/domains/PP/examples.md", "md_atom_type": "TABLE_ROW", "md_parent_section": "§PP [PP — Examples]", "md_verbatim": "| 1 | ABC-123 | PP | ABC-123-0001 | 1 | DY1DRGX | DY1DRGX | DY1DRGX_A | TMAX | TMAX | Time of CMAX | DRUG X | 1.87 | h | 1.87 | 1.87 | h | PLASMA | 1 | 2001-02-01T08:35 |", "score": 0.4889, "match_basis": "verbatim_token+domain_route:PP"}, {"md_atom_id": "md_dmPP_ex_a087", "md_file": "knowledge_base/domains/PP/examples.md", "md_atom_type": "TABLE_ROW", "md_parent_section": "§PP [PP — Examples]", "md_verbatim": "| 3 | ABC-123 | PP | ABC-123-0001 | 3 | DY1DRGX | DY1DRGX | DY1DRGX_A | AUC | AUCALL | AUC All | DRUG X | 294.7 | h*ug/mL | 294.7 | 294.7 | h*ug/mL | PLASMA | 1 | 2001-02-01T08:35 |", "score": 0.4889, "match_basis": "verbatim_token+domain_route:PP"}], "candidate_count": 5, "zero_candidate": false}
{"pdf_atom_id": "ig34_p0278_a015", "pdf_atom_type": "TABLE_ROW", "pdf_source": "SDTMIG_v3.4", "pdf_page": 278, "pdf_parent_section": "§6.3.5.9.3 Relating PP Records to PC Records — Example 1", "pdf_verbatim": "13 | ABC-123 | PP | ABC-123-0001 | PPGRPID | DY1DRGX | | 1", "figure_ref": null, "candidates": [{"md_atom_id": "md_dmPP_ex_a086", "md_file": "knowledge_base/domains/PP/examples.md", "md_atom_type": "TABLE_ROW", "md_parent_section": "§PP [PP — Examples]", "md_verbatim": "| 2 | ABC-123 | PP | ABC-123-0001 | 2 | DY1DRGX | DY1DRGX | DY1DRGX_A | CMAX | CMAX | Max Conc | DRUG X | 44.5 | ng/mL | 44.5 | 44.5 | ng/mL | PLASMA | 1 | 2001-02-01T08:35 |", "score": 0.5929, "match_basis": "verbatim_token+domain_route:PP"}, {"md_atom_id": "md_dmPP_ex_a085", "md_file": "knowledge_base/domains/PP/examples.md", "md_atom_type": "TABLE_ROW", "md_parent_section": "§PP [PP — Examples]", "md_verbatim": "| 1 | ABC-123 | PP | ABC-123-0001 | 1 | DY1DRGX | DY1DRGX | DY1DRGX_A | TMAX | TMAX | Time of CMAX | DRUG X | 1.87 | h | 1.87 | 1.87 | h | PLASMA | 1 | 2001-02-01T08:35 |", "score": 0.5862, "match_basis": "verbatim_token+domain_route:PP"}, {"md_atom_id": "md_dmPP_ex_a087", "md_file": "knowledge_base/domains/PP/examples.md", "md_atom_type": "TABLE_ROW", "md_parent_section": "§PP [PP — Examples]", "md_verbatim": "| 3 | ABC-123 | PP | ABC-123-0001 | 3 | DY1DRGX | DY1DRGX | DY1DRGX_A | AUC | AUCALL | AUC All | DRUG X | 294.7 | h*ug/mL | 294.7 | 294.7 | h*ug/mL | PLASMA | 1 | 2001-02-01T08:35 |", "score": 0.5862, "match_basis": "verbatim_token+domain_route:PP"}, {"md_atom_id": "md_dmPP_ex_a089", "md_file": "knowledge_base/domains/PP/examples.md", "md_atom_type": "TABLE_ROW", "md_parent_section": "§PP [PP — Examples]", "md_verbatim": "| 5 | ABC-123 | PP | ABC-123-0001 | 6 | DY1DRGX | DY1DRGX | DY1DRGX_A | OTHER | VZO | Vz Obs | DRUG X | 10.9 | L | 10.9 | 10.9 | L | PLASMA | 1 | 2001-02-01T08:35 |", "score": 0.5862, "match_basis": "verbatim_token+domain_route:PP"}, {"md_atom_id": "md_dmPP_ex_a090", "md_file": "knowledge_base/domains/PP/examples.md", "md_atom_type": "TABLE_ROW", "md_parent_section": "§PP [PP — Examples]", "md_verbatim": "| 6 | ABC-123 | PP | ABC-123-0001 | 7 | DY1DRGX | DY1DRGX | DY1DRGX_A | OTHER | CLO | Total CL Obs | DRUG X | 1.68 | L/h | 1.68 | 1.68 | L/h | PLASMA | 1 | 2001-02-01T08:35 |", "score": 0.5687, "match_basis": "verbatim_token+domain_route:PP"}], "candidate_count": 5, "zero_candidate": false}
{"pdf_atom_id": "ig34_p0278_a016", "pdf_atom_type": "TABLE_ROW", "pdf_source": "SDTMIG_v3.4", "pdf_page": 278, "pdf_parent_section": "§6.3.5.9.3 Relating PP Records to PC Records — Example 1", "pdf_verbatim": "14 | ABC-123 | PC | ABC-123-0001 | PCSEQ | 13 | | 1", "figure_ref": null, "candidates": [{"md_atom_id": "md_dmPP_ex_a095", "md_file": "knowledge_base/domains/PP/examples.md", "md_atom_type": "TABLE_ROW", "md_parent_section": "§PP [PP — Examples]", "md_verbatim": "| 11 | ABC-123 | PP | ABC-123-0001 | 13 | DY8DRGX | DY8DRGX | DY8DRGX | DY8DRGX | VZO | Vz Obs | DRUG X | 10.7 | L | 10.7 | 10.7 | L | PLASMA | 8 | 2001-02-08T08:35 |", "score": 0.5, "match_basis": "verbatim_token+domain_route:PP"}, {"md_atom_id": "md_dmPP_ex_a086", "md_file": "knowledge_base/domains/PP/examples.md", "md_atom_type": "TABLE_ROW", "md_parent_section": "§PP [PP — Examples]", "md_verbatim": "| 2 | ABC-123 | PP | ABC-123-0001 | 2 | DY1DRGX | DY1DRGX | DY1DRGX_A | CMAX | CMAX | Max Conc | DRUG X | 44.5 | ng/mL | 44.5 | 44.5 | ng/mL | PLASMA | 1 | 2001-02-01T08:35 |", "score": 0.4923, "match_basis": "verbatim_token+domain_route:PP"}, {"md_atom_id": "md_dmPP_ex_a092", "md_file": "knowledge_base/domains/PP/examples.md", "md_atom_type": "TABLE_ROW", "md_parent_section": "§PP [PP — Examples]", "md_verbatim": "| 8 | ABC-123 | PP | ABC-123-0001 | 9 | DY8DRGX | DY8DRGX | DY8DRGX | DY8DRGX | CMAX | Max Conc | DRUG X | 46.0 | ng/mL | 46.0 | 46.0 | ng/mL | PLASMA | 8 | 2001-02-08T08:35 |", "score": 0.4923, "match_basis": "verbatim_token+domain_route:PP"}, {"md_atom_id": "md_dmPP_ex_a085", "md_file": "knowledge_base/domains/PP/examples.md", "md_atom_type": "TABLE_ROW", "md_parent_section": "§PP [PP — Examples]", "md_verbatim": "| 1 | ABC-123 | PP | ABC-123-0001 | 1 | DY1DRGX | DY1DRGX | DY1DRGX_A | TMAX | TMAX | Time of CMAX | DRUG X | 1.87 | h | 1.87 | 1.87 | h | PLASMA | 1 | 2001-02-01T08:35 |", "score": 0.4889, "match_basis": "verbatim_token+domain_route:PP"}, {"md_atom_id": "md_dmPP_ex_a087", "md_file": "knowledge_base/domains/PP/examples.md", "md_atom_type": "TABLE_ROW", "md_parent_section": "§PP [PP — Examples]", "md_verbatim": "| 3 | ABC-123 | PP | ABC-123-0001 | 3 | DY1DRGX | DY1DRGX | DY1DRGX_A | AUC | AUCALL | AUC All | DRUG X | 294.7 | h*ug/mL | 294.7 | 294.7 | h*ug/mL | PLASMA | 1 | 2001-02-01T08:35 |", "score": 0.4889, "match_basis": "verbatim_token+domain_route:PP"}], "candidate_count": 5, "zero_candidate": false}
{"pdf_atom_id": "ig34_p0278_a017", "pdf_atom_type": "TABLE_ROW", "pdf_source": "SDTMIG_v3.4", "pdf_page": 278, "pdf_parent_section": "§6.3.5.9.3 Relating PP Records to PC Records — Example 1", "pdf_verbatim": "15 | ABC-123 | PC | ABC-123-0001 | PCSEQ | 14 | | 1", "figure_ref": null, "candidates": [{"md_atom_id": "md_dmPP_ex_a095", "md_file": "knowledge_base/domains/PP/examples.md", "md_atom_type": "TABLE_ROW", "md_parent_section": "§PP [PP — Examples]", "md_verbatim": "| 11 | ABC-123 | PP | ABC-123-0001 | 13 | DY8DRGX | DY8DRGX | DY8DRGX | DY8DRGX | VZO | Vz Obs | DRUG X | 10.7 | L | 10.7 | 10.7 | L | PLASMA | 8 | 2001-02-08T08:35 |", "score": 0.5, "match_basis": "verbatim_token+domain_route:PP"}, {"md_atom_id": "md_dmPP_ex_a086", "md_file": "knowledge_base/domains/PP/examples.md", "md_atom_type": "TABLE_ROW", "md_parent_section": "§PP [PP — Examples]", "md_verbatim": "| 2 | ABC-123 | PP | ABC-123-0001 | 2 | DY1DRGX | DY1DRGX | DY1DRGX_A | CMAX | CMAX | Max Conc | DRUG X | 44.5 | ng/mL | 44.5 | 44.5 | ng/mL | PLASMA | 1 | 2001-02-01T08:35 |", "score": 0.4923, "match_basis": "verbatim_token+domain_route:PP"}, {"md_atom_id": "md_dmPP_ex_a092", "md_file": "knowledge_base/domains/PP/examples.md", "md_atom_type": "TABLE_ROW", "md_parent_section": "§PP [PP — Examples]", "md_verbatim": "| 8 | ABC-123 | PP | ABC-123-0001 | 9 | DY8DRGX | DY8DRGX | DY8DRGX | DY8DRGX | CMAX | Max Conc | DRUG X | 46.0 | ng/mL | 46.0 | 46.0 | ng/mL | PLASMA | 8 | 2001-02-08T08:35 |", "score": 0.4923, "match_basis": "verbatim_token+domain_route:PP"}, {"md_atom_id": "md_dmPP_ex_a085", "md_file": "knowledge_base/domains/PP/examples.md", "md_atom_type": "TABLE_ROW", "md_parent_section": "§PP [PP — Examples]", "md_verbatim": "| 1 | ABC-123 | PP | ABC-123-0001 | 1 | DY1DRGX | DY1DRGX | DY1DRGX_A | TMAX | TMAX | Time of CMAX | DRUG X | 1.87 | h | 1.87 | 1.87 | h | PLASMA | 1 | 2001-02-01T08:35 |", "score": 0.4889, "match_basis": "verbatim_token+domain_route:PP"}, {"md_atom_id": "md_dmPP_ex_a087", "md_file": "knowledge_base/domains/PP/examples.md", "md_atom_type": "TABLE_ROW", "md_parent_section": "§PP [PP — Examples]", "md_verbatim": "| 3 | ABC-123 | PP | ABC-123-0001 | 3 | DY1DRGX | DY1DRGX | DY1DRGX_A | AUC | AUCALL | AUC All | DRUG X | 294.7 | h*ug/mL | 294.7 | 294.7 | h*ug/mL | PLASMA | 1 | 2001-02-01T08:35 |", "score": 0.4889, "match_basis": "verbatim_token+domain_route:PP"}], "candidate_count": 5, "zero_candidate": false}
{"pdf_atom_id": "ig34_p0278_a018", "pdf_atom_type": "TABLE_ROW", "pdf_source": "SDTMIG_v3.4", "pdf_page": 278, "pdf_parent_section": "§6.3.5.9.3 Relating PP Records to PC Records — Example 1", "pdf_verbatim": "16 | ABC-123 | PC | ABC-123-0001 | PCSEQ | 15 | | 1", "figure_ref": null, "candidates": [{"md_atom_id": "md_dmPP_ex_a095", "md_file": "knowledge_base/domains/PP/examples.md", "md_atom_type": "TABLE_ROW", "md_parent_section": "§PP [PP — Examples]", "md_verbatim": "| 11 | ABC-123 | PP | ABC-123-0001 | 13 | DY8DRGX | DY8DRGX | DY8DRGX | DY8DRGX | VZO | Vz Obs | DRUG X | 10.7 | L | 10.7 | 10.7 | L | PLASMA | 8 | 2001-02-08T08:35 |", "score": 0.5, "match_basis": "verbatim_token+domain_route:PP"}, {"md_atom_id": "md_dmPP_ex_a086", "md_file": "knowledge_base/domains/PP/examples.md", "md_atom_type": "TABLE_ROW", "md_parent_section": "§PP [PP — Examples]", "md_verbatim": "| 2 | ABC-123 | PP | ABC-123-0001 | 2 | DY1DRGX | DY1DRGX | DY1DRGX_A | CMAX | CMAX | Max Conc | DRUG X | 44.5 | ng/mL | 44.5 | 44.5 | ng/mL | PLASMA | 1 | 2001-02-01T08:35 |", "score": 0.4923, "match_basis": "verbatim_token+domain_route:PP"}, {"md_atom_id": "md_dmPP_ex_a092", "md_file": "knowledge_base/domains/PP/examples.md", "md_atom_type": "TABLE_ROW", "md_parent_section": "§PP [PP — Examples]", "md_verbatim": "| 8 | ABC-123 | PP | ABC-123-0001 | 9 | DY8DRGX | DY8DRGX | DY8DRGX | DY8DRGX | CMAX | Max Conc | DRUG X | 46.0 | ng/mL | 46.0 | 46.0 | ng/mL | PLASMA | 8 | 2001-02-08T08:35 |", "score": 0.4923, "match_basis": "verbatim_token+domain_route:PP"}, {"md_atom_id": "md_dmPP_ex_a085", "md_file": "knowledge_base/domains/PP/examples.md", "md_atom_type": "TABLE_ROW", "md_parent_section": "§PP [PP — Examples]", "md_verbatim": "| 1 | ABC-123 | PP | ABC-123-0001 | 1 | DY1DRGX | DY1DRGX | DY1DRGX_A | TMAX | TMAX | Time of CMAX | DRUG X | 1.87 | h | 1.87 | 1.87 | h | PLASMA | 1 | 2001-02-01T08:35 |", "score": 0.4889, "match_basis": "verbatim_token+domain_route:PP"}, {"md_atom_id": "md_dmPP_ex_a087", "md_file": "knowledge_base/domains/PP/examples.md", "md_atom_type": "TABLE_ROW", "md_parent_section": "§PP [PP — Examples]", "md_verbatim": "| 3 | ABC-123 | PP | ABC-123-0001 | 3 | DY1DRGX | DY1DRGX | DY1DRGX_A | AUC | AUCALL | AUC All | DRUG X | 294.7 | h*ug/mL | 294.7 | 294.7 | h*ug/mL | PLASMA | 1 | 2001-02-01T08:35 |", "score": 0.4889, "match_basis": "verbatim_token+domain_route:PP"}], "candidate_count": 5, "zero_candidate": false}
{"pdf_atom_id": "ig34_p0278_a019", "pdf_atom_type": "TABLE_ROW", "pdf_source": "SDTMIG_v3.4", "pdf_page": 278, "pdf_parent_section": "§6.3.5.9.3 Relating PP Records to PC Records — Example 1", "pdf_verbatim": "17 | ABC-123 | PC | ABC-123-0001 | PCSEQ | 16 | | 1", "figure_ref": null, "candidates": [{"md_atom_id": "md_dmPP_ex_a095", "md_file": "knowledge_base/domains/PP/examples.md", "md_atom_type": "TABLE_ROW", "md_parent_section": "§PP [PP — Examples]", "md_verbatim": "| 11 | ABC-123 | PP | ABC-123-0001 | 13 | DY8DRGX | DY8DRGX | DY8DRGX | DY8DRGX | VZO | Vz Obs | DRUG X | 10.7 | L | 10.7 | 10.7 | L | PLASMA | 8 | 2001-02-08T08:35 |", "score": 0.5, "match_basis": "verbatim_token+domain_route:PP"}, {"md_atom_id": "md_dmPP_ex_a086", "md_file": "knowledge_base/domains/PP/examples.md", "md_atom_type": "TABLE_ROW", "md_parent_section": "§PP [PP — Examples]", "md_verbatim": "| 2 | ABC-123 | PP | ABC-123-0001 | 2 | DY1DRGX | DY1DRGX | DY1DRGX_A | CMAX | CMAX | Max Conc | DRUG X | 44.5 | ng/mL | 44.5 | 44.5 | ng/mL | PLASMA | 1 | 2001-02-01T08:35 |", "score": 0.4923, "match_basis": "verbatim_token+domain_route:PP"}, {"md_atom_id": "md_dmPP_ex_a092", "md_file": "knowledge_base/domains/PP/examples.md", "md_atom_type": "TABLE_ROW", "md_parent_section": "§PP [PP — Examples]", "md_verbatim": "| 8 | ABC-123 | PP | ABC-123-0001 | 9 | DY8DRGX | DY8DRGX | DY8DRGX | DY8DRGX | CMAX | Max Conc | DRUG X | 46.0 | ng/mL | 46.0 | 46.0 | ng/mL | PLASMA | 8 | 2001-02-08T08:35 |", "score": 0.4923, "match_basis": "verbatim_token+domain_route:PP"}, {"md_atom_id": "md_dmPP_ex_a085", "md_file": "knowledge_base/domains/PP/examples.md", "md_atom_type": "TABLE_ROW", "md_parent_section": "§PP [PP — Examples]", "md_verbatim": "| 1 | ABC-123 | PP | ABC-123-0001 | 1 | DY1DRGX | DY1DRGX | DY1DRGX_A | TMAX | TMAX | Time of CMAX | DRUG X | 1.87 | h | 1.87 | 1.87 | h | PLASMA | 1 | 2001-02-01T08:35 |", "score": 0.4889, "match_basis": "verbatim_token+domain_route:PP"}, {"md_atom_id": "md_dmPP_ex_a087", "md_file": "knowledge_base/domains/PP/examples.md", "md_atom_type": "TABLE_ROW", "md_parent_section": "§PP [PP — Examples]", "md_verbatim": "| 3 | ABC-123 | PP | ABC-123-0001 | 3 | DY1DRGX | DY1DRGX | DY1DRGX_A | AUC | AUCALL | AUC All | DRUG X | 294.7 | h*ug/mL | 294.7 | 294.7 | h*ug/mL | PLASMA | 1 | 2001-02-01T08:35 |", "score": 0.4889, "match_basis": "verbatim_token+domain_route:PP"}], "candidate_count": 5, "zero_candidate": false}
{"pdf_atom_id": "ig34_p0278_a020", "pdf_atom_type": "TABLE_ROW", "pdf_source": "SDTMIG_v3.4", "pdf_page": 278, "pdf_parent_section": "§6.3.5.9.3 Relating PP Records to PC Records — Example 1", "pdf_verbatim": "18 | ABC-123 | PC | ABC-123-0001 | PCSEQ | 17 | | 1", "figure_ref": null, "candidates": [{"md_atom_id": "md_dmPP_ex_a095", "md_file": "knowledge_base/domains/PP/examples.md", "md_atom_type": "TABLE_ROW", "md_parent_section": "§PP [PP — Examples]", "md_verbatim": "| 11 | ABC-123 | PP | ABC-123-0001 | 13 | DY8DRGX | DY8DRGX | DY8DRGX | DY8DRGX | VZO | Vz Obs | DRUG X | 10.7 | L | 10.7 | 10.7 | L | PLASMA | 8 | 2001-02-08T08:35 |", "score": 0.5, "match_basis": "verbatim_token+domain_route:PP"}, {"md_atom_id": "md_dmPP_ex_a086", "md_file": "knowledge_base/domains/PP/examples.md", "md_atom_type": "TABLE_ROW", "md_parent_section": "§PP [PP — Examples]", "md_verbatim": "| 2 | ABC-123 | PP | ABC-123-0001 | 2 | DY1DRGX | DY1DRGX | DY1DRGX_A | CMAX | CMAX | Max Conc | DRUG X | 44.5 | ng/mL | 44.5 | 44.5 | ng/mL | PLASMA | 1 | 2001-02-01T08:35 |", "score": 0.4923, "match_basis": "verbatim_token+domain_route:PP"}, {"md_atom_id": "md_dmPP_ex_a092", "md_file": "knowledge_base/domains/PP/examples.md", "md_atom_type": "TABLE_ROW", "md_parent_section": "§PP [PP — Examples]", "md_verbatim": "| 8 | ABC-123 | PP | ABC-123-0001 | 9 | DY8DRGX | DY8DRGX | DY8DRGX | DY8DRGX | CMAX | Max Conc | DRUG X | 46.0 | ng/mL | 46.0 | 46.0 | ng/mL | PLASMA | 8 | 2001-02-08T08:35 |", "score": 0.4923, "match_basis": "verbatim_token+domain_route:PP"}, {"md_atom_id": "md_dmPP_ex_a085", "md_file": "knowledge_base/domains/PP/examples.md", "md_atom_type": "TABLE_ROW", "md_parent_section": "§PP [PP — Examples]", "md_verbatim": "| 1 | ABC-123 | PP | ABC-123-0001 | 1 | DY1DRGX | DY1DRGX | DY1DRGX_A | TMAX | TMAX | Time of CMAX | DRUG X | 1.87 | h | 1.87 | 1.87 | h | PLASMA | 1 | 2001-02-01T08:35 |", "score": 0.4889, "match_basis": "verbatim_token+domain_route:PP"}, {"md_atom_id": "md_dmPP_ex_a087", "md_file": "knowledge_base/domains/PP/examples.md", "md_atom_type": "TABLE_ROW", "md_parent_section": "§PP [PP — Examples]", "md_verbatim": "| 3 | ABC-123 | PP | ABC-123-0001 | 3 | DY1DRGX | DY1DRGX | DY1DRGX_A | AUC | AUCALL | AUC All | DRUG X | 294.7 | h*ug/mL | 294.7 | 294.7 | h*ug/mL | PLASMA | 1 | 2001-02-01T08:35 |", "score": 0.4889, "match_basis": "verbatim_token+domain_route:PP"}], "candidate_count": 5, "zero_candidate": false}
{"pdf_atom_id": "ig34_p0278_a021", "pdf_atom_type": "TABLE_ROW", "pdf_source": "SDTMIG_v3.4", "pdf_page": 278, "pdf_parent_section": "§6.3.5.9.3 Relating PP Records to PC Records — Example 1", "pdf_verbatim": "19 | ABC-123 | PC | ABC-123-0001 | PCSEQ | 18 | | 1", "figure_ref": null, "candidates": [{"md_atom_id": "md_dmPP_ex_a095", "md_file": "knowledge_base/domains/PP/examples.md", "md_atom_type": "TABLE_ROW", "md_parent_section": "§PP [PP — Examples]", "md_verbatim": "| 11 | ABC-123 | PP | ABC-123-0001 | 13 | DY8DRGX | DY8DRGX | DY8DRGX | DY8DRGX | VZO | Vz Obs | DRUG X | 10.7 | L | 10.7 | 10.7 | L | PLASMA | 8 | 2001-02-08T08:35 |", "score": 0.5, "match_basis": "verbatim_token+domain_route:PP"}, {"md_atom_id": "md_dmPP_ex_a086", "md_file": "knowledge_base/domains/PP/examples.md", "md_atom_type": "TABLE_ROW", "md_parent_section": "§PP [PP — Examples]", "md_verbatim": "| 2 | ABC-123 | PP | ABC-123-0001 | 2 | DY1DRGX | DY1DRGX | DY1DRGX_A | CMAX | CMAX | Max Conc | DRUG X | 44.5 | ng/mL | 44.5 | 44.5 | ng/mL | PLASMA | 1 | 2001-02-01T08:35 |", "score": 0.4923, "match_basis": "verbatim_token+domain_route:PP"}, {"md_atom_id": "md_dmPP_ex_a092", "md_file": "knowledge_base/domains/PP/examples.md", "md_atom_type": "TABLE_ROW", "md_parent_section": "§PP [PP — Examples]", "md_verbatim": "| 8 | ABC-123 | PP | ABC-123-0001 | 9 | DY8DRGX | DY8DRGX | DY8DRGX | DY8DRGX | CMAX | Max Conc | DRUG X | 46.0 | ng/mL | 46.0 | 46.0 | ng/mL | PLASMA | 8 | 2001-02-08T08:35 |", "score": 0.4923, "match_basis": "verbatim_token+domain_route:PP"}, {"md_atom_id": "md_dmPP_ex_a085", "md_file": "knowledge_base/domains/PP/examples.md", "md_atom_type": "TABLE_ROW", "md_parent_section": "§PP [PP — Examples]", "md_verbatim": "| 1 | ABC-123 | PP | ABC-123-0001 | 1 | DY1DRGX | DY1DRGX | DY1DRGX_A | TMAX | TMAX | Time of CMAX | DRUG X | 1.87 | h | 1.87 | 1.87 | h | PLASMA | 1 | 2001-02-01T08:35 |", "score": 0.4889, "match_basis": "verbatim_token+domain_route:PP"}, {"md_atom_id": "md_dmPP_ex_a087", "md_file": "knowledge_base/domains/PP/examples.md", "md_atom_type": "TABLE_ROW", "md_parent_section": "§PP [PP — Examples]", "md_verbatim": "| 3 | ABC-123 | PP | ABC-123-0001 | 3 | DY1DRGX | DY1DRGX | DY1DRGX_A | AUC | AUCALL | AUC All | DRUG X | 294.7 | h*ug/mL | 294.7 | 294.7 | h*ug/mL | PLASMA | 1 | 2001-02-01T08:35 |", "score": 0.4889, "match_basis": "verbatim_token+domain_route:PP"}], "candidate_count": 5, "zero_candidate": false}
{"pdf_atom_id": "ig34_p0278_a022", "pdf_atom_type": "TABLE_ROW", "pdf_source": "SDTMIG_v3.4", "pdf_page": 278, "pdf_parent_section": "§6.3.5.9.3 Relating PP Records to PC Records — Example 1", "pdf_verbatim": "20 | ABC-123 | PC | ABC-123-0001 | PCSEQ | 19 | | 1", "figure_ref": null, "candidates": [{"md_atom_id": "md_dmPP_ex_a095", "md_file": "knowledge_base/domains/PP/examples.md", "md_atom_type": "TABLE_ROW", "md_parent_section": "§PP [PP — Examples]", "md_verbatim": "| 11 | ABC-123 | PP | ABC-123-0001 | 13 | DY8DRGX | DY8DRGX | DY8DRGX | DY8DRGX | VZO | Vz Obs | DRUG X | 10.7 | L | 10.7 | 10.7 | L | PLASMA | 8 | 2001-02-08T08:35 |", "score": 0.5, "match_basis": "verbatim_token+domain_route:PP"}, {"md_atom_id": "md_dmPP_ex_a086", "md_file": "knowledge_base/domains/PP/examples.md", "md_atom_type": "TABLE_ROW", "md_parent_section": "§PP [PP — Examples]", "md_verbatim": "| 2 | ABC-123 | PP | ABC-123-0001 | 2 | DY1DRGX | DY1DRGX | DY1DRGX_A | CMAX | CMAX | Max Conc | DRUG X | 44.5 | ng/mL | 44.5 | 44.5 | ng/mL | PLASMA | 1 | 2001-02-01T08:35 |", "score": 0.4923, "match_basis": "verbatim_token+domain_route:PP"}, {"md_atom_id": "md_dmPP_ex_a092", "md_file": "knowledge_base/domains/PP/examples.md", "md_atom_type": "TABLE_ROW", "md_parent_section": "§PP [PP — Examples]", "md_verbatim": "| 8 | ABC-123 | PP | ABC-123-0001 | 9 | DY8DRGX | DY8DRGX | DY8DRGX | DY8DRGX | CMAX | Max Conc | DRUG X | 46.0 | ng/mL | 46.0 | 46.0 | ng/mL | PLASMA | 8 | 2001-02-08T08:35 |", "score": 0.4923, "match_basis": "verbatim_token+domain_route:PP"}, {"md_atom_id": "md_dmPP_ex_a085", "md_file": "knowledge_base/domains/PP/examples.md", "md_atom_type": "TABLE_ROW", "md_parent_section": "§PP [PP — Examples]", "md_verbatim": "| 1 | ABC-123 | PP | ABC-123-0001 | 1 | DY1DRGX | DY1DRGX | DY1DRGX_A | TMAX | TMAX | Time of CMAX | DRUG X | 1.87 | h | 1.87 | 1.87 | h | PLASMA | 1 | 2001-02-01T08:35 |", "score": 0.4889, "match_basis": "verbatim_token+domain_route:PP"}, {"md_atom_id": "md_dmPP_ex_a087", "md_file": "knowledge_base/domains/PP/examples.md", "md_atom_type": "TABLE_ROW", "md_parent_section": "§PP [PP — Examples]", "md_verbatim": "| 3 | ABC-123 | PP | ABC-123-0001 | 3 | DY1DRGX | DY1DRGX | DY1DRGX_A | AUC | AUCALL | AUC All | DRUG X | 294.7 | h*ug/mL | 294.7 | 294.7 | h*ug/mL | PLASMA | 1 | 2001-02-01T08:35 |", "score": 0.4889, "match_basis": "verbatim_token+domain_route:PP"}], "candidate_count": 5, "zero_candidate": false}
{"pdf_atom_id": "ig34_p0278_a023", "pdf_atom_type": "TABLE_ROW", "pdf_source": "SDTMIG_v3.4", "pdf_page": 278, "pdf_parent_section": "§6.3.5.9.3 Relating PP Records to PC Records — Example 1", "pdf_verbatim": "21 | ABC-123 | PC | ABC-123-0001 | PCSEQ | 20 | | 1", "figure_ref": null, "candidates": [{"md_atom_id": "md_dmPP_ex_a095", "md_file": "knowledge_base/domains/PP/examples.md", "md_atom_type": "TABLE_ROW", "md_parent_section": "§PP [PP — Examples]", "md_verbatim": "| 11 | ABC-123 | PP | ABC-123-0001 | 13 | DY8DRGX | DY8DRGX | DY8DRGX | DY8DRGX | VZO | Vz Obs | DRUG X | 10.7 | L | 10.7 | 10.7 | L | PLASMA | 8 | 2001-02-08T08:35 |", "score": 0.5, "match_basis": "verbatim_token+domain_route:PP"}, {"md_atom_id": "md_dmPP_ex_a086", "md_file": "knowledge_base/domains/PP/examples.md", "md_atom_type": "TABLE_ROW", "md_parent_section": "§PP [PP — Examples]", "md_verbatim": "| 2 | ABC-123 | PP | ABC-123-0001 | 2 | DY1DRGX | DY1DRGX | DY1DRGX_A | CMAX | CMAX | Max Conc | DRUG X | 44.5 | ng/mL | 44.5 | 44.5 | ng/mL | PLASMA | 1 | 2001-02-01T08:35 |", "score": 0.4923, "match_basis": "verbatim_token+domain_route:PP"}, {"md_atom_id": "md_dmPP_ex_a092", "md_file": "knowledge_base/domains/PP/examples.md", "md_atom_type": "TABLE_ROW", "md_parent_section": "§PP [PP — Examples]", "md_verbatim": "| 8 | ABC-123 | PP | ABC-123-0001 | 9 | DY8DRGX | DY8DRGX | DY8DRGX | DY8DRGX | CMAX | Max Conc | DRUG X | 46.0 | ng/mL | 46.0 | 46.0 | ng/mL | PLASMA | 8 | 2001-02-08T08:35 |", "score": 0.4923, "match_basis": "verbatim_token+domain_route:PP"}, {"md_atom_id": "md_dmPP_ex_a085", "md_file": "knowledge_base/domains/PP/examples.md", "md_atom_type": "TABLE_ROW", "md_parent_section": "§PP [PP — Examples]", "md_verbatim": "| 1 | ABC-123 | PP | ABC-123-0001 | 1 | DY1DRGX | DY1DRGX | DY1DRGX_A | TMAX | TMAX | Time of CMAX | DRUG X | 1.87 | h | 1.87 | 1.87 | h | PLASMA | 1 | 2001-02-01T08:35 |", "score": 0.4889, "match_basis": "verbatim_token+domain_route:PP"}, {"md_atom_id": "md_dmPP_ex_a087", "md_file": "knowledge_base/domains/PP/examples.md", "md_atom_type": "TABLE_ROW", "md_parent_section": "§PP [PP — Examples]", "md_verbatim": "| 3 | ABC-123 | PP | ABC-123-0001 | 3 | DY1DRGX | DY1DRGX | DY1DRGX_A | AUC | AUCALL | AUC All | DRUG X | 294.7 | h*ug/mL | 294.7 | 294.7 | h*ug/mL | PLASMA | 1 | 2001-02-01T08:35 |", "score": 0.4889, "match_basis": "verbatim_token+domain_route:PP"}], "candidate_count": 5, "zero_candidate": false}
{"pdf_atom_id": "ig34_p0278_a024", "pdf_atom_type": "TABLE_ROW", "pdf_source": "SDTMIG_v3.4", "pdf_page": 278, "pdf_parent_section": "§6.3.5.9.3 Relating PP Records to PC Records — Example 1", "pdf_verbatim": "22 | ABC-123 | PC | ABC-123-0001 | PCSEQ | 21 | | 1", "figure_ref": null, "candidates": [{"md_atom_id": "md_dmPP_ex_a095", "md_file": "knowledge_base/domains/PP/examples.md", "md_atom_type": "TABLE_ROW", "md_parent_section": "§PP [PP — Examples]", "md_verbatim": "| 11 | ABC-123 | PP | ABC-123-0001 | 13 | DY8DRGX | DY8DRGX | DY8DRGX | DY8DRGX | VZO | Vz Obs | DRUG X | 10.7 | L | 10.7 | 10.7 | L | PLASMA | 8 | 2001-02-08T08:35 |", "score": 0.5, "match_basis": "verbatim_token+domain_route:PP"}, {"md_atom_id": "md_dmPP_ex_a086", "md_file": "knowledge_base/domains/PP/examples.md", "md_atom_type": "TABLE_ROW", "md_parent_section": "§PP [PP — Examples]", "md_verbatim": "| 2 | ABC-123 | PP | ABC-123-0001 | 2 | DY1DRGX | DY1DRGX | DY1DRGX_A | CMAX | CMAX | Max Conc | DRUG X | 44.5 | ng/mL | 44.5 | 44.5 | ng/mL | PLASMA | 1 | 2001-02-01T08:35 |", "score": 0.4923, "match_basis": "verbatim_token+domain_route:PP"}, {"md_atom_id": "md_dmPP_ex_a092", "md_file": "knowledge_base/domains/PP/examples.md", "md_atom_type": "TABLE_ROW", "md_parent_section": "§PP [PP — Examples]", "md_verbatim": "| 8 | ABC-123 | PP | ABC-123-0001 | 9 | DY8DRGX | DY8DRGX | DY8DRGX | DY8DRGX | CMAX | Max Conc | DRUG X | 46.0 | ng/mL | 46.0 | 46.0 | ng/mL | PLASMA | 8 | 2001-02-08T08:35 |", "score": 0.4923, "match_basis": "verbatim_token+domain_route:PP"}, {"md_atom_id": "md_dmPP_ex_a085", "md_file": "knowledge_base/domains/PP/examples.md", "md_atom_type": "TABLE_ROW", "md_parent_section": "§PP [PP — Examples]", "md_verbatim": "| 1 | ABC-123 | PP | ABC-123-0001 | 1 | DY1DRGX | DY1DRGX | DY1DRGX_A | TMAX | TMAX | Time of CMAX | DRUG X | 1.87 | h | 1.87 | 1.87 | h | PLASMA | 1 | 2001-02-01T08:35 |", "score": 0.4889, "match_basis": "verbatim_token+domain_route:PP"}, {"md_atom_id": "md_dmPP_ex_a087", "md_file": "knowledge_base/domains/PP/examples.md", "md_atom_type": "TABLE_ROW", "md_parent_section": "§PP [PP — Examples]", "md_verbatim": "| 3 | ABC-123 | PP | ABC-123-0001 | 3 | DY1DRGX | DY1DRGX | DY1DRGX_A | AUC | AUCALL | AUC All | DRUG X | 294.7 | h*ug/mL | 294.7 | 294.7 | h*ug/mL | PLASMA | 1 | 2001-02-01T08:35 |", "score": 0.4889, "match_basis": "verbatim_token+domain_route:PP"}], "candidate_count": 5, "zero_candidate": false}
{"pdf_atom_id": "ig34_p0278_a025", "pdf_atom_type": "TABLE_ROW", "pdf_source": "SDTMIG_v3.4", "pdf_page": 278, "pdf_parent_section": "§6.3.5.9.3 Relating PP Records to PC Records — Example 1", "pdf_verbatim": "23 | ABC-123 | PC | ABC-123-0001 | PCSEQ | 22 | | 1", "figure_ref": null, "candidates": [{"md_atom_id": "md_dmPP_ex_a095", "md_file": "knowledge_base/domains/PP/examples.md", "md_atom_type": "TABLE_ROW", "md_parent_section": "§PP [PP — Examples]", "md_verbatim": "| 11 | ABC-123 | PP | ABC-123-0001 | 13 | DY8DRGX | DY8DRGX | DY8DRGX | DY8DRGX | VZO | Vz Obs | DRUG X | 10.7 | L | 10.7 | 10.7 | L | PLASMA | 8 | 2001-02-08T08:35 |", "score": 0.5, "match_basis": "verbatim_token+domain_route:PP"}, {"md_atom_id": "md_dmPP_ex_a086", "md_file": "knowledge_base/domains/PP/examples.md", "md_atom_type": "TABLE_ROW", "md_parent_section": "§PP [PP — Examples]", "md_verbatim": "| 2 | ABC-123 | PP | ABC-123-0001 | 2 | DY1DRGX | DY1DRGX | DY1DRGX_A | CMAX | CMAX | Max Conc | DRUG X | 44.5 | ng/mL | 44.5 | 44.5 | ng/mL | PLASMA | 1 | 2001-02-01T08:35 |", "score": 0.4923, "match_basis": "verbatim_token+domain_route:PP"}, {"md_atom_id": "md_dmPP_ex_a092", "md_file": "knowledge_base/domains/PP/examples.md", "md_atom_type": "TABLE_ROW", "md_parent_section": "§PP [PP — Examples]", "md_verbatim": "| 8 | ABC-123 | PP | ABC-123-0001 | 9 | DY8DRGX | DY8DRGX | DY8DRGX | DY8DRGX | CMAX | Max Conc | DRUG X | 46.0 | ng/mL | 46.0 | 46.0 | ng/mL | PLASMA | 8 | 2001-02-08T08:35 |", "score": 0.4923, "match_basis": "verbatim_token+domain_route:PP"}, {"md_atom_id": "md_dmPP_ex_a085", "md_file": "knowledge_base/domains/PP/examples.md", "md_atom_type": "TABLE_ROW", "md_parent_section": "§PP [PP — Examples]", "md_verbatim": "| 1 | ABC-123 | PP | ABC-123-0001 | 1 | DY1DRGX | DY1DRGX | DY1DRGX_A | TMAX | TMAX | Time of CMAX | DRUG X | 1.87 | h | 1.87 | 1.87 | h | PLASMA | 1 | 2001-02-01T08:35 |", "score": 0.4889, "match_basis": "verbatim_token+domain_route:PP"}, {"md_atom_id": "md_dmPP_ex_a087", "md_file": "knowledge_base/domains/PP/examples.md", "md_atom_type": "TABLE_ROW", "md_parent_section": "§PP [PP — Examples]", "md_verbatim": "| 3 | ABC-123 | PP | ABC-123-0001 | 3 | DY1DRGX | DY1DRGX | DY1DRGX_A | AUC | AUCALL | AUC All | DRUG X | 294.7 | h*ug/mL | 294.7 | 294.7 | h*ug/mL | PLASMA | 1 | 2001-02-01T08:35 |", "score": 0.4889, "match_basis": "verbatim_token+domain_route:PP"}], "candidate_count": 5, "zero_candidate": false}
{"pdf_atom_id": "ig34_p0278_a026", "pdf_atom_type": "TABLE_ROW", "pdf_source": "SDTMIG_v3.4", "pdf_page": 278, "pdf_parent_section": "§6.3.5.9.3 Relating PP Records to PC Records — Example 1", "pdf_verbatim": "24 | ABC-123 | PC | ABC-123-0001 | PCSEQ | 23 | | 1", "figure_ref": null, "candidates": [{"md_atom_id": "md_dmPP_ex_a095", "md_file": "knowledge_base/domains/PP/examples.md", "md_atom_type": "TABLE_ROW", "md_parent_section": "§PP [PP — Examples]", "md_verbatim": "| 11 | ABC-123 | PP | ABC-123-0001 | 13 | DY8DRGX | DY8DRGX | DY8DRGX | DY8DRGX | VZO | Vz Obs | DRUG X | 10.7 | L | 10.7 | 10.7 | L | PLASMA | 8 | 2001-02-08T08:35 |", "score": 0.5, "match_basis": "verbatim_token+domain_route:PP"}, {"md_atom_id": "md_dmPP_ex_a086", "md_file": "knowledge_base/domains/PP/examples.md", "md_atom_type": "TABLE_ROW", "md_parent_section": "§PP [PP — Examples]", "md_verbatim": "| 2 | ABC-123 | PP | ABC-123-0001 | 2 | DY1DRGX | DY1DRGX | DY1DRGX_A | CMAX | CMAX | Max Conc | DRUG X | 44.5 | ng/mL | 44.5 | 44.5 | ng/mL | PLASMA | 1 | 2001-02-01T08:35 |", "score": 0.4923, "match_basis": "verbatim_token+domain_route:PP"}, {"md_atom_id": "md_dmPP_ex_a092", "md_file": "knowledge_base/domains/PP/examples.md", "md_atom_type": "TABLE_ROW", "md_parent_section": "§PP [PP — Examples]", "md_verbatim": "| 8 | ABC-123 | PP | ABC-123-0001 | 9 | DY8DRGX | DY8DRGX | DY8DRGX | DY8DRGX | CMAX | Max Conc | DRUG X | 46.0 | ng/mL | 46.0 | 46.0 | ng/mL | PLASMA | 8 | 2001-02-08T08:35 |", "score": 0.4923, "match_basis": "verbatim_token+domain_route:PP"}, {"md_atom_id": "md_dmPP_ex_a085", "md_file": "knowledge_base/domains/PP/examples.md", "md_atom_type": "TABLE_ROW", "md_parent_section": "§PP [PP — Examples]", "md_verbatim": "| 1 | ABC-123 | PP | ABC-123-0001 | 1 | DY1DRGX | DY1DRGX | DY1DRGX_A | TMAX | TMAX | Time of CMAX | DRUG X | 1.87 | h | 1.87 | 1.87 | h | PLASMA | 1 | 2001-02-01T08:35 |", "score": 0.4889, "match_basis": "verbatim_token+domain_route:PP"}, {"md_atom_id": "md_dmPP_ex_a087", "md_file": "knowledge_base/domains/PP/examples.md", "md_atom_type": "TABLE_ROW", "md_parent_section": "§PP [PP — Examples]", "md_verbatim": "| 3 | ABC-123 | PP | ABC-123-0001 | 3 | DY1DRGX | DY1DRGX | DY1DRGX_A | AUC | AUCALL | AUC All | DRUG X | 294.7 | h*ug/mL | 294.7 | 294.7 | h*ug/mL | PLASMA | 1 | 2001-02-01T08:35 |", "score": 0.4889, "match_basis": "verbatim_token+domain_route:PP"}], "candidate_count": 5, "zero_candidate": false}
{"pdf_atom_id": "ig34_p0278_a027", "pdf_atom_type": "TABLE_ROW", "pdf_source": "SDTMIG_v3.4", "pdf_page": 278, "pdf_parent_section": "§6.3.5.9.3 Relating PP Records to PC Records — Example 1", "pdf_verbatim": "25 | ABC-123 | PC | ABC-123-0001 | PCSEQ | 24 | | 1", "figure_ref": null, "candidates": [{"md_atom_id": "md_dmPP_ex_a095", "md_file": "knowledge_base/domains/PP/examples.md", "md_atom_type": "TABLE_ROW", "md_parent_section": "§PP [PP — Examples]", "md_verbatim": "| 11 | ABC-123 | PP | ABC-123-0001 | 13 | DY8DRGX | DY8DRGX | DY8DRGX | DY8DRGX | VZO | Vz Obs | DRUG X | 10.7 | L | 10.7 | 10.7 | L | PLASMA | 8 | 2001-02-08T08:35 |", "score": 0.5, "match_basis": "verbatim_token+domain_route:PP"}, {"md_atom_id": "md_dmPP_ex_a086", "md_file": "knowledge_base/domains/PP/examples.md", "md_atom_type": "TABLE_ROW", "md_parent_section": "§PP [PP — Examples]", "md_verbatim": "| 2 | ABC-123 | PP | ABC-123-0001 | 2 | DY1DRGX | DY1DRGX | DY1DRGX_A | CMAX | CMAX | Max Conc | DRUG X | 44.5 | ng/mL | 44.5 | 44.5 | ng/mL | PLASMA | 1 | 2001-02-01T08:35 |", "score": 0.4923, "match_basis": "verbatim_token+domain_route:PP"}, {"md_atom_id": "md_dmPP_ex_a092", "md_file": "knowledge_base/domains/PP/examples.md", "md_atom_type": "TABLE_ROW", "md_parent_section": "§PP [PP — Examples]", "md_verbatim": "| 8 | ABC-123 | PP | ABC-123-0001 | 9 | DY8DRGX | DY8DRGX | DY8DRGX | DY8DRGX | CMAX | Max Conc | DRUG X | 46.0 | ng/mL | 46.0 | 46.0 | ng/mL | PLASMA | 8 | 2001-02-08T08:35 |", "score": 0.4923, "match_basis": "verbatim_token+domain_route:PP"}, {"md_atom_id": "md_dmPP_ex_a085", "md_file": "knowledge_base/domains/PP/examples.md", "md_atom_type": "TABLE_ROW", "md_parent_section": "§PP [PP — Examples]", "md_verbatim": "| 1 | ABC-123 | PP | ABC-123-0001 | 1 | DY1DRGX | DY1DRGX | DY1DRGX_A | TMAX | TMAX | Time of CMAX | DRUG X | 1.87 | h | 1.87 | 1.87 | h | PLASMA | 1 | 2001-02-01T08:35 |", "score": 0.4889, "match_basis": "verbatim_token+domain_route:PP"}, {"md_atom_id": "md_dmPP_ex_a087", "md_file": "knowledge_base/domains/PP/examples.md", "md_atom_type": "TABLE_ROW", "md_parent_section": "§PP [PP — Examples]", "md_verbatim": "| 3 | ABC-123 | PP | ABC-123-0001 | 3 | DY1DRGX | DY1DRGX | DY1DRGX_A | AUC | AUCALL | AUC All | DRUG X | 294.7 | h*ug/mL | 294.7 | 294.7 | h*ug/mL | PLASMA | 1 | 2001-02-01T08:35 |", "score": 0.4889, "match_basis": "verbatim_token+domain_route:PP"}], "candidate_count": 5, "zero_candidate": false}
{"pdf_atom_id": "ig34_p0278_a028", "pdf_atom_type": "TABLE_ROW", "pdf_source": "SDTMIG_v3.4", "pdf_page": 278, "pdf_parent_section": "§6.3.5.9.3 Relating PP Records to PC Records — Example 1", "pdf_verbatim": "26 | ABC-123 | PP | ABC-123-0001 | PPGRPID | DY1DRGX | | 1", "figure_ref": null, "candidates": [{"md_atom_id": "md_dmPP_ex_a086", "md_file": "knowledge_base/domains/PP/examples.md", "md_atom_type": "TABLE_ROW", "md_parent_section": "§PP [PP — Examples]", "md_verbatim": "| 2 | ABC-123 | PP | ABC-123-0001 | 2 | DY1DRGX | DY1DRGX | DY1DRGX_A | CMAX | CMAX | Max Conc | DRUG X | 44.5 | ng/mL | 44.5 | 44.5 | ng/mL | PLASMA | 1 | 2001-02-01T08:35 |", "score": 0.5929, "match_basis": "verbatim_token+domain_route:PP"}, {"md_atom_id": "md_dmPP_ex_a085", "md_file": "knowledge_base/domains/PP/examples.md", "md_atom_type": "TABLE_ROW", "md_parent_section": "§PP [PP — Examples]", "md_verbatim": "| 1 | ABC-123 | PP | ABC-123-0001 | 1 | DY1DRGX | DY1DRGX | DY1DRGX_A | TMAX | TMAX | Time of CMAX | DRUG X | 1.87 | h | 1.87 | 1.87 | h | PLASMA | 1 | 2001-02-01T08:35 |", "score": 0.5862, "match_basis": "verbatim_token+domain_route:PP"}, {"md_atom_id": "md_dmPP_ex_a087", "md_file": "knowledge_base/domains/PP/examples.md", "md_atom_type": "TABLE_ROW", "md_parent_section": "§PP [PP — Examples]", "md_verbatim": "| 3 | ABC-123 | PP | ABC-123-0001 | 3 | DY1DRGX | DY1DRGX | DY1DRGX_A | AUC | AUCALL | AUC All | DRUG X | 294.7 | h*ug/mL | 294.7 | 294.7 | h*ug/mL | PLASMA | 1 | 2001-02-01T08:35 |", "score": 0.5862, "match_basis": "verbatim_token+domain_route:PP"}, {"md_atom_id": "md_dmPP_ex_a089", "md_file": "knowledge_base/domains/PP/examples.md", "md_atom_type": "TABLE_ROW", "md_parent_section": "§PP [PP — Examples]", "md_verbatim": "| 5 | ABC-123 | PP | ABC-123-0001 | 6 | DY1DRGX | DY1DRGX | DY1DRGX_A | OTHER | VZO | Vz Obs | DRUG X | 10.9 | L | 10.9 | 10.9 | L | PLASMA | 1 | 2001-02-01T08:35 |", "score": 0.5862, "match_basis": "verbatim_token+domain_route:PP"}, {"md_atom_id": "md_dmPP_ex_a090", "md_file": "knowledge_base/domains/PP/examples.md", "md_atom_type": "TABLE_ROW", "md_parent_section": "§PP [PP — Examples]", "md_verbatim": "| 6 | ABC-123 | PP | ABC-123-0001 | 7 | DY1DRGX | DY1DRGX | DY1DRGX_A | OTHER | CLO | Total CL Obs | DRUG X | 1.68 | L/h | 1.68 | 1.68 | L/h | PLASMA | 1 | 2001-02-01T08:35 |", "score": 0.5687, "match_basis": "verbatim_token+domain_route:PP"}], "candidate_count": 5, "zero_candidate": false}
{"pdf_atom_id": "ig34_p0278_a029", "pdf_atom_type": "HEADING", "pdf_source": "SDTMIG_v3.4", "pdf_page": 278, "pdf_parent_section": "§6.3.5.9.3 Relating PP Records to PC Records — Example 1", "pdf_verbatim": "Method C (Many to One, Using PCGRPID and PPSEQ)", "figure_ref": null, "candidates": [{"md_atom_id": "md_dmPP_assn_a001", "md_file": "knowledge_base/domains/PP/assumptions.md", "md_atom_type": "HEADING", "md_parent_section": "§PP [PP — Assumptions]", "md_verbatim": "# PP — Assumptions", "score": 0.4, "match_basis": "verbatim_token+domain_route:PP"}, {"md_atom_id": "md_dmPP_ex_a001", "md_file": "knowledge_base/domains/PP/examples.md", "md_atom_type": "HEADING", "md_parent_section": "§PP [PP — Examples]", "md_verbatim": "# PP — Examples", "score": 0.4, "match_basis": "verbatim_token+domain_route:PP"}, {"md_atom_id": "md_dmPP_ex_a004", "md_file": "knowledge_base/domains/PP/examples.md", "md_atom_type": "HEADING", "md_parent_section": "§PP [PP — Examples]", "md_verbatim": "## Example 1", "score": 0.4, "match_basis": "verbatim_token+domain_route:PP"}, {"md_atom_id": "md_dmPP_ex_a044", "md_file": "knowledge_base/domains/PP/examples.md", "md_atom_type": "HEADING", "md_parent_section": "§PP [PP — Examples]", "md_verbatim": "## Example 2", "score": 0.4, "match_basis": "verbatim_token+domain_route:PP"}, {"md_atom_id": "md_dmPP_ex_a059", "md_file": "knowledge_base/domains/PP/examples.md", "md_atom_type": "HEADING", "md_parent_section": "§PP [PP — Examples]", "md_verbatim": "## Example 3", "score": 0.4, "match_basis": "verbatim_token+domain_route:PP"}], "candidate_count": 5, "zero_candidate": false}
{"pdf_atom_id": "ig34_p0278_a030", "pdf_atom_type": "LIST_ITEM", "pdf_source": "SDTMIG_v3.4", "pdf_page": 278, "pdf_parent_section": "§6.3.5.9.3 Relating PP Records to PC Records — Example 1", "pdf_verbatim": "Rows 1-8: The relationship with RELID = \"1\" includes all PC records with a PCGRPID = \"DY1_DRGX\" and PP records with PPSEQ values \"1\" through \"7\".", "figure_ref": null, "candidates": [{"md_atom_id": "md_dmPP_assn_a005", "md_file": "knowledge_base/domains/PP/assumptions.md", "md_atom_type": "LIST_ITEM", "md_parent_section": "§PP [PP — Assumptions]", "md_verbatim": "4. Multiple subset codelists were created for the unique unit expressions of the same concept across codelists. This approach allows study-context appropriate use of unit values for pharmacokinetics (PK) analysis subtypes. Controlled Terminology Rules for PK are available at https://www.cdisc.org/standards/terminology/controlled-terminology.", "score": 0.4391, "match_basis": "verbatim_token+domain_route:PP"}, {"md_atom_id": "md_dmPP_assn_a003", "md_file": "knowledge_base/domains/PP/assumptions.md", "md_atom_type": "LIST_ITEM", "md_parent_section": "§PP [PP — Assumptions]", "md_verbatim": "2. Information pertaining to all parameters (e.g., number of exponents, model weighting) should be submitted in the SUPPPP dataset.", "score": 0.427, "match_basis": "verbatim_token+domain_route:PP"}, {"md_atom_id": "md_dmPP_assn_a004", "md_file": "knowledge_base/domains/PP/assumptions.md", "md_atom_type": "LIST_ITEM", "md_parent_section": "§PP [PP — Assumptions]", "md_verbatim": "3. There are separate codelists used for PPORRESU/PPSTRESU where the choice depends on whether the value of the pharmacokinetic parameter is normalized.\n   a. Codelist \"PKUNIT\" is used for non-normalized parameters.\n   b. Codelists \"PKUDMG\" and \"PKUDUG\" are used when parameters are normalized by dose amount in milligrams or micrograms, respectively.\n   c. Codelists \"PKUWG\" and \"PKUWKG\" are used when parameters are normalized by weight in grams or kilograms, respectively.", "score": 0.4256, "match_basis": "verbatim_token+domain_route:PP"}, {"md_atom_id": "md_dmPP_assn_a002", "md_file": "knowledge_base/domains/PP/assumptions.md", "md_atom_type": "LIST_ITEM", "md_parent_section": "§PP [PP — Assumptions]", "md_verbatim": "1. Pharmacokinetics Parameters is a derived dataset, and may be produced from an analysis dataset with a different structure. As a result, some sponsors may need to normalize their analysis dataset in order for it to fit into the SDTM-based PP domain.", "score": 0.4248, "match_basis": "verbatim_token+domain_route:PP"}, {"md_atom_id": "md_dmPP_assn_a006", "md_file": "knowledge_base/domains/PP/assumptions.md", "md_atom_type": "LIST_ITEM", "md_parent_section": "§PP [PP — Assumptions]", "md_verbatim": "5. Any Identifiers, Timing variables, or Findings general observation class qualifiers may be added to the PP domain, but the following qualifiers would not generally be used: --BODSYS, --SEV.", "score": 0.4248, "match_basis": "verbatim_token+domain_route:PP"}], "candidate_count": 5, "zero_candidate": false}
{"pdf_atom_id": "ig34_p0278_a031", "pdf_atom_type": "LIST_ITEM", "pdf_source": "SDTMIG_v3.4", "pdf_page": 278, "pdf_parent_section": "§6.3.5.9.3 Relating PP Records to PC Records — Example 1", "pdf_verbatim": "Rows 9-16: The relationship with RELID = \"2\" includes all PC records with a PCGRPID = \"DY8_DRGX\" and PP records with PPSEQ values of \"8\" through \"14\".", "figure_ref": null, "candidates": [{"md_atom_id": "md_dmPP_assn_a005", "md_file": "knowledge_base/domains/PP/assumptions.md", "md_atom_type": "LIST_ITEM", "md_parent_section": "§PP [PP — Assumptions]", "md_verbatim": "4. Multiple subset codelists were created for the unique unit expressions of the same concept across codelists. This approach allows study-context appropriate use of unit values for pharmacokinetics (PK) analysis subtypes. Controlled Terminology Rules for PK are available at https://www.cdisc.org/standards/terminology/controlled-terminology.", "score": 0.4391, "match_basis": "verbatim_token+domain_route:PP"}, {"md_atom_id": "md_dmPP_assn_a003", "md_file": "knowledge_base/domains/PP/assumptions.md", "md_atom_type": "LIST_ITEM", "md_parent_section": "§PP [PP — Assumptions]", "md_verbatim": "2. Information pertaining to all parameters (e.g., number of exponents, model weighting) should be submitted in the SUPPPP dataset.", "score": 0.427, "match_basis": "verbatim_token+domain_route:PP"}, {"md_atom_id": "md_dmPP_assn_a004", "md_file": "knowledge_base/domains/PP/assumptions.md", "md_atom_type": "LIST_ITEM", "md_parent_section": "§PP [PP — Assumptions]", "md_verbatim": "3. There are separate codelists used for PPORRESU/PPSTRESU where the choice depends on whether the value of the pharmacokinetic parameter is normalized.\n   a. Codelist \"PKUNIT\" is used for non-normalized parameters.\n   b. Codelists \"PKUDMG\" and \"PKUDUG\" are used when parameters are normalized by dose amount in milligrams or micrograms, respectively.\n   c. Codelists \"PKUWG\" and \"PKUWKG\" are used when parameters are normalized by weight in grams or kilograms, respectively.", "score": 0.4256, "match_basis": "verbatim_token+domain_route:PP"}, {"md_atom_id": "md_dmPP_assn_a002", "md_file": "knowledge_base/domains/PP/assumptions.md", "md_atom_type": "LIST_ITEM", "md_parent_section": "§PP [PP — Assumptions]", "md_verbatim": "1. Pharmacokinetics Parameters is a derived dataset, and may be produced from an analysis dataset with a different structure. As a result, some sponsors may need to normalize their analysis dataset in order for it to fit into the SDTM-based PP domain.", "score": 0.4248, "match_basis": "verbatim_token+domain_route:PP"}, {"md_atom_id": "md_dmPP_assn_a006", "md_file": "knowledge_base/domains/PP/assumptions.md", "md_atom_type": "LIST_ITEM", "md_parent_section": "§PP [PP — Assumptions]", "md_verbatim": "5. Any Identifiers, Timing variables, or Findings general observation class qualifiers may be added to the PP domain, but the following qualifiers would not generally be used: --BODSYS, --SEV.", "score": 0.4248, "match_basis": "verbatim_token+domain_route:PP"}], "candidate_count": 5, "zero_candidate": false}
{"pdf_atom_id": "ig34_p0278_a032", "pdf_atom_type": "CODE_LITERAL", "pdf_source": "SDTMIG_v3.4", "pdf_page": 278, "pdf_parent_section": "§6.3.5.9.3 Relating PP Records to PC Records — Example 1", "pdf_verbatim": "relrec.xpt", "figure_ref": null, "candidates": [{"md_atom_id": "md_dmPP_ex_a008", "md_file": "knowledge_base/domains/PP/examples.md", "md_atom_type": "SENTENCE", "md_parent_section": "§PP.1 [Example 1]", "md_verbatim": "**pp.xpt**", "score": 0.31, "match_basis": "verbatim_token+domain_route:PP"}, {"md_atom_id": "md_dmPP_ex_a050", "md_file": "knowledge_base/domains/PP/examples.md", "md_atom_type": "SENTENCE", "md_parent_section": "§PP.2 [Example 2]", "md_verbatim": "**pp.xpt**", "score": 0.31, "match_basis": "verbatim_token+domain_route:PP"}, {"md_atom_id": "md_dmPP_ex_a063", "md_file": "knowledge_base/domains/PP/examples.md", "md_atom_type": "SENTENCE", "md_parent_section": "§PP.3 [Example 3]", "md_verbatim": "**pp.xpt**", "score": 0.31, "match_basis": "verbatim_token+domain_route:PP"}, {"md_atom_id": "md_dmPP_ex_a083", "md_file": "knowledge_base/domains/PP/examples.md", "md_atom_type": "SENTENCE", "md_parent_section": "§PP [PP — Examples]", "md_verbatim": "**pp.xpt**", "score": 0.31, "match_basis": "verbatim_token+domain_route:PP"}, {"md_atom_id": "md_dmPP_ex_a081", "md_file": "knowledge_base/domains/PP/examples.md", "md_atom_type": "HEADING", "md_parent_section": "§PP [PP — Examples]", "md_verbatim": "## Shared PP Dataset for RELREC Examples", "score": 0.3043, "match_basis": "verbatim_token+domain_route:PP"}, {"md_atom_id": "md_dmPP_ex_a035", "md_file": "knowledge_base/domains/PP/examples.md", "md_atom_type": "SENTENCE", "md_parent_section": "§PP.1 [Example 1]", "md_verbatim": "**supppp.xpt**", "score": 0.265, "match_basis": "verbatim_token+domain_route:PP"}, {"md_atom_id": "md_dmPP_ex_a097", "md_file": "knowledge_base/domains/PP/examples.md", "md_atom_type": "SENTENCE", "md_parent_section": "§PP [PP — Examples]", "md_verbatim": "*See PC examples for the full description of RELREC Methods A through D and their corresponding relrec.xpt tables.*", "score": 0.2477, "match_basis": "verbatim_token+domain_route:PP"}, {"md_atom_id": "md_dmPP_ex_a002", "md_file": "knowledge_base/domains/PP/examples.md", "md_atom_type": "SENTENCE", "md_parent_section": "§PP [PP — Examples]", "md_verbatim": "*Note: PC and PP share a combined examples section (6.3.5.9.3 Relating PP Records to PC Records). The PP parameter data tables are shown here; see also PC examples for the concentration data and detailed RELREC method descriptions.*", "score": 0.2186, "match_basis": "verbatim_token+domain_route:PP"}, {"md_atom_id": "md_dmPP_ex_a082", "md_file": "knowledge_base/domains/PP/examples.md", "md_atom_type": "SENTENCE", "md_parent_section": "§PP [PP — Examples]", "md_verbatim": "The shared PP dataset contains 12 rows showing PK parameters (TMAX, CMAX, AUCALL, LAMZHL, VZO, CLO) for Drug X (STUDYDRUG analyte) across Day 1 and Day 8, with 4 PPGRPID columns showing the grouping values for the 4 RELREC method examples described in the PC examples section.", "score": 0.2118, "match_basis": "verbatim_token+domain_route:PP"}, {"md_atom_id": "md_dmPP_ex_a005", "md_file": "knowledge_base/domains/PP/examples.md", "md_atom_type": "SENTENCE", "md_parent_section": "§PP.1 [Example 1]", "md_verbatim": "This example shows PK parameters calculated from time-concentration profiles for the parent drug and 1 metabolite in plasma and urine for one subject. Note that PPRFDTC is populated in order to link the PP records to the respective PC records. In this example, PPSPEC is null for observed total clearance (PPTESTCD = \"CLO\") records because it is calculated from multiple specimen sources (i.e., plasma and urine).", "score": 0.194, "match_basis": "verbatim_token+domain_route:PP"}], "candidate_count": 10, "zero_candidate": false}
{"pdf_atom_id": "ig34_p0278_a033", "pdf_atom_type": "TABLE_HEADER", "pdf_source": "SDTMIG_v3.4", "pdf_page": 278, "pdf_parent_section": "§6.3.5.9.3 Relating PP Records to PC Records — Example 1", "pdf_verbatim": "Row | STUDYID | RDOMAIN | USUBJID | IDVAR | IDVARVAL | RELTYPE | RELID", "figure_ref": null, "candidates": [{"md_atom_id": "md_dmPP_ex_a036", "md_file": "knowledge_base/domains/PP/examples.md", "md_atom_type": "TABLE_HEADER", "md_parent_section": "§PP.1 [Example 1]", "md_verbatim": "| Row | STUDYID | RDOMAIN | USUBJID | IDVAR | IDVARVAL | QNAM | QLABEL | QVAL | QORIG | QEVAL |\n|-----|---------|---------|---------|-------|----------|------|--------|------|-------|-------|", "score": 0.722, "match_basis": "verbatim_token+domain_route:PP"}, {"md_atom_id": "md_dmPP_ex_a009", "md_file": "knowledge_base/domains/PP/examples.md", "md_atom_type": "TABLE_HEADER", "md_parent_section": "§PP.1 [Example 1]", "md_verbatim": "| Row | STUDYID | DOMAIN | USUBJID | PPSEQ | PPGRPID | PPTESTCD | PPTEST | PPCAT | PPORRES | PPORRESU | PPSTRESC | PPSTRESN | PPSTRESU | PPSPEC | VISITNUM | VISIT | PPDTC | PPRFDTC |\n|-----|---------|--------|---------|-------|---------|----------|--------|-------|---------|----------|----------|----------|----------|--------|----------|-------|-------|---------|", "score": 0.5233, "match_basis": "verbatim_token+domain_route:PP"}, {"md_atom_id": "md_dmPP_ex_a084", "md_file": "knowledge_base/domains/PP/examples.md", "md_atom_type": "TABLE_HEADER", "md_parent_section": "§PP [PP — Examples]", "md_verbatim": "| Row | STUDYID | DOMAIN | USUBJID | PPSEQ | PPGRPID (Example 1) | PPGRPID (Example 2) | PPGRPID (Example 3) | PPGRPID (Example 4) | PPTESTCD | PPTEST | PPCAT | PPORRES | PPORRESU | PPSTRESC | PPSTRESN | PPSTRESU | PPSPEC | PPNOMDY | PPRFDTC |\n|-----|---------|--------|---------|-------|---------------------|---------------------|---------------------|---------------------|----------|--------|-------|---------|----------|----------|----------|----------|--------|---------|---------|", "score": 0.52, "match_basis": "verbatim_token+domain_route:PP"}, {"md_atom_id": "md_dmPP_ex_a051", "md_file": "knowledge_base/domains/PP/examples.md", "md_atom_type": "TABLE_HEADER", "md_parent_section": "§PP.2 [Example 2]", "md_verbatim": "| Row | STUDYID | DOMAIN | USUBJID | PPSEQ | PPRFID | PPTESTCD | PPTEST | PPCAT | PPSCAT | PPORRES | PPORRESU | PPSTRESC | PPSTRESN | PPSTRESU | PPSPEC | PPANMETH | PPFAST | PPNOMDY | PPRFDTC |\n|-----|---------|--------|---------|-------|--------|----------|--------|-------|--------|---------|----------|----------|----------|----------|--------|----------|--------|---------|---------|", "score": 0.5139, "match_basis": "verbatim_token+domain_route:PP"}, {"md_atom_id": "md_dmPP_ex_a064", "md_file": "knowledge_base/domains/PP/examples.md", "md_atom_type": "TABLE_HEADER", "md_parent_section": "§PP.3 [Example 3]", "md_verbatim": "| Row | STUDYID | DOMAIN | USUBJID | PPSEQ | PPGRPID | PPTESTCD | PPTEST | PPCAT | PPORRES | PPORRESU | PPSTRESC | PPSTRESN | PPSTRESU | PPSPEC | VISITNUM | VISIT | PPDTC | PPRFDTC | PPSTINT | PPENINT |\n|-----|---------|--------|---------|-------|---------|----------|--------|-------|---------|----------|----------|----------|----------|--------|----------|-------|-------|---------|---------|---------|", "score": 0.5125, "match_basis": "verbatim_token+domain_route:PP"}], "candidate_count": 5, "zero_candidate": false}
{"pdf_atom_id": "ig34_p0278_a034", "pdf_atom_type": "TABLE_ROW", "pdf_source": "SDTMIG_v3.4", "pdf_page": 278, "pdf_parent_section": "§6.3.5.9.3 Relating PP Records to PC Records — Example 1", "pdf_verbatim": "1 | ABC-123 | PC | ABC-123-0001 | PCGRPID | DY1_DRGX | | 1", "figure_ref": null, "candidates": [{"md_atom_id": "md_dmPP_ex_a086", "md_file": "knowledge_base/domains/PP/examples.md", "md_atom_type": "TABLE_ROW", "md_parent_section": "§PP [PP — Examples]", "md_verbatim": "| 2 | ABC-123 | PP | ABC-123-0001 | 2 | DY1DRGX | DY1DRGX | DY1DRGX_A | CMAX | CMAX | Max Conc | DRUG X | 44.5 | ng/mL | 44.5 | 44.5 | ng/mL | PLASMA | 1 | 2001-02-01T08:35 |", "score": 0.55, "match_basis": "verbatim_token+domain_route:PP"}, {"md_atom_id": "md_dmPP_ex_a085", "md_file": "knowledge_base/domains/PP/examples.md", "md_atom_type": "TABLE_ROW", "md_parent_section": "§PP [PP — Examples]", "md_verbatim": "| 1 | ABC-123 | PP | ABC-123-0001 | 1 | DY1DRGX | DY1DRGX | DY1DRGX_A | TMAX | TMAX | Time of CMAX | DRUG X | 1.87 | h | 1.87 | 1.87 | h | PLASMA | 1 | 2001-02-01T08:35 |", "score": 0.5448, "match_basis": "verbatim_token+domain_route:PP"}, {"md_atom_id": "md_dmPP_ex_a087", "md_file": "knowledge_base/domains/PP/examples.md", "md_atom_type": "TABLE_ROW", "md_parent_section": "§PP [PP — Examples]", "md_verbatim": "| 3 | ABC-123 | PP | ABC-123-0001 | 3 | DY1DRGX | DY1DRGX | DY1DRGX_A | AUC | AUCALL | AUC All | DRUG X | 294.7 | h*ug/mL | 294.7 | 294.7 | h*ug/mL | PLASMA | 1 | 2001-02-01T08:35 |", "score": 0.5448, "match_basis": "verbatim_token+domain_route:PP"}, {"md_atom_id": "md_dmPP_ex_a089", "md_file": "knowledge_base/domains/PP/examples.md", "md_atom_type": "TABLE_ROW", "md_parent_section": "§PP [PP — Examples]", "md_verbatim": "| 5 | ABC-123 | PP | ABC-123-0001 | 6 | DY1DRGX | DY1DRGX | DY1DRGX_A | OTHER | VZO | Vz Obs | DRUG X | 10.9 | L | 10.9 | 10.9 | L | PLASMA | 1 | 2001-02-01T08:35 |", "score": 0.5448, "match_basis": "verbatim_token+domain_route:PP"}, {"md_atom_id": "md_dmPP_ex_a095", "md_file": "knowledge_base/domains/PP/examples.md", "md_atom_type": "TABLE_ROW", "md_parent_section": "§PP [PP — Examples]", "md_verbatim": "| 11 | ABC-123 | PP | ABC-123-0001 | 13 | DY8DRGX | DY8DRGX | DY8DRGX | DY8DRGX | VZO | Vz Obs | DRUG X | 10.7 | L | 10.7 | 10.7 | L | PLASMA | 8 | 2001-02-08T08:35 |", "score": 0.5333, "match_basis": "verbatim_token+domain_route:PP"}], "candidate_count": 5, "zero_candidate": false}
{"pdf_atom_id": "ig34_p0278_a035", "pdf_atom_type": "TABLE_ROW", "pdf_source": "SDTMIG_v3.4", "pdf_page": 278, "pdf_parent_section": "§6.3.5.9.3 Relating PP Records to PC Records — Example 1", "pdf_verbatim": "2 | ABC-123 | PP | ABC-123-0001 | PPSEQ | 1 | | 1", "figure_ref": null, "candidates": [{"md_atom_id": "md_dmPP_ex_a043", "md_file": "knowledge_base/domains/PP/examples.md", "md_atom_type": "TABLE_ROW", "md_parent_section": "§PP.1 [Example 1]", "md_verbatim": "| 7 | ABC-123 | PP | 123-1001 | PPSEQ | 7 | PKCOND | Condition of PK Analysis | SINGLE DOSE | Collected | |", "score": 0.5, "match_basis": "verbatim_token+domain_route:PP"}, {"md_atom_id": "md_dmPP_ex_a095", "md_file": "knowledge_base/domains/PP/examples.md", "md_atom_type": "TABLE_ROW", "md_parent_section": "§PP [PP — Examples]", "md_verbatim": "| 11 | ABC-123 | PP | ABC-123-0001 | 13 | DY8DRGX | DY8DRGX | DY8DRGX | DY8DRGX | VZO | Vz Obs | DRUG X | 10.7 | L | 10.7 | 10.7 | L | PLASMA | 8 | 2001-02-08T08:35 |", "score": 0.5, "match_basis": "verbatim_token+domain_route:PP"}, {"md_atom_id": "md_dmPP_ex_a086", "md_file": "knowledge_base/domains/PP/examples.md", "md_atom_type": "TABLE_ROW", "md_parent_section": "§PP [PP — Examples]", "md_verbatim": "| 2 | ABC-123 | PP | ABC-123-0001 | 2 | DY1DRGX | DY1DRGX | DY1DRGX_A | CMAX | CMAX | Max Conc | DRUG X | 44.5 | ng/mL | 44.5 | 44.5 | ng/mL | PLASMA | 1 | 2001-02-01T08:35 |", "score": 0.4923, "match_basis": "verbatim_token+domain_route:PP"}, {"md_atom_id": "md_dmPP_ex_a092", "md_file": "knowledge_base/domains/PP/examples.md", "md_atom_type": "TABLE_ROW", "md_parent_section": "§PP [PP — Examples]", "md_verbatim": "| 8 | ABC-123 | PP | ABC-123-0001 | 9 | DY8DRGX | DY8DRGX | DY8DRGX | DY8DRGX | CMAX | Max Conc | DRUG X | 46.0 | ng/mL | 46.0 | 46.0 | ng/mL | PLASMA | 8 | 2001-02-08T08:35 |", "score": 0.4923, "match_basis": "verbatim_token+domain_route:PP"}, {"md_atom_id": "md_dmPP_ex_a085", "md_file": "knowledge_base/domains/PP/examples.md", "md_atom_type": "TABLE_ROW", "md_parent_section": "§PP [PP — Examples]", "md_verbatim": "| 1 | ABC-123 | PP | ABC-123-0001 | 1 | DY1DRGX | DY1DRGX | DY1DRGX_A | TMAX | TMAX | Time of CMAX | DRUG X | 1.87 | h | 1.87 | 1.87 | h | PLASMA | 1 | 2001-02-01T08:35 |", "score": 0.4889, "match_basis": "verbatim_token+domain_route:PP"}], "candidate_count": 5, "zero_candidate": false}
{"pdf_atom_id": "ig34_p0278_a036", "pdf_atom_type": "TABLE_ROW", "pdf_source": "SDTMIG_v3.4", "pdf_page": 278, "pdf_parent_section": "§6.3.5.9.3 Relating PP Records to PC Records — Example 1", "pdf_verbatim": "3 | ABC-123 | PP | ABC-123-0001 | PPSEQ | 2 | | 1", "figure_ref": null, "candidates": [{"md_atom_id": "md_dmPP_ex_a043", "md_file": "knowledge_base/domains/PP/examples.md", "md_atom_type": "TABLE_ROW", "md_parent_section": "§PP.1 [Example 1]", "md_verbatim": "| 7 | ABC-123 | PP | 123-1001 | PPSEQ | 7 | PKCOND | Condition of PK Analysis | SINGLE DOSE | Collected | |", "score": 0.5, "match_basis": "verbatim_token+domain_route:PP"}, {"md_atom_id": "md_dmPP_ex_a095", "md_file": "knowledge_base/domains/PP/examples.md", "md_atom_type": "TABLE_ROW", "md_parent_section": "§PP [PP — Examples]", "md_verbatim": "| 11 | ABC-123 | PP | ABC-123-0001 | 13 | DY8DRGX | DY8DRGX | DY8DRGX | DY8DRGX | VZO | Vz Obs | DRUG X | 10.7 | L | 10.7 | 10.7 | L | PLASMA | 8 | 2001-02-08T08:35 |", "score": 0.5, "match_basis": "verbatim_token+domain_route:PP"}, {"md_atom_id": "md_dmPP_ex_a086", "md_file": "knowledge_base/domains/PP/examples.md", "md_atom_type": "TABLE_ROW", "md_parent_section": "§PP [PP — Examples]", "md_verbatim": "| 2 | ABC-123 | PP | ABC-123-0001 | 2 | DY1DRGX | DY1DRGX | DY1DRGX_A | CMAX | CMAX | Max Conc | DRUG X | 44.5 | ng/mL | 44.5 | 44.5 | ng/mL | PLASMA | 1 | 2001-02-01T08:35 |", "score": 0.4923, "match_basis": "verbatim_token+domain_route:PP"}, {"md_atom_id": "md_dmPP_ex_a092", "md_file": "knowledge_base/domains/PP/examples.md", "md_atom_type": "TABLE_ROW", "md_parent_section": "§PP [PP — Examples]", "md_verbatim": "| 8 | ABC-123 | PP | ABC-123-0001 | 9 | DY8DRGX | DY8DRGX | DY8DRGX | DY8DRGX | CMAX | Max Conc | DRUG X | 46.0 | ng/mL | 46.0 | 46.0 | ng/mL | PLASMA | 8 | 2001-02-08T08:35 |", "score": 0.4923, "match_basis": "verbatim_token+domain_route:PP"}, {"md_atom_id": "md_dmPP_ex_a085", "md_file": "knowledge_base/domains/PP/examples.md", "md_atom_type": "TABLE_ROW", "md_parent_section": "§PP [PP — Examples]", "md_verbatim": "| 1 | ABC-123 | PP | ABC-123-0001 | 1 | DY1DRGX | DY1DRGX | DY1DRGX_A | TMAX | TMAX | Time of CMAX | DRUG X | 1.87 | h | 1.87 | 1.87 | h | PLASMA | 1 | 2001-02-01T08:35 |", "score": 0.4889, "match_basis": "verbatim_token+domain_route:PP"}], "candidate_count": 5, "zero_candidate": false}
{"pdf_atom_id": "ig34_p0278_a037", "pdf_atom_type": "TABLE_ROW", "pdf_source": "SDTMIG_v3.4", "pdf_page": 278, "pdf_parent_section": "§6.3.5.9.3 Relating PP Records to PC Records — Example 1", "pdf_verbatim": "4 | ABC-123 | PP | ABC-123-0001 | PPSEQ | 3 | | 1", "figure_ref": null, "candidates": [{"md_atom_id": "md_dmPP_ex_a043", "md_file": "knowledge_base/domains/PP/examples.md", "md_atom_type": "TABLE_ROW", "md_parent_section": "§PP.1 [Example 1]", "md_verbatim": "| 7 | ABC-123 | PP | 123-1001 | PPSEQ | 7 | PKCOND | Condition of PK Analysis | SINGLE DOSE | Collected | |", "score": 0.5, "match_basis": "verbatim_token+domain_route:PP"}, {"md_atom_id": "md_dmPP_ex_a095", "md_file": "knowledge_base/domains/PP/examples.md", "md_atom_type": "TABLE_ROW", "md_parent_section": "§PP [PP — Examples]", "md_verbatim": "| 11 | ABC-123 | PP | ABC-123-0001 | 13 | DY8DRGX | DY8DRGX | DY8DRGX | DY8DRGX | VZO | Vz Obs | DRUG X | 10.7 | L | 10.7 | 10.7 | L | PLASMA | 8 | 2001-02-08T08:35 |", "score": 0.5, "match_basis": "verbatim_token+domain_route:PP"}, {"md_atom_id": "md_dmPP_ex_a086", "md_file": "knowledge_base/domains/PP/examples.md", "md_atom_type": "TABLE_ROW", "md_parent_section": "§PP [PP — Examples]", "md_verbatim": "| 2 | ABC-123 | PP | ABC-123-0001 | 2 | DY1DRGX | DY1DRGX | DY1DRGX_A | CMAX | CMAX | Max Conc | DRUG X | 44.5 | ng/mL | 44.5 | 44.5 | ng/mL | PLASMA | 1 | 2001-02-01T08:35 |", "score": 0.4923, "match_basis": "verbatim_token+domain_route:PP"}, {"md_atom_id": "md_dmPP_ex_a092", "md_file": "knowledge_base/domains/PP/examples.md", "md_atom_type": "TABLE_ROW", "md_parent_section": "§PP [PP — Examples]", "md_verbatim": "| 8 | ABC-123 | PP | ABC-123-0001 | 9 | DY8DRGX | DY8DRGX | DY8DRGX | DY8DRGX | CMAX | Max Conc | DRUG X | 46.0 | ng/mL | 46.0 | 46.0 | ng/mL | PLASMA | 8 | 2001-02-08T08:35 |", "score": 0.4923, "match_basis": "verbatim_token+domain_route:PP"}, {"md_atom_id": "md_dmPP_ex_a085", "md_file": "knowledge_base/domains/PP/examples.md", "md_atom_type": "TABLE_ROW", "md_parent_section": "§PP [PP — Examples]", "md_verbatim": "| 1 | ABC-123 | PP | ABC-123-0001 | 1 | DY1DRGX | DY1DRGX | DY1DRGX_A | TMAX | TMAX | Time of CMAX | DRUG X | 1.87 | h | 1.87 | 1.87 | h | PLASMA | 1 | 2001-02-01T08:35 |", "score": 0.4889, "match_basis": "verbatim_token+domain_route:PP"}], "candidate_count": 5, "zero_candidate": false}
{"pdf_atom_id": "ig34_p0278_a038", "pdf_atom_type": "TABLE_ROW", "pdf_source": "SDTMIG_v3.4", "pdf_page": 278, "pdf_parent_section": "§6.3.5.9.3 Relating PP Records to PC Records — Example 1", "pdf_verbatim": "5 | ABC-123 | PP | ABC-123-0001 | PPSEQ | 4 | | 1", "figure_ref": null, "candidates": [{"md_atom_id": "md_dmPP_ex_a043", "md_file": "knowledge_base/domains/PP/examples.md", "md_atom_type": "TABLE_ROW", "md_parent_section": "§PP.1 [Example 1]", "md_verbatim": "| 7 | ABC-123 | PP | 123-1001 | PPSEQ | 7 | PKCOND | Condition of PK Analysis | SINGLE DOSE | Collected | |", "score": 0.5, "match_basis": "verbatim_token+domain_route:PP"}, {"md_atom_id": "md_dmPP_ex_a095", "md_file": "knowledge_base/domains/PP/examples.md", "md_atom_type": "TABLE_ROW", "md_parent_section": "§PP [PP — Examples]", "md_verbatim": "| 11 | ABC-123 | PP | ABC-123-0001 | 13 | DY8DRGX | DY8DRGX | DY8DRGX | DY8DRGX | VZO | Vz Obs | DRUG X | 10.7 | L | 10.7 | 10.7 | L | PLASMA | 8 | 2001-02-08T08:35 |", "score": 0.5, "match_basis": "verbatim_token+domain_route:PP"}, {"md_atom_id": "md_dmPP_ex_a086", "md_file": "knowledge_base/domains/PP/examples.md", "md_atom_type": "TABLE_ROW", "md_parent_section": "§PP [PP — Examples]", "md_verbatim": "| 2 | ABC-123 | PP | ABC-123-0001 | 2 | DY1DRGX | DY1DRGX | DY1DRGX_A | CMAX | CMAX | Max Conc | DRUG X | 44.5 | ng/mL | 44.5 | 44.5 | ng/mL | PLASMA | 1 | 2001-02-01T08:35 |", "score": 0.4923, "match_basis": "verbatim_token+domain_route:PP"}, {"md_atom_id": "md_dmPP_ex_a092", "md_file": "knowledge_base/domains/PP/examples.md", "md_atom_type": "TABLE_ROW", "md_parent_section": "§PP [PP — Examples]", "md_verbatim": "| 8 | ABC-123 | PP | ABC-123-0001 | 9 | DY8DRGX | DY8DRGX | DY8DRGX | DY8DRGX | CMAX | Max Conc | DRUG X | 46.0 | ng/mL | 46.0 | 46.0 | ng/mL | PLASMA | 8 | 2001-02-08T08:35 |", "score": 0.4923, "match_basis": "verbatim_token+domain_route:PP"}, {"md_atom_id": "md_dmPP_ex_a085", "md_file": "knowledge_base/domains/PP/examples.md", "md_atom_type": "TABLE_ROW", "md_parent_section": "§PP [PP — Examples]", "md_verbatim": "| 1 | ABC-123 | PP | ABC-123-0001 | 1 | DY1DRGX | DY1DRGX | DY1DRGX_A | TMAX | TMAX | Time of CMAX | DRUG X | 1.87 | h | 1.87 | 1.87 | h | PLASMA | 1 | 2001-02-01T08:35 |", "score": 0.4889, "match_basis": "verbatim_token+domain_route:PP"}], "candidate_count": 5, "zero_candidate": false}
{"pdf_atom_id": "ig34_p0278_a039", "pdf_atom_type": "TABLE_ROW", "pdf_source": "SDTMIG_v3.4", "pdf_page": 278, "pdf_parent_section": "§6.3.5.9.3 Relating PP Records to PC Records — Example 1", "pdf_verbatim": "6 | ABC-123 | PP | ABC-123-0001 | PPSEQ | 5 | | 1", "figure_ref": null, "candidates": [{"md_atom_id": "md_dmPP_ex_a043", "md_file": "knowledge_base/domains/PP/examples.md", "md_atom_type": "TABLE_ROW", "md_parent_section": "§PP.1 [Example 1]", "md_verbatim": "| 7 | ABC-123 | PP | 123-1001 | PPSEQ | 7 | PKCOND | Condition of PK Analysis | SINGLE DOSE | Collected | |", "score": 0.5, "match_basis": "verbatim_token+domain_route:PP"}, {"md_atom_id": "md_dmPP_ex_a095", "md_file": "knowledge_base/domains/PP/examples.md", "md_atom_type": "TABLE_ROW", "md_parent_section": "§PP [PP — Examples]", "md_verbatim": "| 11 | ABC-123 | PP | ABC-123-0001 | 13 | DY8DRGX | DY8DRGX | DY8DRGX | DY8DRGX | VZO | Vz Obs | DRUG X | 10.7 | L | 10.7 | 10.7 | L | PLASMA | 8 | 2001-02-08T08:35 |", "score": 0.5, "match_basis": "verbatim_token+domain_route:PP"}, {"md_atom_id": "md_dmPP_ex_a086", "md_file": "knowledge_base/domains/PP/examples.md", "md_atom_type": "TABLE_ROW", "md_parent_section": "§PP [PP — Examples]", "md_verbatim": "| 2 | ABC-123 | PP | ABC-123-0001 | 2 | DY1DRGX | DY1DRGX | DY1DRGX_A | CMAX | CMAX | Max Conc | DRUG X | 44.5 | ng/mL | 44.5 | 44.5 | ng/mL | PLASMA | 1 | 2001-02-01T08:35 |", "score": 0.4923, "match_basis": "verbatim_token+domain_route:PP"}, {"md_atom_id": "md_dmPP_ex_a092", "md_file": "knowledge_base/domains/PP/examples.md", "md_atom_type": "TABLE_ROW", "md_parent_section": "§PP [PP — Examples]", "md_verbatim": "| 8 | ABC-123 | PP | ABC-123-0001 | 9 | DY8DRGX | DY8DRGX | DY8DRGX | DY8DRGX | CMAX | Max Conc | DRUG X | 46.0 | ng/mL | 46.0 | 46.0 | ng/mL | PLASMA | 8 | 2001-02-08T08:35 |", "score": 0.4923, "match_basis": "verbatim_token+domain_route:PP"}, {"md_atom_id": "md_dmPP_ex_a085", "md_file": "knowledge_base/domains/PP/examples.md", "md_atom_type": "TABLE_ROW", "md_parent_section": "§PP [PP — Examples]", "md_verbatim": "| 1 | ABC-123 | PP | ABC-123-0001 | 1 | DY1DRGX | DY1DRGX | DY1DRGX_A | TMAX | TMAX | Time of CMAX | DRUG X | 1.87 | h | 1.87 | 1.87 | h | PLASMA | 1 | 2001-02-01T08:35 |", "score": 0.4889, "match_basis": "verbatim_token+domain_route:PP"}], "candidate_count": 5, "zero_candidate": false}
{"pdf_atom_id": "ig34_p0278_a040", "pdf_atom_type": "TABLE_ROW", "pdf_source": "SDTMIG_v3.4", "pdf_page": 278, "pdf_parent_section": "§6.3.5.9.3 Relating PP Records to PC Records — Example 1", "pdf_verbatim": "7 | ABC-123 | PP | ABC-123-0001 | PPSEQ | 6 | | 1", "figure_ref": null, "candidates": [{"md_atom_id": "md_dmPP_ex_a043", "md_file": "knowledge_base/domains/PP/examples.md", "md_atom_type": "TABLE_ROW", "md_parent_section": "§PP.1 [Example 1]", "md_verbatim": "| 7 | ABC-123 | PP | 123-1001 | PPSEQ | 7 | PKCOND | Condition of PK Analysis | SINGLE DOSE | Collected | |", "score": 0.5, "match_basis": "verbatim_token+domain_route:PP"}, {"md_atom_id": "md_dmPP_ex_a095", "md_file": "knowledge_base/domains/PP/examples.md", "md_atom_type": "TABLE_ROW", "md_parent_section": "§PP [PP — Examples]", "md_verbatim": "| 11 | ABC-123 | PP | ABC-123-0001 | 13 | DY8DRGX | DY8DRGX | DY8DRGX | DY8DRGX | VZO | Vz Obs | DRUG X | 10.7 | L | 10.7 | 10.7 | L | PLASMA | 8 | 2001-02-08T08:35 |", "score": 0.5, "match_basis": "verbatim_token+domain_route:PP"}, {"md_atom_id": "md_dmPP_ex_a086", "md_file": "knowledge_base/domains/PP/examples.md", "md_atom_type": "TABLE_ROW", "md_parent_section": "§PP [PP — Examples]", "md_verbatim": "| 2 | ABC-123 | PP | ABC-123-0001 | 2 | DY1DRGX | DY1DRGX | DY1DRGX_A | CMAX | CMAX | Max Conc | DRUG X | 44.5 | ng/mL | 44.5 | 44.5 | ng/mL | PLASMA | 1 | 2001-02-01T08:35 |", "score": 0.4923, "match_basis": "verbatim_token+domain_route:PP"}, {"md_atom_id": "md_dmPP_ex_a092", "md_file": "knowledge_base/domains/PP/examples.md", "md_atom_type": "TABLE_ROW", "md_parent_section": "§PP [PP — Examples]", "md_verbatim": "| 8 | ABC-123 | PP | ABC-123-0001 | 9 | DY8DRGX | DY8DRGX | DY8DRGX | DY8DRGX | CMAX | Max Conc | DRUG X | 46.0 | ng/mL | 46.0 | 46.0 | ng/mL | PLASMA | 8 | 2001-02-08T08:35 |", "score": 0.4923, "match_basis": "verbatim_token+domain_route:PP"}, {"md_atom_id": "md_dmPP_ex_a085", "md_file": "knowledge_base/domains/PP/examples.md", "md_atom_type": "TABLE_ROW", "md_parent_section": "§PP [PP — Examples]", "md_verbatim": "| 1 | ABC-123 | PP | ABC-123-0001 | 1 | DY1DRGX | DY1DRGX | DY1DRGX_A | TMAX | TMAX | Time of CMAX | DRUG X | 1.87 | h | 1.87 | 1.87 | h | PLASMA | 1 | 2001-02-01T08:35 |", "score": 0.4889, "match_basis": "verbatim_token+domain_route:PP"}], "candidate_count": 5, "zero_candidate": false}
{"pdf_atom_id": "ig34_p0278_a041", "pdf_atom_type": "TABLE_ROW", "pdf_source": "SDTMIG_v3.4", "pdf_page": 278, "pdf_parent_section": "§6.3.5.9.3 Relating PP Records to PC Records — Example 1", "pdf_verbatim": "8 | ABC-123 | PP | ABC-123-0001 | PPSEQ | 7 | | 1", "figure_ref": null, "candidates": [{"md_atom_id": "md_dmPP_ex_a043", "md_file": "knowledge_base/domains/PP/examples.md", "md_atom_type": "TABLE_ROW", "md_parent_section": "§PP.1 [Example 1]", "md_verbatim": "| 7 | ABC-123 | PP | 123-1001 | PPSEQ | 7 | PKCOND | Condition of PK Analysis | SINGLE DOSE | Collected | |", "score": 0.5, "match_basis": "verbatim_token+domain_route:PP"}, {"md_atom_id": "md_dmPP_ex_a095", "md_file": "knowledge_base/domains/PP/examples.md", "md_atom_type": "TABLE_ROW", "md_parent_section": "§PP [PP — Examples]", "md_verbatim": "| 11 | ABC-123 | PP | ABC-123-0001 | 13 | DY8DRGX | DY8DRGX | DY8DRGX | DY8DRGX | VZO | Vz Obs | DRUG X | 10.7 | L | 10.7 | 10.7 | L | PLASMA | 8 | 2001-02-08T08:35 |", "score": 0.5, "match_basis": "verbatim_token+domain_route:PP"}, {"md_atom_id": "md_dmPP_ex_a086", "md_file": "knowledge_base/domains/PP/examples.md", "md_atom_type": "TABLE_ROW", "md_parent_section": "§PP [PP — Examples]", "md_verbatim": "| 2 | ABC-123 | PP | ABC-123-0001 | 2 | DY1DRGX | DY1DRGX | DY1DRGX_A | CMAX | CMAX | Max Conc | DRUG X | 44.5 | ng/mL | 44.5 | 44.5 | ng/mL | PLASMA | 1 | 2001-02-01T08:35 |", "score": 0.4923, "match_basis": "verbatim_token+domain_route:PP"}, {"md_atom_id": "md_dmPP_ex_a092", "md_file": "knowledge_base/domains/PP/examples.md", "md_atom_type": "TABLE_ROW", "md_parent_section": "§PP [PP — Examples]", "md_verbatim": "| 8 | ABC-123 | PP | ABC-123-0001 | 9 | DY8DRGX | DY8DRGX | DY8DRGX | DY8DRGX | CMAX | Max Conc | DRUG X | 46.0 | ng/mL | 46.0 | 46.0 | ng/mL | PLASMA | 8 | 2001-02-08T08:35 |", "score": 0.4923, "match_basis": "verbatim_token+domain_route:PP"}, {"md_atom_id": "md_dmPP_ex_a085", "md_file": "knowledge_base/domains/PP/examples.md", "md_atom_type": "TABLE_ROW", "md_parent_section": "§PP [PP — Examples]", "md_verbatim": "| 1 | ABC-123 | PP | ABC-123-0001 | 1 | DY1DRGX | DY1DRGX | DY1DRGX_A | TMAX | TMAX | Time of CMAX | DRUG X | 1.87 | h | 1.87 | 1.87 | h | PLASMA | 1 | 2001-02-01T08:35 |", "score": 0.4889, "match_basis": "verbatim_token+domain_route:PP"}], "candidate_count": 5, "zero_candidate": false}
{"pdf_atom_id": "ig34_p0278_a042", "pdf_atom_type": "TABLE_ROW", "pdf_source": "SDTMIG_v3.4", "pdf_page": 278, "pdf_parent_section": "§6.3.5.9.3 Relating PP Records to PC Records — Example 1", "pdf_verbatim": "9 | ABC-123 | PC | ABC-123-0001 | PCGRPID | DY8_DRGX | | 2", "figure_ref": null, "candidates": [{"md_atom_id": "md_dmPP_ex_a095", "md_file": "knowledge_base/domains/PP/examples.md", "md_atom_type": "TABLE_ROW", "md_parent_section": "§PP [PP — Examples]", "md_verbatim": "| 11 | ABC-123 | PP | ABC-123-0001 | 13 | DY8DRGX | DY8DRGX | DY8DRGX | DY8DRGX | VZO | Vz Obs | DRUG X | 10.7 | L | 10.7 | 10.7 | L | PLASMA | 8 | 2001-02-08T08:35 |", "score": 0.5615, "match_basis": "verbatim_token+domain_route:PP"}, {"md_atom_id": "md_dmPP_ex_a092", "md_file": "knowledge_base/domains/PP/examples.md", "md_atom_type": "TABLE_ROW", "md_parent_section": "§PP [PP — Examples]", "md_verbatim": "| 8 | ABC-123 | PP | ABC-123-0001 | 9 | DY8DRGX | DY8DRGX | DY8DRGX | DY8DRGX | CMAX | Max Conc | DRUG X | 46.0 | ng/mL | 46.0 | 46.0 | ng/mL | PLASMA | 8 | 2001-02-08T08:35 |", "score": 0.55, "match_basis": "verbatim_token+domain_route:PP"}, {"md_atom_id": "md_dmPP_ex_a091", "md_file": "knowledge_base/domains/PP/examples.md", "md_atom_type": "TABLE_ROW", "md_parent_section": "§PP [PP — Examples]", "md_verbatim": "| 7 | ABC-123 | PP | ABC-123-0001 | 8 | DY8DRGX | DY8DRGX | DY8DRGX | DY8DRGX | TMAX | Time of CMAX | DRUG X | 1.91 | h | 1.91 | 1.91 | h | PLASMA | 8 | 2001-02-08T08:35 |", "score": 0.5448, "match_basis": "verbatim_token+domain_route:PP"}, {"md_atom_id": "md_dmPP_ex_a093", "md_file": "knowledge_base/domains/PP/examples.md", "md_atom_type": "TABLE_ROW", "md_parent_section": "§PP [PP — Examples]", "md_verbatim": "| 9 | ABC-123 | PP | ABC-123-0001 | 10 | DY8DRGX | DY8DRGX | DY8DRGX | DY8DRGX | AUCALL | AUC All | DRUG X | 289.0 | h*ug/mL | 289.0 | 289.0 | h*ug/mL | PLASMA | 8 | 2001-02-08T08:35 |", "score": 0.5448, "match_basis": "verbatim_token+domain_route:PP"}, {"md_atom_id": "md_dmPP_ex_a096", "md_file": "knowledge_base/domains/PP/examples.md", "md_atom_type": "TABLE_ROW", "md_parent_section": "§PP [PP — Examples]", "md_verbatim": "| 12 | ABC-123 | PP | ABC-123-0001 | 14 | DY8DRGX | DY8DRGX | DY8DRGX | DY8DRGX | CLO | Total CL Obs | DRUG X | 1.75 | L/h | 1.75 | 1.75 | L/h | PLASMA | 8 | 2001-02-08T08:35 |", "score": 0.5448, "match_basis": "verbatim_token+domain_route:PP"}], "candidate_count": 5, "zero_candidate": false}
{"pdf_atom_id": "ig34_p0278_a043", "pdf_atom_type": "TABLE_ROW", "pdf_source": "SDTMIG_v3.4", "pdf_page": 278, "pdf_parent_section": "§6.3.5.9.3 Relating PP Records to PC Records — Example 1", "pdf_verbatim": "10 | ABC-123 | PP | ABC-123-0001 | PPSEQ | 8 | | 2", "figure_ref": null, "candidates": [{"md_atom_id": "md_dmPP_ex_a043", "md_file": "knowledge_base/domains/PP/examples.md", "md_atom_type": "TABLE_ROW", "md_parent_section": "§PP.1 [Example 1]", "md_verbatim": "| 7 | ABC-123 | PP | 123-1001 | PPSEQ | 7 | PKCOND | Condition of PK Analysis | SINGLE DOSE | Collected | |", "score": 0.5, "match_basis": "verbatim_token+domain_route:PP"}, {"md_atom_id": "md_dmPP_ex_a095", "md_file": "knowledge_base/domains/PP/examples.md", "md_atom_type": "TABLE_ROW", "md_parent_section": "§PP [PP — Examples]", "md_verbatim": "| 11 | ABC-123 | PP | ABC-123-0001 | 13 | DY8DRGX | DY8DRGX | DY8DRGX | DY8DRGX | VZO | Vz Obs | DRUG X | 10.7 | L | 10.7 | 10.7 | L | PLASMA | 8 | 2001-02-08T08:35 |", "score": 0.5, "match_basis": "verbatim_token+domain_route:PP"}, {"md_atom_id": "md_dmPP_ex_a086", "md_file": "knowledge_base/domains/PP/examples.md", "md_atom_type": "TABLE_ROW", "md_parent_section": "§PP [PP — Examples]", "md_verbatim": "| 2 | ABC-123 | PP | ABC-123-0001 | 2 | DY1DRGX | DY1DRGX | DY1DRGX_A | CMAX | CMAX | Max Conc | DRUG X | 44.5 | ng/mL | 44.5 | 44.5 | ng/mL | PLASMA | 1 | 2001-02-01T08:35 |", "score": 0.4923, "match_basis": "verbatim_token+domain_route:PP"}, {"md_atom_id": "md_dmPP_ex_a092", "md_file": "knowledge_base/domains/PP/examples.md", "md_atom_type": "TABLE_ROW", "md_parent_section": "§PP [PP — Examples]", "md_verbatim": "| 8 | ABC-123 | PP | ABC-123-0001 | 9 | DY8DRGX | DY8DRGX | DY8DRGX | DY8DRGX | CMAX | Max Conc | DRUG X | 46.0 | ng/mL | 46.0 | 46.0 | ng/mL | PLASMA | 8 | 2001-02-08T08:35 |", "score": 0.4923, "match_basis": "verbatim_token+domain_route:PP"}, {"md_atom_id": "md_dmPP_ex_a085", "md_file": "knowledge_base/domains/PP/examples.md", "md_atom_type": "TABLE_ROW", "md_parent_section": "§PP [PP — Examples]", "md_verbatim": "| 1 | ABC-123 | PP | ABC-123-0001 | 1 | DY1DRGX | DY1DRGX | DY1DRGX_A | TMAX | TMAX | Time of CMAX | DRUG X | 1.87 | h | 1.87 | 1.87 | h | PLASMA | 1 | 2001-02-01T08:35 |", "score": 0.4889, "match_basis": "verbatim_token+domain_route:PP"}], "candidate_count": 5, "zero_candidate": false}
{"pdf_atom_id": "ig34_p0278_a044", "pdf_atom_type": "TABLE_ROW", "pdf_source": "SDTMIG_v3.4", "pdf_page": 278, "pdf_parent_section": "§6.3.5.9.3 Relating PP Records to PC Records — Example 1", "pdf_verbatim": "11 | ABC-123 | PP | ABC-123-0001 | PPSEQ | 9 | | 2", "figure_ref": null, "candidates": [{"md_atom_id": "md_dmPP_ex_a043", "md_file": "knowledge_base/domains/PP/examples.md", "md_atom_type": "TABLE_ROW", "md_parent_section": "§PP.1 [Example 1]", "md_verbatim": "| 7 | ABC-123 | PP | 123-1001 | PPSEQ | 7 | PKCOND | Condition of PK Analysis | SINGLE DOSE | Collected | |", "score": 0.5, "match_basis": "verbatim_token+domain_route:PP"}, {"md_atom_id": "md_dmPP_ex_a095", "md_file": "knowledge_base/domains/PP/examples.md", "md_atom_type": "TABLE_ROW", "md_parent_section": "§PP [PP — Examples]", "md_verbatim": "| 11 | ABC-123 | PP | ABC-123-0001 | 13 | DY8DRGX | DY8DRGX | DY8DRGX | DY8DRGX | VZO | Vz Obs | DRUG X | 10.7 | L | 10.7 | 10.7 | L | PLASMA | 8 | 2001-02-08T08:35 |", "score": 0.5, "match_basis": "verbatim_token+domain_route:PP"}, {"md_atom_id": "md_dmPP_ex_a086", "md_file": "knowledge_base/domains/PP/examples.md", "md_atom_type": "TABLE_ROW", "md_parent_section": "§PP [PP — Examples]", "md_verbatim": "| 2 | ABC-123 | PP | ABC-123-0001 | 2 | DY1DRGX | DY1DRGX | DY1DRGX_A | CMAX | CMAX | Max Conc | DRUG X | 44.5 | ng/mL | 44.5 | 44.5 | ng/mL | PLASMA | 1 | 2001-02-01T08:35 |", "score": 0.4923, "match_basis": "verbatim_token+domain_route:PP"}, {"md_atom_id": "md_dmPP_ex_a092", "md_file": "knowledge_base/domains/PP/examples.md", "md_atom_type": "TABLE_ROW", "md_parent_section": "§PP [PP — Examples]", "md_verbatim": "| 8 | ABC-123 | PP | ABC-123-0001 | 9 | DY8DRGX | DY8DRGX | DY8DRGX | DY8DRGX | CMAX | Max Conc | DRUG X | 46.0 | ng/mL | 46.0 | 46.0 | ng/mL | PLASMA | 8 | 2001-02-08T08:35 |", "score": 0.4923, "match_basis": "verbatim_token+domain_route:PP"}, {"md_atom_id": "md_dmPP_ex_a085", "md_file": "knowledge_base/domains/PP/examples.md", "md_atom_type": "TABLE_ROW", "md_parent_section": "§PP [PP — Examples]", "md_verbatim": "| 1 | ABC-123 | PP | ABC-123-0001 | 1 | DY1DRGX | DY1DRGX | DY1DRGX_A | TMAX | TMAX | Time of CMAX | DRUG X | 1.87 | h | 1.87 | 1.87 | h | PLASMA | 1 | 2001-02-01T08:35 |", "score": 0.4889, "match_basis": "verbatim_token+domain_route:PP"}], "candidate_count": 5, "zero_candidate": false}
{"pdf_atom_id": "ig34_p0278_a045", "pdf_atom_type": "TABLE_ROW", "pdf_source": "SDTMIG_v3.4", "pdf_page": 278, "pdf_parent_section": "§6.3.5.9.3 Relating PP Records to PC Records — Example 1", "pdf_verbatim": "12 | ABC-123 | PP | ABC-123-0001 | PPSEQ | 10 | | 2", "figure_ref": null, "candidates": [{"md_atom_id": "md_dmPP_ex_a043", "md_file": "knowledge_base/domains/PP/examples.md", "md_atom_type": "TABLE_ROW", "md_parent_section": "§PP.1 [Example 1]", "md_verbatim": "| 7 | ABC-123 | PP | 123-1001 | PPSEQ | 7 | PKCOND | Condition of PK Analysis | SINGLE DOSE | Collected | |", "score": 0.5, "match_basis": "verbatim_token+domain_route:PP"}, {"md_atom_id": "md_dmPP_ex_a095", "md_file": "knowledge_base/domains/PP/examples.md", "md_atom_type": "TABLE_ROW", "md_parent_section": "§PP [PP — Examples]", "md_verbatim": "| 11 | ABC-123 | PP | ABC-123-0001 | 13 | DY8DRGX | DY8DRGX | DY8DRGX | DY8DRGX | VZO | Vz Obs | DRUG X | 10.7 | L | 10.7 | 10.7 | L | PLASMA | 8 | 2001-02-08T08:35 |", "score": 0.5, "match_basis": "verbatim_token+domain_route:PP"}, {"md_atom_id": "md_dmPP_ex_a086", "md_file": "knowledge_base/domains/PP/examples.md", "md_atom_type": "TABLE_ROW", "md_parent_section": "§PP [PP — Examples]", "md_verbatim": "| 2 | ABC-123 | PP | ABC-123-0001 | 2 | DY1DRGX | DY1DRGX | DY1DRGX_A | CMAX | CMAX | Max Conc | DRUG X | 44.5 | ng/mL | 44.5 | 44.5 | ng/mL | PLASMA | 1 | 2001-02-01T08:35 |", "score": 0.4923, "match_basis": "verbatim_token+domain_route:PP"}, {"md_atom_id": "md_dmPP_ex_a092", "md_file": "knowledge_base/domains/PP/examples.md", "md_atom_type": "TABLE_ROW", "md_parent_section": "§PP [PP — Examples]", "md_verbatim": "| 8 | ABC-123 | PP | ABC-123-0001 | 9 | DY8DRGX | DY8DRGX | DY8DRGX | DY8DRGX | CMAX | Max Conc | DRUG X | 46.0 | ng/mL | 46.0 | 46.0 | ng/mL | PLASMA | 8 | 2001-02-08T08:35 |", "score": 0.4923, "match_basis": "verbatim_token+domain_route:PP"}, {"md_atom_id": "md_dmPP_ex_a085", "md_file": "knowledge_base/domains/PP/examples.md", "md_atom_type": "TABLE_ROW", "md_parent_section": "§PP [PP — Examples]", "md_verbatim": "| 1 | ABC-123 | PP | ABC-123-0001 | 1 | DY1DRGX | DY1DRGX | DY1DRGX_A | TMAX | TMAX | Time of CMAX | DRUG X | 1.87 | h | 1.87 | 1.87 | h | PLASMA | 1 | 2001-02-01T08:35 |", "score": 0.4889, "match_basis": "verbatim_token+domain_route:PP"}], "candidate_count": 5, "zero_candidate": false}
{"pdf_atom_id": "ig34_p0278_a046", "pdf_atom_type": "TABLE_ROW", "pdf_source": "SDTMIG_v3.4", "pdf_page": 278, "pdf_parent_section": "§6.3.5.9.3 Relating PP Records to PC Records — Example 1", "pdf_verbatim": "13 | ABC-123 | PP | ABC-123-0001 | PPSEQ | 11 | | 2", "figure_ref": null, "candidates": [{"md_atom_id": "md_dmPP_ex_a043", "md_file": "knowledge_base/domains/PP/examples.md", "md_atom_type": "TABLE_ROW", "md_parent_section": "§PP.1 [Example 1]", "md_verbatim": "| 7 | ABC-123 | PP | 123-1001 | PPSEQ | 7 | PKCOND | Condition of PK Analysis | SINGLE DOSE | Collected | |", "score": 0.5, "match_basis": "verbatim_token+domain_route:PP"}, {"md_atom_id": "md_dmPP_ex_a095", "md_file": "knowledge_base/domains/PP/examples.md", "md_atom_type": "TABLE_ROW", "md_parent_section": "§PP [PP — Examples]", "md_verbatim": "| 11 | ABC-123 | PP | ABC-123-0001 | 13 | DY8DRGX | DY8DRGX | DY8DRGX | DY8DRGX | VZO | Vz Obs | DRUG X | 10.7 | L | 10.7 | 10.7 | L | PLASMA | 8 | 2001-02-08T08:35 |", "score": 0.5, "match_basis": "verbatim_token+domain_route:PP"}, {"md_atom_id": "md_dmPP_ex_a086", "md_file": "knowledge_base/domains/PP/examples.md", "md_atom_type": "TABLE_ROW", "md_parent_section": "§PP [PP — Examples]", "md_verbatim": "| 2 | ABC-123 | PP | ABC-123-0001 | 2 | DY1DRGX | DY1DRGX | DY1DRGX_A | CMAX | CMAX | Max Conc | DRUG X | 44.5 | ng/mL | 44.5 | 44.5 | ng/mL | PLASMA | 1 | 2001-02-01T08:35 |", "score": 0.4923, "match_basis": "verbatim_token+domain_route:PP"}, {"md_atom_id": "md_dmPP_ex_a092", "md_file": "knowledge_base/domains/PP/examples.md", "md_atom_type": "TABLE_ROW", "md_parent_section": "§PP [PP — Examples]", "md_verbatim": "| 8 | ABC-123 | PP | ABC-123-0001 | 9 | DY8DRGX | DY8DRGX | DY8DRGX | DY8DRGX | CMAX | Max Conc | DRUG X | 46.0 | ng/mL | 46.0 | 46.0 | ng/mL | PLASMA | 8 | 2001-02-08T08:35 |", "score": 0.4923, "match_basis": "verbatim_token+domain_route:PP"}, {"md_atom_id": "md_dmPP_ex_a085", "md_file": "knowledge_base/domains/PP/examples.md", "md_atom_type": "TABLE_ROW", "md_parent_section": "§PP [PP — Examples]", "md_verbatim": "| 1 | ABC-123 | PP | ABC-123-0001 | 1 | DY1DRGX | DY1DRGX | DY1DRGX_A | TMAX | TMAX | Time of CMAX | DRUG X | 1.87 | h | 1.87 | 1.87 | h | PLASMA | 1 | 2001-02-01T08:35 |", "score": 0.4889, "match_basis": "verbatim_token+domain_route:PP"}], "candidate_count": 5, "zero_candidate": false}
{"pdf_atom_id": "ig34_p0278_a047", "pdf_atom_type": "TABLE_ROW", "pdf_source": "SDTMIG_v3.4", "pdf_page": 278, "pdf_parent_section": "§6.3.5.9.3 Relating PP Records to PC Records — Example 1", "pdf_verbatim": "14 | ABC-123 | PP | ABC-123-0001 | PPSEQ | 12 | | 2", "figure_ref": null, "candidates": [{"md_atom_id": "md_dmPP_ex_a043", "md_file": "knowledge_base/domains/PP/examples.md", "md_atom_type": "TABLE_ROW", "md_parent_section": "§PP.1 [Example 1]", "md_verbatim": "| 7 | ABC-123 | PP | 123-1001 | PPSEQ | 7 | PKCOND | Condition of PK Analysis | SINGLE DOSE | Collected | |", "score": 0.5, "match_basis": "verbatim_token+domain_route:PP"}, {"md_atom_id": "md_dmPP_ex_a095", "md_file": "knowledge_base/domains/PP/examples.md", "md_atom_type": "TABLE_ROW", "md_parent_section": "§PP [PP — Examples]", "md_verbatim": "| 11 | ABC-123 | PP | ABC-123-0001 | 13 | DY8DRGX | DY8DRGX | DY8DRGX | DY8DRGX | VZO | Vz Obs | DRUG X | 10.7 | L | 10.7 | 10.7 | L | PLASMA | 8 | 2001-02-08T08:35 |", "score": 0.5, "match_basis": "verbatim_token+domain_route:PP"}, {"md_atom_id": "md_dmPP_ex_a086", "md_file": "knowledge_base/domains/PP/examples.md", "md_atom_type": "TABLE_ROW", "md_parent_section": "§PP [PP — Examples]", "md_verbatim": "| 2 | ABC-123 | PP | ABC-123-0001 | 2 | DY1DRGX | DY1DRGX | DY1DRGX_A | CMAX | CMAX | Max Conc | DRUG X | 44.5 | ng/mL | 44.5 | 44.5 | ng/mL | PLASMA | 1 | 2001-02-01T08:35 |", "score": 0.4923, "match_basis": "verbatim_token+domain_route:PP"}, {"md_atom_id": "md_dmPP_ex_a092", "md_file": "knowledge_base/domains/PP/examples.md", "md_atom_type": "TABLE_ROW", "md_parent_section": "§PP [PP — Examples]", "md_verbatim": "| 8 | ABC-123 | PP | ABC-123-0001 | 9 | DY8DRGX | DY8DRGX | DY8DRGX | DY8DRGX | CMAX | Max Conc | DRUG X | 46.0 | ng/mL | 46.0 | 46.0 | ng/mL | PLASMA | 8 | 2001-02-08T08:35 |", "score": 0.4923, "match_basis": "verbatim_token+domain_route:PP"}, {"md_atom_id": "md_dmPP_ex_a085", "md_file": "knowledge_base/domains/PP/examples.md", "md_atom_type": "TABLE_ROW", "md_parent_section": "§PP [PP — Examples]", "md_verbatim": "| 1 | ABC-123 | PP | ABC-123-0001 | 1 | DY1DRGX | DY1DRGX | DY1DRGX_A | TMAX | TMAX | Time of CMAX | DRUG X | 1.87 | h | 1.87 | 1.87 | h | PLASMA | 1 | 2001-02-01T08:35 |", "score": 0.4889, "match_basis": "verbatim_token+domain_route:PP"}], "candidate_count": 5, "zero_candidate": false}
{"pdf_atom_id": "ig34_p0278_a048", "pdf_atom_type": "TABLE_ROW", "pdf_source": "SDTMIG_v3.4", "pdf_page": 278, "pdf_parent_section": "§6.3.5.9.3 Relating PP Records to PC Records — Example 1", "pdf_verbatim": "15 | ABC-123 | PP | ABC-123-0001 | PPSEQ | 13 | | 2", "figure_ref": null, "candidates": [{"md_atom_id": "md_dmPP_ex_a043", "md_file": "knowledge_base/domains/PP/examples.md", "md_atom_type": "TABLE_ROW", "md_parent_section": "§PP.1 [Example 1]", "md_verbatim": "| 7 | ABC-123 | PP | 123-1001 | PPSEQ | 7 | PKCOND | Condition of PK Analysis | SINGLE DOSE | Collected | |", "score": 0.5, "match_basis": "verbatim_token+domain_route:PP"}, {"md_atom_id": "md_dmPP_ex_a095", "md_file": "knowledge_base/domains/PP/examples.md", "md_atom_type": "TABLE_ROW", "md_parent_section": "§PP [PP — Examples]", "md_verbatim": "| 11 | ABC-123 | PP | ABC-123-0001 | 13 | DY8DRGX | DY8DRGX | DY8DRGX | DY8DRGX | VZO | Vz Obs | DRUG X | 10.7 | L | 10.7 | 10.7 | L | PLASMA | 8 | 2001-02-08T08:35 |", "score": 0.5, "match_basis": "verbatim_token+domain_route:PP"}, {"md_atom_id": "md_dmPP_ex_a086", "md_file": "knowledge_base/domains/PP/examples.md", "md_atom_type": "TABLE_ROW", "md_parent_section": "§PP [PP — Examples]", "md_verbatim": "| 2 | ABC-123 | PP | ABC-123-0001 | 2 | DY1DRGX | DY1DRGX | DY1DRGX_A | CMAX | CMAX | Max Conc | DRUG X | 44.5 | ng/mL | 44.5 | 44.5 | ng/mL | PLASMA | 1 | 2001-02-01T08:35 |", "score": 0.4923, "match_basis": "verbatim_token+domain_route:PP"}, {"md_atom_id": "md_dmPP_ex_a092", "md_file": "knowledge_base/domains/PP/examples.md", "md_atom_type": "TABLE_ROW", "md_parent_section": "§PP [PP — Examples]", "md_verbatim": "| 8 | ABC-123 | PP | ABC-123-0001 | 9 | DY8DRGX | DY8DRGX | DY8DRGX | DY8DRGX | CMAX | Max Conc | DRUG X | 46.0 | ng/mL | 46.0 | 46.0 | ng/mL | PLASMA | 8 | 2001-02-08T08:35 |", "score": 0.4923, "match_basis": "verbatim_token+domain_route:PP"}, {"md_atom_id": "md_dmPP_ex_a085", "md_file": "knowledge_base/domains/PP/examples.md", "md_atom_type": "TABLE_ROW", "md_parent_section": "§PP [PP — Examples]", "md_verbatim": "| 1 | ABC-123 | PP | ABC-123-0001 | 1 | DY1DRGX | DY1DRGX | DY1DRGX_A | TMAX | TMAX | Time of CMAX | DRUG X | 1.87 | h | 1.87 | 1.87 | h | PLASMA | 1 | 2001-02-01T08:35 |", "score": 0.4889, "match_basis": "verbatim_token+domain_route:PP"}], "candidate_count": 5, "zero_candidate": false}
{"pdf_atom_id": "ig34_p0278_a049", "pdf_atom_type": "TABLE_ROW", "pdf_source": "SDTMIG_v3.4", "pdf_page": 278, "pdf_parent_section": "§6.3.5.9.3 Relating PP Records to PC Records — Example 1", "pdf_verbatim": "16 | ABC-123 | PP | ABC-123-0001 | PPSEQ | 14 | | 2", "figure_ref": null, "candidates": [{"md_atom_id": "md_dmPP_ex_a043", "md_file": "knowledge_base/domains/PP/examples.md", "md_atom_type": "TABLE_ROW", "md_parent_section": "§PP.1 [Example 1]", "md_verbatim": "| 7 | ABC-123 | PP | 123-1001 | PPSEQ | 7 | PKCOND | Condition of PK Analysis | SINGLE DOSE | Collected | |", "score": 0.5, "match_basis": "verbatim_token+domain_route:PP"}, {"md_atom_id": "md_dmPP_ex_a095", "md_file": "knowledge_base/domains/PP/examples.md", "md_atom_type": "TABLE_ROW", "md_parent_section": "§PP [PP — Examples]", "md_verbatim": "| 11 | ABC-123 | PP | ABC-123-0001 | 13 | DY8DRGX | DY8DRGX | DY8DRGX | DY8DRGX | VZO | Vz Obs | DRUG X | 10.7 | L | 10.7 | 10.7 | L | PLASMA | 8 | 2001-02-08T08:35 |", "score": 0.5, "match_basis": "verbatim_token+domain_route:PP"}, {"md_atom_id": "md_dmPP_ex_a086", "md_file": "knowledge_base/domains/PP/examples.md", "md_atom_type": "TABLE_ROW", "md_parent_section": "§PP [PP — Examples]", "md_verbatim": "| 2 | ABC-123 | PP | ABC-123-0001 | 2 | DY1DRGX | DY1DRGX | DY1DRGX_A | CMAX | CMAX | Max Conc | DRUG X | 44.5 | ng/mL | 44.5 | 44.5 | ng/mL | PLASMA | 1 | 2001-02-01T08:35 |", "score": 0.4923, "match_basis": "verbatim_token+domain_route:PP"}, {"md_atom_id": "md_dmPP_ex_a092", "md_file": "knowledge_base/domains/PP/examples.md", "md_atom_type": "TABLE_ROW", "md_parent_section": "§PP [PP — Examples]", "md_verbatim": "| 8 | ABC-123 | PP | ABC-123-0001 | 9 | DY8DRGX | DY8DRGX | DY8DRGX | DY8DRGX | CMAX | Max Conc | DRUG X | 46.0 | ng/mL | 46.0 | 46.0 | ng/mL | PLASMA | 8 | 2001-02-08T08:35 |", "score": 0.4923, "match_basis": "verbatim_token+domain_route:PP"}, {"md_atom_id": "md_dmPP_ex_a085", "md_file": "knowledge_base/domains/PP/examples.md", "md_atom_type": "TABLE_ROW", "md_parent_section": "§PP [PP — Examples]", "md_verbatim": "| 1 | ABC-123 | PP | ABC-123-0001 | 1 | DY1DRGX | DY1DRGX | DY1DRGX_A | TMAX | TMAX | Time of CMAX | DRUG X | 1.87 | h | 1.87 | 1.87 | h | PLASMA | 1 | 2001-02-01T08:35 |", "score": 0.4889, "match_basis": "verbatim_token+domain_route:PP"}], "candidate_count": 5, "zero_candidate": false}
{"pdf_atom_id": "ig34_p0278_a050", "pdf_atom_type": "HEADING", "pdf_source": "SDTMIG_v3.4", "pdf_page": 278, "pdf_parent_section": "§6.3.5.9.3 Relating PP Records to PC Records — Example 1", "pdf_verbatim": "Method D (One to One, Using PCSEQ and PPSEQ)", "figure_ref": null, "candidates": [{"md_atom_id": "md_dmPP_assn_a001", "md_file": "knowledge_base/domains/PP/assumptions.md", "md_atom_type": "HEADING", "md_parent_section": "§PP [PP — Assumptions]", "md_verbatim": "# PP — Assumptions", "score": 0.4, "match_basis": "verbatim_token+domain_route:PP"}, {"md_atom_id": "md_dmPP_ex_a001", "md_file": "knowledge_base/domains/PP/examples.md", "md_atom_type": "HEADING", "md_parent_section": "§PP [PP — Examples]", "md_verbatim": "# PP — Examples", "score": 0.4, "match_basis": "verbatim_token+domain_route:PP"}, {"md_atom_id": "md_dmPP_ex_a004", "md_file": "knowledge_base/domains/PP/examples.md", "md_atom_type": "HEADING", "md_parent_section": "§PP [PP — Examples]", "md_verbatim": "## Example 1", "score": 0.4, "match_basis": "verbatim_token+domain_route:PP"}, {"md_atom_id": "md_dmPP_ex_a044", "md_file": "knowledge_base/domains/PP/examples.md", "md_atom_type": "HEADING", "md_parent_section": "§PP [PP — Examples]", "md_verbatim": "## Example 2", "score": 0.4, "match_basis": "verbatim_token+domain_route:PP"}, {"md_atom_id": "md_dmPP_ex_a059", "md_file": "knowledge_base/domains/PP/examples.md", "md_atom_type": "HEADING", "md_parent_section": "§PP [PP — Examples]", "md_verbatim": "## Example 3", "score": 0.4, "match_basis": "verbatim_token+domain_route:PP"}], "candidate_count": 5, "zero_candidate": false}
