{"pdf_atom_id": "ig34_p0003_a035", "pdf_atom_type": "CROSS_REF", "pdf_source": "SDTMIG_v3.4", "pdf_page": 3, "pdf_parent_section": "§0 [Table of Contents]", "pdf_verbatim": "4.5.3 Text Strings that Exceed the Maximum Length for General Observation-class Domain Variables ...54", "figure_ref": null, "candidates": [{"md_atom_id": "md_ch04_a893", "md_file": "knowledge_base/chapters/ch04_general_assumptions.md", "md_atom_type": "HEADING", "md_parent_section": "§4.5 [Other Assumptions]", "md_verbatim": "### 4.5.3 Text Strings that Exceed the Maximum Length for General Observation-class Domain Variables", "score": 0.69, "match_basis": "verbatim_token+global_search"}, {"md_atom_id": "md_ch08_a172", "md_file": "knowledge_base/chapters/ch08_relationships.md", "md_atom_type": "LIST_ITEM", "md_parent_section": "§8.4 [Relating Non-standard Variable Values to a Parent Domain]", "md_verbatim": "- See Section 4.5.3, Text Strings that Exceed the Maximum Length for General Observation-class Domain Variables, for information on representing data values greater than 200 characters in length", "score": 0.4367, "match_basis": "verbatim_token+global_search"}, {"md_atom_id": "md_ch08_a183", "md_file": "knowledge_base/chapters/ch08_relationships.md", "md_atom_type": "SENTENCE", "md_parent_section": "§8.4.2 [Submitting Supplemental Qualifiers in Separate Datasets]", "md_verbatim": "See Section 4.5.3, Text Strings that Exceed the Maximum Length for General Observation-class Domain Variables, for information on representing data values greater than 200 characters in length.", "score": 0.4367, "match_basis": "verbatim_token+global_search"}, {"md_atom_id": "md_ch04_a476", "md_file": "knowledge_base/chapters/ch04_general_assumptions.md", "md_atom_type": "SENTENCE", "md_parent_section": "§4.4 [Actual and Relative Time Assumptions]", "md_verbatim": "In general, all domains based on the 3 general observation classes should have at least 1 timing variable.", "score": 0.3351, "match_basis": "verbatim_token+global_search"}, {"md_atom_id": "md_ch04_a606", "md_file": "knowledge_base/chapters/ch04_general_assumptions.md", "md_atom_type": "SENTENCE", "md_parent_section": "§4.4.5 [Clinical Encounters and Visits]", "md_verbatim": "All domains based on the 3 general observation classes should have at least 1 timing variable.", "score": 0.3351, "match_basis": "verbatim_token+global_search"}], "candidate_count": 5, "zero_candidate": false}
{"pdf_atom_id": "ig34_p0003_a036", "pdf_atom_type": "CROSS_REF", "pdf_source": "SDTMIG_v3.4", "pdf_page": 3, "pdf_parent_section": "§0 [Table of Contents]", "pdf_verbatim": "4.5.3.1 Test Name (--TEST) Greater than 40 Characters ............................................54", "figure_ref": null, "candidates": [{"md_atom_id": "md_ch04_a894", "md_file": "knowledge_base/chapters/ch04_general_assumptions.md", "md_atom_type": "HEADING", "md_parent_section": "§4.5.3 [Text Strings that Exceed the Maximum Length for General Observation-class Domain Variables]", "md_verbatim": "#### 4.5.3.1 Test Name (--TEST) Greater than 40 Characters", "score": 0.69, "match_basis": "verbatim_token+global_search"}, {"md_atom_id": "md_ch04_a903", "md_file": "knowledge_base/chapters/ch04_general_assumptions.md", "md_atom_type": "HEADING", "md_parent_section": "§4.5.3 [Text Strings that Exceed the Maximum Length for General Observation-class Domain Variables]", "md_verbatim": "#### 4.5.3.2 Text Strings Greater than 200 Characters in Other Variables", "score": 0.3233, "match_basis": "verbatim_token+global_search"}, {"md_atom_id": "md_ch10_a084", "md_file": "knowledge_base/chapters/ch10_appendices.md", "md_atom_type": "TABLE_ROW", "md_parent_section": "§10.D [CDISC Variable-naming Fragments]", "md_verbatim": "| CHARACTER | C | | NOT DONE | ND |", "score": 0.29, "match_basis": "verbatim_token+global_search"}, {"md_atom_id": "md_ch10_a092", "md_file": "knowledge_base/chapters/ch10_appendices.md", "md_atom_type": "TABLE_ROW", "md_parent_section": "§10.D [CDISC Variable-naming Fragments]", "md_verbatim": "| DATE TIME - CHARACTER | DTC | | OTHER | OTH, O |", "score": 0.282, "match_basis": "verbatim_token+global_search"}, {"md_atom_id": "md_ch04_a612", "md_file": "knowledge_base/chapters/ch04_general_assumptions.md", "md_atom_type": "LIST_ITEM", "md_parent_section": "§4.4.5 [Clinical Encounters and Visits]", "md_verbatim": "- **VISIT**: character name of the visit from the protocol", "score": 0.27, "match_basis": "verbatim_token+global_search"}], "candidate_count": 5, "zero_candidate": false}
{"pdf_atom_id": "ig34_p0003_a037", "pdf_atom_type": "CROSS_REF", "pdf_source": "SDTMIG_v3.4", "pdf_page": 3, "pdf_parent_section": "§0 [Table of Contents]", "pdf_verbatim": "4.5.3.2 Text Strings Greater than 200 Characters in Other Variables .........................55", "figure_ref": null, "candidates": [{"md_atom_id": "md_ch04_a903", "md_file": "knowledge_base/chapters/ch04_general_assumptions.md", "md_atom_type": "HEADING", "md_parent_section": "§4.5.3 [Text Strings that Exceed the Maximum Length for General Observation-class Domain Variables]", "md_verbatim": "#### 4.5.3.2 Text Strings Greater than 200 Characters in Other Variables", "score": 0.69, "match_basis": "verbatim_token+global_search"}, {"md_atom_id": "md_ch04_a894", "md_file": "knowledge_base/chapters/ch04_general_assumptions.md", "md_atom_type": "HEADING", "md_parent_section": "§4.5.3 [Text Strings that Exceed the Maximum Length for General Observation-class Domain Variables]", "md_verbatim": "#### 4.5.3.1 Test Name (--TEST) Greater than 40 Characters", "score": 0.3233, "match_basis": "verbatim_token+global_search"}, {"md_atom_id": "md_ch04_a408", "md_file": "knowledge_base/chapters/ch04_general_assumptions.md", "md_atom_type": "SENTENCE", "md_parent_section": "§4.2.9 [Variable Lengths]", "md_verbatim": "When variable length is referenced in the SDTMIG, this refers to the length in bytes of ASCII character strings.", "score": 0.2969, "match_basis": "verbatim_token+global_search"}, {"md_atom_id": "md_dmTS_assn_a009", "md_file": "knowledge_base/domains/TS/assumptions.md", "md_atom_type": "LIST_ITEM", "md_parent_section": "§TS [TS — Assumptions]", "md_verbatim": "4. The method for treating text >200 characters in TS is similar to that used for the Comments (CO) special-purpose domain (Section 5.1, Comments). If TSVAL is >200 characters, then it should be split into multiple variables, TSVAL-TSVALn. See Section 4.5.3.2, Text Strings Greater than 200 Characters in Other Variables.", "score": 0.2943, "match_basis": "verbatim_token+global_search"}, {"md_atom_id": "md_ch08_a172", "md_file": "knowledge_base/chapters/ch08_relationships.md", "md_atom_type": "LIST_ITEM", "md_parent_section": "§8.4 [Relating Non-standard Variable Values to a Parent Domain]", "md_verbatim": "- See Section 4.5.3, Text Strings that Exceed the Maximum Length for General Observation-class Domain Variables, for information on representing data values greater than 200 characters in length", "score": 0.2857, "match_basis": "verbatim_token+global_search"}], "candidate_count": 5, "zero_candidate": false}
{"pdf_atom_id": "ig34_p0003_a038", "pdf_atom_type": "CROSS_REF", "pdf_source": "SDTMIG_v3.4", "pdf_page": 3, "pdf_parent_section": "§0 [Table of Contents]", "pdf_verbatim": "4.5.4 Evaluators in the Interventions and Events Observation Classes ........................56", "figure_ref": null, "candidates": [{"md_atom_id": "md_ch04_a951", "md_file": "knowledge_base/chapters/ch04_general_assumptions.md", "md_atom_type": "HEADING", "md_parent_section": "§4.5 [Other Assumptions]", "md_verbatim": "### 4.5.4 Evaluators in the Interventions and Events Observation Classes", "score": 0.69, "match_basis": "verbatim_token+global_search"}, {"md_atom_id": "md_model02_a010", "md_file": "knowledge_base/model/02_observation_classes.md", "md_atom_type": "HEADING", "md_parent_section": "§3.1.1 The Interventions Observation Class", "md_verbatim": "## 3.1.1 The Interventions Observation Class", "score": 0.4606, "match_basis": "verbatim_token+global_search"}, {"md_atom_id": "md_model02_a061", "md_file": "knowledge_base/model/02_observation_classes.md", "md_atom_type": "HEADING", "md_parent_section": "§3.1.2 The Events Observation Class", "md_verbatim": "## 3.1.2 The Events Observation Class", "score": 0.39, "match_basis": "verbatim_token+global_search"}, {"md_atom_id": "md_ch04_a607", "md_file": "knowledge_base/chapters/ch04_general_assumptions.md", "md_atom_type": "SENTENCE", "md_parent_section": "§4.4.5 [Clinical Encounters and Visits]", "md_verbatim": "For domains in the Events or Interventions observation classes, this could be the start date of the event or intervention.", "score": 0.39, "match_basis": "verbatim_token+global_search"}, {"md_atom_id": "md_ch04_a477", "md_file": "knowledge_base/chapters/ch04_general_assumptions.md", "md_atom_type": "SENTENCE", "md_parent_section": "§4.4 [Actual and Relative Time Assumptions]", "md_verbatim": "In the Events or Interventions general observation class, this could be the start date of the event or intervention.", "score": 0.3716, "match_basis": "verbatim_token+global_search"}], "candidate_count": 5, "zero_candidate": false}
{"pdf_atom_id": "ig34_p0003_a039", "pdf_atom_type": "CROSS_REF", "pdf_source": "SDTMIG_v3.4", "pdf_page": 3, "pdf_parent_section": "§0 [Table of Contents]", "pdf_verbatim": "4.5.5 Clinical Significance for Findings Observation Class Data ................................57", "figure_ref": null, "candidates": [{"md_atom_id": "md_ch04_a968", "md_file": "knowledge_base/chapters/ch04_general_assumptions.md", "md_atom_type": "HEADING", "md_parent_section": "§4.5 [Other Assumptions]", "md_verbatim": "### 4.5.5 Clinical Significance for Findings Observation Class Data", "score": 0.69, "match_basis": "verbatim_token+global_search"}, {"md_atom_id": "md_model02_a122", "md_file": "knowledge_base/model/02_observation_classes.md", "md_atom_type": "HEADING", "md_parent_section": "§3.1.3 The Findings Observation Class", "md_verbatim": "## 3.1.3 The Findings Observation Class", "score": 0.3819, "match_basis": "verbatim_token+global_search"}, {"md_atom_id": "md_model02_a202", "md_file": "knowledge_base/model/02_observation_classes.md", "md_atom_type": "TABLE_ROW", "md_parent_section": "§3.1.5 > Study Day Variables", "md_verbatim": "| 14 | --STDY | Study Day of Start of Observation | Num | Not in Findings class domains |", "score": 0.2977, "match_basis": "verbatim_token+global_search"}, {"md_atom_id": "md_model02_a197", "md_file": "knowledge_base/model/02_observation_classes.md", "md_atom_type": "TABLE_ROW", "md_parent_section": "§3.1.5 > Date/Time Variables", "md_verbatim": "| 11 | --STDTC | Start Date/Time of Observation | Char | ISO 8601 | Not in Findings class domains |", "score": 0.2936, "match_basis": "verbatim_token+global_search"}, {"md_atom_id": "md_varindex_a1326", "md_file": "knowledge_base/VARIABLE_INDEX.md", "md_atom_type": "HEADING", "md_parent_section": "§ 二、领域专属变量（仅 1 个域，共 1499 个），按域分组", "md_verbatim": "### RS — Disease Response and Clin Classification (Findings)", "score": 0.29, "match_basis": "verbatim_token+global_search"}], "candidate_count": 5, "zero_candidate": false}
{"pdf_atom_id": "ig34_p0003_a040", "pdf_atom_type": "CROSS_REF", "pdf_source": "SDTMIG_v3.4", "pdf_page": 3, "pdf_parent_section": "§0 [Table of Contents]", "pdf_verbatim": "4.5.6 Supplemental Reason Variables .......................................................................57", "figure_ref": null, "candidates": [{"md_atom_id": "md_ch04_a975", "md_file": "knowledge_base/chapters/ch04_general_assumptions.md", "md_atom_type": "HEADING", "md_parent_section": "§4.5 [Other Assumptions]", "md_verbatim": "### 4.5.6 Supplemental Reason Variables", "score": 0.69, "match_basis": "verbatim_token+global_search"}, {"md_atom_id": "md_model06_a104", "md_file": "knowledge_base/model/06_relationship_datasets.md", "md_atom_type": "TABLE_ROW", "md_parent_section": "§ Summary of Relationship Datasets", "md_verbatim": "| Supplemental Qualifiers | SUPP-- | Non-standard variables | Yes |", "score": 0.3657, "match_basis": "verbatim_token+global_search"}, {"md_atom_id": "md_model06_a048", "md_file": "knowledge_base/model/06_relationship_datasets.md", "md_atom_type": "TABLE_ROW", "md_parent_section": "§6.2 Supplemental Qualifiers (SUPP--)", "md_verbatim": "| 9 | QNAM | Qualifier Variable Name | Char | Topic | 8-character name for the supplemental qualifier |", "score": 0.3133, "match_basis": "verbatim_token+global_search"}, {"md_atom_id": "md_model06_a035", "md_file": "knowledge_base/model/06_relationship_datasets.md", "md_atom_type": "HEADING", "md_parent_section": "§6.2 Supplemental Qualifiers (SUPP--)", "md_verbatim": "## 6.2 Supplemental Qualifiers (SUPP--)", "score": 0.2969, "match_basis": "verbatim_token+global_search"}, {"md_atom_id": "md_ch08_a155", "md_file": "knowledge_base/chapters/ch08_relationships.md", "md_atom_type": "HEADING", "md_parent_section": "§8.4 [Relating Non-standard Variable Values to a Parent Domain]", "md_verbatim": "### 8.4.1 Supplemental Qualifiers (SUPP--)", "score": 0.2969, "match_basis": "verbatim_token+global_search"}], "candidate_count": 5, "zero_candidate": false}
{"pdf_atom_id": "ig34_p0003_a041", "pdf_atom_type": "CROSS_REF", "pdf_source": "SDTMIG_v3.4", "pdf_page": 3, "pdf_parent_section": "§0 [Table of Contents]", "pdf_verbatim": "4.5.7 Presence or Absence of Prespecified Interventions and Events ..........................57", "figure_ref": null, "candidates": [{"md_atom_id": "md_ch04_a987", "md_file": "knowledge_base/chapters/ch04_general_assumptions.md", "md_atom_type": "HEADING", "md_parent_section": "§4.5 [Other Assumptions]", "md_verbatim": "### 4.5.7 Presence or Absence of Prespecified Interventions and Events", "score": 0.69, "match_basis": "verbatim_token+global_search"}, {"md_atom_id": "md_dmAE_assn_a011", "md_file": "knowledge_base/domains/AE/assumptions.md", "md_atom_type": "LIST_ITEM", "md_parent_section": "§AE [AE — Assumptions]", "md_verbatim": "4. **Prespecified terms; presence or absence of events**", "score": 0.4838, "match_basis": "verbatim_token+global_search"}, {"md_atom_id": "md_dmMH_assn_a014", "md_file": "knowledge_base/domains/MH/assumptions.md", "md_atom_type": "LIST_ITEM", "md_parent_section": "§MH [MH — Assumptions]", "md_verbatim": "4. **Prespecified terms; presence or absence of events**", "score": 0.4838, "match_basis": "verbatim_token+global_search"}, {"md_atom_id": "md_dmSV_assn_a009", "md_file": "knowledge_base/domains/SV/assumptions.md", "md_atom_type": "LIST_ITEM", "md_parent_section": "§SV [SV — Assumptions]", "md_verbatim": "   d. See Section 4.5.7, Presence or Absence of Prespecified Interventions and Events, for more information on the use of --PRESP and --OCCUR.", "score": 0.465, "match_basis": "verbatim_token+global_search"}, {"md_atom_id": "md_dmAG_assn_a014", "md_file": "knowledge_base/domains/AG/assumptions.md", "md_atom_type": "LIST_ITEM", "md_parent_section": "§AG [AG — Assumptions]", "md_verbatim": "4. Prespecified terms; presence or absence of procedure agents", "score": 0.368, "match_basis": "verbatim_token+global_search"}], "candidate_count": 5, "zero_candidate": false}
{"pdf_atom_id": "ig34_p0003_a042", "pdf_atom_type": "CROSS_REF", "pdf_source": "SDTMIG_v3.4", "pdf_page": 3, "pdf_parent_section": "§0 [Table of Contents]", "pdf_verbatim": "4.5.8 Accounting for Long-term Follow-up .................................................................58", "figure_ref": null, "candidates": [{"md_atom_id": "md_ch04_a1008", "md_file": "knowledge_base/chapters/ch04_general_assumptions.md", "md_atom_type": "HEADING", "md_parent_section": "§4.5 [Other Assumptions]", "md_verbatim": "### 4.5.8 Accounting for Long-term Follow-up", "score": 0.69, "match_basis": "verbatim_token+global_search"}, {"md_atom_id": "md_dmTA_ex_a144", "md_file": "knowledge_base/domains/TA/examples.md", "md_atom_type": "TABLE_ROW", "md_parent_section": "§TA.4 [Example 4]", "md_verbatim": "| 10 | EX4 | TA | A | A | 10 | FU | Follow-up | | | FOLLOW-UP |", "score": 0.2233, "match_basis": "verbatim_token+global_search"}, {"md_atom_id": "md_dmTA_ex_a154", "md_file": "knowledge_base/domains/TA/examples.md", "md_atom_type": "TABLE_ROW", "md_parent_section": "§TA.4 [Example 4]", "md_verbatim": "| 20 | EX4 | TA | B | B | 10 | FU | Follow-up | | | FOLLOW-UP |", "score": 0.2233, "match_basis": "verbatim_token+global_search"}, {"md_atom_id": "md_dmTA_ex_a176", "md_file": "knowledge_base/domains/TA/examples.md", "md_atom_type": "TABLE_ROW", "md_parent_section": "§TA.5 [Example 5]", "md_verbatim": "| 8 | EX5 | TA | A | A | 8 | FU | Follow-up | | | FOLLOW-UP |", "score": 0.2233, "match_basis": "verbatim_token+global_search"}, {"md_atom_id": "md_dmTA_ex_a184", "md_file": "knowledge_base/domains/TA/examples.md", "md_atom_type": "TABLE_ROW", "md_parent_section": "§TA.5 [Example 5]", "md_verbatim": "| 16 | EX5 | TA | B | B | 8 | FU | Follow-up | | | FOLLOW-UP |", "score": 0.2233, "match_basis": "verbatim_token+global_search"}], "candidate_count": 5, "zero_candidate": false}
{"pdf_atom_id": "ig34_p0003_a043", "pdf_atom_type": "CROSS_REF", "pdf_source": "SDTMIG_v3.4", "pdf_page": 3, "pdf_parent_section": "§0 [Table of Contents]", "pdf_verbatim": "4.5.9 Baseline Values ................................................................................................59", "figure_ref": null, "candidates": [{"md_atom_id": "md_ch04_a1028", "md_file": "knowledge_base/chapters/ch04_general_assumptions.md", "md_atom_type": "HEADING", "md_parent_section": "§4.5 [Other Assumptions]", "md_verbatim": "### 4.5.9 Baseline Values", "score": 0.69, "match_basis": "verbatim_token+global_search"}, {"md_atom_id": "md_ch04_a467", "md_file": "knowledge_base/chapters/ch04_general_assumptions.md", "md_atom_type": "HEADING", "md_parent_section": "§4.3 [Coding and Controlled Terminology Assumptions]", "md_verbatim": "### 4.3.7 Use of \"Yes\" and \"No\" Values", "score": 0.2746, "match_basis": "verbatim_token+global_search"}, {"md_atom_id": "md_ch10_a133", "md_file": "knowledge_base/chapters/ch10_appendices.md", "md_atom_type": "TABLE_ROW", "md_parent_section": "§10.D [CDISC Variable-naming Fragments]", "md_verbatim": "| | | | VALUE | VAL |", "score": 0.27, "match_basis": "verbatim_token+global_search"}, {"md_atom_id": "md_dmPE_ex_a008", "md_file": "knowledge_base/domains/PE/examples.md", "md_atom_type": "TABLE_ROW", "md_parent_section": "§PE.1 [Example 1]", "md_verbatim": "| 1 | ABC | PE | ABC-001-001 | 1 | | HEAD | Head | | | | NORMAL | NORMAL | -1 | BASELINE | -1 | 1999-06-06 | -3 |", "score": 0.27, "match_basis": "verbatim_token+global_search"}, {"md_atom_id": "md_ch10_a079", "md_file": "knowledge_base/chapters/ch10_appendices.md", "md_atom_type": "TABLE_ROW", "md_parent_section": "§10.D [CDISC Variable-naming Fragments]", "md_verbatim": "| BASELINE | BL | | LIFE-THREATENING | LIFE |", "score": 0.2614, "match_basis": "verbatim_token+global_search"}], "candidate_count": 5, "zero_candidate": false}
{"pdf_atom_id": "ig34_p0003_a044", "pdf_atom_type": "CROSS_REF", "pdf_source": "SDTMIG_v3.4", "pdf_page": 3, "pdf_parent_section": "§0 [Table of Contents]", "pdf_verbatim": "5 MODELS FOR SPECIAL-PURPOSE DOMAINS.........................................................60", "figure_ref": null, "candidates": [{"md_atom_id": "md_ch10_a187", "md_file": "knowledge_base/chapters/ch10_appendices.md", "md_atom_type": "TABLE_ROW", "md_parent_section": "§10.E [Revision History]", "md_verbatim": "| **Section 5. Models for Special-purpose Domains** | | |", "score": 0.57, "match_basis": "verbatim_token+global_search"}, {"md_atom_id": "md_index_a028", "md_file": "knowledge_base/INDEX.md", "md_atom_type": "HEADING", "md_parent_section": "§ Domains (63 domains)", "md_verbatim": "### Special-purpose Domains", "score": 0.54, "match_basis": "verbatim_token+global_search"}, {"md_atom_id": "md_index_a011", "md_file": "knowledge_base/INDEX.md", "md_atom_type": "TABLE_ROW", "md_parent_section": "§ Model (SDTM v2.0 Conceptual Model)", "md_verbatim": "| [special_purpose_domains.md](model/03_special_purpose_domains.md) | SDTM v2.0 Ch3.2 | DM (38 vars), CO (15 vars), SE (13 vars), SJ (10 vars), SV (16 vars), SM (10 vars) |", "score": 0.522, "match_basis": "verbatim_token+global_search"}, {"md_atom_id": "md_model03_a001", "md_file": "knowledge_base/model/03_special_purpose_domains.md", "md_atom_type": "HEADING", "md_parent_section": "§ SDTM v2.0 — Chapter 3.2: Special-purpose Domains", "md_verbatim": "# SDTM v2.0 — Chapter 3.2: Special-purpose Domains", "score": 0.4233, "match_basis": "verbatim_token+global_search"}, {"md_atom_id": "md_model03_a006", "md_file": "knowledge_base/model/03_special_purpose_domains.md", "md_atom_type": "SENTENCE", "md_parent_section": "§ Overview", "md_verbatim": "Other special-purpose domains may be included.", "score": 0.39, "match_basis": "verbatim_token+global_search"}], "candidate_count": 5, "zero_candidate": false}
{"pdf_atom_id": "ig34_p0003_a045", "pdf_atom_type": "CROSS_REF", "pdf_source": "SDTMIG_v3.4", "pdf_page": 3, "pdf_parent_section": "§0 [Table of Contents]", "pdf_verbatim": "5.1 COMMENTS (CO)........................................................................................................60", "figure_ref": null, "candidates": [{"md_atom_id": "md_model03_a063", "md_file": "knowledge_base/model/03_special_purpose_domains.md", "md_atom_type": "HEADING", "md_parent_section": "§ Comments (CO)", "md_verbatim": "## Comments (CO)", "score": 0.69, "match_basis": "verbatim_token+global_search"}, {"md_atom_id": "md_ch10_a088", "md_file": "knowledge_base/chapters/ch10_appendices.md", "md_atom_type": "TABLE_ROW", "md_parent_section": "§10.D [CDISC Variable-naming Fragments]", "md_verbatim": "| COMMENT | COM | | ONGOING | ONGO |", "score": 0.3627, "match_basis": "verbatim_token+global_search"}, {"md_atom_id": "md_varindex_a245", "md_file": "knowledge_base/VARIABLE_INDEX.md", "md_atom_type": "HEADING", "md_parent_section": "§ 二、领域专属变量（仅 1 个域，共 1499 个），按域分组", "md_verbatim": "### CO — Comments (Special-Purpose)", "score": 0.315, "match_basis": "verbatim_token+global_search"}, {"md_atom_id": "md_model03_a080", "md_file": "knowledge_base/model/03_special_purpose_domains.md", "md_atom_type": "TABLE_ROW", "md_parent_section": "§ Comments (CO) > Variables (15 variables)", "md_verbatim": "| 11 | COVAL | Comment | Char | Topic |", "score": 0.3043, "match_basis": "verbatim_token+global_search"}, {"md_atom_id": "md_varindex_a249", "md_file": "knowledge_base/VARIABLE_INDEX.md", "md_atom_type": "TABLE_ROW", "md_parent_section": "§ 二、领域专属变量（仅 1 个域，共 1499 个），按域分组", "md_verbatim": "| COVAL | Comment | Char | Topic | Req | — |", "score": 0.29, "match_basis": "verbatim_token+global_search"}], "candidate_count": 5, "zero_candidate": false}
{"pdf_atom_id": "ig34_p0003_a046", "pdf_atom_type": "CROSS_REF", "pdf_source": "SDTMIG_v3.4", "pdf_page": 3, "pdf_parent_section": "§0 [Table of Contents]", "pdf_verbatim": "5.2 DEMOGRAPHICS (DM)..................................................................................................62", "figure_ref": null, "candidates": [{"md_atom_id": "md_model03_a007", "md_file": "knowledge_base/model/03_special_purpose_domains.md", "md_atom_type": "HEADING", "md_parent_section": "§ Demographics (DM)", "md_verbatim": "## Demographics (DM)", "score": 0.69, "match_basis": "verbatim_token+global_search"}, {"md_atom_id": "md_varindex_a378", "md_file": "knowledge_base/VARIABLE_INDEX.md", "md_atom_type": "HEADING", "md_parent_section": "§ 二、领域专属变量（仅 1 个域，共 1499 个），按域分组", "md_verbatim": "### DM — Demographics (Special-Purpose)", "score": 0.39, "match_basis": "verbatim_token+global_search"}, {"md_atom_id": "md_index_a112", "md_file": "knowledge_base/INDEX.md", "md_atom_type": "TABLE_ROW", "md_parent_section": "§ Terminology (91 files)", "md_verbatim": "| [dm.md](terminology/core/dm.md) | Demographics codelists |", "score": 0.3043, "match_basis": "verbatim_token+global_search"}, {"md_atom_id": "md_ch04_a198", "md_file": "knowledge_base/chapters/ch04_general_assumptions.md", "md_atom_type": "LIST_ITEM", "md_parent_section": "§4.2.2 [Two-character Domain Identifier]", "md_verbatim": "- All Demographics (DM) domain variables other than DMDTC and DMDY", "score": 0.2775, "match_basis": "verbatim_token+global_search"}, {"md_atom_id": "md_dmDM_ex_a070", "md_file": "knowledge_base/domains/DM/examples.md", "md_atom_type": "SENTENCE", "md_parent_section": "§DM.4 [Example 4]", "md_verbatim": "**Demographics Sample aCRF for Race with Additional Granularity**", "score": 0.2522, "match_basis": "verbatim_token+global_search"}], "candidate_count": 5, "zero_candidate": false}
{"pdf_atom_id": "ig34_p0003_a047", "pdf_atom_type": "CROSS_REF", "pdf_source": "SDTMIG_v3.4", "pdf_page": 3, "pdf_parent_section": "§0 [Table of Contents]", "pdf_verbatim": "5.3 SUBJECT ELEMENTS (SE) ............................................................................................79", "figure_ref": null, "candidates": [{"md_atom_id": "md_model03_a085", "md_file": "knowledge_base/model/03_special_purpose_domains.md", "md_atom_type": "HEADING", "md_parent_section": "§ Subject Elements (SE)", "md_verbatim": "## Subject Elements (SE)", "score": 0.69, "match_basis": "verbatim_token+global_search"}, {"md_atom_id": "md_varindex_a1384", "md_file": "knowledge_base/VARIABLE_INDEX.md", "md_atom_type": "HEADING", "md_parent_section": "§ 二、领域专属变量（仅 1 个域，共 1499 个），按域分组", "md_verbatim": "### SE — Subject Elements (Special-Purpose)", "score": 0.4043, "match_basis": "verbatim_token+global_search"}, {"md_atom_id": "md_ch10_a191", "md_file": "knowledge_base/chapters/ch10_appendices.md", "md_atom_type": "TABLE_ROW", "md_parent_section": "§10.E [Revision History]", "md_verbatim": "| 5.3 | Subject Elements (SE) | Added SESTDY and SEENDY |", "score": 0.377, "match_basis": "verbatim_token+global_search"}, {"md_atom_id": "md_dmDM_ex_a025", "md_file": "knowledge_base/domains/DM/examples.md", "md_atom_type": "SENTENCE", "md_parent_section": "§DM.2 [Example 2]", "md_verbatim": "**Rows 1-3:** Subject 001 completed all the elements for arm A.", "score": 0.354, "match_basis": "verbatim_token+global_search"}, {"md_atom_id": "md_dmDM_ex_a026", "md_file": "knowledge_base/domains/DM/examples.md", "md_atom_type": "SENTENCE", "md_parent_section": "§DM.2 [Example 2]", "md_verbatim": "**Rows 4-6:** Subject 002 completed all the elements for arm B.", "score": 0.354, "match_basis": "verbatim_token+global_search"}], "candidate_count": 5, "zero_candidate": false}
{"pdf_atom_id": "ig34_p0003_a048", "pdf_atom_type": "CROSS_REF", "pdf_source": "SDTMIG_v3.4", "pdf_page": 3, "pdf_parent_section": "§0 [Table of Contents]", "pdf_verbatim": "5.4 SUBJECT DISEASE MILESTONES (SM) ..........................................................................84", "figure_ref": null, "candidates": [{"md_atom_id": "md_model03_a146", "md_file": "knowledge_base/model/03_special_purpose_domains.md", "md_atom_type": "HEADING", "md_parent_section": "§ Subject Disease Milestones (SM)", "md_verbatim": "## Subject Disease Milestones (SM)", "score": 0.69, "match_basis": "verbatim_token+global_search"}, {"md_atom_id": "md_varindex_a1392", "md_file": "knowledge_base/VARIABLE_INDEX.md", "md_atom_type": "HEADING", "md_parent_section": "§ 二、领域专属变量（仅 1 个域，共 1499 个），按域分组", "md_verbatim": "### SM — Subject Disease Milestones (Special-Purpose)", "score": 0.4757, "match_basis": "verbatim_token+global_search"}, {"md_atom_id": "md_model05_a109", "md_file": "knowledge_base/model/05_study_level_data.md", "md_atom_type": "HEADING", "md_parent_section": "§ Trial Disease Milestones (TM)", "md_verbatim": "### Trial Disease Milestones (TM)", "score": 0.4614, "match_basis": "verbatim_token+global_search"}, {"md_atom_id": "md_model03_a147", "md_file": "knowledge_base/model/03_special_purpose_domains.md", "md_atom_type": "NOTE", "md_parent_section": "§ Subject Disease Milestones (SM)", "md_verbatim": "**Structure:** One record per Disease Milestone per subject", "score": 0.43, "match_basis": "verbatim_token+global_search"}, {"md_atom_id": "md_ch04_a809", "md_file": "knowledge_base/chapters/ch04_general_assumptions.md", "md_atom_type": "HEADING", "md_parent_section": "§4.4.11 [Disease Milestones and Disease Milestone Timing Variables]", "md_verbatim": "#### Linking and Disease Milestones", "score": 0.415, "match_basis": "verbatim_token+global_search"}], "candidate_count": 5, "zero_candidate": false}
{"pdf_atom_id": "ig34_p0003_a049", "pdf_atom_type": "CROSS_REF", "pdf_source": "SDTMIG_v3.4", "pdf_page": 3, "pdf_parent_section": "§0 [Table of Contents]", "pdf_verbatim": "5.5 SUBJECT VISITS (SV) ..................................................................................................86", "figure_ref": null, "candidates": [{"md_atom_id": "md_model03_a123", "md_file": "knowledge_base/model/03_special_purpose_domains.md", "md_atom_type": "HEADING", "md_parent_section": "§ Subject Visits (SV)", "md_verbatim": "## Subject Visits (SV)", "score": 0.69, "match_basis": "verbatim_token+global_search"}, {"md_atom_id": "md_varindex_a1489", "md_file": "knowledge_base/VARIABLE_INDEX.md", "md_atom_type": "HEADING", "md_parent_section": "§ 二、领域专属变量（仅 1 个域，共 1499 个），按域分组", "md_verbatim": "### SV — Subject Visits (Special-Purpose)", "score": 0.3742, "match_basis": "verbatim_token+global_search"}, {"md_atom_id": "md_ch04_a222", "md_file": "knowledge_base/chapters/ch04_general_assumptions.md", "md_atom_type": "NOTE", "md_parent_section": "§4.2.6 [Grouping Variables and Categorization]", "md_verbatim": "**For the subject:**", "score": 0.3627, "match_basis": "verbatim_token+global_search"}, {"md_atom_id": "md_ch04_a201", "md_file": "knowledge_base/chapters/ch04_general_assumptions.md", "md_atom_type": "HEADING", "md_parent_section": "§4.2 [General Variable Assumptions]", "md_verbatim": "### 4.2.3 Use of \"Subject\" and USUBJID", "score": 0.3043, "match_basis": "verbatim_token+global_search"}, {"md_atom_id": "md_ch08_a295", "md_file": "knowledge_base/chapters/ch08_relationships.md", "md_atom_type": "SENTENCE", "md_parent_section": "§8.7 [Related Subjects (RELSUB)]", "md_verbatim": "**Row 1:** Subject is the mother.", "score": 0.3043, "match_basis": "verbatim_token+global_search"}], "candidate_count": 5, "zero_candidate": false}
{"pdf_atom_id": "ig34_p0003_a050", "pdf_atom_type": "CROSS_REF", "pdf_source": "SDTMIG_v3.4", "pdf_page": 3, "pdf_parent_section": "§0 [Table of Contents]", "pdf_verbatim": "6 DOMAIN MODELS BASED ON THE GENERAL OBSERVATION CLASSES........92", "figure_ref": null, "candidates": [{"md_atom_id": "md_ch10_a194", "md_file": "knowledge_base/chapters/ch10_appendices.md", "md_atom_type": "TABLE_ROW", "md_parent_section": "§10.E [Revision History]", "md_verbatim": "| **Section 6. Domain Models Based on the General Observation Classes** | | |", "score": 0.6371, "match_basis": "verbatim_token+global_search"}, {"md_atom_id": "md_ch02_a044", "md_file": "knowledge_base/chapters/ch02_fundamentals.md", "md_atom_type": "HEADING", "md_parent_section": "§2 [Fundamentals of the SDTM]", "md_verbatim": "## 2.3 The General Observation Classes", "score": 0.4771, "match_basis": "verbatim_token+global_search"}, {"md_atom_id": "md_model02_a161", "md_file": "knowledge_base/model/02_observation_classes.md", "md_atom_type": "SENTENCE", "md_parent_section": "§3.1.4 Identifiers for All Classes", "md_verbatim": "STUDYID, DOMAIN, and --SEQ are required in all domains based on one of the 3 general observation classes.", "score": 0.4275, "match_basis": "verbatim_token+global_search"}, {"md_atom_id": "md_ch02_a054", "md_file": "knowledge_base/chapters/ch02_fundamentals.md", "md_atom_type": "HEADING", "md_parent_section": "§2 [Fundamentals of the SDTM]", "md_verbatim": "## 2.4 Datasets Other than General Observation Class Domains", "score": 0.4266, "match_basis": "verbatim_token+global_search"}, {"md_atom_id": "md_model02_a001", "md_file": "knowledge_base/model/02_observation_classes.md", "md_atom_type": "HEADING", "md_parent_section": "§ SDTM v2.0 — Chapter 3.1: The General Observation Classes", "md_verbatim": "# SDTM v2.0 — Chapter 3.1: The General Observation Classes", "score": 0.4058, "match_basis": "verbatim_token+global_search"}], "candidate_count": 5, "zero_candidate": false}
{"pdf_atom_id": "ig34_p0003_a051", "pdf_atom_type": "CROSS_REF", "pdf_source": "SDTMIG_v3.4", "pdf_page": 3, "pdf_parent_section": "§0 [Table of Contents]", "pdf_verbatim": "6.1 MODELS FOR INTERVENTIONS DOMAINS.....................................................................92", "figure_ref": null, "candidates": [{"md_atom_id": "md_index_a035", "md_file": "knowledge_base/INDEX.md", "md_atom_type": "HEADING", "md_parent_section": "§ Domains (63 domains)", "md_verbatim": "### Interventions Domains", "score": 0.5471, "match_basis": "verbatim_token+global_search"}, {"md_atom_id": "md_ch04_a317", "md_file": "knowledge_base/chapters/ch04_general_assumptions.md", "md_atom_type": "NOTE", "md_parent_section": "§4.2.7.3 [\"Specify\" Values for Topic Variables]", "md_verbatim": "**Interventions**", "score": 0.4043, "match_basis": "verbatim_token+global_search"}, {"md_atom_id": "md_ch04_a455", "md_file": "knowledge_base/chapters/ch04_general_assumptions.md", "md_atom_type": "SENTENCE", "md_parent_section": "§4.3.6 [Storing Topic Variables for General Domain Models]", "md_verbatim": "For an Interventions domain, the topic variable is --TRT.", "score": 0.39, "match_basis": "verbatim_token+global_search"}, {"md_atom_id": "md_ch04_a186", "md_file": "knowledge_base/chapters/ch04_general_assumptions.md", "md_atom_type": "HEADING", "md_parent_section": "§4.2.1 [Variable-Naming Conventions]", "md_verbatim": "#### 4.2.1.2 --TRT Conventions (Interventions)", "score": 0.354, "match_basis": "verbatim_token+global_search"}, {"md_atom_id": "md_ch02_a107", "md_file": "knowledge_base/chapters/ch02_fundamentals.md", "md_atom_type": "TABLE_ROW", "md_parent_section": "§2.7 [SDTM Variables Not Allowed in the SDTMIG]", "md_verbatim": "| --METHOD | Interventions |", "score": 0.354, "match_basis": "verbatim_token+global_search"}], "candidate_count": 5, "zero_candidate": false}
{"pdf_atom_id": "ig34_p0003_a052", "pdf_atom_type": "CROSS_REF", "pdf_source": "SDTMIG_v3.4", "pdf_page": 3, "pdf_parent_section": "§0 [Table of Contents]", "pdf_verbatim": "6.1.1 Procedure Agents (AG)......................................................................................92", "figure_ref": null, "candidates": [{"md_atom_id": "md_varindex_a093", "md_file": "knowledge_base/VARIABLE_INDEX.md", "md_atom_type": "HEADING", "md_parent_section": "§ 二、领域专属变量（仅 1 个域，共 1499 个），按域分组", "md_verbatim": "### AG — Procedure Agents (Interventions)", "score": 0.4043, "match_basis": "verbatim_token+global_search"}, {"md_atom_id": "md_dmAG_assn_a014", "md_file": "knowledge_base/domains/AG/assumptions.md", "md_atom_type": "LIST_ITEM", "md_parent_section": "§AG [AG — Assumptions]", "md_verbatim": "4. Prespecified terms; presence or absence of procedure agents", "score": 0.31, "match_basis": "verbatim_token+global_search"}, {"md_atom_id": "md_varindex_a1173", "md_file": "knowledge_base/VARIABLE_INDEX.md", "md_atom_type": "HEADING", "md_parent_section": "§ 二、领域专属变量（仅 1 个域，共 1499 个），按域分组", "md_verbatim": "### PR — Procedures (Interventions)", "score": 0.3082, "match_basis": "verbatim_token+global_search"}, {"md_atom_id": "md_index_a037", "md_file": "knowledge_base/INDEX.md", "md_atom_type": "TABLE_ROW", "md_parent_section": "§ Domains (63 domains)", "md_verbatim": "| [AG](domains/AG/) | Procedure Agents | [spec](domains/AG/spec.md) · [assumptions](domains/AG/assumptions.md) · [examples](domains/AG/examples.md) |", "score": 0.29, "match_basis": "verbatim_token+global_search"}, {"md_atom_id": "md_varindex_a1201", "md_file": "knowledge_base/VARIABLE_INDEX.md", "md_atom_type": "TABLE_ROW", "md_parent_section": "§ 二、领域专属变量（仅 1 个域，共 1499 个），按域分组", "md_verbatim": "| PRENDY | Study Day of End of Procedure | Num | Timing | Perm | — |", "score": 0.2515, "match_basis": "verbatim_token+global_search"}], "candidate_count": 5, "zero_candidate": false}
{"pdf_atom_id": "ig34_p0003_a053", "pdf_atom_type": "CROSS_REF", "pdf_source": "SDTMIG_v3.4", "pdf_page": 3, "pdf_parent_section": "§0 [Table of Contents]", "pdf_verbatim": "6.1.2 Concomitant/Prior Medications (CM)................................................................98", "figure_ref": null, "candidates": [{"md_atom_id": "md_ch04_a663", "md_file": "knowledge_base/chapters/ch04_general_assumptions.md", "md_atom_type": "SENTENCE", "md_parent_section": "§4.4.7 [Use of Relative Timing Variables]", "md_verbatim": "**Example 2: Prior and Concomitant Medications**", "score": 0.5567, "match_basis": "verbatim_token+global_search"}, {"md_atom_id": "md_ch10_a196", "md_file": "knowledge_base/chapters/ch10_appendices.md", "md_atom_type": "TABLE_ROW", "md_parent_section": "§10.E [Revision History]", "md_verbatim": "| 6.1.2 | Concomitant/Prior Medications (CM) | Example 5 is new |", "score": 0.5567, "match_basis": "verbatim_token+global_search"}, {"md_atom_id": "md_varindex_a207", "md_file": "knowledge_base/VARIABLE_INDEX.md", "md_atom_type": "HEADING", "md_parent_section": "§ 二、领域专属变量（仅 1 个域，共 1499 个），按域分组", "md_verbatim": "### CM — Concomitant/Prior Medications (Interventions)", "score": 0.5245, "match_basis": "verbatim_token+global_search"}, {"md_atom_id": "md_ch04_a652", "md_file": "knowledge_base/chapters/ch04_general_assumptions.md", "md_atom_type": "LIST_ITEM", "md_parent_section": "§4.4.7 [Use of Relative Timing Variables]", "md_verbatim": "- **Concomitant Medications (--STRF/--ENRF):** --STRF = \"BEFORE\", --ENRF = \"DURING\"", "score": 0.4173, "match_basis": "verbatim_token+global_search"}, {"md_atom_id": "md_index_a038", "md_file": "knowledge_base/INDEX.md", "md_atom_type": "TABLE_ROW", "md_parent_section": "§ Domains (63 domains)", "md_verbatim": "| [CM](domains/CM/) | Concomitant/Prior Medications | [spec](domains/CM/spec.md) · [assumptions](domains/CM/assumptions.md) · [examples](domains/CM/examples.md) |", "score": 0.405, "match_basis": "verbatim_token+global_search"}], "candidate_count": 5, "zero_candidate": false}
{"pdf_atom_id": "ig34_p0004_a001", "pdf_atom_type": "CROSS_REF", "pdf_source": "SDTMIG_v3.4", "pdf_page": 4, "pdf_parent_section": "§0 [Table of Contents]", "pdf_verbatim": "6.1.3 Exposure Domains ............................................................................................103", "figure_ref": null, "candidates": [{"md_atom_id": "md_index_a023", "md_file": "knowledge_base/INDEX.md", "md_atom_type": "HEADING", "md_parent_section": "§ SDTM Knowledge Base — Index", "md_verbatim": "## Domains (63 domains)", "score": 0.34, "match_basis": "verbatim_token+global_search"}, {"md_atom_id": "md_index_a040", "md_file": "knowledge_base/INDEX.md", "md_atom_type": "TABLE_ROW", "md_parent_section": "§ Domains (63 domains)", "md_verbatim": "| [EX](domains/EX/) | Exposure | [spec](domains/EX/spec.md) · [assumptions](domains/EX/assumptions.md) · [examples](domains/EX/examples.md) |", "score": 0.3176, "match_basis": "verbatim_token+global_search"}, {"md_atom_id": "md_ch04_a102", "md_file": "knowledge_base/chapters/ch04_general_assumptions.md", "md_atom_type": "SENTENCE", "md_parent_section": "§4.1.7.1 [Example of Splitting Questionnaires]", "md_verbatim": "**SUPP-- Domains**", "score": 0.3043, "match_basis": "verbatim_token+global_search"}, {"md_atom_id": "md_routing_a007", "md_file": "knowledge_base/ROUTING.md", "md_atom_type": "TABLE_ROW", "md_parent_section": "§ 快速入口", "md_verbatim": "| 按域名查找 | [INDEX.md](INDEX.md) → domains/{DOMAIN}/ |", "score": 0.29, "match_basis": "verbatim_token+global_search"}, {"md_atom_id": "md_varindex_a005", "md_file": "knowledge_base/VARIABLE_INDEX.md", "md_atom_type": "SENTENCE", "md_parent_section": "§ 使用说明", "md_verbatim": "查询变量时，在本文件搜索变量名即可找到它出现在哪些 domain、属于什么角色/类型/核心程度。", "score": 0.29, "match_basis": "verbatim_token+global_search"}], "candidate_count": 5, "zero_candidate": false}
{"pdf_atom_id": "ig34_p0004_a002", "pdf_atom_type": "CROSS_REF", "pdf_source": "SDTMIG_v3.4", "pdf_page": 4, "pdf_parent_section": "§0 [Table of Contents]", "pdf_verbatim": "6.1.3.1 Exposure (EX)...............................................................................................104", "figure_ref": null, "candidates": [{"md_atom_id": "md_varindex_a513", "md_file": "knowledge_base/VARIABLE_INDEX.md", "md_atom_type": "HEADING", "md_parent_section": "§ 二、领域专属变量（仅 1 个域，共 1499 个），按域分组", "md_verbatim": "### EX — Exposure (Interventions)", "score": 0.29, "match_basis": "verbatim_token+global_search"}, {"md_atom_id": "md_model02_a211", "md_file": "knowledge_base/model/02_observation_classes.md", "md_atom_type": "TABLE_ROW", "md_parent_section": "§3.1.5 > Study Day Variables", "md_verbatim": "| 23 | --XENDY | End Day of Obs Relative to Exposure | Num | |", "score": 0.2795, "match_basis": "verbatim_token+global_search"}, {"md_atom_id": "md_dmEX_assn_a014", "md_file": "knowledge_base/domains/EX/assumptions.md", "md_atom_type": "LIST_ITEM", "md_parent_section": "§EX [EX — Assumptions]", "md_verbatim": "2. Exposure treatment description", "score": 0.2465, "match_basis": "verbatim_token+global_search"}, {"md_atom_id": "md_varindex_a434", "md_file": "knowledge_base/VARIABLE_INDEX.md", "md_atom_type": "HEADING", "md_parent_section": "§ 二、领域专属变量（仅 1 个域，共 1499 个），按域分组", "md_verbatim": "### EC — Exposure as Collected (Interventions)", "score": 0.234, "match_basis": "verbatim_token+global_search"}, {"md_atom_id": "md_model02_a209", "md_file": "knowledge_base/model/02_observation_classes.md", "md_atom_type": "TABLE_ROW", "md_parent_section": "§3.1.5 > Study Day Variables", "md_verbatim": "| 21 | --XDY | Day of Obs Relative to Exposure | Num | Derived relative to RFXSTDTC |", "score": 0.2233, "match_basis": "verbatim_token+global_search"}], "candidate_count": 5, "zero_candidate": false}
{"pdf_atom_id": "ig34_p0004_a003", "pdf_atom_type": "CROSS_REF", "pdf_source": "SDTMIG_v3.4", "pdf_page": 4, "pdf_parent_section": "§0 [Table of Contents]", "pdf_verbatim": "6.1.3.2 Exposure as Collected (EC)............................................................................107", "figure_ref": null, "candidates": [{"md_atom_id": "md_varindex_a434", "md_file": "knowledge_base/VARIABLE_INDEX.md", "md_atom_type": "HEADING", "md_parent_section": "§ 二、领域专属变量（仅 1 个域，共 1499 个），按域分组", "md_verbatim": "### EC — Exposure as Collected (Interventions)", "score": 0.402, "match_basis": "verbatim_token+global_search"}, {"md_atom_id": "md_index_a039", "md_file": "knowledge_base/INDEX.md", "md_atom_type": "TABLE_ROW", "md_parent_section": "§ Domains (63 domains)", "md_verbatim": "| [EC](domains/EC/) | Exposure as Collected | [spec](domains/EC/spec.md) · [assumptions](domains/EC/assumptions.md) · [examples](domains/EC/examples.md) |", "score": 0.3067, "match_basis": "verbatim_token+global_search"}, {"md_atom_id": "md_model02_a215", "md_file": "knowledge_base/model/02_observation_classes.md", "md_atom_type": "TABLE_ROW", "md_parent_section": "§3.1.5 > Study Day Variables", "md_verbatim": "| 27 | --DUR | Collected Duration | Char | ISO 8601 duration |", "score": 0.258, "match_basis": "verbatim_token+global_search"}, {"md_atom_id": "md_dmCE_ex_a059", "md_file": "knowledge_base/domains/CE/examples.md", "md_atom_type": "TABLE_ROW", "md_parent_section": "§CE.3 [Example 3]", "md_verbatim": "| Date of collection | -- / --- / -- |", "score": 0.2479, "match_basis": "verbatim_token+global_search"}, {"md_atom_id": "md_dmDM_ex_a172", "md_file": "knowledge_base/domains/DM/examples.md", "md_atom_type": "TABLE_ROW", "md_parent_section": "§DM.6 [Example 6]", "md_verbatim": "| 3 | ABC789 | DM | ABC789-010-003 | | | CRACE8 | Collected Race 8 | BLACK | CRF | |", "score": 0.24, "match_basis": "verbatim_token+global_search"}], "candidate_count": 5, "zero_candidate": false}
{"pdf_atom_id": "ig34_p0004_a004", "pdf_atom_type": "CROSS_REF", "pdf_source": "SDTMIG_v3.4", "pdf_page": 4, "pdf_parent_section": "§0 [Table of Contents]", "pdf_verbatim": "6.1.3.3 Exposure/Exposure as Collected Examples.....................................................111", "figure_ref": null, "candidates": [{"md_atom_id": "md_index_a039", "md_file": "knowledge_base/INDEX.md", "md_atom_type": "TABLE_ROW", "md_parent_section": "§ Domains (63 domains)", "md_verbatim": "| [EC](domains/EC/) | Exposure as Collected | [spec](domains/EC/spec.md) · [assumptions](domains/EC/assumptions.md) · [examples](domains/EC/examples.md) |", "score": 0.4067, "match_basis": "verbatim_token+global_search"}, {"md_atom_id": "md_varindex_a434", "md_file": "knowledge_base/VARIABLE_INDEX.md", "md_atom_type": "HEADING", "md_parent_section": "§ 二、领域专属变量（仅 1 个域，共 1499 个），按域分组", "md_verbatim": "### EC — Exposure as Collected (Interventions)", "score": 0.3416, "match_basis": "verbatim_token+global_search"}, {"md_atom_id": "md_index_a040", "md_file": "knowledge_base/INDEX.md", "md_atom_type": "TABLE_ROW", "md_parent_section": "§ Domains (63 domains)", "md_verbatim": "| [EX](domains/EX/) | Exposure | [spec](domains/EX/spec.md) · [assumptions](domains/EX/assumptions.md) · [examples](domains/EX/examples.md) |", "score": 0.29, "match_basis": "verbatim_token+global_search"}, {"md_atom_id": "md_dmCM_ex_a001", "md_file": "knowledge_base/domains/CM/examples.md", "md_atom_type": "HEADING", "md_parent_section": "§CM [CM — Examples]", "md_verbatim": "# CM — Examples", "score": 0.27, "match_basis": "verbatim_token+global_search"}, {"md_atom_id": "md_ch08_a184", "md_file": "knowledge_base/chapters/ch08_relationships.md", "md_atom_type": "HEADING", "md_parent_section": "§8.4 [Relating Non-standard Variable Values to a Parent Domain]", "md_verbatim": "### 8.4.3 Examples", "score": 0.27, "match_basis": "verbatim_token+global_search"}], "candidate_count": 5, "zero_candidate": false}
{"pdf_atom_id": "ig34_p0004_a005", "pdf_atom_type": "CROSS_REF", "pdf_source": "SDTMIG_v3.4", "pdf_page": 4, "pdf_parent_section": "§0 [Table of Contents]", "pdf_verbatim": "6.1.4 Meal Data (ML) ................................................................................................121", "figure_ref": null, "candidates": [{"md_atom_id": "md_dmML_ex_a006", "md_file": "knowledge_base/domains/ML/examples.md", "md_atom_type": "SENTENCE", "md_parent_section": "§ML.1 [Example 1]", "md_verbatim": "**CRF: Meal Log CRF**", "score": 0.2614, "match_basis": "verbatim_token+global_search"}, {"md_atom_id": "md_varindex_a921", "md_file": "knowledge_base/VARIABLE_INDEX.md", "md_atom_type": "HEADING", "md_parent_section": "§ 二、领域专属变量（仅 1 个域，共 1499 个），按域分组", "md_verbatim": "### ML — Meal Data (Interventions)", "score": 0.24, "match_basis": "verbatim_token+global_search"}, {"md_atom_id": "md_dmML_ex_a013", "md_file": "knowledge_base/domains/ML/examples.md", "md_atom_type": "SENTENCE", "md_parent_section": "§ML.1 [Example 1]", "md_verbatim": "**CRF: DILI Meal CRF**", "score": 0.24, "match_basis": "verbatim_token+global_search"}, {"md_atom_id": "md_dmTA_ex_a011", "md_file": "knowledge_base/domains/TA/examples.md", "md_atom_type": "LIST_ITEM", "md_parent_section": "§TA [TA — Examples]", "md_verbatim": "- The TA dataset", "score": 0.2233, "match_basis": "verbatim_token+global_search"}, {"md_atom_id": "md_ch02_a043", "md_file": "knowledge_base/chapters/ch02_fundamentals.md", "md_atom_type": "LIST_ITEM", "md_parent_section": "§2.2 [Datasets and Domains]", "md_verbatim": "- Derived data", "score": 0.21, "match_basis": "verbatim_token+global_search"}, {"md_atom_id": "md_dmDM_ex_a085", "md_file": "knowledge_base/domains/DM/examples.md", "md_atom_type": "SENTENCE", "md_parent_section": "§DM.4 [Example 4]", "md_verbatim": "**CRF Metadata**", "score": 0.21, "match_basis": "verbatim_token+global_search"}, {"md_atom_id": "md_dmDM_ex_a143", "md_file": "knowledge_base/domains/DM/examples.md", "md_atom_type": "SENTENCE", "md_parent_section": "§DM.6 [Example 6]", "md_verbatim": "**CRF Metadata**", "score": 0.21, "match_basis": "verbatim_token+global_search"}, {"md_atom_id": "md_dmSU_ex_a004", "md_file": "knowledge_base/domains/SU/examples.md", "md_atom_type": "LIST_ITEM", "md_parent_section": "§SU.1 [Example 1]", "md_verbatim": "- Smoking data", "score": 0.21, "match_basis": "verbatim_token+global_search"}, {"md_atom_id": "md_model01_a063", "md_file": "knowledge_base/model/01_concepts_and_terms.md", "md_atom_type": "TABLE_ROW", "md_parent_section": "§2.2 [Table Structure]", "md_verbatim": "| **Type** | SAS data type: `Char` or `Num` |", "score": 0.1991, "match_basis": "verbatim_token+global_search"}, {"md_atom_id": "md_ch02_a030", "md_file": "knowledge_base/chapters/ch02_fundamentals.md", "md_atom_type": "LIST_ITEM", "md_parent_section": "§2.2 [Datasets and Domains]", "md_verbatim": "1. As the dataset name", "score": 0.1991, "match_basis": "verbatim_token+global_search"}], "candidate_count": 10, "zero_candidate": false}
{"pdf_atom_id": "ig34_p0004_a006", "pdf_atom_type": "CROSS_REF", "pdf_source": "SDTMIG_v3.4", "pdf_page": 4, "pdf_parent_section": "§0 [Table of Contents]", "pdf_verbatim": "6.1.5 Procedures (PR)...............................................................................................125", "figure_ref": null, "candidates": [{"md_atom_id": "md_varindex_a1173", "md_file": "knowledge_base/VARIABLE_INDEX.md", "md_atom_type": "HEADING", "md_parent_section": "§ 二、领域专属变量（仅 1 个域，共 1499 个），按域分组", "md_verbatim": "### PR — Procedures (Interventions)", "score": 0.33, "match_basis": "verbatim_token+global_search"}, {"md_atom_id": "md_varindex_a093", "md_file": "knowledge_base/VARIABLE_INDEX.md", "md_atom_type": "HEADING", "md_parent_section": "§ 二、领域专属变量（仅 1 个域，共 1499 个），按域分组", "md_verbatim": "### AG — Procedure Agents (Interventions)", "score": 0.2726, "match_basis": "verbatim_token+global_search"}, {"md_atom_id": "md_varindex_a1201", "md_file": "knowledge_base/VARIABLE_INDEX.md", "md_atom_type": "TABLE_ROW", "md_parent_section": "§ 二、领域专属变量（仅 1 个域，共 1499 个），按域分组", "md_verbatim": "| PRENDY | Study Day of End of Procedure | Num | Timing | Perm | — |", "score": 0.265, "match_basis": "verbatim_token+global_search"}, {"md_atom_id": "md_varindex_a1180", "md_file": "knowledge_base/VARIABLE_INDEX.md", "md_atom_type": "TABLE_ROW", "md_parent_section": "§ 二、领域专属变量（仅 1 个域，共 1499 个），按域分组", "md_verbatim": "| PRTRT | Reported Name of Procedure | Char | Topic | Req | — |", "score": 0.2515, "match_basis": "verbatim_token+global_search"}, {"md_atom_id": "md_varindex_a1200", "md_file": "knowledge_base/VARIABLE_INDEX.md", "md_atom_type": "TABLE_ROW", "md_parent_section": "§ 二、领域专属变量（仅 1 个域，共 1499 个），按域分组", "md_verbatim": "| PRSTDY | Study Day of Start of Procedure | Num | Timing | Perm | — |", "score": 0.2456, "match_basis": "verbatim_token+global_search"}], "candidate_count": 5, "zero_candidate": false}
{"pdf_atom_id": "ig34_p0004_a007", "pdf_atom_type": "CROSS_REF", "pdf_source": "SDTMIG_v3.4", "pdf_page": 4, "pdf_parent_section": "§0 [Table of Contents]", "pdf_verbatim": "6.1.6 Substance Use (SU) .........................................................................................129", "figure_ref": null, "candidates": [{"md_atom_id": "md_varindex_a1448", "md_file": "knowledge_base/VARIABLE_INDEX.md", "md_atom_type": "HEADING", "md_parent_section": "§ 二、领域专属变量（仅 1 个域，共 1499 个），按域分组", "md_verbatim": "### SU — Substance Use (Interventions)", "score": 0.33, "match_basis": "verbatim_token+global_search"}, {"md_atom_id": "md_varindex_a1474", "md_file": "knowledge_base/VARIABLE_INDEX.md", "md_atom_type": "TABLE_ROW", "md_parent_section": "§ 二、领域专属变量（仅 1 个域，共 1499 个），按域分组", "md_verbatim": "| SUENDY | Study Day of End of Substance Use | Num | Timing | Perm | — |", "score": 0.29, "match_basis": "verbatim_token+global_search"}, {"md_atom_id": "md_varindex_a1473", "md_file": "knowledge_base/VARIABLE_INDEX.md", "md_atom_type": "TABLE_ROW", "md_parent_section": "§ 二、领域专属变量（仅 1 个域，共 1499 个），按域分组", "md_verbatim": "| SUSTDY | Study Day of Start of Substance Use | Num | Timing | Perm | — |", "score": 0.2746, "match_basis": "verbatim_token+global_search"}, {"md_atom_id": "md_varindex_a1475", "md_file": "knowledge_base/VARIABLE_INDEX.md", "md_atom_type": "TABLE_ROW", "md_parent_section": "§ 二、领域专属变量（仅 1 个域，共 1499 个），按域分组", "md_verbatim": "| SUDUR | Duration of Substance Use | Char | Timing | Perm | ISO 8601 duration |", "score": 0.2614, "match_basis": "verbatim_token+global_search"}, {"md_atom_id": "md_varindex_a1453", "md_file": "knowledge_base/VARIABLE_INDEX.md", "md_atom_type": "TABLE_ROW", "md_parent_section": "§ 二、领域专属变量（仅 1 个域，共 1499 个），按域分组", "md_verbatim": "| SUTRT | Reported Name of Substance | Char | Topic | Req | — |", "score": 0.2515, "match_basis": "verbatim_token+global_search"}], "candidate_count": 5, "zero_candidate": false}
{"pdf_atom_id": "ig34_p0004_a008", "pdf_atom_type": "CROSS_REF", "pdf_source": "SDTMIG_v3.4", "pdf_page": 4, "pdf_parent_section": "§0 [Table of Contents]", "pdf_verbatim": "6.2 MODELS FOR EVENTS DOMAINS....................................................................................133", "figure_ref": null, "candidates": [{"md_atom_id": "md_index_a044", "md_file": "knowledge_base/INDEX.md", "md_atom_type": "HEADING", "md_parent_section": "§ Domains (63 domains)", "md_verbatim": "### Events Domains", "score": 0.45, "match_basis": "verbatim_token+global_search"}, {"md_atom_id": "md_routing_a027", "md_file": "knowledge_base/ROUTING.md", "md_atom_type": "SENTENCE", "md_parent_section": "§ 路由规则", "md_verbatim": "**问法示例**: \"SDTM 的数据模型是什么？\"、\"怎么创建新 domain？\"、\"Events 和 Findings 有什么区别？\"", "score": 0.2987, "match_basis": "verbatim_token+global_search"}, {"md_atom_id": "md_ch04_a454", "md_file": "knowledge_base/chapters/ch04_general_assumptions.md", "md_atom_type": "SENTENCE", "md_parent_section": "§4.3.6 [Storing Topic Variables for General Domain Models]", "md_verbatim": "For an Events domain, the topic variable is --TERM.", "score": 0.29, "match_basis": "verbatim_token+global_search"}, {"md_atom_id": "md_ch02_a061", "md_file": "knowledge_base/chapters/ch02_fundamentals.md", "md_atom_type": "HEADING", "md_parent_section": "§2 [Fundamentals of the SDTM]", "md_verbatim": "## 2.5 The SDTM Standard Domain Models", "score": 0.29, "match_basis": "verbatim_token+global_search"}, {"md_atom_id": "md_ch10_a182", "md_file": "knowledge_base/chapters/ch10_appendices.md", "md_atom_type": "TABLE_ROW", "md_parent_section": "§10.E [Revision History]", "md_verbatim": "| **Section 4. Assumptions for Domain Models** | | |", "score": 0.29, "match_basis": "verbatim_token+global_search"}], "candidate_count": 5, "zero_candidate": false}
{"pdf_atom_id": "ig34_p0004_a009", "pdf_atom_type": "CROSS_REF", "pdf_source": "SDTMIG_v3.4", "pdf_page": 4, "pdf_parent_section": "§0 [Table of Contents]", "pdf_verbatim": "6.2.1 Adverse Events (AE).........................................................................................133", "figure_ref": null, "candidates": [{"md_atom_id": "md_varindex_a037", "md_file": "knowledge_base/VARIABLE_INDEX.md", "md_atom_type": "HEADING", "md_parent_section": "§ 二、领域专属变量（仅 1 个域，共 1499 个），按域分组", "md_verbatim": "### AE — Adverse Events (Events)", "score": 0.63, "match_basis": "verbatim_token+global_search"}, {"md_atom_id": "md_ch04_a269", "md_file": "knowledge_base/chapters/ch04_general_assumptions.md", "md_atom_type": "TABLE_ROW", "md_parent_section": "§4.2.7.1 [\"Specify\" Values for Non-Result Qualifier Variables]", "md_verbatim": "| [ ] Adverse Event                  |          |", "score": 0.57, "match_basis": "verbatim_token+global_search"}, {"md_atom_id": "md_ch04_a672", "md_file": "knowledge_base/chapters/ch04_general_assumptions.md", "md_atom_type": "SENTENCE", "md_parent_section": "§4.4.7 [Use of Relative Timing Variables]", "md_verbatim": "**Example 3: Adverse Events**", "score": 0.45, "match_basis": "verbatim_token+global_search"}, {"md_atom_id": "md_ch04_a331", "md_file": "knowledge_base/chapters/ch04_general_assumptions.md", "md_atom_type": "NOTE", "md_parent_section": "§4.2.7.3 [\"Specify\" Values for Topic Variables]", "md_verbatim": "**Events**", "score": 0.33, "match_basis": "verbatim_token+global_search"}, {"md_atom_id": "md_ch04_a653", "md_file": "knowledge_base/chapters/ch04_general_assumptions.md", "md_atom_type": "LIST_ITEM", "md_parent_section": "§4.4.7 [Use of Relative Timing Variables]", "md_verbatim": "- **Adverse Events (--ENRTPT):** --ENRTPT = \"ONGOING\", --ENTPT = \"DATE OF LAST DOSE\"", "score": 0.2977, "match_basis": "verbatim_token+global_search"}], "candidate_count": 5, "zero_candidate": false}
{"pdf_atom_id": "ig34_p0004_a010", "pdf_atom_type": "CROSS_REF", "pdf_source": "SDTMIG_v3.4", "pdf_page": 4, "pdf_parent_section": "§0 [Table of Contents]", "pdf_verbatim": "6.2.2 Biospecimen Events (BE) ...................................................................................143", "figure_ref": null, "candidates": [{"md_atom_id": "md_ch10_a154", "md_file": "knowledge_base/chapters/ch10_appendices.md", "md_atom_type": "TABLE_ROW", "md_parent_section": "§10.E [Revision History]", "md_verbatim": "| BE | Biospecimen Events |", "score": 0.6471, "match_basis": "verbatim_token+global_search"}, {"md_atom_id": "md_varindex_a128", "md_file": "knowledge_base/VARIABLE_INDEX.md", "md_atom_type": "HEADING", "md_parent_section": "§ 二、领域专属变量（仅 1 个域，共 1499 个），按域分组", "md_verbatim": "### BE — Biospecimen Events (Events)", "score": 0.6471, "match_basis": "verbatim_token+global_search"}, {"md_atom_id": "md_ch10_a155", "md_file": "knowledge_base/chapters/ch10_appendices.md", "md_atom_type": "TABLE_ROW", "md_parent_section": "§10.E [Revision History]", "md_verbatim": "| BS | Biospecimen Findings |", "score": 0.36, "match_basis": "verbatim_token+global_search"}, {"md_atom_id": "md_varindex_a148", "md_file": "knowledge_base/VARIABLE_INDEX.md", "md_atom_type": "HEADING", "md_parent_section": "§ 二、领域专属变量（仅 1 个域，共 1499 个），按域分组", "md_verbatim": "### BS — Biospecimen Findings (Findings)", "score": 0.36, "match_basis": "verbatim_token+global_search"}, {"md_atom_id": "md_varindex_a146", "md_file": "knowledge_base/VARIABLE_INDEX.md", "md_atom_type": "TABLE_ROW", "md_parent_section": "§ 二、领域专属变量（仅 1 个域，共 1499 个），按域分组", "md_verbatim": "| BEENDY | Study Day of End of Biospecimen Event | Num | Timing | Perm | — |", "score": 0.3383, "match_basis": "verbatim_token+global_search"}], "candidate_count": 5, "zero_candidate": false}
{"pdf_atom_id": "ig34_p0004_a011", "pdf_atom_type": "CROSS_REF", "pdf_source": "SDTMIG_v3.4", "pdf_page": 4, "pdf_parent_section": "§0 [Table of Contents]", "pdf_verbatim": "6.2.3 Clinical Events (CE).........................................................................................148", "figure_ref": null, "candidates": [{"md_atom_id": "md_varindex_a178", "md_file": "knowledge_base/VARIABLE_INDEX.md", "md_atom_type": "HEADING", "md_parent_section": "§ 二、领域专属变量（仅 1 个域，共 1499 个），按域分组", "md_verbatim": "### CE — Clinical Events (Events)", "score": 0.6355, "match_basis": "verbatim_token+global_search"}, {"md_atom_id": "md_dmCE_ex_a027", "md_file": "knowledge_base/domains/CE/examples.md", "md_atom_type": "SENTENCE", "md_parent_section": "§CE.2 [Example 2]", "md_verbatim": "**CRF: CE Example 2 — Clinical Events with Severity**", "score": 0.34, "match_basis": "verbatim_token+global_search"}, {"md_atom_id": "md_ch10_a086", "md_file": "knowledge_base/chapters/ch10_appendices.md", "md_atom_type": "TABLE_ROW", "md_parent_section": "§10.D [CDISC Variable-naming Fragments]", "md_verbatim": "| CLINICAL | CL | | NUMERIC | N |", "score": 0.315, "match_basis": "verbatim_token+global_search"}, {"md_atom_id": "md_dmCE_ex_a005", "md_file": "knowledge_base/domains/CE/examples.md", "md_atom_type": "SENTENCE", "md_parent_section": "§CE.1 [Example 1]", "md_verbatim": "**CRF: CE Example 1 — Prespecified Clinical Events**", "score": 0.3122, "match_basis": "verbatim_token+global_search"}, {"md_atom_id": "md_ch04_a331", "md_file": "knowledge_base/chapters/ch04_general_assumptions.md", "md_atom_type": "NOTE", "md_parent_section": "§4.2.7.3 [\"Specify\" Values for Topic Variables]", "md_verbatim": "**Events**", "score": 0.3082, "match_basis": "verbatim_token+global_search"}], "candidate_count": 5, "zero_candidate": false}
{"pdf_atom_id": "ig34_p0004_a012", "pdf_atom_type": "CROSS_REF", "pdf_source": "SDTMIG_v3.4", "pdf_page": 4, "pdf_parent_section": "§0 [Table of Contents]", "pdf_verbatim": "6.2.4 Disposition (DS)...............................................................................................155", "figure_ref": null, "candidates": [{"md_atom_id": "md_varindex_a407", "md_file": "knowledge_base/VARIABLE_INDEX.md", "md_atom_type": "HEADING", "md_parent_section": "§ 二、领域专属变量（仅 1 个域，共 1499 个），按域分组", "md_verbatim": "### DS — Disposition (Events)", "score": 0.4757, "match_basis": "verbatim_token+global_search"}, {"md_atom_id": "md_ch10_a098", "md_file": "knowledge_base/chapters/ch10_appendices.md", "md_atom_type": "TABLE_ROW", "md_parent_section": "§10.D [CDISC Variable-naming Fragments]", "md_verbatim": "| DISABILITY | DISAB | | POSITION | POS |", "score": 0.3371, "match_basis": "verbatim_token+global_search"}, {"md_atom_id": "md_index_a111", "md_file": "knowledge_base/INDEX.md", "md_atom_type": "TABLE_ROW", "md_parent_section": "§ Terminology (91 files)", "md_verbatim": "| [disposition.md](terminology/core/disposition.md) | Disposition codelists |", "score": 0.2829, "match_basis": "verbatim_token+global_search"}, {"md_atom_id": "md_index_a049", "md_file": "knowledge_base/INDEX.md", "md_atom_type": "TABLE_ROW", "md_parent_section": "§ Domains (63 domains)", "md_verbatim": "| [DS](domains/DS/) | Disposition | [spec](domains/DS/spec.md) · [assumptions](domains/DS/assumptions.md) · [examples](domains/DS/examples.md) |", "score": 0.27, "match_basis": "verbatim_token+global_search"}, {"md_atom_id": "md_varindex_a420", "md_file": "knowledge_base/VARIABLE_INDEX.md", "md_atom_type": "TABLE_ROW", "md_parent_section": "§ 二、领域专属变量（仅 1 个域，共 1499 个），按域分组", "md_verbatim": "| DSSTDY | Study Day of Start of Disposition Event | Num | Timing | Exp | — |", "score": 0.27, "match_basis": "verbatim_token+global_search"}], "candidate_count": 5, "zero_candidate": false}
{"pdf_atom_id": "ig34_p0004_a013", "pdf_atom_type": "CROSS_REF", "pdf_source": "SDTMIG_v3.4", "pdf_page": 4, "pdf_parent_section": "§0 [Table of Contents]", "pdf_verbatim": "6.2.5 Healthcare Encounters (HO) .............................................................................167", "figure_ref": null, "candidates": [{"md_atom_id": "md_varindex_a654", "md_file": "knowledge_base/VARIABLE_INDEX.md", "md_atom_type": "HEADING", "md_parent_section": "§ 二、领域专属变量（仅 1 个域，共 1499 个），按域分组", "md_verbatim": "### HO — Healthcare Encounters (Events)", "score": 0.5471, "match_basis": "verbatim_token+global_search"}, {"md_atom_id": "md_varindex_a660", "md_file": "knowledge_base/VARIABLE_INDEX.md", "md_atom_type": "TABLE_ROW", "md_parent_section": "§ 二、领域专属变量（仅 1 个域，共 1499 个），按域分组", "md_verbatim": "| HOTERM | Healthcare Encounter Term | Char | Topic | Req | — |", "score": 0.4362, "match_basis": "verbatim_token+global_search"}, {"md_atom_id": "md_varindex_a673", "md_file": "knowledge_base/VARIABLE_INDEX.md", "md_atom_type": "TABLE_ROW", "md_parent_section": "§ 二、领域专属变量（仅 1 个域，共 1499 个），按域分组", "md_verbatim": "| HOENDY | Study Day of End of Healthcare Encounter | Num | Timing | Perm | — |", "score": 0.3712, "match_basis": "verbatim_token+global_search"}, {"md_atom_id": "md_varindex_a674", "md_file": "knowledge_base/VARIABLE_INDEX.md", "md_atom_type": "TABLE_ROW", "md_parent_section": "§ 二、领域专属变量（仅 1 个域，共 1499 个），按域分组", "md_verbatim": "| HODUR | Duration of Healthcare Encounter | Char | Timing | Perm | ISO 8601 duration |", "score": 0.34, "match_basis": "verbatim_token+global_search"}, {"md_atom_id": "md_index_a051", "md_file": "knowledge_base/INDEX.md", "md_atom_type": "TABLE_ROW", "md_parent_section": "§ Domains (63 domains)", "md_verbatim": "| [HO](domains/HO/) | Healthcare Encounters | [spec](domains/HO/spec.md) · [assumptions](domains/HO/assumptions.md) · [examples](domains/HO/examples.md) |", "score": 0.3362, "match_basis": "verbatim_token+global_search"}], "candidate_count": 5, "zero_candidate": false}
{"pdf_atom_id": "ig34_p0004_a014", "pdf_atom_type": "CROSS_REF", "pdf_source": "SDTMIG_v3.4", "pdf_page": 4, "pdf_parent_section": "§0 [Table of Contents]", "pdf_verbatim": "6.2.6 Medical History (MH) .......................................................................................171", "figure_ref": null, "candidates": [{"md_atom_id": "md_varindex_a830", "md_file": "knowledge_base/VARIABLE_INDEX.md", "md_atom_type": "HEADING", "md_parent_section": "§ 二、领域专属变量（仅 1 个域，共 1499 个），按域分组", "md_verbatim": "### MH — Medical History (Events)", "score": 0.49, "match_basis": "verbatim_token+global_search"}, {"md_atom_id": "md_ch04_a654", "md_file": "knowledge_base/chapters/ch04_general_assumptions.md", "md_atom_type": "SENTENCE", "md_parent_section": "§4.4.7 [Use of Relative Timing Variables]", "md_verbatim": "**Example 1: Medical History**", "score": 0.465, "match_basis": "verbatim_token+global_search"}, {"md_atom_id": "md_varindex_a836", "md_file": "knowledge_base/VARIABLE_INDEX.md", "md_atom_type": "TABLE_ROW", "md_parent_section": "§ 二、领域专属变量（仅 1 个域，共 1499 个），按域分组", "md_verbatim": "| MHTERM | Reported Term for the Medical History | Char | Topic | Req | — |", "score": 0.2969, "match_basis": "verbatim_token+global_search"}, {"md_atom_id": "md_dmMH_ex_a031", "md_file": "knowledge_base/domains/MH/examples.md", "md_atom_type": "SENTENCE", "md_parent_section": "§MH.2 [Example 2]", "md_verbatim": "**Rows 1-3:** Show records from the General Medical History CRF.", "score": 0.2969, "match_basis": "verbatim_token+global_search"}, {"md_atom_id": "md_ch04_a271", "md_file": "knowledge_base/chapters/ch04_general_assumptions.md", "md_atom_type": "TABLE_ROW", "md_parent_section": "§4.2.7.1 [\"Specify\" Values for Non-Result Qualifier Variables]", "md_verbatim": "| [ ] Non-medical Reason             |          |", "score": 0.2775, "match_basis": "verbatim_token+global_search"}], "candidate_count": 5, "zero_candidate": false}
{"pdf_atom_id": "ig34_p0004_a015", "pdf_atom_type": "CROSS_REF", "pdf_source": "SDTMIG_v3.4", "pdf_page": 4, "pdf_parent_section": "§0 [Table of Contents]", "pdf_verbatim": "6.2.7 Protocol Deviations (DV)...................................................................................178", "figure_ref": null, "candidates": [{"md_atom_id": "md_varindex_a421", "md_file": "knowledge_base/VARIABLE_INDEX.md", "md_atom_type": "HEADING", "md_parent_section": "§ 二、领域专属变量（仅 1 个域，共 1499 个），按域分组", "md_verbatim": "### DV — Protocol Deviations (Events)", "score": 0.5321, "match_basis": "verbatim_token+global_search"}, {"md_atom_id": "md_varindex_a426", "md_file": "knowledge_base/VARIABLE_INDEX.md", "md_atom_type": "TABLE_ROW", "md_parent_section": "§ 二、领域专属变量（仅 1 个域，共 1499 个），按域分组", "md_verbatim": "| DVTERM | Protocol Deviation Term | Char | Topic | Req | — |", "score": 0.402, "match_basis": "verbatim_token+global_search"}, {"md_atom_id": "md_index_a050", "md_file": "knowledge_base/INDEX.md", "md_atom_type": "TABLE_ROW", "md_parent_section": "§ Domains (63 domains)", "md_verbatim": "| [DV](domains/DV/) | Protocol Deviations | [spec](domains/DV/spec.md) · [assumptions](domains/DV/assumptions.md) · [examples](domains/DV/examples.md) |", "score": 0.3371, "match_basis": "verbatim_token+global_search"}, {"md_atom_id": "md_dmDV_ex_a004", "md_file": "knowledge_base/domains/DV/examples.md", "md_atom_type": "SENTENCE", "md_parent_section": "§DV.1 [Example 1]", "md_verbatim": "**Rows 1, 3:** Show examples of a TREATMENT DEVIATION type of protocol deviation.", "score": 0.3194, "match_basis": "verbatim_token+global_search"}, {"md_atom_id": "md_varindex_a427", "md_file": "knowledge_base/VARIABLE_INDEX.md", "md_atom_type": "TABLE_ROW", "md_parent_section": "§ 二、领域专属变量（仅 1 个域，共 1499 个），按域分组", "md_verbatim": "| DVDECOD | Protocol Deviation Coded Term | Char | Synonym Qualifier | Perm | — |", "score": 0.29, "match_basis": "verbatim_token+global_search"}], "candidate_count": 5, "zero_candidate": false}
{"pdf_atom_id": "ig34_p0004_a016", "pdf_atom_type": "CROSS_REF", "pdf_source": "SDTMIG_v3.4", "pdf_page": 4, "pdf_parent_section": "§0 [Table of Contents]", "pdf_verbatim": "6.3 MODELS FOR FINDINGS DOMAINS ................................................................................180", "figure_ref": null, "candidates": [{"md_atom_id": "md_index_a053", "md_file": "knowledge_base/INDEX.md", "md_atom_type": "HEADING", "md_parent_section": "§ Domains (63 domains)", "md_verbatim": "### Findings Domains", "score": 0.4782, "match_basis": "verbatim_token+global_search"}, {"md_atom_id": "md_routing_a027", "md_file": "knowledge_base/ROUTING.md", "md_atom_type": "SENTENCE", "md_parent_section": "§ 路由规则", "md_verbatim": "**问法示例**: \"SDTM 的数据模型是什么？\"、\"怎么创建新 domain？\"、\"Events 和 Findings 有什么区别？\"", "score": 0.3509, "match_basis": "verbatim_token+global_search"}, {"md_atom_id": "md_ch04_a334", "md_file": "knowledge_base/chapters/ch04_general_assumptions.md", "md_atom_type": "NOTE", "md_parent_section": "§4.2.7.3 [\"Specify\" Values for Topic Variables]", "md_verbatim": "**Findings**", "score": 0.3018, "match_basis": "verbatim_token+global_search"}, {"md_atom_id": "md_ch10_a214", "md_file": "knowledge_base/chapters/ch10_appendices.md", "md_atom_type": "TABLE_ROW", "md_parent_section": "§10.E [Revision History]", "md_verbatim": "| 6.3.5.3 | Cell Phenotype Findings (CP) | This is a new domain |", "score": 0.2969, "match_basis": "verbatim_token+global_search"}, {"md_atom_id": "md_ch04_a680", "md_file": "knowledge_base/chapters/ch04_general_assumptions.md", "md_atom_type": "HEADING", "md_parent_section": "§4.4 [Use of Timing Variables]", "md_verbatim": "### 4.4.8 Date and Time Reported in a Domain Based on Findings", "score": 0.2835, "match_basis": "verbatim_token+global_search"}], "candidate_count": 5, "zero_candidate": false}
{"pdf_atom_id": "ig34_p0004_a017", "pdf_atom_type": "CROSS_REF", "pdf_source": "SDTMIG_v3.4", "pdf_page": 4, "pdf_parent_section": "§0 [Table of Contents]", "pdf_verbatim": "6.3.1 Product Accountability (DA) .............................................................................180", "figure_ref": null, "candidates": [{"md_atom_id": "md_varindex_a346", "md_file": "knowledge_base/VARIABLE_INDEX.md", "md_atom_type": "HEADING", "md_parent_section": "§ 二、领域专属变量（仅 1 个域，共 1499 个），按域分组", "md_verbatim": "### DA — Product Accountability (Findings)", "score": 0.515, "match_basis": "verbatim_token+global_search"}, {"md_atom_id": "md_dmEX_assn_a009", "md_file": "knowledge_base/domains/EX/assumptions.md", "md_atom_type": "LIST_ITEM", "md_parent_section": "§EX [EX — Assumptions]", "md_verbatim": "      iv. Derived from product accountability data", "score": 0.4678, "match_basis": "verbatim_token+global_search"}, {"md_atom_id": "md_index_a058", "md_file": "knowledge_base/INDEX.md", "md_atom_type": "TABLE_ROW", "md_parent_section": "§ Domains (63 domains)", "md_verbatim": "| [DA](domains/DA/) | Product Accountability | [spec](domains/DA/spec.md) · [assumptions](domains/DA/assumptions.md) · [examples](domains/DA/examples.md) |", "score": 0.345, "match_basis": "verbatim_token+global_search"}, {"md_atom_id": "md_ch03_a047", "md_file": "knowledge_base/chapters/ch03_submitting_data.md", "md_atom_type": "TABLE_ROW", "md_parent_section": "§3.2.1 [Dataset-level Metadata]", "md_verbatim": "| DA | Product Accountability | Findings | One record per product accountability finding per subject | Tabulation | STUDYID, USUBJID, DATESTCD, DADTC | da.xpt |", "score": 0.26, "match_basis": "verbatim_token+global_search"}, {"md_atom_id": "md_varindex_a354", "md_file": "knowledge_base/VARIABLE_INDEX.md", "md_atom_type": "TABLE_ROW", "md_parent_section": "§ 二、领域专属变量（仅 1 个域，共 1499 个），按域分组", "md_verbatim": "| DATESTCD | Short Name of Accountability Assessment | Char | Topic | Req | C78732 |", "score": 0.2432, "match_basis": "verbatim_token+global_search"}], "candidate_count": 5, "zero_candidate": false}
{"pdf_atom_id": "ig34_p0004_a018", "pdf_atom_type": "CROSS_REF", "pdf_source": "SDTMIG_v3.4", "pdf_page": 4, "pdf_parent_section": "§0 [Table of Contents]", "pdf_verbatim": "6.3.2 Death Details (DD)............................................................................................183", "figure_ref": null, "candidates": [{"md_atom_id": "md_varindex_a367", "md_file": "knowledge_base/VARIABLE_INDEX.md", "md_atom_type": "HEADING", "md_parent_section": "§ 二、领域专属变量（仅 1 个域，共 1499 个），按域分组", "md_verbatim": "### DD — Death Details (Findings)", "score": 0.41, "match_basis": "verbatim_token+global_search"}, {"md_atom_id": "md_dmML_ex_a033", "md_file": "knowledge_base/domains/ML/examples.md", "md_atom_type": "TABLE_HEADER", "md_parent_section": "§ML.2 [Example 2]", "md_verbatim": "| Group | Arms | Details |\n|-------|------|---------|", "score": 0.3043, "match_basis": "verbatim_token+global_search"}, {"md_atom_id": "md_index_a059", "md_file": "knowledge_base/INDEX.md", "md_atom_type": "TABLE_ROW", "md_parent_section": "§ Domains (63 domains)", "md_verbatim": "| [DD](domains/DD/) | Death Details | [spec](domains/DD/spec.md) · [assumptions](domains/DD/assumptions.md) · [examples](domains/DD/examples.md) |", "score": 0.2448, "match_basis": "verbatim_token+global_search"}, {"md_atom_id": "md_ch10_a209", "md_file": "knowledge_base/chapters/ch10_appendices.md", "md_atom_type": "TABLE_ROW", "md_parent_section": "§10.E [Revision History]", "md_verbatim": "| 6.3.2 | Death Details (DD) | Added assumption 4 referencing the domain codetable |", "score": 0.2131, "match_basis": "verbatim_token+global_search"}, {"md_atom_id": "md_ch10_a094", "md_file": "knowledge_base/chapters/ch10_appendices.md", "md_atom_type": "TABLE_ROW", "md_parent_section": "§10.D [CDISC Variable-naming Fragments]", "md_verbatim": "| DEATH | DTH | | OVERDOSE | OD |", "score": 0.2025, "match_basis": "verbatim_token+global_search"}], "candidate_count": 5, "zero_candidate": false}
{"pdf_atom_id": "ig34_p0004_a019", "pdf_atom_type": "CROSS_REF", "pdf_source": "SDTMIG_v3.4", "pdf_page": 4, "pdf_parent_section": "§0 [Table of Contents]", "pdf_verbatim": "6.3.3 ECG Test Results (EG) ......................................................................................185", "figure_ref": null, "candidates": [{"md_atom_id": "md_varindex_a476", "md_file": "knowledge_base/VARIABLE_INDEX.md", "md_atom_type": "HEADING", "md_parent_section": "§ 二、领域专属变量（仅 1 个域，共 1499 个），按域分组", "md_verbatim": "### EG — ECG Test Results (Findings)", "score": 0.41, "match_basis": "verbatim_token+global_search"}, {"md_atom_id": "md_ch04_a875", "md_file": "knowledge_base/chapters/ch04_general_assumptions.md", "md_atom_type": "TABLE_ROW", "md_parent_section": "§4.5.1.3 [Examples of Original and Standard Units and Test Not Done]", "md_verbatim": "| 7 | EGALL | ECG Test Results | | | | | | NOT DONE | 3 | 2015-03-21 |", "score": 0.3724, "match_basis": "verbatim_token+global_search"}, {"md_atom_id": "md_varindex_a734", "md_file": "knowledge_base/VARIABLE_INDEX.md", "md_atom_type": "HEADING", "md_parent_section": "§ 二、领域专属变量（仅 1 个域，共 1499 个），按域分组", "md_verbatim": "### LB — Laboratory Test Results (Findings)", "score": 0.2726, "match_basis": "verbatim_token+global_search"}, {"md_atom_id": "md_dmFA_ex_a110", "md_file": "knowledge_base/domains/FA/examples.md", "md_atom_type": "SENTENCE", "md_parent_section": "§FA.5 [Example 5]", "md_verbatim": "**Rows 8-10:** Show the results for the nausea tests at visit 1.", "score": 0.2726, "match_basis": "verbatim_token+global_search"}, {"md_atom_id": "md_dmFA_ex_a109", "md_file": "knowledge_base/domains/FA/examples.md", "md_atom_type": "SENTENCE", "md_parent_section": "§FA.5 [Example 5]", "md_verbatim": "**Rows 5-7:** Show the results for the diarrhea tests at visit 1.", "score": 0.258, "match_basis": "verbatim_token+global_search"}], "candidate_count": 5, "zero_candidate": false}
{"pdf_atom_id": "ig34_p0004_a020", "pdf_atom_type": "CROSS_REF", "pdf_source": "SDTMIG_v3.4", "pdf_page": 4, "pdf_parent_section": "§0 [Table of Contents]", "pdf_verbatim": "6.3.4 Inclusion/Exclusion Criteria Not Met (IE) .........................................................193", "figure_ref": null, "candidates": [{"md_atom_id": "md_model05_a118", "md_file": "knowledge_base/model/05_study_level_data.md", "md_atom_type": "HEADING", "md_parent_section": "§ Trial Inclusion/Exclusion Criteria (TI)", "md_verbatim": "### Trial Inclusion/Exclusion Criteria (TI)", "score": 0.54, "match_basis": "verbatim_token+global_search"}, {"md_atom_id": "md_varindex_a679", "md_file": "knowledge_base/VARIABLE_INDEX.md", "md_atom_type": "HEADING", "md_parent_section": "§ 二、领域专属变量（仅 1 个域，共 1499 个），按域分组", "md_verbatim": "### IE — Inclusion/Exclusion Criteria Not Met (Findings)", "score": 0.515, "match_basis": "verbatim_token+global_search"}, {"md_atom_id": "md_varindex_a1519", "md_file": "knowledge_base/VARIABLE_INDEX.md", "md_atom_type": "HEADING", "md_parent_section": "§ 二、领域专属变量（仅 1 个域，共 1499 个），按域分组", "md_verbatim": "### TI — Trial Inclusion/Exclusion Criteria (Trial Design)", "score": 0.465, "match_basis": "verbatim_token+global_search"}, {"md_atom_id": "md_varindex_a1521", "md_file": "knowledge_base/VARIABLE_INDEX.md", "md_atom_type": "TABLE_ROW", "md_parent_section": "§ 二、领域专属变量（仅 1 个域，共 1499 个），按域分组", "md_verbatim": "| TIRL | Inclusion/Exclusion Criterion Rule | Char | Rule | Perm | — |", "score": 0.4011, "match_basis": "verbatim_token+global_search"}, {"md_atom_id": "md_model05_a120", "md_file": "knowledge_base/model/05_study_level_data.md", "md_atom_type": "SENTENCE", "md_parent_section": "§ Trial Inclusion/Exclusion Criteria (TI)", "md_verbatim": "Describes the inclusion and exclusion criteria for the trial.", "score": 0.4003, "match_basis": "verbatim_token+global_search"}], "candidate_count": 5, "zero_candidate": false}
{"pdf_atom_id": "ig34_p0004_a021", "pdf_atom_type": "CROSS_REF", "pdf_source": "SDTMIG_v3.4", "pdf_page": 4, "pdf_parent_section": "§0 [Table of Contents]", "pdf_verbatim": "6.3.5 Specimen-based Findings Domains....................................................................194", "figure_ref": null, "candidates": [{"md_atom_id": "md_model02_a243", "md_file": "knowledge_base/model/02_observation_classes.md", "md_atom_type": "TABLE_ROW", "md_parent_section": "§3.1.5 > Assessment Interval and Other Timing Variables", "md_verbatim": "| 47 | --PTFL | Point in Time Flag | Char | Only in Findings class specimen-based domains |", "score": 0.4233, "match_basis": "verbatim_token+global_search"}, {"md_atom_id": "md_index_a053", "md_file": "knowledge_base/INDEX.md", "md_atom_type": "HEADING", "md_parent_section": "§ Domains (63 domains)", "md_verbatim": "### Findings Domains", "score": 0.4043, "match_basis": "verbatim_token+global_search"}, {"md_atom_id": "md_ch10_a155", "md_file": "knowledge_base/chapters/ch10_appendices.md", "md_atom_type": "TABLE_ROW", "md_parent_section": "§10.E [Revision History]", "md_verbatim": "| BS | Biospecimen Findings |", "score": 0.39, "match_basis": "verbatim_token+global_search"}, {"md_atom_id": "md_varindex_a148", "md_file": "knowledge_base/VARIABLE_INDEX.md", "md_atom_type": "HEADING", "md_parent_section": "§ 二、领域专属变量（仅 1 个域，共 1499 个），按域分组", "md_verbatim": "### BS — Biospecimen Findings (Findings)", "score": 0.39, "match_basis": "verbatim_token+global_search"}, {"md_atom_id": "md_ch04_a680", "md_file": "knowledge_base/chapters/ch04_general_assumptions.md", "md_atom_type": "HEADING", "md_parent_section": "§4.4 [Use of Timing Variables]", "md_verbatim": "### 4.4.8 Date and Time Reported in a Domain Based on Findings", "score": 0.361, "match_basis": "verbatim_token+global_search"}], "candidate_count": 5, "zero_candidate": false}
{"pdf_atom_id": "ig34_p0004_a022", "pdf_atom_type": "CROSS_REF", "pdf_source": "SDTMIG_v3.4", "pdf_page": 4, "pdf_parent_section": "§0 [Table of Contents]", "pdf_verbatim": "6.3.5.1 Generic Specimen-based Lab Findings Domain Specification .........................194", "figure_ref": null, "candidates": [{"md_atom_id": "md_ch01_a033", "md_file": "knowledge_base/chapters/ch01_introduction.md", "md_atom_type": "LIST_ITEM", "md_parent_section": "§1.3 [Relationship to Prior CDISC Documents]", "md_verbatim": "- Grouped specimen-based lab domains (e.g., CP, GF, LB) in Sections 6.3.5.1-6.3.5.9 and added a generic specification", "score": 0.4275, "match_basis": "verbatim_token+global_search"}, {"md_atom_id": "md_ch10_a212", "md_file": "knowledge_base/chapters/ch10_appendices.md", "md_atom_type": "TABLE_ROW", "md_parent_section": "§10.E [Revision History]", "md_verbatim": "| 6.3.5.1 | Generic Specimen-based Lab Findings Domain Specification | Added generic metadata specification for commonly used variables in specimen-based laboratory domains |", "score": 0.39, "match_basis": "verbatim_token+global_search"}, {"md_atom_id": "md_ch01_a066", "md_file": "knowledge_base/chapters/ch01_introduction.md", "md_atom_type": "HEADING", "md_parent_section": "§1.4 [How to Read this Implementation Guide]", "md_verbatim": "### 1.4.1 How to Read a Domain Specification", "score": 0.3332, "match_basis": "verbatim_token+global_search"}, {"md_atom_id": "md_model02_a244", "md_file": "knowledge_base/model/02_observation_classes.md", "md_atom_type": "TABLE_ROW", "md_parent_section": "§3.1.5 > Assessment Interval and Other Timing Variables", "md_verbatim": "| 48 | --PDUR | Planned Duration of Observation | Char | Only in Findings class specimen-based domains |", "score": 0.3216, "match_basis": "verbatim_token+global_search"}, {"md_atom_id": "md_model02_a243", "md_file": "knowledge_base/model/02_observation_classes.md", "md_atom_type": "TABLE_ROW", "md_parent_section": "§3.1.5 > Assessment Interval and Other Timing Variables", "md_verbatim": "| 47 | --PTFL | Point in Time Flag | Char | Only in Findings class specimen-based domains |", "score": 0.318, "match_basis": "verbatim_token+global_search"}], "candidate_count": 5, "zero_candidate": false}
{"pdf_atom_id": "ig34_p0004_a023", "pdf_atom_type": "CROSS_REF", "pdf_source": "SDTMIG_v3.4", "pdf_page": 4, "pdf_parent_section": "§0 [Table of Contents]", "pdf_verbatim": "6.3.5.2 Biospecimen Findings (BS).............................................................................196", "figure_ref": null, "candidates": [{"md_atom_id": "md_ch10_a155", "md_file": "knowledge_base/chapters/ch10_appendices.md", "md_atom_type": "TABLE_ROW", "md_parent_section": "§10.E [Revision History]", "md_verbatim": "| BS | Biospecimen Findings |", "score": 0.6525, "match_basis": "verbatim_token+global_search"}, {"md_atom_id": "md_varindex_a148", "md_file": "knowledge_base/VARIABLE_INDEX.md", "md_atom_type": "HEADING", "md_parent_section": "§ 二、领域专属变量（仅 1 个域，共 1499 个），按域分组", "md_verbatim": "### BS — Biospecimen Findings (Findings)", "score": 0.6525, "match_basis": "verbatim_token+global_search"}, {"md_atom_id": "md_varindex_a790", "md_file": "knowledge_base/VARIABLE_INDEX.md", "md_atom_type": "HEADING", "md_parent_section": "§ 二、领域专属变量（仅 1 个域，共 1499 个），按域分组", "md_verbatim": "### MB — Microbiology Specimen (Findings)", "score": 0.402, "match_basis": "verbatim_token+global_search"}, {"md_atom_id": "md_ch10_a154", "md_file": "knowledge_base/chapters/ch10_appendices.md", "md_atom_type": "TABLE_ROW", "md_parent_section": "§10.E [Revision History]", "md_verbatim": "| BE | Biospecimen Events |", "score": 0.36, "match_basis": "verbatim_token+global_search"}, {"md_atom_id": "md_varindex_a128", "md_file": "knowledge_base/VARIABLE_INDEX.md", "md_atom_type": "HEADING", "md_parent_section": "§ 二、领域专属变量（仅 1 个域，共 1499 个），按域分组", "md_verbatim": "### BE — Biospecimen Events (Events)", "score": 0.36, "match_basis": "verbatim_token+global_search"}], "candidate_count": 5, "zero_candidate": false}
{"pdf_atom_id": "ig34_p0004_a024", "pdf_atom_type": "CROSS_REF", "pdf_source": "SDTMIG_v3.4", "pdf_page": 4, "pdf_parent_section": "§0 [Table of Contents]", "pdf_verbatim": "6.3.5.3 Cell Phenotype Findings (CP) ........................................................................199", "figure_ref": null, "candidates": [{"md_atom_id": "md_varindex_a254", "md_file": "knowledge_base/VARIABLE_INDEX.md", "md_atom_type": "HEADING", "md_parent_section": "§ 二、领域专属变量（仅 1 个域，共 1499 个），按域分组", "md_verbatim": "### CP — Cell Phenotype Findings (Findings)", "score": 0.6525, "match_basis": "verbatim_token+global_search"}, {"md_atom_id": "md_ch10_a156", "md_file": "knowledge_base/chapters/ch10_appendices.md", "md_atom_type": "TABLE_ROW", "md_parent_section": "§10.E [Revision History]", "md_verbatim": "| CP | Cell Phenotyping Findings |", "score": 0.5567, "match_basis": "verbatim_token+global_search"}, {"md_atom_id": "md_ch10_a214", "md_file": "knowledge_base/chapters/ch10_appendices.md", "md_atom_type": "TABLE_ROW", "md_parent_section": "§10.E [Revision History]", "md_verbatim": "| 6.3.5.3 | Cell Phenotype Findings (CP) | This is a new domain |", "score": 0.4813, "match_basis": "verbatim_token+global_search"}, {"md_atom_id": "md_ch01_a037", "md_file": "knowledge_base/chapters/ch01_introduction.md", "md_atom_type": "LIST_ITEM", "md_parent_section": "§1.3 [Relationship to Prior CDISC Documents]", "md_verbatim": "- Added Cell Phenotyping Findings (CP) and Genomics Findings (GF) domains", "score": 0.3525, "match_basis": "verbatim_token+global_search"}, {"md_atom_id": "md_index_a056", "md_file": "knowledge_base/INDEX.md", "md_atom_type": "TABLE_ROW", "md_parent_section": "§ Domains (63 domains)", "md_verbatim": "| [CP](domains/CP/) | Cell Phenotype Findings | [spec](domains/CP/spec.md) · [assumptions](domains/CP/assumptions.md) · [examples](domains/CP/examples.md) |", "score": 0.3268, "match_basis": "verbatim_token+global_search"}], "candidate_count": 5, "zero_candidate": false}
{"pdf_atom_id": "ig34_p0004_a025", "pdf_atom_type": "CROSS_REF", "pdf_source": "SDTMIG_v3.4", "pdf_page": 4, "pdf_parent_section": "§0 [Table of Contents]", "pdf_verbatim": "6.3.5.4 Genomics Findings (GF) .................................................................................220", "figure_ref": null, "candidates": [{"md_atom_id": "md_ch10_a157", "md_file": "knowledge_base/chapters/ch10_appendices.md", "md_atom_type": "TABLE_ROW", "md_parent_section": "§10.E [Revision History]", "md_verbatim": "| GF | Genomics Findings |", "score": 0.6438, "match_basis": "verbatim_token+global_search"}, {"md_atom_id": "md_varindex_a603", "md_file": "knowledge_base/VARIABLE_INDEX.md", "md_atom_type": "HEADING", "md_parent_section": "§ 二、领域专属变量（仅 1 个域，共 1499 个），按域分组", "md_verbatim": "### GF — Genomics Findings (Findings)", "score": 0.6438, "match_basis": "verbatim_token+global_search"}, {"md_atom_id": "md_ch04_a334", "md_file": "knowledge_base/chapters/ch04_general_assumptions.md", "md_atom_type": "NOTE", "md_parent_section": "§4.2.7.3 [\"Specify\" Values for Topic Variables]", "md_verbatim": "**Findings**", "score": 0.3669, "match_basis": "verbatim_token+global_search"}, {"md_atom_id": "md_ch01_a037", "md_file": "knowledge_base/chapters/ch01_introduction.md", "md_atom_type": "LIST_ITEM", "md_parent_section": "§1.3 [Relationship to Prior CDISC Documents]", "md_verbatim": "- Added Cell Phenotyping Findings (CP) and Genomics Findings (GF) domains", "score": 0.3223, "match_basis": "verbatim_token+global_search"}, {"md_atom_id": "md_index_a116", "md_file": "knowledge_base/INDEX.md", "md_atom_type": "TABLE_ROW", "md_parent_section": "§ Terminology (91 files)", "md_verbatim": "| [gf.md](terminology/core/gf.md) | Genomics Findings codelists |", "score": 0.3223, "match_basis": "verbatim_token+global_search"}], "candidate_count": 5, "zero_candidate": false}
{"pdf_atom_id": "ig34_p0004_a026", "pdf_atom_type": "CROSS_REF", "pdf_source": "SDTMIG_v3.4", "pdf_page": 4, "pdf_parent_section": "§0 [Table of Contents]", "pdf_verbatim": "6.3.5.5 Immunogenicity Specimen Assessments (IS) ..................................................228", "figure_ref": null, "candidates": [{"md_atom_id": "md_varindex_a687", "md_file": "knowledge_base/VARIABLE_INDEX.md", "md_atom_type": "HEADING", "md_parent_section": "§ 二、领域专属变量（仅 1 个域，共 1499 个），按域分组", "md_verbatim": "### IS — Immunogenicity Specimen Assessments (Findings)", "score": 0.5627, "match_basis": "verbatim_token+global_search"}, {"md_atom_id": "md_index_a065", "md_file": "knowledge_base/INDEX.md", "md_atom_type": "TABLE_ROW", "md_parent_section": "§ Domains (63 domains)", "md_verbatim": "| [IS](domains/IS/) | Immunogenicity Specimen Assessments | [spec](domains/IS/spec.md) · [assumptions](domains/IS/assumptions.md) · [examples](domains/IS/examples.md) |", "score": 0.4291, "match_basis": "verbatim_token+global_search"}, {"md_atom_id": "md_ch03_a053", "md_file": "knowledge_base/chapters/ch03_submitting_data.md", "md_atom_type": "TABLE_ROW", "md_parent_section": "§3.2.1 [Dataset-level Metadata]", "md_verbatim": "| IS | Immunogenicity Specimen Assessments | Findings | One record per test per visit per subject | Tabulation | STUDYID, USUBJID, ISTESTCD, ISBDAGNT, ISSCMBDL, ISSTOPO, VISITNUM | is.xpt |", "score": 0.2653, "match_basis": "verbatim_token+global_search"}, {"md_atom_id": "md_dmIS_assn_a014", "md_file": "knowledge_base/domains/IS/assumptions.md", "md_atom_type": "LIST_ITEM", "md_parent_section": "§IS [IS — Assumptions]", "md_verbatim": "   b. For immunological data collected during the vaccine trial but which are not assessments about the study vaccine, ISCAT = NON-STUDY-RELATED IMMUNOGENICITY.", "score": 0.2536, "match_basis": "verbatim_token+global_search"}, {"md_atom_id": "md_model05_a096", "md_file": "knowledge_base/model/05_study_level_data.md", "md_atom_type": "HEADING", "md_parent_section": "§ Trial Disease Assessments (TD)", "md_verbatim": "### Trial Disease Assessments (TD)", "score": 0.2443, "match_basis": "verbatim_token+global_search"}], "candidate_count": 5, "zero_candidate": false}
{"pdf_atom_id": "ig34_p0004_a027", "pdf_atom_type": "CROSS_REF", "pdf_source": "SDTMIG_v3.4", "pdf_page": 4, "pdf_parent_section": "§0 [Table of Contents]", "pdf_verbatim": "6.3.5.6 Laboratory Test Results (LB) ..........................................................................241", "figure_ref": null, "candidates": [{"md_atom_id": "md_varindex_a734", "md_file": "knowledge_base/VARIABLE_INDEX.md", "md_atom_type": "HEADING", "md_parent_section": "§ 二、领域专属变量（仅 1 个域，共 1499 个），按域分组", "md_verbatim": "### LB — Laboratory Test Results (Findings)", "score": 0.4991, "match_basis": "verbatim_token+global_search"}, {"md_atom_id": "md_index_a066", "md_file": "knowledge_base/INDEX.md", "md_atom_type": "TABLE_ROW", "md_parent_section": "§ Domains (63 domains)", "md_verbatim": "| [LB](domains/LB/) | Laboratory Test Results | [spec](domains/LB/spec.md) · [assumptions](domains/LB/assumptions.md) · [examples](domains/LB/examples.md) |", "score": 0.3268, "match_basis": "verbatim_token+global_search"}, {"md_atom_id": "md_varindex_a476", "md_file": "knowledge_base/VARIABLE_INDEX.md", "md_atom_type": "HEADING", "md_parent_section": "§ 二、领域专属变量（仅 1 个域，共 1499 个），按域分组", "md_verbatim": "### EG — ECG Test Results (Findings)", "score": 0.2726, "match_basis": "verbatim_token+global_search"}, {"md_atom_id": "md_ch04_a875", "md_file": "knowledge_base/chapters/ch04_general_assumptions.md", "md_atom_type": "TABLE_ROW", "md_parent_section": "§4.5.1.3 [Examples of Original and Standard Units and Test Not Done]", "md_verbatim": "| 7 | EGALL | ECG Test Results | | | | | | NOT DONE | 3 | 2015-03-21 |", "score": 0.258, "match_basis": "verbatim_token+global_search"}, {"md_atom_id": "md_ch08_a198", "md_file": "knowledge_base/chapters/ch08_relationships.md", "md_atom_type": "SENTENCE", "md_parent_section": "§8.4.3 [Examples]", "md_verbatim": "Additional examples may be found in the domain examples such as Section 5.2 Demographics, Examples 3 and 4, in Section 6.3.3, ECG Test Results, Example 1, and in Section 6.3.5.6, Laboratory Test Results, Example 1.", "score": 0.2507, "match_basis": "verbatim_token+global_search"}], "candidate_count": 5, "zero_candidate": false}
{"pdf_atom_id": "ig34_p0004_a028", "pdf_atom_type": "CROSS_REF", "pdf_source": "SDTMIG_v3.4", "pdf_page": 4, "pdf_parent_section": "§0 [Table of Contents]", "pdf_verbatim": "6.3.5.7 Microbiology Domains....................................................................................248", "figure_ref": null, "candidates": [{"md_atom_id": "md_index_a067", "md_file": "knowledge_base/INDEX.md", "md_atom_type": "TABLE_ROW", "md_parent_section": "§ Domains (63 domains)", "md_verbatim": "| [MB](domains/MB/) | Microbiology Specimen | [spec](domains/MB/spec.md) · [assumptions](domains/MB/assumptions.md) · [examples](domains/MB/examples.md) |", "score": 0.3332, "match_basis": "verbatim_token+global_search"}, {"md_atom_id": "md_varindex_a790", "md_file": "knowledge_base/VARIABLE_INDEX.md", "md_atom_type": "HEADING", "md_parent_section": "§ 二、领域专属变量（仅 1 个域，共 1499 个），按域分组", "md_verbatim": "### MB — Microbiology Specimen (Findings)", "score": 0.3043, "match_basis": "verbatim_token+global_search"}, {"md_atom_id": "md_index_a070", "md_file": "knowledge_base/INDEX.md", "md_atom_type": "TABLE_ROW", "md_parent_section": "§ Domains (63 domains)", "md_verbatim": "| [MS](domains/MS/) | Microbiology Susceptibility | [spec](domains/MS/spec.md) · [assumptions](domains/MS/assumptions.md) · [examples](domains/MS/examples.md) |", "score": 0.2945, "match_basis": "verbatim_token+global_search"}, {"md_atom_id": "md_index_a023", "md_file": "knowledge_base/INDEX.md", "md_atom_type": "HEADING", "md_parent_section": "§ SDTM Knowledge Base — Index", "md_verbatim": "## Domains (63 domains)", "score": 0.2775, "match_basis": "verbatim_token+global_search"}, {"md_atom_id": "md_varindex_a951", "md_file": "knowledge_base/VARIABLE_INDEX.md", "md_atom_type": "HEADING", "md_parent_section": "§ 二、领域专属变量（仅 1 个域，共 1499 个），按域分组", "md_verbatim": "### MS — Microbiology Susceptibility (Findings)", "score": 0.2665, "match_basis": "verbatim_token+global_search"}], "candidate_count": 5, "zero_candidate": false}
{"pdf_atom_id": "ig34_p0004_a029", "pdf_atom_type": "CROSS_REF", "pdf_source": "SDTMIG_v3.4", "pdf_page": 4, "pdf_parent_section": "§0 [Table of Contents]", "pdf_verbatim": "6.3.5.8 Microscopic Findings (MI)...............................................................................263", "figure_ref": null, "candidates": [{"md_atom_id": "md_varindex_a854", "md_file": "knowledge_base/VARIABLE_INDEX.md", "md_atom_type": "HEADING", "md_parent_section": "§ 二、领域专属变量（仅 1 个域，共 1499 个），按域分组", "md_verbatim": "### MI — Microscopic Findings (Findings)", "score": 0.6525, "match_basis": "verbatim_token+global_search"}, {"md_atom_id": "md_index_a120", "md_file": "knowledge_base/INDEX.md", "md_atom_type": "TABLE_ROW", "md_parent_section": "§ Terminology (91 files)", "md_verbatim": "| [mi.md](terminology/core/mi.md) | Microscopic Findings codelists |", "score": 0.3547, "match_basis": "verbatim_token+global_search"}, {"md_atom_id": "md_index_a068", "md_file": "knowledge_base/INDEX.md", "md_atom_type": "TABLE_ROW", "md_parent_section": "§ Domains (63 domains)", "md_verbatim": "| [MI](domains/MI/) | Microscopic Findings | [spec](domains/MI/spec.md) · [assumptions](domains/MI/assumptions.md) · [examples](domains/MI/examples.md) |", "score": 0.3268, "match_basis": "verbatim_token+global_search"}, {"md_atom_id": "md_ch04_a334", "md_file": "knowledge_base/chapters/ch04_general_assumptions.md", "md_atom_type": "NOTE", "md_parent_section": "§4.2.7.3 [\"Specify\" Values for Topic Variables]", "md_verbatim": "**Findings**", "score": 0.315, "match_basis": "verbatim_token+global_search"}, {"md_atom_id": "md_varindex_a863", "md_file": "knowledge_base/VARIABLE_INDEX.md", "md_atom_type": "TABLE_ROW", "md_parent_section": "§ 二、领域专属变量（仅 1 个域，共 1499 个），按域分组", "md_verbatim": "| MICAT | Category for Microscopic Finding | Char | Grouping Qualifier | Perm | — |", "score": 0.3, "match_basis": "verbatim_token+global_search"}], "candidate_count": 5, "zero_candidate": false}
{"pdf_atom_id": "ig34_p0004_a030", "pdf_atom_type": "CROSS_REF", "pdf_source": "SDTMIG_v3.4", "pdf_page": 4, "pdf_parent_section": "§0 [Table of Contents]", "pdf_verbatim": "6.3.5.9 Pharmacokinetics Domains .............................................................................267", "figure_ref": null, "candidates": [{"md_atom_id": "md_index_a075", "md_file": "knowledge_base/INDEX.md", "md_atom_type": "TABLE_ROW", "md_parent_section": "§ Domains (63 domains)", "md_verbatim": "| [PP](domains/PP/) | Pharmacokinetics Parameters | [spec](domains/PP/spec.md) · [assumptions](domains/PP/assumptions.md) · [examples](domains/PP/examples.md) |", "score": 0.3433, "match_basis": "verbatim_token+global_search"}, {"md_atom_id": "md_index_a073", "md_file": "knowledge_base/INDEX.md", "md_atom_type": "TABLE_ROW", "md_parent_section": "§ Domains (63 domains)", "md_verbatim": "| [PC](domains/PC/) | Pharmacokinetics Concentrations | [spec](domains/PC/spec.md) · [assumptions](domains/PC/assumptions.md) · [examples](domains/PC/examples.md) |", "score": 0.3378, "match_basis": "verbatim_token+global_search"}, {"md_atom_id": "md_varindex_a1150", "md_file": "knowledge_base/VARIABLE_INDEX.md", "md_atom_type": "HEADING", "md_parent_section": "§ 二、领域专属变量（仅 1 个域，共 1499 个），按域分组", "md_verbatim": "### PP — Pharmacokinetics Parameters (Findings)", "score": 0.3371, "match_basis": "verbatim_token+global_search"}, {"md_atom_id": "md_varindex_a1091", "md_file": "knowledge_base/VARIABLE_INDEX.md", "md_atom_type": "HEADING", "md_parent_section": "§ 二、领域专属变量（仅 1 个域，共 1499 个），按域分组", "md_verbatim": "### PC — Pharmacokinetics Concentrations (Findings)", "score": 0.3111, "match_basis": "verbatim_token+global_search"}, {"md_atom_id": "md_varindex_a1097", "md_file": "knowledge_base/VARIABLE_INDEX.md", "md_atom_type": "TABLE_ROW", "md_parent_section": "§ 二、领域专属变量（仅 1 个域，共 1499 个），按域分组", "md_verbatim": "| PCTESTCD | Pharmacokinetic Test Short Name | Char | Topic | Req | — |", "score": 0.3067, "match_basis": "verbatim_token+global_search"}], "candidate_count": 5, "zero_candidate": false}
{"pdf_atom_id": "ig34_p0004_a031", "pdf_atom_type": "CROSS_REF", "pdf_source": "SDTMIG_v3.4", "pdf_page": 4, "pdf_parent_section": "§0 [Table of Contents]", "pdf_verbatim": "6.3.6 Morphology (MO).............................................................................................285", "figure_ref": null, "candidates": [{"md_atom_id": "md_ch10_a161", "md_file": "knowledge_base/chapters/ch10_appendices.md", "md_atom_type": "LIST_ITEM", "md_parent_section": "§10.E [Revision History]", "md_verbatim": "- Morphology (MO)", "score": 0.6233, "match_basis": "verbatim_token+global_search"}, {"md_atom_id": "md_ch10_a159", "md_file": "knowledge_base/chapters/ch10_appendices.md", "md_atom_type": "HEADING", "md_parent_section": "§10.E [Revision History]", "md_verbatim": "### Decommissioning of MO (Morphology)", "score": 0.3082, "match_basis": "verbatim_token+global_search"}, {"md_atom_id": "md_ch01_a036", "md_file": "knowledge_base/chapters/ch01_introduction.md", "md_atom_type": "LIST_ITEM", "md_parent_section": "§1.3 [Relationship to Prior CDISC Documents]", "md_verbatim": "- Decommissioned the Morphology (MO) domain", "score": 0.2746, "match_basis": "verbatim_token+global_search"}, {"md_atom_id": "md_ch04_a854", "md_file": "knowledge_base/chapters/ch04_general_assumptions.md", "md_atom_type": "TABLE_ROW", "md_parent_section": "§4.5.1.3 [Examples of Original and Standard Units and Test Not Done]", "md_verbatim": "| 7 | MCHC | HEMATOLOGY | | | 33.8 | 33.8 | g/dL | | | 2 | 2016-02-15 |", "score": 0.19, "match_basis": "verbatim_token+global_search"}, {"md_atom_id": "md_ch04_a858", "md_file": "knowledge_base/chapters/ch04_general_assumptions.md", "md_atom_type": "TABLE_ROW", "md_parent_section": "§4.5.1.3 [Examples of Original and Standard Units and Test Not Done]", "md_verbatim": "| 11 | WBC | HEMATOLOGY | <4, 000 | 10^6/L | <4,000 | | 10^6/L | | | 6 | 2016-02-07 |", "score": 0.19, "match_basis": "verbatim_token+global_search"}], "candidate_count": 5, "zero_candidate": false}
{"pdf_atom_id": "ig34_p0004_a032", "pdf_atom_type": "CROSS_REF", "pdf_source": "SDTMIG_v3.4", "pdf_page": 4, "pdf_parent_section": "§0 [Table of Contents]", "pdf_verbatim": "6.3.7 Morphology/Physiology Domains......................................................................285", "figure_ref": null, "candidates": [{"md_atom_id": "md_ch10_a161", "md_file": "knowledge_base/chapters/ch10_appendices.md", "md_atom_type": "LIST_ITEM", "md_parent_section": "§10.E [Revision History]", "md_verbatim": "- Morphology (MO)", "score": 0.3426, "match_basis": "verbatim_token+global_search"}, {"md_atom_id": "md_ch01_a036", "md_file": "knowledge_base/chapters/ch01_introduction.md", "md_atom_type": "LIST_ITEM", "md_parent_section": "§1.3 [Relationship to Prior CDISC Documents]", "md_verbatim": "- Decommissioned the Morphology (MO) domain", "score": 0.3416, "match_basis": "verbatim_token+global_search"}, {"md_atom_id": "md_ch10_a159", "md_file": "knowledge_base/chapters/ch10_appendices.md", "md_atom_type": "HEADING", "md_parent_section": "§10.E [Revision History]", "md_verbatim": "### Decommissioning of MO (Morphology)", "score": 0.2642, "match_basis": "verbatim_token+global_search"}, {"md_atom_id": "md_ch10_a164", "md_file": "knowledge_base/chapters/ch10_appendices.md", "md_atom_type": "SENTENCE", "md_parent_section": "§10.E [Revision History]", "md_verbatim": "This led to the decision to expand the body system-based domains to cover both morphology and physiology findings and to deprecate MO in SDTMIG v3.4.", "score": 0.2614, "match_basis": "verbatim_token+global_search"}, {"md_atom_id": "md_index_a023", "md_file": "knowledge_base/INDEX.md", "md_atom_type": "HEADING", "md_parent_section": "§ SDTM Knowledge Base — Index", "md_verbatim": "## Domains (63 domains)", "score": 0.2479, "match_basis": "verbatim_token+global_search"}], "candidate_count": 5, "zero_candidate": false}
{"pdf_atom_id": "ig34_p0004_a033", "pdf_atom_type": "CROSS_REF", "pdf_source": "SDTMIG_v3.4", "pdf_page": 4, "pdf_parent_section": "§0 [Table of Contents]", "pdf_verbatim": "6.3.7.1 Generic Morphology/Physiology Specification ...............................................285", "figure_ref": null, "candidates": [{"md_atom_id": "md_ch08_a276", "md_file": "knowledge_base/chapters/ch08_relationships.md", "md_atom_type": "HEADING", "md_parent_section": "§8.7 [Related Subjects (RELSUB)]", "md_verbatim": "### Specification", "score": 0.31, "match_basis": "verbatim_token+global_search"}, {"md_atom_id": "md_ch08_a318", "md_file": "knowledge_base/chapters/ch08_relationships.md", "md_atom_type": "HEADING", "md_parent_section": "§8.8 [Related Specimens (RELSPEC)]", "md_verbatim": "### Specification", "score": 0.31, "match_basis": "verbatim_token+global_search"}, {"md_atom_id": "md_ch08_a070", "md_file": "knowledge_base/chapters/ch08_relationships.md", "md_atom_type": "SENTENCE", "md_parent_section": "§8.2.1 [Related Records (RELREC)]", "md_verbatim": "**RELREC — Specification**", "score": 0.2841, "match_basis": "verbatim_token+global_search"}, {"md_atom_id": "md_ch01_a066", "md_file": "knowledge_base/chapters/ch01_introduction.md", "md_atom_type": "HEADING", "md_parent_section": "§1.4 [How to Read this Implementation Guide]", "md_verbatim": "### 1.4.1 How to Read a Domain Specification", "score": 0.2684, "match_basis": "verbatim_token+global_search"}, {"md_atom_id": "md_ch01_a033", "md_file": "knowledge_base/chapters/ch01_introduction.md", "md_atom_type": "LIST_ITEM", "md_parent_section": "§1.3 [Relationship to Prior CDISC Documents]", "md_verbatim": "- Grouped specimen-based lab domains (e.g., CP, GF, LB) in Sections 6.3.5.1-6.3.5.9 and added a generic specification", "score": 0.2645, "match_basis": "verbatim_token+global_search"}], "candidate_count": 5, "zero_candidate": false}
{"pdf_atom_id": "ig34_p0004_a034", "pdf_atom_type": "CROSS_REF", "pdf_source": "SDTMIG_v3.4", "pdf_page": 4, "pdf_parent_section": "§0 [Table of Contents]", "pdf_verbatim": "6.3.7.2 Cardiovascular System Findings (CV) .............................................................286", "figure_ref": null, "candidates": [{"md_atom_id": "md_varindex_a310", "md_file": "knowledge_base/VARIABLE_INDEX.md", "md_atom_type": "HEADING", "md_parent_section": "§ 二、领域专属变量（仅 1 个域，共 1499 个），按域分组", "md_verbatim": "### CV — Cardiovascular System Findings (Findings)", "score": 0.6639, "match_basis": "verbatim_token+global_search"}, {"md_atom_id": "md_index_a057", "md_file": "knowledge_base/INDEX.md", "md_atom_type": "TABLE_ROW", "md_parent_section": "§ Domains (63 domains)", "md_verbatim": "| [CV](domains/CV/) | Cardiovascular System Findings | [spec](domains/CV/spec.md) · [assumptions](domains/CV/assumptions.md) · [examples](domains/CV/examples.md) |", "score": 0.3833, "match_basis": "verbatim_token+global_search"}, {"md_atom_id": "md_varindex_a1005", "md_file": "knowledge_base/VARIABLE_INDEX.md", "md_atom_type": "HEADING", "md_parent_section": "§ 二、领域专属变量（仅 1 个域，共 1499 个），按域分组", "md_verbatim": "### NV — Nervous System Findings (Findings)", "score": 0.3043, "match_basis": "verbatim_token+global_search"}, {"md_atom_id": "md_varindex_a1593", "md_file": "knowledge_base/VARIABLE_INDEX.md", "md_atom_type": "HEADING", "md_parent_section": "§ 二、领域专属变量（仅 1 个域，共 1499 个），按域分组", "md_verbatim": "### UR — Urinary System Findings (Findings)", "score": 0.3043, "match_basis": "verbatim_token+global_search"}, {"md_atom_id": "md_varindex_a885", "md_file": "knowledge_base/VARIABLE_INDEX.md", "md_atom_type": "HEADING", "md_parent_section": "§ 二、领域专属变量（仅 1 个域，共 1499 个），按域分组", "md_verbatim": "### MK — Musculoskeletal System Findings (Findings)", "score": 0.3018, "match_basis": "verbatim_token+global_search"}], "candidate_count": 5, "zero_candidate": false}
{"pdf_atom_id": "ig34_p0004_a035", "pdf_atom_type": "CROSS_REF", "pdf_source": "SDTMIG_v3.4", "pdf_page": 4, "pdf_parent_section": "§0 [Table of Contents]", "pdf_verbatim": "6.3.7.3 Musculoskeletal System Findings (MK) ...........................................................290", "figure_ref": null, "candidates": [{"md_atom_id": "md_varindex_a885", "md_file": "knowledge_base/VARIABLE_INDEX.md", "md_atom_type": "HEADING", "md_parent_section": "§ 二、领域专属变量（仅 1 个域，共 1499 个），按域分组", "md_verbatim": "### MK — Musculoskeletal System Findings (Findings)", "score": 0.665, "match_basis": "verbatim_token+global_search"}, {"md_atom_id": "md_ch04_a139", "md_file": "knowledge_base/chapters/ch04_general_assumptions.md", "md_atom_type": "SENTENCE", "md_parent_section": "§4.1.9 [Assigning Natural Keys in the Metadata]", "md_verbatim": "**Musculoskeletal System Findings (MK) Domain Example**", "score": 0.5082, "match_basis": "verbatim_token+global_search"}, {"md_atom_id": "md_index_a069", "md_file": "knowledge_base/INDEX.md", "md_atom_type": "TABLE_ROW", "md_parent_section": "§ Domains (63 domains)", "md_verbatim": "| [MK](domains/MK/) | Musculoskeletal System Findings | [spec](domains/MK/spec.md) · [assumptions](domains/MK/assumptions.md) · [examples](domains/MK/examples.md) |", "score": 0.39, "match_basis": "verbatim_token+global_search"}, {"md_atom_id": "md_varindex_a310", "md_file": "knowledge_base/VARIABLE_INDEX.md", "md_atom_type": "HEADING", "md_parent_section": "§ 二、领域专属变量（仅 1 个域，共 1499 个），按域分组", "md_verbatim": "### CV — Cardiovascular System Findings (Findings)", "score": 0.3018, "match_basis": "verbatim_token+global_search"}, {"md_atom_id": "md_varindex_a1005", "md_file": "knowledge_base/VARIABLE_INDEX.md", "md_atom_type": "HEADING", "md_parent_section": "§ 二、领域专属变量（仅 1 个域，共 1499 个），按域分组", "md_verbatim": "### NV — Nervous System Findings (Findings)", "score": 0.2969, "match_basis": "verbatim_token+global_search"}], "candidate_count": 5, "zero_candidate": false}
{"pdf_atom_id": "ig34_p0004_a036", "pdf_atom_type": "CROSS_REF", "pdf_source": "SDTMIG_v3.4", "pdf_page": 4, "pdf_parent_section": "§0 [Table of Contents]", "pdf_verbatim": "6.3.7.4 Nervous System Findings (NV) .......................................................................294", "figure_ref": null, "candidates": [{"md_atom_id": "md_varindex_a1005", "md_file": "knowledge_base/VARIABLE_INDEX.md", "md_atom_type": "HEADING", "md_parent_section": "§ 二、领域专属变量（仅 1 个域，共 1499 个），按域分组", "md_verbatim": "### NV — Nervous System Findings (Findings)", "score": 0.6525, "match_basis": "verbatim_token+global_search"}, {"md_atom_id": "md_varindex_a1593", "md_file": "knowledge_base/VARIABLE_INDEX.md", "md_atom_type": "HEADING", "md_parent_section": "§ 二、领域专属变量（仅 1 个域，共 1499 个），按域分组", "md_verbatim": "### UR — Urinary System Findings (Findings)", "score": 0.3757, "match_basis": "verbatim_token+global_search"}, {"md_atom_id": "md_varindex_a1241", "md_file": "knowledge_base/VARIABLE_INDEX.md", "md_atom_type": "HEADING", "md_parent_section": "§ 二、领域专属变量（仅 1 个域，共 1499 个），按域分组", "md_verbatim": "### RE — Respiratory System Findings (Findings)", "score": 0.33, "match_basis": "verbatim_token+global_search"}, {"md_atom_id": "md_index_a071", "md_file": "knowledge_base/INDEX.md", "md_atom_type": "TABLE_ROW", "md_parent_section": "§ Domains (63 domains)", "md_verbatim": "| [NV](domains/NV/) | Nervous System Findings | [spec](domains/NV/spec.md) · [assumptions](domains/NV/assumptions.md) · [examples](domains/NV/examples.md) |", "score": 0.3268, "match_basis": "verbatim_token+global_search"}, {"md_atom_id": "md_varindex_a1296", "md_file": "knowledge_base/VARIABLE_INDEX.md", "md_atom_type": "HEADING", "md_parent_section": "§ 二、领域专属变量（仅 1 个域，共 1499 个），按域分组", "md_verbatim": "### RP — Reproductive System Findings (Findings)", "score": 0.3208, "match_basis": "verbatim_token+global_search"}], "candidate_count": 5, "zero_candidate": false}
{"pdf_atom_id": "ig34_p0004_a037", "pdf_atom_type": "CROSS_REF", "pdf_source": "SDTMIG_v3.4", "pdf_page": 4, "pdf_parent_section": "§0 [Table of Contents]", "pdf_verbatim": "6.3.7.5 Ophthalmic Examinations (OE) ......................................................................298", "figure_ref": null, "candidates": [{"md_atom_id": "md_varindex_a1040", "md_file": "knowledge_base/VARIABLE_INDEX.md", "md_atom_type": "HEADING", "md_parent_section": "§ 二、领域专属变量（仅 1 个域，共 1499 个），按域分组", "md_verbatim": "### OE — Ophthalmic Examinations (Findings)", "score": 0.522, "match_basis": "verbatim_token+global_search"}, {"md_atom_id": "md_index_a072", "md_file": "knowledge_base/INDEX.md", "md_atom_type": "TABLE_ROW", "md_parent_section": "§ Domains (63 domains)", "md_verbatim": "| [OE](domains/OE/) | Ophthalmic Examinations | [spec](domains/OE/spec.md) · [assumptions](domains/OE/assumptions.md) · [examples](domains/OE/examples.md) |", "score": 0.39, "match_basis": "verbatim_token+global_search"}, {"md_atom_id": "md_varindex_a1126", "md_file": "knowledge_base/VARIABLE_INDEX.md", "md_atom_type": "HEADING", "md_parent_section": "§ 二、领域专属变量（仅 1 个域，共 1499 个），按域分组", "md_verbatim": "### PE — Physical Examination (Findings)", "score": 0.2642, "match_basis": "verbatim_token+global_search"}, {"md_atom_id": "md_varindex_a1149", "md_file": "knowledge_base/VARIABLE_INDEX.md", "md_atom_type": "TABLE_ROW", "md_parent_section": "§ 二、领域专属变量（仅 1 个域，共 1499 个），按域分组", "md_verbatim": "| PEDY | Study Day of Examination | Num | Timing | Perm | — |", "score": 0.2642, "match_basis": "verbatim_token+global_search"}, {"md_atom_id": "md_varindex_a1383", "md_file": "knowledge_base/VARIABLE_INDEX.md", "md_atom_type": "TABLE_ROW", "md_parent_section": "§ 二、领域专属变量（仅 1 个域，共 1499 个），按域分组", "md_verbatim": "| SCDY | Study Day of Examination | Num | Timing | Perm | — |", "score": 0.2642, "match_basis": "verbatim_token+global_search"}], "candidate_count": 5, "zero_candidate": false}
{"pdf_atom_id": "ig34_p0004_a038", "pdf_atom_type": "CROSS_REF", "pdf_source": "SDTMIG_v3.4", "pdf_page": 4, "pdf_parent_section": "§0 [Table of Contents]", "pdf_verbatim": "6.3.7.6 Reproductive System Findings (RP) ................................................................305", "figure_ref": null, "candidates": [{"md_atom_id": "md_varindex_a1296", "md_file": "knowledge_base/VARIABLE_INDEX.md", "md_atom_type": "HEADING", "md_parent_section": "§ 二、领域专属变量（仅 1 个域，共 1499 个），按域分组", "md_verbatim": "### RP — Reproductive System Findings (Findings)", "score": 0.6614, "match_basis": "verbatim_token+global_search"}, {"md_atom_id": "md_index_a078", "md_file": "knowledge_base/INDEX.md", "md_atom_type": "TABLE_ROW", "md_parent_section": "§ Domains (63 domains)", "md_verbatim": "| [RP](domains/RP/) | Reproductive System Findings | [spec](domains/RP/spec.md) · [assumptions](domains/RP/assumptions.md) · [examples](domains/RP/examples.md) |", "score": 0.3691, "match_basis": "verbatim_token+global_search"}, {"md_atom_id": "md_varindex_a1005", "md_file": "knowledge_base/VARIABLE_INDEX.md", "md_atom_type": "HEADING", "md_parent_section": "§ 二、领域专属变量（仅 1 个域，共 1499 个），按域分组", "md_verbatim": "### NV — Nervous System Findings (Findings)", "score": 0.3208, "match_basis": "verbatim_token+global_search"}, {"md_atom_id": "md_varindex_a1593", "md_file": "knowledge_base/VARIABLE_INDEX.md", "md_atom_type": "HEADING", "md_parent_section": "§ 二、领域专属变量（仅 1 个域，共 1499 个），按域分组", "md_verbatim": "### UR — Urinary System Findings (Findings)", "score": 0.3208, "match_basis": "verbatim_token+global_search"}, {"md_atom_id": "md_dmRP_ex_a003", "md_file": "knowledge_base/domains/RP/examples.md", "md_atom_type": "SENTENCE", "md_parent_section": "§RP.1 [Example 1]", "md_verbatim": "This example represents reproductive system findings at the screening visit, visit 1, and visit 2 for 2 subjects.", "score": 0.3208, "match_basis": "verbatim_token+global_search"}], "candidate_count": 5, "zero_candidate": false}
{"pdf_atom_id": "ig34_p0004_a039", "pdf_atom_type": "CROSS_REF", "pdf_source": "SDTMIG_v3.4", "pdf_page": 4, "pdf_parent_section": "§0 [Table of Contents]", "pdf_verbatim": "6.3.7.7 Respiratory System Findings (RE) ...................................................................308", "figure_ref": null, "candidates": [{"md_atom_id": "md_varindex_a1241", "md_file": "knowledge_base/VARIABLE_INDEX.md", "md_atom_type": "HEADING", "md_parent_section": "§ 二、领域专属变量（仅 1 个域，共 1499 个），按域分组", "md_verbatim": "### RE — Respiratory System Findings (Findings)", "score": 0.66, "match_basis": "verbatim_token+global_search"}, {"md_atom_id": "md_index_a077", "md_file": "knowledge_base/INDEX.md", "md_atom_type": "TABLE_ROW", "md_parent_section": "§ Domains (63 domains)", "md_verbatim": "| [RE](domains/RE/) | Respiratory System Findings | [spec](domains/RE/spec.md) · [assumptions](domains/RE/assumptions.md) · [examples](domains/RE/examples.md) |", "score": 0.3614, "match_basis": "verbatim_token+global_search"}, {"md_atom_id": "md_varindex_a1005", "md_file": "knowledge_base/VARIABLE_INDEX.md", "md_atom_type": "HEADING", "md_parent_section": "§ 二、领域专属变量（仅 1 个域，共 1499 个），按域分组", "md_verbatim": "### NV — Nervous System Findings (Findings)", "score": 0.33, "match_basis": "verbatim_token+global_search"}, {"md_atom_id": "md_varindex_a1593", "md_file": "knowledge_base/VARIABLE_INDEX.md", "md_atom_type": "HEADING", "md_parent_section": "§ 二、领域专属变量（仅 1 个域，共 1499 个），按域分组", "md_verbatim": "### UR — Urinary System Findings (Findings)", "score": 0.33, "match_basis": "verbatim_token+global_search"}, {"md_atom_id": "md_varindex_a734", "md_file": "knowledge_base/VARIABLE_INDEX.md", "md_atom_type": "HEADING", "md_parent_section": "§ 二、领域专属变量（仅 1 个域，共 1499 个），按域分组", "md_verbatim": "### LB — Laboratory Test Results (Findings)", "score": 0.31, "match_basis": "verbatim_token+global_search"}], "candidate_count": 5, "zero_candidate": false}
{"pdf_atom_id": "ig34_p0004_a040", "pdf_atom_type": "CROSS_REF", "pdf_source": "SDTMIG_v3.4", "pdf_page": 4, "pdf_parent_section": "§0 [Table of Contents]", "pdf_verbatim": "6.3.7.8 Urinary System Findings (UR).........................................................................312", "figure_ref": null, "candidates": [{"md_atom_id": "md_varindex_a1593", "md_file": "knowledge_base/VARIABLE_INDEX.md", "md_atom_type": "HEADING", "md_parent_section": "§ 二、领域专属变量（仅 1 个域，共 1499 个），按域分组", "md_verbatim": "### UR — Urinary System Findings (Findings)", "score": 0.6525, "match_basis": "verbatim_token+global_search"}, {"md_atom_id": "md_varindex_a1005", "md_file": "knowledge_base/VARIABLE_INDEX.md", "md_atom_type": "HEADING", "md_parent_section": "§ 二、领域专属变量（仅 1 个域，共 1499 个），按域分组", "md_verbatim": "### NV — Nervous System Findings (Findings)", "score": 0.3757, "match_basis": "verbatim_token+global_search"}, {"md_atom_id": "md_varindex_a1241", "md_file": "knowledge_base/VARIABLE_INDEX.md", "md_atom_type": "HEADING", "md_parent_section": "§ 二、领域专属变量（仅 1 个域，共 1499 个），按域分组", "md_verbatim": "### RE — Respiratory System Findings (Findings)", "score": 0.33, "match_basis": "verbatim_token+global_search"}, {"md_atom_id": "md_index_a085", "md_file": "knowledge_base/INDEX.md", "md_atom_type": "TABLE_ROW", "md_parent_section": "§ Domains (63 domains)", "md_verbatim": "| [UR](domains/UR/) | Urinary System Findings | [spec](domains/UR/spec.md) · [assumptions](domains/UR/assumptions.md) · [examples](domains/UR/examples.md) |", "score": 0.3268, "match_basis": "verbatim_token+global_search"}, {"md_atom_id": "md_varindex_a1296", "md_file": "knowledge_base/VARIABLE_INDEX.md", "md_atom_type": "HEADING", "md_parent_section": "§ 二、领域专属变量（仅 1 个域，共 1499 个），按域分组", "md_verbatim": "### RP — Reproductive System Findings (Findings)", "score": 0.3208, "match_basis": "verbatim_token+global_search"}], "candidate_count": 5, "zero_candidate": false}
{"pdf_atom_id": "ig34_p0004_a041", "pdf_atom_type": "CROSS_REF", "pdf_source": "SDTMIG_v3.4", "pdf_page": 4, "pdf_parent_section": "§0 [Table of Contents]", "pdf_verbatim": "6.3.8 Physical Examination (PE).................................................................................315", "figure_ref": null, "candidates": [{"md_atom_id": "md_varindex_a1126", "md_file": "knowledge_base/VARIABLE_INDEX.md", "md_atom_type": "HEADING", "md_parent_section": "§ 二、领域专属变量（仅 1 个域，共 1499 个），按域分组", "md_verbatim": "### PE — Physical Examination (Findings)", "score": 0.4991, "match_basis": "verbatim_token+global_search"}, {"md_atom_id": "md_index_a074", "md_file": "knowledge_base/INDEX.md", "md_atom_type": "TABLE_ROW", "md_parent_section": "§ Domains (63 domains)", "md_verbatim": "| [PE](domains/PE/) | Physical Examination | [spec](domains/PE/spec.md) · [assumptions](domains/PE/assumptions.md) · [examples](domains/PE/examples.md) |", "score": 0.3547, "match_basis": "verbatim_token+global_search"}, {"md_atom_id": "md_ch04_a459", "md_file": "knowledge_base/chapters/ch04_general_assumptions.md", "md_atom_type": "SENTENCE", "md_parent_section": "§4.3.6 [Storing Topic Variables for General Domain Models]", "md_verbatim": "In most cases — other than Physical Examination (PE) — the dictionary-coded text is derived into --DECOD.", "score": 0.2857, "match_basis": "verbatim_token+global_search"}, {"md_atom_id": "md_varindex_a1149", "md_file": "knowledge_base/VARIABLE_INDEX.md", "md_atom_type": "TABLE_ROW", "md_parent_section": "§ 二、领域专属变量（仅 1 个域，共 1499 个），按域分组", "md_verbatim": "| PEDY | Study Day of Examination | Num | Timing | Perm | — |", "score": 0.2829, "match_basis": "verbatim_token+global_search"}, {"md_atom_id": "md_varindex_a1383", "md_file": "knowledge_base/VARIABLE_INDEX.md", "md_atom_type": "TABLE_ROW", "md_parent_section": "§ 二、领域专属变量（仅 1 个域，共 1499 个），按域分组", "md_verbatim": "| SCDY | Study Day of Examination | Num | Timing | Perm | — |", "score": 0.2829, "match_basis": "verbatim_token+global_search"}], "candidate_count": 5, "zero_candidate": false}
{"pdf_atom_id": "ig34_p0004_a042", "pdf_atom_type": "CROSS_REF", "pdf_source": "SDTMIG_v3.4", "pdf_page": 4, "pdf_parent_section": "§0 [Table of Contents]", "pdf_verbatim": "6.3.9 Questionnaires, Ratings, and Scales (QRS) Domains (FT, QS, RS) ..................318", "figure_ref": null, "candidates": [{"md_atom_id": "md_varindex_a1212", "md_file": "knowledge_base/VARIABLE_INDEX.md", "md_atom_type": "HEADING", "md_parent_section": "§ 二、领域专属变量（仅 1 个域，共 1499 个），按域分组", "md_verbatim": "### QS — Questionnaires (Findings)", "score": 0.3445, "match_basis": "verbatim_token+global_search"}, {"md_atom_id": "md_index_a076", "md_file": "knowledge_base/INDEX.md", "md_atom_type": "TABLE_ROW", "md_parent_section": "§ Domains (63 domains)", "md_verbatim": "| [QS](domains/QS/) | Questionnaires | [spec](domains/QS/spec.md) · [assumptions](domains/QS/assumptions.md) · [examples](domains/QS/examples.md) |", "score": 0.3412, "match_basis": "verbatim_token+global_search"}, {"md_atom_id": "md_ch04_a069", "md_file": "knowledge_base/chapters/ch04_general_assumptions.md", "md_atom_type": "HEADING", "md_parent_section": "§4.1.7 [Splitting Domains]", "md_verbatim": "#### 4.1.7.1 Example of Splitting Questionnaires", "score": 0.3054, "match_basis": "verbatim_token+global_search"}, {"md_atom_id": "md_index_a130", "md_file": "knowledge_base/INDEX.md", "md_atom_type": "HEADING", "md_parent_section": "§ Terminology (91 files)", "md_verbatim": "### Questionnaires Terminology (43 files)", "score": 0.285, "match_basis": "verbatim_token+global_search"}, {"md_atom_id": "md_dmFT_assn_a012", "md_file": "knowledge_base/domains/FT/assumptions.md", "md_atom_type": "LIST_ITEM", "md_parent_section": "§FT [FT — Assumptions]", "md_verbatim": "      iii. Category of Questionnaire", "score": 0.2733, "match_basis": "verbatim_token+global_search"}], "candidate_count": 5, "zero_candidate": false}
{"pdf_atom_id": "ig34_p0004_a043", "pdf_atom_type": "CROSS_REF", "pdf_source": "SDTMIG_v3.4", "pdf_page": 4, "pdf_parent_section": "§0 [Table of Contents]", "pdf_verbatim": "6.3.9.1 Functional Tests (FT) .....................................................................................319", "figure_ref": null, "candidates": [{"md_atom_id": "md_varindex_a571", "md_file": "knowledge_base/VARIABLE_INDEX.md", "md_atom_type": "HEADING", "md_parent_section": "§ 二、领域专属变量（仅 1 个域，共 1499 个），按域分组", "md_verbatim": "### FT — Functional Tests (Findings)", "score": 0.4567, "match_basis": "verbatim_token+global_search"}, {"md_atom_id": "md_dmFT_assn_a011", "md_file": "knowledge_base/domains/FT/assumptions.md", "md_atom_type": "LIST_ITEM", "md_parent_section": "§FT [FT — Assumptions]", "md_verbatim": "      ii. Category of Functional Test", "score": 0.4233, "match_basis": "verbatim_token+global_search"}, {"md_atom_id": "md_index_a062", "md_file": "knowledge_base/INDEX.md", "md_atom_type": "TABLE_ROW", "md_parent_section": "§ Domains (63 domains)", "md_verbatim": "| [FT](domains/FT/) | Functional Tests | [spec](domains/FT/spec.md) · [assumptions](domains/FT/assumptions.md) · [examples](domains/FT/examples.md) |", "score": 0.2963, "match_basis": "verbatim_token+global_search"}, {"md_atom_id": "md_dmRE_ex_a043", "md_file": "knowledge_base/domains/RE/examples.md", "md_atom_type": "SENTENCE", "md_parent_section": "§RE.2 [Example 2]", "md_verbatim": "DI was used to represent the device type that was used to perform for the pulmonary function tests.", "score": 0.2329, "match_basis": "verbatim_token+global_search"}, {"md_atom_id": "md_ch04_a495", "md_file": "knowledge_base/chapters/ch04_general_assumptions.md", "md_atom_type": "LIST_ITEM", "md_parent_section": "§4.4.1 [Formats for Date/Time Variables]", "md_verbatim": "- [(((+|-)hh:mm)|Z)?] = optional time zone", "score": 0.2233, "match_basis": "verbatim_token+global_search"}], "candidate_count": 5, "zero_candidate": false}
{"pdf_atom_id": "ig34_p0004_a044", "pdf_atom_type": "CROSS_REF", "pdf_source": "SDTMIG_v3.4", "pdf_page": 4, "pdf_parent_section": "§0 [Table of Contents]", "pdf_verbatim": "6.3.9.2 Questionnaires (QS) .......................................................................................324", "figure_ref": null, "candidates": [{"md_atom_id": "md_varindex_a1212", "md_file": "knowledge_base/VARIABLE_INDEX.md", "md_atom_type": "HEADING", "md_parent_section": "§ 二、领域专属变量（仅 1 个域，共 1499 个），按域分组", "md_verbatim": "### QS — Questionnaires (Findings)", "score": 0.4689, "match_basis": "verbatim_token+global_search"}, {"md_atom_id": "md_dmFT_assn_a012", "md_file": "knowledge_base/domains/FT/assumptions.md", "md_atom_type": "LIST_ITEM", "md_parent_section": "§FT [FT — Assumptions]", "md_verbatim": "      iii. Category of Questionnaire", "score": 0.42, "match_basis": "verbatim_token+global_search"}, {"md_atom_id": "md_ch04_a069", "md_file": "knowledge_base/chapters/ch04_general_assumptions.md", "md_atom_type": "HEADING", "md_parent_section": "§4.1.7 [Splitting Domains]", "md_verbatim": "#### 4.1.7.1 Example of Splitting Questionnaires", "score": 0.378, "match_basis": "verbatim_token+global_search"}, {"md_atom_id": "md_index_a130", "md_file": "knowledge_base/INDEX.md", "md_atom_type": "HEADING", "md_parent_section": "§ Terminology (91 files)", "md_verbatim": "### Questionnaires Terminology (43 files)", "score": 0.378, "match_basis": "verbatim_token+global_search"}, {"md_atom_id": "md_index_a131", "md_file": "knowledge_base/INDEX.md", "md_atom_type": "SENTENCE", "md_parent_section": "§ Terminology (91 files)", "md_verbatim": "Files: [questionnaires_part1.md](terminology/questionnaires/questionnaires_part1.md) — [questionnaires_part43.md](terminology/questionnaires/questionnaires_part43.md)", "score": 0.33, "match_basis": "verbatim_token+global_search"}], "candidate_count": 5, "zero_candidate": false}
{"pdf_atom_id": "ig34_p0004_a045", "pdf_atom_type": "CROSS_REF", "pdf_source": "SDTMIG_v3.4", "pdf_page": 4, "pdf_parent_section": "§0 [Table of Contents]", "pdf_verbatim": "6.3.9.3 Disease Response and Clin Classification (RS) ................................................329", "figure_ref": null, "candidates": [{"md_atom_id": "md_varindex_a1326", "md_file": "knowledge_base/VARIABLE_INDEX.md", "md_atom_type": "HEADING", "md_parent_section": "§ 二、领域专属变量（仅 1 个域，共 1499 个），按域分组", "md_verbatim": "### RS — Disease Response and Clin Classification (Findings)", "score": 0.5627, "match_basis": "verbatim_token+global_search"}, {"md_atom_id": "md_index_a079", "md_file": "knowledge_base/INDEX.md", "md_atom_type": "TABLE_ROW", "md_parent_section": "§ Domains (63 domains)", "md_verbatim": "| [RS](domains/RS/) | Disease Response and Clin Classification | [spec](domains/RS/spec.md) · [assumptions](domains/RS/assumptions.md) · [examples](domains/RS/examples.md) |", "score": 0.4367, "match_basis": "verbatim_token+global_search"}, {"md_atom_id": "md_dmRS_assn_a038", "md_file": "knowledge_base/domains/RS/assumptions.md", "md_atom_type": "SENTENCE", "md_parent_section": "§RS [RS — Assumptions]", "md_verbatim": "The QRS Shared Assumptions (see FT assumptions) also apply to the Clinical Classifications use case of the RS domain, but not the Disease Response use case.", "score": 0.3627, "match_basis": "verbatim_token+global_search"}, {"md_atom_id": "md_dmFT_assn_a006", "md_file": "knowledge_base/domains/FT/assumptions.md", "md_atom_type": "SENTENCE", "md_parent_section": "§FT [FT — Assumptions]", "md_verbatim": "The following assumptions are common to the FT and QS domains as well as the Clinical Classifications use case of the RS domain (not the Disease Response use case of RS):", "score": 0.359, "match_basis": "verbatim_token+global_search"}, {"md_atom_id": "md_dmQS_assn_a004", "md_file": "knowledge_base/domains/QS/assumptions.md", "md_atom_type": "SENTENCE", "md_parent_section": "§QS [QS — Assumptions]", "md_verbatim": "The following assumptions are common to the FT and QS domains as well as the Clinical Classifications use case of the RS domain (not the Disease Response use case of RS):", "score": 0.359, "match_basis": "verbatim_token+global_search"}], "candidate_count": 5, "zero_candidate": false}
{"pdf_atom_id": "ig34_p0004_a046", "pdf_atom_type": "CROSS_REF", "pdf_source": "SDTMIG_v3.4", "pdf_page": 4, "pdf_parent_section": "§0 [Table of Contents]", "pdf_verbatim": "6.3.10 Subject Characteristics (SC)..............................................................................339", "figure_ref": null, "candidates": [{"md_atom_id": "md_varindex_a1366", "md_file": "knowledge_base/VARIABLE_INDEX.md", "md_atom_type": "HEADING", "md_parent_section": "§ 二、领域专属变量（仅 1 个域，共 1499 个），按域分组", "md_verbatim": "### SC — Subject Characteristics (Findings)", "score": 0.522, "match_basis": "verbatim_token+global_search"}, {"md_atom_id": "md_varindex_a1371", "md_file": "knowledge_base/VARIABLE_INDEX.md", "md_atom_type": "TABLE_ROW", "md_parent_section": "§ 二、领域专属变量（仅 1 个域，共 1499 个），按域分组", "md_verbatim": "| SCTESTCD | Subject Characteristic Short Name | Char | Topic | Req | C74559 |", "score": 0.3657, "match_basis": "verbatim_token+global_search"}, {"md_atom_id": "md_index_a080", "md_file": "knowledge_base/INDEX.md", "md_atom_type": "TABLE_ROW", "md_parent_section": "§ Domains (63 domains)", "md_verbatim": "| [SC](domains/SC/) | Subject Characteristics | [spec](domains/SC/spec.md) · [assumptions](domains/SC/assumptions.md) · [examples](domains/SC/examples.md) |", "score": 0.3534, "match_basis": "verbatim_token+global_search"}, {"md_atom_id": "md_varindex_a1372", "md_file": "knowledge_base/VARIABLE_INDEX.md", "md_atom_type": "TABLE_ROW", "md_parent_section": "§ 二、领域专属变量（仅 1 个域，共 1499 个），按域分组", "md_verbatim": "| SCTEST | Subject Characteristic | Char | Synonym Qualifier | Req | C103330 |", "score": 0.345, "match_basis": "verbatim_token+global_search"}, {"md_atom_id": "md_ch08_a201", "md_file": "knowledge_base/chapters/ch08_relationships.md", "md_atom_type": "LIST_ITEM", "md_parent_section": "§8.4.4 [When Not to Use Supplemental Qualifiers]", "md_verbatim": "- Subject-level objective data that fit in Subject Characteristics (SC; e.g., national origin, twin type)", "score": 0.33, "match_basis": "verbatim_token+global_search"}], "candidate_count": 5, "zero_candidate": false}
{"pdf_atom_id": "ig34_p0004_a047", "pdf_atom_type": "CROSS_REF", "pdf_source": "SDTMIG_v3.4", "pdf_page": 4, "pdf_parent_section": "§0 [Table of Contents]", "pdf_verbatim": "6.3.11 Subject Status (SS) ...........................................................................................342", "figure_ref": null, "candidates": [{"md_atom_id": "md_varindex_a1432", "md_file": "knowledge_base/VARIABLE_INDEX.md", "md_atom_type": "HEADING", "md_parent_section": "§ 二、领域专属变量（仅 1 个域，共 1499 个），按域分组", "md_verbatim": "### SS — Subject Status (Findings)", "score": 0.4275, "match_basis": "verbatim_token+global_search"}, {"md_atom_id": "md_ch04_a222", "md_file": "knowledge_base/chapters/ch04_general_assumptions.md", "md_atom_type": "NOTE", "md_parent_section": "§4.2.6 [Grouping Variables and Categorization]", "md_verbatim": "**For the subject:**", "score": 0.34, "match_basis": "verbatim_token+global_search"}, {"md_atom_id": "md_model03_a105", "md_file": "knowledge_base/model/03_special_purpose_domains.md", "md_atom_type": "HEADING", "md_parent_section": "§ Subject Repro Stages", "md_verbatim": "## Subject Repro Stages", "score": 0.315, "match_basis": "verbatim_token+global_search"}, {"md_atom_id": "md_model03_a123", "md_file": "knowledge_base/model/03_special_purpose_domains.md", "md_atom_type": "HEADING", "md_parent_section": "§ Subject Visits (SV)", "md_verbatim": "## Subject Visits (SV)", "score": 0.3043, "match_basis": "verbatim_token+global_search"}, {"md_atom_id": "md_ch04_a201", "md_file": "knowledge_base/chapters/ch04_general_assumptions.md", "md_atom_type": "HEADING", "md_parent_section": "§4.2 [General Variable Assumptions]", "md_verbatim": "### 4.2.3 Use of \"Subject\" and USUBJID", "score": 0.29, "match_basis": "verbatim_token+global_search"}], "candidate_count": 5, "zero_candidate": false}
{"pdf_atom_id": "ig34_p0004_a048", "pdf_atom_type": "CROSS_REF", "pdf_source": "SDTMIG_v3.4", "pdf_page": 4, "pdf_parent_section": "§0 [Table of Contents]", "pdf_verbatim": "6.3.12 Tumor/Lesion Domains.....................................................................................344", "figure_ref": null, "candidates": [{"md_atom_id": "md_index_a023", "md_file": "knowledge_base/INDEX.md", "md_atom_type": "HEADING", "md_parent_section": "§ SDTM Knowledge Base — Index", "md_verbatim": "## Domains (63 domains)", "score": 0.3208, "match_basis": "verbatim_token+global_search"}, {"md_atom_id": "md_index_a083", "md_file": "knowledge_base/INDEX.md", "md_atom_type": "TABLE_ROW", "md_parent_section": "§ Domains (63 domains)", "md_verbatim": "| [TR](domains/TR/) | Tumor/Lesion Results | [spec](domains/TR/spec.md) · [assumptions](domains/TR/assumptions.md) · [examples](domains/TR/examples.md) |", "score": 0.3082, "match_basis": "verbatim_token+global_search"}, {"md_atom_id": "md_model04_a007", "md_file": "knowledge_base/model/04_associated_persons.md", "md_atom_type": "HEADING", "md_parent_section": "§4 [SDTM v2.0 — Chapter 4: Associated Persons Data]", "md_verbatim": "### AP Domain Rules", "score": 0.29, "match_basis": "verbatim_token+global_search"}, {"md_atom_id": "md_ch04_a102", "md_file": "knowledge_base/chapters/ch04_general_assumptions.md", "md_atom_type": "SENTENCE", "md_parent_section": "§4.1.7.1 [Example of Splitting Questionnaires]", "md_verbatim": "**SUPP-- Domains**", "score": 0.29, "match_basis": "verbatim_token+global_search"}, {"md_atom_id": "md_index_a084", "md_file": "knowledge_base/INDEX.md", "md_atom_type": "TABLE_ROW", "md_parent_section": "§ Domains (63 domains)", "md_verbatim": "| [TU](domains/TU/) | Tumor/Lesion Identification | [spec](domains/TU/spec.md) · [assumptions](domains/TU/assumptions.md) · [examples](domains/TU/examples.md) |", "score": 0.2795, "match_basis": "verbatim_token+global_search"}], "candidate_count": 5, "zero_candidate": false}
{"pdf_atom_id": "ig34_p0004_a049", "pdf_atom_type": "CROSS_REF", "pdf_source": "SDTMIG_v3.4", "pdf_page": 4, "pdf_parent_section": "§0 [Table of Contents]", "pdf_verbatim": "6.3.12.1 Tumor/Lesion Identification (TU)..................................................................344", "figure_ref": null, "candidates": [{"md_atom_id": "md_varindex_a1564", "md_file": "knowledge_base/VARIABLE_INDEX.md", "md_atom_type": "HEADING", "md_parent_section": "§ 二、领域专属变量（仅 1 个域，共 1499 个），按域分组", "md_verbatim": "### TU — Tumor/Lesion Identification (Findings)", "score": 0.522, "match_basis": "verbatim_token+global_search"}, {"md_atom_id": "md_varindex_a1588", "md_file": "knowledge_base/VARIABLE_INDEX.md", "md_atom_type": "TABLE_ROW", "md_parent_section": "§ 二、领域专属变量（仅 1 个域，共 1499 个），按域分组", "md_verbatim": "| TUDY | Study Day of Tumor/Lesion Identification | Num | Timing | Perm | — |", "score": 0.45, "match_basis": "verbatim_token+global_search"}, {"md_atom_id": "md_dmTU_assn_a029", "md_file": "knowledge_base/domains/TU/assumptions.md", "md_atom_type": "TABLE_ROW", "md_parent_section": "§TU [TU — Assumptions]", "md_verbatim": "| NEW01 | TUMIDENT | Tumor Identification | NEW | WEEK 32 |", "score": 0.4362, "match_basis": "verbatim_token+global_search"}, {"md_atom_id": "md_dmTU_assn_a021", "md_file": "knowledge_base/domains/TU/assumptions.md", "md_atom_type": "TABLE_ROW", "md_parent_section": "§TU [TU — Assumptions]", "md_verbatim": "| T01 | TUMIDENT | Tumor Identification | TARGET | SCREEN |", "score": 0.39, "match_basis": "verbatim_token+global_search"}, {"md_atom_id": "md_dmTU_assn_a022", "md_file": "knowledge_base/domains/TU/assumptions.md", "md_atom_type": "TABLE_ROW", "md_parent_section": "§TU [TU — Assumptions]", "md_verbatim": "| T02 | TUMIDENT | Tumor Identification | TARGET | SCREEN |", "score": 0.39, "match_basis": "verbatim_token+global_search"}], "candidate_count": 5, "zero_candidate": false}
{"pdf_atom_id": "ig34_p0004_a050", "pdf_atom_type": "CROSS_REF", "pdf_source": "SDTMIG_v3.4", "pdf_page": 4, "pdf_parent_section": "§0 [Table of Contents]", "pdf_verbatim": "6.3.12.2 Tumor/Lesion Results (TR)............................................................................350", "figure_ref": null, "candidates": [{"md_atom_id": "md_varindex_a1527", "md_file": "knowledge_base/VARIABLE_INDEX.md", "md_atom_type": "HEADING", "md_parent_section": "§ 二、领域专属变量（仅 1 个域，共 1499 个），按域分组", "md_verbatim": "### TR — Tumor/Lesion Results (Findings)", "score": 0.4689, "match_basis": "verbatim_token+global_search"}, {"md_atom_id": "md_varindex_a1574", "md_file": "knowledge_base/VARIABLE_INDEX.md", "md_atom_type": "TABLE_ROW", "md_parent_section": "§ 二、领域专属变量（仅 1 个域，共 1499 个），按域分组", "md_verbatim": "| TUORRES | Tumor/Lesion ID Result | Char | Result Qualifier | Exp | — |", "score": 0.3344, "match_basis": "verbatim_token+global_search"}, {"md_atom_id": "md_index_a083", "md_file": "knowledge_base/INDEX.md", "md_atom_type": "TABLE_ROW", "md_parent_section": "§ Domains (63 domains)", "md_verbatim": "| [TR](domains/TR/) | Tumor/Lesion Results | [spec](domains/TR/spec.md) · [assumptions](domains/TR/assumptions.md) · [examples](domains/TR/examples.md) |", "score": 0.3082, "match_basis": "verbatim_token+global_search"}, {"md_atom_id": "md_varindex_a1575", "md_file": "knowledge_base/VARIABLE_INDEX.md", "md_atom_type": "TABLE_ROW", "md_parent_section": "§ 二、领域专属变量（仅 1 个域，共 1499 个），按域分组", "md_verbatim": "| TUSTRESC | Tumor/Lesion ID Result Std. Format | Char | Result Qualifier | Exp | C123650 |", "score": 0.2637, "match_basis": "verbatim_token+global_search"}, {"md_atom_id": "md_model02_a133", "md_file": "knowledge_base/model/02_observation_classes.md", "md_atom_type": "NOTE", "md_parent_section": "§3.1.3 > Topic and Qualifier Variables (100 variables)", "md_verbatim": "**Result Variables:**", "score": 0.2479, "match_basis": "verbatim_token+global_search"}], "candidate_count": 5, "zero_candidate": false}
{"pdf_atom_id": "ig34_p0004_a051", "pdf_atom_type": "CROSS_REF", "pdf_source": "SDTMIG_v3.4", "pdf_page": 4, "pdf_parent_section": "§0 [Table of Contents]", "pdf_verbatim": "6.3.12.3 Tumor Identification/Tumor Results Examples ...............................................353", "figure_ref": null, "candidates": [{"md_atom_id": "md_index_a084", "md_file": "knowledge_base/INDEX.md", "md_atom_type": "TABLE_ROW", "md_parent_section": "§ Domains (63 domains)", "md_verbatim": "| [TU](domains/TU/) | Tumor/Lesion Identification | [spec](domains/TU/spec.md) · [assumptions](domains/TU/assumptions.md) · [examples](domains/TU/examples.md) |", "score": 0.383, "match_basis": "verbatim_token+global_search"}, {"md_atom_id": "md_varindex_a1564", "md_file": "knowledge_base/VARIABLE_INDEX.md", "md_atom_type": "HEADING", "md_parent_section": "§ 二、领域专属变量（仅 1 个域，共 1499 个），按域分组", "md_verbatim": "### TU — Tumor/Lesion Identification (Findings)", "score": 0.3643, "match_basis": "verbatim_token+global_search"}, {"md_atom_id": "md_dmTU_assn_a029", "md_file": "knowledge_base/domains/TU/assumptions.md", "md_atom_type": "TABLE_ROW", "md_parent_section": "§TU [TU — Assumptions]", "md_verbatim": "| NEW01 | TUMIDENT | Tumor Identification | NEW | WEEK 32 |", "score": 0.3547, "match_basis": "verbatim_token+global_search"}, {"md_atom_id": "md_dmTU_assn_a034", "md_file": "knowledge_base/domains/TU/assumptions.md", "md_atom_type": "TABLE_ROW", "md_parent_section": "§TU [TU — Assumptions]", "md_verbatim": "| L01 | TUMIDENT | Tumor Identification | LOCATION OF INTEREST | SPLEEN | CT SCAN |", "score": 0.3329, "match_basis": "verbatim_token+global_search"}, {"md_atom_id": "md_varindex_a1588", "md_file": "knowledge_base/VARIABLE_INDEX.md", "md_atom_type": "TABLE_ROW", "md_parent_section": "§ 二、领域专属变量（仅 1 个域，共 1499 个），按域分组", "md_verbatim": "| TUDY | Study Day of Tumor/Lesion Identification | Num | Timing | Perm | — |", "score": 0.33, "match_basis": "verbatim_token+global_search"}], "candidate_count": 5, "zero_candidate": false}
{"pdf_atom_id": "ig34_p0004_a052", "pdf_atom_type": "CROSS_REF", "pdf_source": "SDTMIG_v3.4", "pdf_page": 4, "pdf_parent_section": "§0 [Table of Contents]", "pdf_verbatim": "6.3.13 Vital Signs (VS) ...............................................................................................358", "figure_ref": null, "candidates": [{"md_atom_id": "md_varindex_a1630", "md_file": "knowledge_base/VARIABLE_INDEX.md", "md_atom_type": "HEADING", "md_parent_section": "§ 二、领域专属变量（仅 1 个域，共 1499 个），按域分组", "md_verbatim": "### VS — Vital Signs (Findings)", "score": 0.3669, "match_basis": "verbatim_token+global_search"}, {"md_atom_id": "md_varindex_a1656", "md_file": "knowledge_base/VARIABLE_INDEX.md", "md_atom_type": "TABLE_ROW", "md_parent_section": "§ 二、领域专属变量（仅 1 个域，共 1499 个），按域分组", "md_verbatim": "| VSDY | Study Day of Vital Signs | Num | Timing | Perm | — |", "score": 0.27, "match_basis": "verbatim_token+global_search"}, {"md_atom_id": "md_index_a129", "md_file": "knowledge_base/INDEX.md", "md_atom_type": "TABLE_ROW", "md_parent_section": "§ Terminology (91 files)", "md_verbatim": "| [vs.md](terminology/core/vs.md) | Vital Signs codelists |", "score": 0.234, "match_basis": "verbatim_token+global_search"}, {"md_atom_id": "md_ch04_a715", "md_file": "knowledge_base/chapters/ch04_general_assumptions.md", "md_atom_type": "SENTENCE", "md_parent_section": "§4.4.10 [Representing Time Points]", "md_verbatim": "**Example: Vital Signs time points (30, 60, 90 minutes post-dose)**", "score": 0.2233, "match_basis": "verbatim_token+global_search"}, {"md_atom_id": "md_ch04_a232", "md_file": "knowledge_base/chapters/ch04_general_assumptions.md", "md_atom_type": "LIST_ITEM", "md_parent_section": "§4.2.6 [Grouping Variables and Categorization]", "md_verbatim": "      - Vital Signs recorded during the stress test (VS domain)", "score": 0.2186, "match_basis": "verbatim_token+global_search"}], "candidate_count": 5, "zero_candidate": false}
{"pdf_atom_id": "ig34_p0004_a053", "pdf_atom_type": "CROSS_REF", "pdf_source": "SDTMIG_v3.4", "pdf_page": 4, "pdf_parent_section": "§0 [Table of Contents]", "pdf_verbatim": "6.4 FINDINGS ABOUT EVENTS OR INTERVENTIONS...........................................................361", "figure_ref": null, "candidates": [{"md_atom_id": "md_varindex_a547", "md_file": "knowledge_base/VARIABLE_INDEX.md", "md_atom_type": "HEADING", "md_parent_section": "§ 二、领域专属变量（仅 1 个域，共 1499 个），按域分组", "md_verbatim": "### FA — Findings About Events or Interventions (Findings About)", "score": 0.6639, "match_basis": "verbatim_token+global_search"}, {"md_atom_id": "md_ch02_a106", "md_file": "knowledge_base/chapters/ch02_fundamentals.md", "md_atom_type": "TABLE_ROW", "md_parent_section": "§2.7 [SDTM Variables Not Allowed in the SDTMIG]", "md_verbatim": "| --USCHFL | Interventions, Events, Findings |", "score": 0.5122, "match_basis": "verbatim_token+global_search"}, {"md_atom_id": "md_ch02_a108", "md_file": "knowledge_base/chapters/ch02_fundamentals.md", "md_atom_type": "TABLE_ROW", "md_parent_section": "§2.7 [SDTM Variables Not Allowed in the SDTMIG]", "md_verbatim": "| --RSTIND | Interventions, Findings |", "score": 0.4823, "match_basis": "verbatim_token+global_search"}, {"md_atom_id": "md_ch02_a109", "md_file": "knowledge_base/chapters/ch02_fundamentals.md", "md_atom_type": "TABLE_ROW", "md_parent_section": "§2.7 [SDTM Variables Not Allowed in the SDTMIG]", "md_verbatim": "| --RSTMOD | Interventions, Findings |", "score": 0.4678, "match_basis": "verbatim_token+global_search"}, {"md_atom_id": "md_index_a061", "md_file": "knowledge_base/INDEX.md", "md_atom_type": "TABLE_ROW", "md_parent_section": "§ Domains (63 domains)", "md_verbatim": "| [FA](domains/FA/) | Findings About Events or Interventions | [spec](domains/FA/spec.md) · [assumptions](domains/FA/assumptions.md) · [examples](domains/FA/examples.md) |", "score": 0.4043, "match_basis": "verbatim_token+global_search"}], "candidate_count": 5, "zero_candidate": false}
{"pdf_atom_id": "ig34_p0004_a054", "pdf_atom_type": "CROSS_REF", "pdf_source": "SDTMIG_v3.4", "pdf_page": 4, "pdf_parent_section": "§0 [Table of Contents]", "pdf_verbatim": "6.4.1 When to Use Findings About Events or Interventions ........................................361", "figure_ref": null, "candidates": [{"md_atom_id": "md_varindex_a547", "md_file": "knowledge_base/VARIABLE_INDEX.md", "md_atom_type": "HEADING", "md_parent_section": "§ 二、领域专属变量（仅 1 个域，共 1499 个），按域分组", "md_verbatim": "### FA — Findings About Events or Interventions (Findings About)", "score": 0.5977, "match_basis": "verbatim_token+global_search"}, {"md_atom_id": "md_ch02_a106", "md_file": "knowledge_base/chapters/ch02_fundamentals.md", "md_atom_type": "TABLE_ROW", "md_parent_section": "§2.7 [SDTM Variables Not Allowed in the SDTMIG]", "md_verbatim": "| --USCHFL | Interventions, Events, Findings |", "score": 0.47, "match_basis": "verbatim_token+global_search"}, {"md_atom_id": "md_ch02_a108", "md_file": "knowledge_base/chapters/ch02_fundamentals.md", "md_atom_type": "TABLE_ROW", "md_parent_section": "§2.7 [SDTM Variables Not Allowed in the SDTMIG]", "md_verbatim": "| --RSTIND | Interventions, Findings |", "score": 0.4417, "match_basis": "verbatim_token+global_search"}, {"md_atom_id": "md_ch02_a109", "md_file": "knowledge_base/chapters/ch02_fundamentals.md", "md_atom_type": "TABLE_ROW", "md_parent_section": "§2.7 [SDTM Variables Not Allowed in the SDTMIG]", "md_verbatim": "| --RSTMOD | Interventions, Findings |", "score": 0.43, "match_basis": "verbatim_token+global_search"}, {"md_atom_id": "md_model02_a155", "md_file": "knowledge_base/model/02_observation_classes.md", "md_atom_type": "SENTENCE", "md_parent_section": "§3.1.3 > Findings About (Subtype)", "md_verbatim": "The Findings About observation class is a subtype of Findings used to record findings about events or interventions.", "score": 0.39, "match_basis": "verbatim_token+global_search"}], "candidate_count": 5, "zero_candidate": false}
{"pdf_atom_id": "ig34_p0004_a055", "pdf_atom_type": "CROSS_REF", "pdf_source": "SDTMIG_v3.4", "pdf_page": 4, "pdf_parent_section": "§0 [Table of Contents]", "pdf_verbatim": "6.4.2 Naming Findings About Domains .......................................................................363", "figure_ref": null, "candidates": [{"md_atom_id": "md_index_a053", "md_file": "knowledge_base/INDEX.md", "md_atom_type": "HEADING", "md_parent_section": "§ Domains (63 domains)", "md_verbatim": "### Findings Domains", "score": 0.4567, "match_basis": "verbatim_token+global_search"}, {"md_atom_id": "md_dmFA_assn_a004", "md_file": "knowledge_base/domains/FA/assumptions.md", "md_atom_type": "LIST_ITEM", "md_parent_section": "§FA [FA — Assumptions]", "md_verbatim": "3. See Section 6.4.2, Naming Findings About Domains, for advice on splitting the FA domain.", "score": 0.3733, "match_basis": "verbatim_token+global_search"}, {"md_atom_id": "md_routing_a027", "md_file": "knowledge_base/ROUTING.md", "md_atom_type": "SENTENCE", "md_parent_section": "§ 路由规则", "md_verbatim": "**问法示例**: \"SDTM 的数据模型是什么？\"、\"怎么创建新 domain？\"、\"Events 和 Findings 有什么区别？\"", "score": 0.34, "match_basis": "verbatim_token+global_search"}, {"md_atom_id": "md_model02_a154", "md_file": "knowledge_base/model/02_observation_classes.md", "md_atom_type": "HEADING", "md_parent_section": "§3.1.3 > Findings About (Subtype)", "md_verbatim": "### Findings About (Subtype)", "score": 0.3248, "match_basis": "verbatim_token+global_search"}, {"md_atom_id": "md_varindex_a1399", "md_file": "knowledge_base/VARIABLE_INDEX.md", "md_atom_type": "HEADING", "md_parent_section": "§ 二、领域专属变量（仅 1 个域，共 1499 个），按域分组", "md_verbatim": "### SR — Skin Response (Findings About)", "score": 0.2977, "match_basis": "verbatim_token+global_search"}], "candidate_count": 5, "zero_candidate": false}
{"pdf_atom_id": "ig34_p0004_a056", "pdf_atom_type": "CROSS_REF", "pdf_source": "SDTMIG_v3.4", "pdf_page": 4, "pdf_parent_section": "§0 [Table of Contents]", "pdf_verbatim": "6.4.3 Variables Unique to Findings About ...................................................................364", "figure_ref": null, "candidates": [{"md_atom_id": "md_ch04_a343", "md_file": "knowledge_base/chapters/ch04_general_assumptions.md", "md_atom_type": "SENTENCE", "md_parent_section": "§4.2.7.4 [\"Specify\" Values for --OBJ]", "md_verbatim": "See also Section 6.4.3, Variables Unique to Findings About.", "score": 0.5038, "match_basis": "verbatim_token+global_search"}, {"md_atom_id": "md_model02_a154", "md_file": "knowledge_base/model/02_observation_classes.md", "md_atom_type": "HEADING", "md_parent_section": "§3.1.3 > Findings About (Subtype)", "md_verbatim": "### Findings About (Subtype)", "score": 0.2977, "match_basis": "verbatim_token+global_search"}, {"md_atom_id": "md_ch10_a220", "md_file": "knowledge_base/chapters/ch10_appendices.md", "md_atom_type": "TABLE_ROW", "md_parent_section": "§10.E [Revision History]", "md_verbatim": "| 6.4.3 | Variables Unique to Findings About | Added sentence clarifying that an FA record will not necessarily have a parent record |", "score": 0.2969, "match_basis": "verbatim_token+global_search"}, {"md_atom_id": "md_ch04_a352", "md_file": "knowledge_base/chapters/ch04_general_assumptions.md", "md_atom_type": "HEADING", "md_parent_section": "§4.2.8 [Multiple Values for a Variable]", "md_verbatim": "#### 4.2.8.2 Multiple Values for a Findings Result Variable", "score": 0.2957, "match_basis": "verbatim_token+global_search"}, {"md_atom_id": "md_model06_a017", "md_file": "knowledge_base/model/06_relationship_datasets.md", "md_atom_type": "HEADING", "md_parent_section": "§6.1 Related Records (RELREC)", "md_verbatim": "### Variables (10 variables)", "score": 0.29, "match_basis": "verbatim_token+global_search"}], "candidate_count": 5, "zero_candidate": false}
{"pdf_atom_id": "ig34_p0005_a001", "pdf_atom_type": "CROSS_REF", "pdf_source": "SDTMIG_v3.4", "pdf_page": 5, "pdf_parent_section": "§0 [Table of Contents]", "pdf_verbatim": "6.4.4 Findings About Events or Interventions (FA) .....................................................364", "figure_ref": null, "candidates": [{"md_atom_id": "md_varindex_a547", "md_file": "knowledge_base/VARIABLE_INDEX.md", "md_atom_type": "HEADING", "md_parent_section": "§ 二、领域专属变量（仅 1 个域，共 1499 个），按域分组", "md_verbatim": "### FA — Findings About Events or Interventions (Findings About)", "score": 0.6639, "match_basis": "verbatim_token+global_search"}, {"md_atom_id": "md_ch02_a106", "md_file": "knowledge_base/chapters/ch02_fundamentals.md", "md_atom_type": "TABLE_ROW", "md_parent_section": "§2.7 [SDTM Variables Not Allowed in the SDTMIG]", "md_verbatim": "| --USCHFL | Interventions, Events, Findings |", "score": 0.5122, "match_basis": "verbatim_token+global_search"}, {"md_atom_id": "md_ch02_a108", "md_file": "knowledge_base/chapters/ch02_fundamentals.md", "md_atom_type": "TABLE_ROW", "md_parent_section": "§2.7 [SDTM Variables Not Allowed in the SDTMIG]", "md_verbatim": "| --RSTIND | Interventions, Findings |", "score": 0.4823, "match_basis": "verbatim_token+global_search"}, {"md_atom_id": "md_ch02_a109", "md_file": "knowledge_base/chapters/ch02_fundamentals.md", "md_atom_type": "TABLE_ROW", "md_parent_section": "§2.7 [SDTM Variables Not Allowed in the SDTMIG]", "md_verbatim": "| --RSTMOD | Interventions, Findings |", "score": 0.4678, "match_basis": "verbatim_token+global_search"}, {"md_atom_id": "md_index_a061", "md_file": "knowledge_base/INDEX.md", "md_atom_type": "TABLE_ROW", "md_parent_section": "§ Domains (63 domains)", "md_verbatim": "| [FA](domains/FA/) | Findings About Events or Interventions | [spec](domains/FA/spec.md) · [assumptions](domains/FA/assumptions.md) · [examples](domains/FA/examples.md) |", "score": 0.4043, "match_basis": "verbatim_token+global_search"}], "candidate_count": 5, "zero_candidate": false}
{"pdf_atom_id": "ig34_p0005_a002", "pdf_atom_type": "CROSS_REF", "pdf_source": "SDTMIG_v3.4", "pdf_page": 5, "pdf_parent_section": "§0 [Table of Contents]", "pdf_verbatim": "6.4.5 Skin Response (SR)............................................................................................375", "figure_ref": null, "candidates": [{"md_atom_id": "md_varindex_a1399", "md_file": "knowledge_base/VARIABLE_INDEX.md", "md_atom_type": "HEADING", "md_parent_section": "§ 二、领域专属变量（仅 1 个域，共 1499 个），按域分组", "md_verbatim": "### SR — Skin Response (Findings About)", "score": 0.3567, "match_basis": "verbatim_token+global_search"}, {"md_atom_id": "md_dmCE_ex_a057", "md_file": "knowledge_base/domains/CE/examples.md", "md_atom_type": "TABLE_HEADER", "md_parent_section": "§CE.3 [Example 3]", "md_verbatim": "| Question | Response Options |\n|----------|-----------------|", "score": 0.3018, "match_basis": "verbatim_token+global_search"}, {"md_atom_id": "md_ch04_a270", "md_file": "knowledge_base/chapters/ch04_general_assumptions.md", "md_atom_type": "TABLE_ROW", "md_parent_section": "§4.2.7.1 [\"Specify\" Values for Non-Result Qualifier Variables]", "md_verbatim": "| [ ] Insufficient Response          |          |", "score": 0.2795, "match_basis": "verbatim_token+global_search"}, {"md_atom_id": "md_dmRS_ex_a002", "md_file": "knowledge_base/domains/RS/examples.md", "md_atom_type": "HEADING", "md_parent_section": "§RS [RS — Examples]", "md_verbatim": "## RS — Examples - Disease Response", "score": 0.27, "match_basis": "verbatim_token+global_search"}, {"md_atom_id": "md_index_a081", "md_file": "knowledge_base/INDEX.md", "md_atom_type": "TABLE_ROW", "md_parent_section": "§ Domains (63 domains)", "md_verbatim": "| [SR](domains/SR/) | Skin Response | [spec](domains/SR/spec.md) · [assumptions](domains/SR/assumptions.md) · [examples](domains/SR/examples.md) |", "score": 0.25, "match_basis": "verbatim_token+global_search"}], "candidate_count": 5, "zero_candidate": false}
{"pdf_atom_id": "ig34_p0005_a003", "pdf_atom_type": "CROSS_REF", "pdf_source": "SDTMIG_v3.4", "pdf_page": 5, "pdf_parent_section": "§0 [Table of Contents]", "pdf_verbatim": "7 TRIAL DESIGN MODEL DATASETS........................................................................382", "figure_ref": null, "candidates": [{"md_atom_id": "md_dmTA_ex_a002", "md_file": "knowledge_base/domains/TA/examples.md", "md_atom_type": "SENTENCE", "md_parent_section": "§TA [TA — Examples]", "md_verbatim": "The core of the Trial Design Model is the TA dataset.", "score": 0.54, "match_basis": "verbatim_token+global_search"}, {"md_atom_id": "md_ch10_a223", "md_file": "knowledge_base/chapters/ch10_appendices.md", "md_atom_type": "TABLE_ROW", "md_parent_section": "§10.E [Revision History]", "md_verbatim": "| **Section 7. Trial Design Model Datasets** | | |", "score": 0.5264, "match_basis": "verbatim_token+global_search"}, {"md_atom_id": "md_ch01_a058", "md_file": "knowledge_base/chapters/ch01_introduction.md", "md_atom_type": "LIST_ITEM", "md_parent_section": "§1.4 [How to Read this Implementation Guide]", "md_verbatim": "5. Read Section 7, Trial Design Model Datasets", "score": 0.49, "match_basis": "verbatim_token+global_search"}, {"md_atom_id": "md_model05_a005", "md_file": "knowledge_base/model/05_study_level_data.md", "md_atom_type": "HEADING", "md_parent_section": "§ 5.1 Trial Design Model", "md_verbatim": "## 5.1 Trial Design Model", "score": 0.4429, "match_basis": "verbatim_token+global_search"}, {"md_atom_id": "md_ch10_a050", "md_file": "knowledge_base/chapters/ch10_appendices.md", "md_atom_type": "TABLE_ROW", "md_parent_section": "§10.B [Glossary and Abbreviations]", "md_verbatim": "| TDM | Trial Design Model |", "score": 0.4233, "match_basis": "verbatim_token+global_search"}], "candidate_count": 5, "zero_candidate": false}
{"pdf_atom_id": "ig34_p0005_a004", "pdf_atom_type": "CROSS_REF", "pdf_source": "SDTMIG_v3.4", "pdf_page": 5, "pdf_parent_section": "§0 [Table of Contents]", "pdf_verbatim": "7.1 INTRODUCTION TO TRIAL DESIGN MODEL DATASETS...................................................382", "figure_ref": null, "candidates": [{"md_atom_id": "md_ch10_a223", "md_file": "knowledge_base/chapters/ch10_appendices.md", "md_atom_type": "TABLE_ROW", "md_parent_section": "§10.E [Revision History]", "md_verbatim": "| **Section 7. Trial Design Model Datasets** | | |", "score": 0.4831, "match_basis": "verbatim_token+global_search"}, {"md_atom_id": "md_ch01_a058", "md_file": "knowledge_base/chapters/ch01_introduction.md", "md_atom_type": "LIST_ITEM", "md_parent_section": "§1.4 [How to Read this Implementation Guide]", "md_verbatim": "5. Read Section 7, Trial Design Model Datasets", "score": 0.4577, "match_basis": "verbatim_token+global_search"}, {"md_atom_id": "md_dmTA_ex_a002", "md_file": "knowledge_base/domains/TA/examples.md", "md_atom_type": "SENTENCE", "md_parent_section": "§TA [TA — Examples]", "md_verbatim": "The core of the Trial Design Model is the TA dataset.", "score": 0.39, "match_basis": "verbatim_token+global_search"}, {"md_atom_id": "md_model05_a005", "md_file": "knowledge_base/model/05_study_level_data.md", "md_atom_type": "HEADING", "md_parent_section": "§ 5.1 Trial Design Model", "md_verbatim": "## 5.1 Trial Design Model", "score": 0.3122, "match_basis": "verbatim_token+global_search"}, {"md_atom_id": "md_ch10_a050", "md_file": "knowledge_base/chapters/ch10_appendices.md", "md_atom_type": "TABLE_ROW", "md_parent_section": "§10.B [Glossary and Abbreviations]", "md_verbatim": "| TDM | Trial Design Model |", "score": 0.3043, "match_basis": "verbatim_token+global_search"}], "candidate_count": 5, "zero_candidate": false}
{"pdf_atom_id": "ig34_p0005_a005", "pdf_atom_type": "CROSS_REF", "pdf_source": "SDTMIG_v3.4", "pdf_page": 5, "pdf_parent_section": "§0 [Table of Contents]", "pdf_verbatim": "7.1.1 Purpose of the Trial Design Model....................................................................382", "figure_ref": null, "candidates": [{"md_atom_id": "md_model05_a005", "md_file": "knowledge_base/model/05_study_level_data.md", "md_atom_type": "HEADING", "md_parent_section": "§ 5.1 Trial Design Model", "md_verbatim": "## 5.1 Trial Design Model", "score": 0.4429, "match_basis": "verbatim_token+global_search"}, {"md_atom_id": "md_ch10_a050", "md_file": "knowledge_base/chapters/ch10_appendices.md", "md_atom_type": "TABLE_ROW", "md_parent_section": "§10.B [Glossary and Abbreviations]", "md_verbatim": "| TDM | Trial Design Model |", "score": 0.4233, "match_basis": "verbatim_token+global_search"}, {"md_atom_id": "md_dmTA_ex_a002", "md_file": "knowledge_base/domains/TA/examples.md", "md_atom_type": "SENTENCE", "md_parent_section": "§TA [TA — Examples]", "md_verbatim": "The core of the Trial Design Model is the TA dataset.", "score": 0.365, "match_basis": "verbatim_token+global_search"}, {"md_atom_id": "md_varindex_a1501", "md_file": "knowledge_base/VARIABLE_INDEX.md", "md_atom_type": "HEADING", "md_parent_section": "§ 二、领域专属变量（仅 1 个域，共 1499 个），按域分组", "md_verbatim": "### TA — Trial Arms (Trial Design)", "score": 0.3111, "match_basis": "verbatim_token+global_search"}, {"md_atom_id": "md_ch10_a223", "md_file": "knowledge_base/chapters/ch10_appendices.md", "md_atom_type": "TABLE_ROW", "md_parent_section": "§10.E [Revision History]", "md_verbatim": "| **Section 7. Trial Design Model Datasets** | | |", "score": 0.3043, "match_basis": "verbatim_token+global_search"}], "candidate_count": 5, "zero_candidate": false}
{"pdf_atom_id": "ig34_p0005_a006", "pdf_atom_type": "CROSS_REF", "pdf_source": "SDTMIG_v3.4", "pdf_page": 5, "pdf_parent_section": "§0 [Table of Contents]", "pdf_verbatim": "7.1.2 Definitions of Trial Design Concepts .................................................................382", "figure_ref": null, "candidates": [{"md_atom_id": "md_ch03_a099", "md_file": "knowledge_base/chapters/ch03_submitting_data.md", "md_atom_type": "SENTENCE", "md_parent_section": "§3.2.1.1 [Primary Keys]", "md_verbatim": "**Definitions:**", "score": 0.3248, "match_basis": "verbatim_token+global_search"}, {"md_atom_id": "md_model06_a056", "md_file": "knowledge_base/model/06_relationship_datasets.md", "md_atom_type": "HEADING", "md_parent_section": "§6.3 Pool Definition (POOLDEF)", "md_verbatim": "## 6.3 Pool Definition (POOLDEF)", "score": 0.2678, "match_basis": "verbatim_token+global_search"}, {"md_atom_id": "md_varindex_a1501", "md_file": "knowledge_base/VARIABLE_INDEX.md", "md_atom_type": "HEADING", "md_parent_section": "§ 二、领域专属变量（仅 1 个域，共 1499 个），按域分组", "md_verbatim": "### TA — Trial Arms (Trial Design)", "score": 0.258, "match_basis": "verbatim_token+global_search"}, {"md_atom_id": "md_dmTU_assn_a071", "md_file": "knowledge_base/domains/TU/assumptions.md", "md_atom_type": "TABLE_HEADER", "md_parent_section": "§TU [TU — Assumptions]", "md_verbatim": "| QNAM | QLABEL | Definition |", "score": 0.2555, "match_basis": "verbatim_token+global_search"}, {"md_atom_id": "md_dmTE_assn_a002", "md_file": "knowledge_base/domains/TE/assumptions.md", "md_atom_type": "SENTENCE", "md_parent_section": "§TE [TE — Assumptions]", "md_verbatim": "The Trial Elements (TE) dataset contains the definitions of the elements that appear in the Trial Arms (TA) dataset.", "score": 0.2525, "match_basis": "verbatim_token+global_search"}], "candidate_count": 5, "zero_candidate": false}
{"pdf_atom_id": "ig34_p0005_a007", "pdf_atom_type": "CROSS_REF", "pdf_source": "SDTMIG_v3.4", "pdf_page": 5, "pdf_parent_section": "§0 [Table of Contents]", "pdf_verbatim": "7.1.3 Current and Future Contents of the Trial Design Model ....................................383", "figure_ref": null, "candidates": [{"md_atom_id": "md_model05_a005", "md_file": "knowledge_base/model/05_study_level_data.md", "md_atom_type": "HEADING", "md_parent_section": "§ 5.1 Trial Design Model", "md_verbatim": "## 5.1 Trial Design Model", "score": 0.3122, "match_basis": "verbatim_token+global_search"}, {"md_atom_id": "md_ch10_a050", "md_file": "knowledge_base/chapters/ch10_appendices.md", "md_atom_type": "TABLE_ROW", "md_parent_section": "§10.B [Glossary and Abbreviations]", "md_verbatim": "| TDM | Trial Design Model |", "score": 0.3043, "match_basis": "verbatim_token+global_search"}, {"md_atom_id": "md_dmTA_ex_a002", "md_file": "knowledge_base/domains/TA/examples.md", "md_atom_type": "SENTENCE", "md_parent_section": "§TA [TA — Examples]", "md_verbatim": "The core of the Trial Design Model is the TA dataset.", "score": 0.2841, "match_basis": "verbatim_token+global_search"}, {"md_atom_id": "md_model03_a088", "md_file": "knowledge_base/model/03_special_purpose_domains.md", "md_atom_type": "SENTENCE", "md_parent_section": "§ Subject Elements (SE)", "md_verbatim": "Planned elements are described in the Trial Design Model.", "score": 0.2714, "match_basis": "verbatim_token+global_search"}, {"md_atom_id": "md_varindex_a1514", "md_file": "knowledge_base/VARIABLE_INDEX.md", "md_atom_type": "HEADING", "md_parent_section": "§ 二、领域专属变量（仅 1 个域，共 1499 个），按域分组", "md_verbatim": "### TE — Trial Elements (Trial Design)", "score": 0.2642, "match_basis": "verbatim_token+global_search"}], "candidate_count": 5, "zero_candidate": false}
{"pdf_atom_id": "ig34_p0005_a008", "pdf_atom_type": "CROSS_REF", "pdf_source": "SDTMIG_v3.4", "pdf_page": 5, "pdf_parent_section": "§0 [Table of Contents]", "pdf_verbatim": "7.2 EXPERIMENTAL DESIGN (TA AND TE) ...........................................................................384", "figure_ref": null, "candidates": [{"md_atom_id": "md_varindex_a1514", "md_file": "knowledge_base/VARIABLE_INDEX.md", "md_atom_type": "HEADING", "md_parent_section": "§ 二、领域专属变量（仅 1 个域，共 1499 个），按域分组", "md_verbatim": "### TE — Trial Elements (Trial Design)", "score": 0.2465, "match_basis": "verbatim_token+global_search"}, {"md_atom_id": "md_varindex_a1505", "md_file": "knowledge_base/VARIABLE_INDEX.md", "md_atom_type": "HEADING", "md_parent_section": "§ 二、领域专属变量（仅 1 个域，共 1499 个），按域分组", "md_verbatim": "### TD — Trial Disease Assessments (Trial Design)", "score": 0.2061, "match_basis": "verbatim_token+global_search"}, {"md_atom_id": "md_varindex_a1501", "md_file": "knowledge_base/VARIABLE_INDEX.md", "md_atom_type": "HEADING", "md_parent_section": "§ 二、领域专属变量（仅 1 个域，共 1499 个），按域分组", "md_verbatim": "### TA — Trial Arms (Trial Design)", "score": 0.2043, "match_basis": "verbatim_token+global_search"}, {"md_atom_id": "md_model05_a005", "md_file": "knowledge_base/model/05_study_level_data.md", "md_atom_type": "HEADING", "md_parent_section": "§ 5.1 Trial Design Model", "md_verbatim": "## 5.1 Trial Design Model", "score": 0.1991, "match_basis": "verbatim_token+global_search"}, {"md_atom_id": "md_dmTA_ex_a025", "md_file": "knowledge_base/domains/TA/examples.md", "md_atom_type": "SENTENCE", "md_parent_section": "§TA.1 [Example 1]", "md_verbatim": "**Trial Design Matrix**", "score": 0.1991, "match_basis": "verbatim_token+global_search"}], "candidate_count": 5, "zero_candidate": false}
{"pdf_atom_id": "ig34_p0005_a009", "pdf_atom_type": "CROSS_REF", "pdf_source": "SDTMIG_v3.4", "pdf_page": 5, "pdf_parent_section": "§0 [Table of Contents]", "pdf_verbatim": "7.2.1 Trial Arms (TA) ................................................................................................384", "figure_ref": null, "candidates": [{"md_atom_id": "md_model05_a028", "md_file": "knowledge_base/model/05_study_level_data.md", "md_atom_type": "HEADING", "md_parent_section": "§ Trial Arms (TA)", "md_verbatim": "### Trial Arms (TA)", "score": 0.59, "match_basis": "verbatim_token+global_search"}, {"md_atom_id": "md_varindex_a1501", "md_file": "knowledge_base/VARIABLE_INDEX.md", "md_atom_type": "HEADING", "md_parent_section": "§ 二、领域专属变量（仅 1 个域，共 1499 个），按域分组", "md_verbatim": "### TA — Trial Arms (Trial Design)", "score": 0.39, "match_basis": "verbatim_token+global_search"}, {"md_atom_id": "md_dmTA_ex_a252", "md_file": "knowledge_base/domains/TA/examples.md", "md_atom_type": "HEADING", "md_parent_section": "§TA [TA — Examples]", "md_verbatim": "## Trial Arms Issues", "score": 0.39, "match_basis": "verbatim_token+global_search"}, {"md_atom_id": "md_model05_a044", "md_file": "knowledge_base/model/05_study_level_data.md", "md_atom_type": "HEADING", "md_parent_section": "§ Trial Sets (TX)", "md_verbatim": "### Trial Sets (TX)", "score": 0.315, "match_basis": "verbatim_token+global_search"}, {"md_atom_id": "md_model05_a083", "md_file": "knowledge_base/model/05_study_level_data.md", "md_atom_type": "HEADING", "md_parent_section": "§ Trial Visits (TV)", "md_verbatim": "### Trial Visits (TV)", "score": 0.27, "match_basis": "verbatim_token+global_search"}], "candidate_count": 5, "zero_candidate": false}
{"pdf_atom_id": "ig34_p0005_a010", "pdf_atom_type": "CROSS_REF", "pdf_source": "SDTMIG_v3.4", "pdf_page": 5, "pdf_parent_section": "§0 [Table of Contents]", "pdf_verbatim": "7.2.1.1 Trial Arms Issues ...........................................................................................402", "figure_ref": null, "candidates": [{"md_atom_id": "md_dmTA_ex_a252", "md_file": "knowledge_base/domains/TA/examples.md", "md_atom_type": "HEADING", "md_parent_section": "§TA [TA — Examples]", "md_verbatim": "## Trial Arms Issues", "score": 0.63, "match_basis": "verbatim_token+global_search"}, {"md_atom_id": "md_model05_a028", "md_file": "knowledge_base/model/05_study_level_data.md", "md_atom_type": "HEADING", "md_parent_section": "§ Trial Arms (TA)", "md_verbatim": "### Trial Arms (TA)", "score": 0.39, "match_basis": "verbatim_token+global_search"}, {"md_atom_id": "md_dmTV_ex_a030", "md_file": "knowledge_base/domains/TV/examples.md", "md_atom_type": "HEADING", "md_parent_section": "§TV [TV — Examples]", "md_verbatim": "## Trial Visits Issues", "score": 0.39, "match_basis": "verbatim_token+global_search"}, {"md_atom_id": "md_dmTE_ex_a036", "md_file": "knowledge_base/domains/TE/examples.md", "md_atom_type": "HEADING", "md_parent_section": "§TE [TE — Examples]", "md_verbatim": "## Trial Elements Issues", "score": 0.3525, "match_basis": "verbatim_token+global_search"}, {"md_atom_id": "md_varindex_a1501", "md_file": "knowledge_base/VARIABLE_INDEX.md", "md_atom_type": "HEADING", "md_parent_section": "§ 二、领域专属变量（仅 1 个域，共 1499 个），按域分组", "md_verbatim": "### TA — Trial Arms (Trial Design)", "score": 0.3043, "match_basis": "verbatim_token+global_search"}], "candidate_count": 5, "zero_candidate": false}
{"pdf_atom_id": "ig34_p0005_a011", "pdf_atom_type": "CROSS_REF", "pdf_source": "SDTMIG_v3.4", "pdf_page": 5, "pdf_parent_section": "§0 [Table of Contents]", "pdf_verbatim": "7.2.2 Trial Elements (TE)...........................................................................................402", "figure_ref": null, "candidates": [{"md_atom_id": "md_model05_a016", "md_file": "knowledge_base/model/05_study_level_data.md", "md_atom_type": "HEADING", "md_parent_section": "§ Trial Elements (TE)", "md_verbatim": "### Trial Elements (TE)", "score": 0.63, "match_basis": "verbatim_token+global_search"}, {"md_atom_id": "md_varindex_a1514", "md_file": "knowledge_base/VARIABLE_INDEX.md", "md_atom_type": "HEADING", "md_parent_section": "§ 二、领域专属变量（仅 1 个域，共 1499 个），按域分组", "md_verbatim": "### TE — Trial Elements (Trial Design)", "score": 0.4757, "match_basis": "verbatim_token+global_search"}, {"md_atom_id": "md_dmTE_ex_a036", "md_file": "knowledge_base/domains/TE/examples.md", "md_atom_type": "HEADING", "md_parent_section": "§TE [TE — Examples]", "md_verbatim": "## Trial Elements Issues", "score": 0.4757, "match_basis": "verbatim_token+global_search"}, {"md_atom_id": "md_dmTE_assn_a008", "md_file": "knowledge_base/domains/TE/assumptions.md", "md_atom_type": "SENTENCE", "md_parent_section": "§TE [TE — Assumptions]", "md_verbatim": "\"Week 2 to week 4\" is not a valid trial element.", "score": 0.39, "match_basis": "verbatim_token+global_search"}, {"md_atom_id": "md_dmDS_ex_a211", "md_file": "knowledge_base/domains/DS/examples.md", "md_atom_type": "SENTENCE", "md_parent_section": "§DS.11 [Example 11]", "md_verbatim": "The TE dataset shows the elements of the trial.", "score": 0.3742, "match_basis": "verbatim_token+global_search"}], "candidate_count": 5, "zero_candidate": false}
{"pdf_atom_id": "ig34_p0005_a012", "pdf_atom_type": "CROSS_REF", "pdf_source": "SDTMIG_v3.4", "pdf_page": 5, "pdf_parent_section": "§0 [Table of Contents]", "pdf_verbatim": "7.2.2.1 Trial Elements Issues......................................................................................405", "figure_ref": null, "candidates": [{"md_atom_id": "md_dmTE_ex_a036", "md_file": "knowledge_base/domains/TE/examples.md", "md_atom_type": "HEADING", "md_parent_section": "§TE [TE — Examples]", "md_verbatim": "## Trial Elements Issues", "score": 0.6471, "match_basis": "verbatim_token+global_search"}, {"md_atom_id": "md_model05_a016", "md_file": "knowledge_base/model/05_study_level_data.md", "md_atom_type": "HEADING", "md_parent_section": "§ Trial Elements (TE)", "md_verbatim": "### Trial Elements (TE)", "score": 0.4757, "match_basis": "verbatim_token+global_search"}, {"md_atom_id": "md_varindex_a1514", "md_file": "knowledge_base/VARIABLE_INDEX.md", "md_atom_type": "HEADING", "md_parent_section": "§ 二、领域专属变量（仅 1 个域，共 1499 个），按域分组", "md_verbatim": "### TE — Trial Elements (Trial Design)", "score": 0.39, "match_basis": "verbatim_token+global_search"}, {"md_atom_id": "md_dmTA_ex_a252", "md_file": "knowledge_base/domains/TA/examples.md", "md_atom_type": "HEADING", "md_parent_section": "§TA [TA — Examples]", "md_verbatim": "## Trial Arms Issues", "score": 0.3525, "match_basis": "verbatim_token+global_search"}, {"md_atom_id": "md_dmTE_assn_a008", "md_file": "knowledge_base/domains/TE/assumptions.md", "md_atom_type": "SENTENCE", "md_parent_section": "§TE [TE — Assumptions]", "md_verbatim": "\"Week 2 to week 4\" is not a valid trial element.", "score": 0.33, "match_basis": "verbatim_token+global_search"}], "candidate_count": 5, "zero_candidate": false}
{"pdf_atom_id": "ig34_p0005_a013", "pdf_atom_type": "CROSS_REF", "pdf_source": "SDTMIG_v3.4", "pdf_page": 5, "pdf_parent_section": "§0 [Table of Contents]", "pdf_verbatim": "7.3 SCHEDULE FOR ASSESSMENTS (TV, TD, AND TM) .........................................................407", "figure_ref": null, "candidates": [{"md_atom_id": "md_model05_a102", "md_file": "knowledge_base/model/05_study_level_data.md", "md_atom_type": "TABLE_ROW", "md_parent_section": "§ Trial Disease Assessments (TD)", "md_verbatim": "| 3 | TDORDER | Sequence of Planned Assessment Schedule | Num | Timing |", "score": 0.3054, "match_basis": "verbatim_token+global_search"}, {"md_atom_id": "md_varindex_a1507", "md_file": "knowledge_base/VARIABLE_INDEX.md", "md_atom_type": "TABLE_ROW", "md_parent_section": "§ 二、领域专属变量（仅 1 个域，共 1499 个），按域分组", "md_verbatim": "| TDORDER | Sequence of Planned Assessment Schedule | Num | Timing | Req | — |", "score": 0.3, "match_basis": "verbatim_token+global_search"}, {"md_atom_id": "md_model05_a096", "md_file": "knowledge_base/model/05_study_level_data.md", "md_atom_type": "HEADING", "md_parent_section": "§ Trial Disease Assessments (TD)", "md_verbatim": "### Trial Disease Assessments (TD)", "score": 0.2977, "match_basis": "verbatim_token+global_search"}, {"md_atom_id": "md_dmTD_ex_a029", "md_file": "knowledge_base/domains/TD/examples.md", "md_atom_type": "SENTENCE", "md_parent_section": "§TD.3 [Example 3]", "md_verbatim": "In this example, there are 3 distinct disease-assessment schedule patterns:", "score": 0.2767, "match_basis": "verbatim_token+global_search"}, {"md_atom_id": "md_varindex_a1505", "md_file": "knowledge_base/VARIABLE_INDEX.md", "md_atom_type": "HEADING", "md_parent_section": "§ 二、领域专属变量（仅 1 个域，共 1499 个），按域分组", "md_verbatim": "### TD — Trial Disease Assessments (Trial Design)", "score": 0.27, "match_basis": "verbatim_token+global_search"}], "candidate_count": 5, "zero_candidate": false}
{"pdf_atom_id": "ig34_p0005_a014", "pdf_atom_type": "CROSS_REF", "pdf_source": "SDTMIG_v3.4", "pdf_page": 5, "pdf_parent_section": "§0 [Table of Contents]", "pdf_verbatim": "7.3.1 Trial Visits (TV)...............................................................................................407", "figure_ref": null, "candidates": [{"md_atom_id": "md_model05_a083", "md_file": "knowledge_base/model/05_study_level_data.md", "md_atom_type": "HEADING", "md_parent_section": "§ Trial Visits (TV)", "md_verbatim": "### Trial Visits (TV)", "score": 0.615, "match_basis": "verbatim_token+global_search"}, {"md_atom_id": "md_varindex_a1589", "md_file": "knowledge_base/VARIABLE_INDEX.md", "md_atom_type": "HEADING", "md_parent_section": "§ 二、领域专属变量（仅 1 个域，共 1499 个），按域分组", "md_verbatim": "### TV — Trial Visits (Trial Design)", "score": 0.44, "match_basis": "verbatim_token+global_search"}, {"md_atom_id": "md_dmTV_ex_a030", "md_file": "knowledge_base/domains/TV/examples.md", "md_atom_type": "HEADING", "md_parent_section": "§TV [TV — Examples]", "md_verbatim": "## Trial Visits Issues", "score": 0.44, "match_basis": "verbatim_token+global_search"}, {"md_atom_id": "md_dmTV_ex_a037", "md_file": "knowledge_base/domains/TV/examples.md", "md_atom_type": "HEADING", "md_parent_section": "§TV.2 [Trial Visits Issues]", "md_verbatim": "### Trial Visit Rules", "score": 0.4173, "match_basis": "verbatim_token+global_search"}, {"md_atom_id": "md_dmTV_ex_a031", "md_file": "knowledge_base/domains/TV/examples.md", "md_atom_type": "HEADING", "md_parent_section": "§TV.2 [Trial Visits Issues]", "md_verbatim": "### Identifying Trial Visits", "score": 0.3371, "match_basis": "verbatim_token+global_search"}], "candidate_count": 5, "zero_candidate": false}
{"pdf_atom_id": "ig34_p0005_a015", "pdf_atom_type": "CROSS_REF", "pdf_source": "SDTMIG_v3.4", "pdf_page": 5, "pdf_parent_section": "§0 [Table of Contents]", "pdf_verbatim": "7.3.1.1 Trial Visits Issues ..........................................................................................409", "figure_ref": null, "candidates": [{"md_atom_id": "md_dmTV_ex_a030", "md_file": "knowledge_base/domains/TV/examples.md", "md_atom_type": "HEADING", "md_parent_section": "§TV [TV — Examples]", "md_verbatim": "## Trial Visits Issues", "score": 0.64, "match_basis": "verbatim_token+global_search"}, {"md_atom_id": "md_model05_a083", "md_file": "knowledge_base/model/05_study_level_data.md", "md_atom_type": "HEADING", "md_parent_section": "§ Trial Visits (TV)", "md_verbatim": "### Trial Visits (TV)", "score": 0.44, "match_basis": "verbatim_token+global_search"}, {"md_atom_id": "md_dmTA_ex_a252", "md_file": "knowledge_base/domains/TA/examples.md", "md_atom_type": "HEADING", "md_parent_section": "§TA [TA — Examples]", "md_verbatim": "## Trial Arms Issues", "score": 0.39, "match_basis": "verbatim_token+global_search"}, {"md_atom_id": "md_varindex_a1589", "md_file": "knowledge_base/VARIABLE_INDEX.md", "md_atom_type": "HEADING", "md_parent_section": "§ 二、领域专属变量（仅 1 个域，共 1499 个），按域分组", "md_verbatim": "### TV — Trial Visits (Trial Design)", "score": 0.3525, "match_basis": "verbatim_token+global_search"}, {"md_atom_id": "md_dmTV_ex_a037", "md_file": "knowledge_base/domains/TV/examples.md", "md_atom_type": "HEADING", "md_parent_section": "§TV.2 [Trial Visits Issues]", "md_verbatim": "### Trial Visit Rules", "score": 0.33, "match_basis": "verbatim_token+global_search"}], "candidate_count": 5, "zero_candidate": false}
{"pdf_atom_id": "ig34_p0005_a016", "pdf_atom_type": "CROSS_REF", "pdf_source": "SDTMIG_v3.4", "pdf_page": 5, "pdf_parent_section": "§0 [Table of Contents]", "pdf_verbatim": "7.3.2 Trial Disease Assessments (TD) .........................................................................410", "figure_ref": null, "candidates": [{"md_atom_id": "md_model05_a096", "md_file": "knowledge_base/model/05_study_level_data.md", "md_atom_type": "HEADING", "md_parent_section": "§ Trial Disease Assessments (TD)", "md_verbatim": "### Trial Disease Assessments (TD)", "score": 0.6567, "match_basis": "verbatim_token+global_search"}, {"md_atom_id": "md_varindex_a1505", "md_file": "knowledge_base/VARIABLE_INDEX.md", "md_atom_type": "HEADING", "md_parent_section": "§ 二、领域专属变量（仅 1 个域，共 1499 个），按域分组", "md_verbatim": "### TD — Trial Disease Assessments (Trial Design)", "score": 0.5536, "match_basis": "verbatim_token+global_search"}, {"md_atom_id": "md_index_a090", "md_file": "knowledge_base/INDEX.md", "md_atom_type": "TABLE_ROW", "md_parent_section": "§ Domains (63 domains)", "md_verbatim": "| [TD](domains/TD/) | Trial Disease Assessments | [spec](domains/TD/spec.md) · [assumptions](domains/TD/assumptions.md) · [examples](domains/TD/examples.md) |", "score": 0.3515, "match_basis": "verbatim_token+global_search"}, {"md_atom_id": "md_model05_a109", "md_file": "knowledge_base/model/05_study_level_data.md", "md_atom_type": "HEADING", "md_parent_section": "§ Trial Disease Milestones (TM)", "md_verbatim": "### Trial Disease Milestones (TM)", "score": 0.2746, "match_basis": "verbatim_token+global_search"}, {"md_atom_id": "md_model05_a016", "md_file": "knowledge_base/model/05_study_level_data.md", "md_atom_type": "HEADING", "md_parent_section": "§ Trial Elements (TE)", "md_verbatim": "### Trial Elements (TE)", "score": 0.2614, "match_basis": "verbatim_token+global_search"}], "candidate_count": 5, "zero_candidate": false}
{"pdf_atom_id": "ig34_p0005_a017", "pdf_atom_type": "CROSS_REF", "pdf_source": "SDTMIG_v3.4", "pdf_page": 5, "pdf_parent_section": "§0 [Table of Contents]", "pdf_verbatim": "7.3.3 Trial Disease Milestones (TM)............................................................................415", "figure_ref": null, "candidates": [{"md_atom_id": "md_model05_a109", "md_file": "knowledge_base/model/05_study_level_data.md", "md_atom_type": "HEADING", "md_parent_section": "§ Trial Disease Milestones (TM)", "md_verbatim": "### Trial Disease Milestones (TM)", "score": 0.6547, "match_basis": "verbatim_token+global_search"}, {"md_atom_id": "md_varindex_a1523", "md_file": "knowledge_base/VARIABLE_INDEX.md", "md_atom_type": "HEADING", "md_parent_section": "§ 二、领域专属变量（仅 1 个域，共 1499 个），按域分组", "md_verbatim": "### TM — Trial Disease Milestones (Trial Design)", "score": 0.5471, "match_basis": "verbatim_token+global_search"}, {"md_atom_id": "md_model02_a233", "md_file": "knowledge_base/model/02_observation_classes.md", "md_atom_type": "HEADING", "md_parent_section": "§3.1.5 > Disease Milestone Variables", "md_verbatim": "### Disease Milestone Variables", "score": 0.4445, "match_basis": "verbatim_token+global_search"}, {"md_atom_id": "md_model03_a146", "md_file": "knowledge_base/model/03_special_purpose_domains.md", "md_atom_type": "HEADING", "md_parent_section": "§ Subject Disease Milestones (SM)", "md_verbatim": "## Subject Disease Milestones (SM)", "score": 0.4445, "match_basis": "verbatim_token+global_search"}, {"md_atom_id": "md_ch04_a809", "md_file": "knowledge_base/chapters/ch04_general_assumptions.md", "md_atom_type": "HEADING", "md_parent_section": "§4.4.11 [Disease Milestones and Disease Milestone Timing Variables]", "md_verbatim": "#### Linking and Disease Milestones", "score": 0.4291, "match_basis": "verbatim_token+global_search"}], "candidate_count": 5, "zero_candidate": false}
{"pdf_atom_id": "ig34_p0005_a018", "pdf_atom_type": "CROSS_REF", "pdf_source": "SDTMIG_v3.4", "pdf_page": 5, "pdf_parent_section": "§0 [Table of Contents]", "pdf_verbatim": "7.4 TRIAL ELIGIBILITY AND SUMMARY (TI AND TS)..........................................................415", "figure_ref": null, "candidates": [{"md_atom_id": "md_model05_a130", "md_file": "knowledge_base/model/05_study_level_data.md", "md_atom_type": "HEADING", "md_parent_section": "§ Trial Summary (TS)", "md_verbatim": "### Trial Summary (TS)", "score": 0.3426, "match_basis": "verbatim_token+global_search"}, {"md_atom_id": "md_varindex_a1553", "md_file": "knowledge_base/VARIABLE_INDEX.md", "md_atom_type": "HEADING", "md_parent_section": "§ 二、领域专属变量（仅 1 个域，共 1499 个），按域分组", "md_verbatim": "### TS — Trial Summary (Trial Design)", "score": 0.2987, "match_basis": "verbatim_token+global_search"}, {"md_atom_id": "md_ch10_a228", "md_file": "knowledge_base/chapters/ch10_appendices.md", "md_atom_type": "TABLE_ROW", "md_parent_section": "§10.E [Revision History]", "md_verbatim": "| 7.4 | Trial Eligibility and Summary (TI and TS) | Order had been flipped here for TI and TS; has now been corrected and the section numbers updated |", "score": 0.2829, "match_basis": "verbatim_token+global_search"}, {"md_atom_id": "md_model05_a012", "md_file": "knowledge_base/model/05_study_level_data.md", "md_atom_type": "LIST_ITEM", "md_parent_section": "§ 5.1 Trial Design Model", "md_verbatim": "- Study eligibility criteria (Section 5.1.5, Trial Inclusion/Exclusion Criteria)", "score": 0.27, "match_basis": "verbatim_token+global_search"}, {"md_atom_id": "md_ch01_a045", "md_file": "knowledge_base/chapters/ch01_introduction.md", "md_atom_type": "LIST_ITEM", "md_parent_section": "§1.3 [Relationship to Prior CDISC Documents]", "md_verbatim": "- Removed Appendix C1, Trial Summary Codes", "score": 0.2355, "match_basis": "verbatim_token+global_search"}], "candidate_count": 5, "zero_candidate": false}
{"pdf_atom_id": "ig34_p0005_a019", "pdf_atom_type": "CROSS_REF", "pdf_source": "SDTMIG_v3.4", "pdf_page": 5, "pdf_parent_section": "§0 [Table of Contents]", "pdf_verbatim": "7.4.1 Trial Inclusion/Exclusion Criteria (TI)...............................................................416", "figure_ref": null, "candidates": [{"md_atom_id": "md_model05_a118", "md_file": "knowledge_base/model/05_study_level_data.md", "md_atom_type": "HEADING", "md_parent_section": "§ Trial Inclusion/Exclusion Criteria (TI)", "md_verbatim": "### Trial Inclusion/Exclusion Criteria (TI)", "score": 0.6567, "match_basis": "verbatim_token+global_search"}, {"md_atom_id": "md_varindex_a1519", "md_file": "knowledge_base/VARIABLE_INDEX.md", "md_atom_type": "HEADING", "md_parent_section": "§ 二、领域专属变量（仅 1 个域，共 1499 个），按域分组", "md_verbatim": "### TI — Trial Inclusion/Exclusion Criteria (Trial Design)", "score": 0.5536, "match_basis": "verbatim_token+global_search"}, {"md_atom_id": "md_model05_a120", "md_file": "knowledge_base/model/05_study_level_data.md", "md_atom_type": "SENTENCE", "md_parent_section": "§ Trial Inclusion/Exclusion Criteria (TI)", "md_verbatim": "Describes the inclusion and exclusion criteria for the trial.", "score": 0.4678, "match_basis": "verbatim_token+global_search"}, {"md_atom_id": "md_varindex_a679", "md_file": "knowledge_base/VARIABLE_INDEX.md", "md_atom_type": "HEADING", "md_parent_section": "§ 二、领域专属变量（仅 1 个域，共 1499 个），按域分组", "md_verbatim": "### IE — Inclusion/Exclusion Criteria Not Met (Findings)", "score": 0.4362, "match_basis": "verbatim_token+global_search"}, {"md_atom_id": "md_varindex_a1521", "md_file": "knowledge_base/VARIABLE_INDEX.md", "md_atom_type": "TABLE_ROW", "md_parent_section": "§ 二、领域专属变量（仅 1 个域，共 1499 个），按域分组", "md_verbatim": "| TIRL | Inclusion/Exclusion Criterion Rule | Char | Rule | Perm | — |", "score": 0.4011, "match_basis": "verbatim_token+global_search"}], "candidate_count": 5, "zero_candidate": false}
{"pdf_atom_id": "ig34_p0005_a020", "pdf_atom_type": "CROSS_REF", "pdf_source": "SDTMIG_v3.4", "pdf_page": 5, "pdf_parent_section": "§0 [Table of Contents]", "pdf_verbatim": "7.4.2 Trial Summary (TS) ..........................................................................................417", "figure_ref": null, "candidates": [{"md_atom_id": "md_model05_a130", "md_file": "knowledge_base/model/05_study_level_data.md", "md_atom_type": "HEADING", "md_parent_section": "§ Trial Summary (TS)", "md_verbatim": "### Trial Summary (TS)", "score": 0.6233, "match_basis": "verbatim_token+global_search"}, {"md_atom_id": "md_varindex_a1553", "md_file": "knowledge_base/VARIABLE_INDEX.md", "md_atom_type": "HEADING", "md_parent_section": "§ 二、领域专属变量（仅 1 个域，共 1499 个），按域分组", "md_verbatim": "### TS — Trial Summary (Trial Design)", "score": 0.4592, "match_basis": "verbatim_token+global_search"}, {"md_atom_id": "md_ch01_a045", "md_file": "knowledge_base/chapters/ch01_introduction.md", "md_atom_type": "LIST_ITEM", "md_parent_section": "§1.3 [Relationship to Prior CDISC Documents]", "md_verbatim": "- Removed Appendix C1, Trial Summary Codes", "score": 0.2987, "match_basis": "verbatim_token+global_search"}, {"md_atom_id": "md_model05_a028", "md_file": "knowledge_base/model/05_study_level_data.md", "md_atom_type": "HEADING", "md_parent_section": "§ Trial Arms (TA)", "md_verbatim": "### Trial Arms (TA)", "score": 0.2536, "match_basis": "verbatim_token+global_search"}, {"md_atom_id": "md_model05_a044", "md_file": "knowledge_base/model/05_study_level_data.md", "md_atom_type": "HEADING", "md_parent_section": "§ Trial Sets (TX)", "md_verbatim": "### Trial Sets (TX)", "score": 0.2536, "match_basis": "verbatim_token+global_search"}], "candidate_count": 5, "zero_candidate": false}
{"pdf_atom_id": "ig34_p0005_a021", "pdf_atom_type": "CROSS_REF", "pdf_source": "SDTMIG_v3.4", "pdf_page": 5, "pdf_parent_section": "§0 [Table of Contents]", "pdf_verbatim": "7.4.2.1 Use of Null Flavor.........................................................................................424", "figure_ref": null, "candidates": [{"md_atom_id": "md_dmTS_assn_a032", "md_file": "knowledge_base/domains/TS/assumptions.md", "md_atom_type": "HEADING", "md_parent_section": "§TS [TS — Assumptions]", "md_verbatim": "### Use of Null Flavor", "score": 0.615, "match_basis": "verbatim_token+global_search"}, {"md_atom_id": "md_dmTS_assn_a037", "md_file": "knowledge_base/domains/TS/assumptions.md", "md_atom_type": "NOTE", "md_parent_section": "§TS [TS — Use of Null Flavor]", "md_verbatim": "**NullFlavor Enumeration (OID: 2.16.840.1.113883.5.1008)**", "score": 0.2233, "match_basis": "verbatim_token+global_search"}, {"md_atom_id": "md_model05_a141", "md_file": "knowledge_base/model/05_study_level_data.md", "md_atom_type": "TABLE_ROW", "md_parent_section": "§ Trial Summary (TS)", "md_verbatim": "| 8 | TSVALNF | Parameter Null Flavor | Char | Result Qualifier |", "score": 0.1991, "match_basis": "verbatim_token+global_search"}, {"md_atom_id": "md_model05_a158", "md_file": "knowledge_base/model/05_study_level_data.md", "md_atom_type": "TABLE_ROW", "md_parent_section": "§ Challenge Agent Characterization (AC)", "md_verbatim": "| 9 | ACVALNF | Parameter Null Flavor | Char | Result Qualifier |", "score": 0.1991, "match_basis": "verbatim_token+global_search"}, {"md_atom_id": "md_dmTS_ex_a069", "md_file": "knowledge_base/domains/TS/examples.md", "md_atom_type": "SENTENCE", "md_parent_section": "§TS.3 [Example 3]", "md_verbatim": "This example shows how to implement the null flavor in TSVALNF when the value in TSVAL is missing.", "score": 0.1847, "match_basis": "verbatim_token+global_search"}], "candidate_count": 5, "zero_candidate": false}
{"pdf_atom_id": "ig34_p0005_a022", "pdf_atom_type": "CROSS_REF", "pdf_source": "SDTMIG_v3.4", "pdf_page": 5, "pdf_parent_section": "§0 [Table of Contents]", "pdf_verbatim": "7.5 HOW TO MODEL THE DESIGN OF A CLINICAL TRIAL .....................................................425", "figure_ref": null, "candidates": [{"md_atom_id": "md_model05_a005", "md_file": "knowledge_base/model/05_study_level_data.md", "md_atom_type": "HEADING", "md_parent_section": "§ 5.1 Trial Design Model", "md_verbatim": "## 5.1 Trial Design Model", "score": 0.4058, "match_basis": "verbatim_token+global_search"}, {"md_atom_id": "md_ch10_a050", "md_file": "knowledge_base/chapters/ch10_appendices.md", "md_atom_type": "TABLE_ROW", "md_parent_section": "§10.B [Glossary and Abbreviations]", "md_verbatim": "| TDM | Trial Design Model |", "score": 0.39, "match_basis": "verbatim_token+global_search"}, {"md_atom_id": "md_dmTA_ex_a002", "md_file": "knowledge_base/domains/TA/examples.md", "md_atom_type": "SENTENCE", "md_parent_section": "§TA [TA — Examples]", "md_verbatim": "The core of the Trial Design Model is the TA dataset.", "score": 0.3438, "match_basis": "verbatim_token+global_search"}, {"md_atom_id": "md_ch10_a223", "md_file": "knowledge_base/chapters/ch10_appendices.md", "md_atom_type": "TABLE_ROW", "md_parent_section": "§10.E [Revision History]", "md_verbatim": "| **Section 7. Trial Design Model Datasets** | | |", "score": 0.29, "match_basis": "verbatim_token+global_search"}, {"md_atom_id": "md_varindex_a1501", "md_file": "knowledge_base/VARIABLE_INDEX.md", "md_atom_type": "HEADING", "md_parent_section": "§ 二、领域专属变量（仅 1 个域，共 1499 个），按域分组", "md_verbatim": "### TA — Trial Arms (Trial Design)", "score": 0.29, "match_basis": "verbatim_token+global_search"}], "candidate_count": 5, "zero_candidate": false}
{"pdf_atom_id": "ig34_p0005_a023", "pdf_atom_type": "CROSS_REF", "pdf_source": "SDTMIG_v3.4", "pdf_page": 5, "pdf_parent_section": "§0 [Table of Contents]", "pdf_verbatim": "8 REPRESENTING RELATIONSHIPS AND DATA.......................................................427", "figure_ref": null, "candidates": [{"md_atom_id": "md_ch10_a231", "md_file": "knowledge_base/chapters/ch10_appendices.md", "md_atom_type": "TABLE_ROW", "md_parent_section": "§10.E [Revision History]", "md_verbatim": "| **Section 8. Representing Relationships and Data** | | |", "score": 0.6043, "match_basis": "verbatim_token+global_search"}, {"md_atom_id": "md_ch01_a059", "md_file": "knowledge_base/chapters/ch01_introduction.md", "md_atom_type": "LIST_ITEM", "md_parent_section": "§1.4 [How to Read this Implementation Guide]", "md_verbatim": "6. Review Section 8, Representing Relationships and Data", "score": 0.54, "match_basis": "verbatim_token+global_search"}, {"md_atom_id": "md_ch08_a001", "md_file": "knowledge_base/chapters/ch08_relationships.md", "md_atom_type": "HEADING", "md_parent_section": "§8 [Representing Relationships and Data]", "md_verbatim": "# SDTMIG v3.4 — Chapter 8: Representing Relationships and Data", "score": 0.5135, "match_basis": "verbatim_token+global_search"}, {"md_atom_id": "md_model06_a001", "md_file": "knowledge_base/model/06_relationship_datasets.md", "md_atom_type": "HEADING", "md_parent_section": "§ SDTM v2.0 — Chapter 6: Datasets for Representing Relationships", "md_verbatim": "# SDTM v2.0 — Chapter 6: Datasets for Representing Relationships", "score": 0.463, "match_basis": "verbatim_token+global_search"}, {"md_atom_id": "md_dmEX_ex_a241", "md_file": "knowledge_base/domains/EX/examples.md", "md_atom_type": "SENTENCE", "md_parent_section": "§EX.7 [Example 7]", "md_verbatim": "The RELREC dataset represents relationships between EC, EX, and VS.", "score": 0.4216, "match_basis": "verbatim_token+global_search"}], "candidate_count": 5, "zero_candidate": false}
{"pdf_atom_id": "ig34_p0005_a024", "pdf_atom_type": "CROSS_REF", "pdf_source": "SDTMIG_v3.4", "pdf_page": 5, "pdf_parent_section": "§0 [Table of Contents]", "pdf_verbatim": "8.1 RELATING GROUPS OF RECORDS WITHIN A DOMAIN USING THE --GRPID VARIABLE ......428", "figure_ref": null, "candidates": [{"md_atom_id": "md_ch08_a022", "md_file": "knowledge_base/chapters/ch08_relationships.md", "md_atom_type": "HEADING", "md_parent_section": "§8 [Representing Relationships and Data]", "md_verbatim": "## 8.1 Relating Groups of Records Within a Domain Using --GRPID", "score": 0.5567, "match_basis": "verbatim_token+global_search"}, {"md_atom_id": "md_ch08_a061", "md_file": "knowledge_base/chapters/ch08_relationships.md", "md_atom_type": "SENTENCE", "md_parent_section": "§8.2 [Relating Peer Records]", "md_verbatim": "Groups of records can be related by using grouping variables such as --GRPID in IDVAR.", "score": 0.403, "match_basis": "verbatim_token+global_search"}, {"md_atom_id": "md_ch08_a007", "md_file": "knowledge_base/chapters/ch08_relationships.md", "md_atom_type": "LIST_ITEM", "md_parent_section": "§8 [Representing Relationships and Data]", "md_verbatim": "- **Section 8.1**, Relating Groups of Records Within a Domain Using the --GRPID Variable — representing a relationship between a group of records for a given subject within the same domain", "score": 0.3988, "match_basis": "verbatim_token+global_search"}, {"md_atom_id": "md_dmRELREC_assn_a012", "md_file": "knowledge_base/domains/RELREC/assumptions.md", "md_atom_type": "LIST_ITEM", "md_parent_section": "§RELREC [RELREC — Assumptions]", "md_verbatim": "- The grouping identifier (--GRPID) variable, used to link related records for a subject within a domain, is explained in Section 8.1, Relating Groups of Records Within a --GRPID Variable.", "score": 0.3812, "match_basis": "verbatim_token+global_search"}, {"md_atom_id": "md_ch08_a021", "md_file": "knowledge_base/chapters/ch08_relationships.md", "md_atom_type": "LIST_ITEM", "md_parent_section": "§8 [Representing Relationships and Data]", "md_verbatim": "- The grouping identifier (--GRPID) variable, used to link related records for a subject within a domain, is explained in Section 8.1.", "score": 0.3547, "match_basis": "verbatim_token+global_search"}], "candidate_count": 5, "zero_candidate": false}
{"pdf_atom_id": "ig34_p0005_a025", "pdf_atom_type": "CROSS_REF", "pdf_source": "SDTMIG_v3.4", "pdf_page": 5, "pdf_parent_section": "§0 [Table of Contents]", "pdf_verbatim": "8.1.1 --GRPID Example .............................................................................................428", "figure_ref": null, "candidates": [{"md_atom_id": "md_ch08_a029", "md_file": "knowledge_base/chapters/ch08_relationships.md", "md_atom_type": "HEADING", "md_parent_section": "§8.1 [Relating Groups of Records Within a Domain Using --GRPID]", "md_verbatim": "### 8.1.1 --GRPID Example", "score": 0.6233, "match_basis": "verbatim_token+global_search"}, {"md_atom_id": "md_dmCM_ex_a002", "md_file": "knowledge_base/domains/CM/examples.md", "md_atom_type": "HEADING", "md_parent_section": "§CM.1 [Example 1]", "md_verbatim": "## Example 1", "score": 0.4233, "match_basis": "verbatim_token+global_search"}, {"md_atom_id": "md_dmCM_ex_a022", "md_file": "knowledge_base/domains/CM/examples.md", "md_atom_type": "HEADING", "md_parent_section": "§CM.2 [Example 2]", "md_verbatim": "## Example 2", "score": 0.4233, "match_basis": "verbatim_token+global_search"}, {"md_atom_id": "md_dmCM_ex_a029", "md_file": "knowledge_base/domains/CM/examples.md", "md_atom_type": "HEADING", "md_parent_section": "§CM.3 [Example 3]", "md_verbatim": "## Example 3", "score": 0.4233, "match_basis": "verbatim_token+global_search"}, {"md_atom_id": "md_dmCM_ex_a047", "md_file": "knowledge_base/domains/CM/examples.md", "md_atom_type": "HEADING", "md_parent_section": "§CM.4 [Example 4]", "md_verbatim": "## Example 4", "score": 0.4233, "match_basis": "verbatim_token+global_search"}], "candidate_count": 5, "zero_candidate": false}
