{"pdf_atom_id": "ig34_p0063_a017", "pdf_atom_type": "TABLE_ROW", "pdf_source": "SDTMIG_v3.4", "pdf_page": 63, "pdf_parent_section": "§5.2 [Demographics (DM)]", "pdf_verbatim": "AGEU | Age Units | Num | (AGEU) | Variable Qualifier | Units associated with AGE. | Exp", "figure_ref": null, "candidates": [{"md_atom_id": "md_dmDM_ex_a024", "md_file": "knowledge_base/domains/DM/examples.md", "md_atom_type": "TABLE_ROW", "md_parent_section": "§DM.2 [Example 2]", "md_verbatim": "| 5 | ABC | DM | 005 | A | Drug A | | | ASSIGNED, NOT TREATED | |", "score": 0.4419, "match_basis": "verbatim_token+domain_route:DM"}, {"md_atom_id": "md_dmDM_ex_a087", "md_file": "knowledge_base/domains/DM/examples.md", "md_atom_type": "TABLE_ROW", "md_parent_section": "§DM.4 [Example 4]", "md_verbatim": "| RACE01 | 1 | Which of the following racial designations best describes you? (More than one choice is acceptable.) | Race | Study participants should self-report race, with race being asked about after ethnicity. | Text | RACE | | (RACE) | AMERICAN INDIAN OR ALASKA NATIVE | | | checkbox | |", "score": 0.421, "match_basis": "verbatim_token+domain_route:DM"}, {"md_atom_id": "md_dmDM_ex_a145", "md_file": "knowledge_base/domains/DM/examples.md", "md_atom_type": "TABLE_ROW", "md_parent_section": "§DM.6 [Example 6]", "md_verbatim": "| RACE01 | 3 | Which of the following racial designations best describes you? (More than one choice is acceptable.) | Race | Study participants should self-report race, with race being asked about after ethnicity. | Text | RACE | | (RACE) | AMERICAN INDIAN OR ALASKA NATIVE | | | checkbox | |", "score": 0.421, "match_basis": "verbatim_token+domain_route:DM"}, {"md_atom_id": "md_dmDM_ex_a023", "md_file": "knowledge_base/domains/DM/examples.md", "md_atom_type": "TABLE_ROW", "md_parent_section": "§DM.2 [Example 2]", "md_verbatim": "| 4 | ABC | DM | 004 | | | | | NOT ASSIGNED | |", "score": 0.4158, "match_basis": "verbatim_token+domain_route:DM"}, {"md_atom_id": "md_dmDM_ex_a092", "md_file": "knowledge_base/domains/DM/examples.md", "md_atom_type": "TABLE_ROW", "md_parent_section": "§DM.4 [Example 4]", "md_verbatim": "| RACE06 | 6 | (same) | Race | (same) | Text | RACE | | (RACE) | NOT REPORTED | | | checkbox | |", "score": 0.412, "match_basis": "verbatim_token+domain_route:DM"}], "candidate_count": 5, "zero_candidate": false}
{"pdf_atom_id": "ig34_p0063_a018", "pdf_atom_type": "CODE_LITERAL", "pdf_source": "SDTMIG_v3.4", "pdf_page": 63, "pdf_parent_section": "§5.2 [Demographics (DM)]", "pdf_verbatim": "(AGEU)", "figure_ref": null, "candidates": [{"md_atom_id": "md_dmDM_ex_a125", "md_file": "knowledge_base/domains/DM/examples.md", "md_atom_type": "TABLE_HEADER", "md_parent_section": "§DM.5 [Example 5]", "md_verbatim": "| Row | STUDYID | DOMAIN | USUBJID | SUBJID | AGE | AGEU | SEX | RACE | ETHNIC |\n|-----|---------|--------|---------|--------|-----|------|-----|------|--------|", "score": 0.24, "match_basis": "verbatim_token+domain_route:DM"}, {"md_atom_id": "md_dmDM_ex_a190", "md_file": "knowledge_base/domains/DM/examples.md", "md_atom_type": "TABLE_HEADER", "md_parent_section": "§DM.7 [Example 7]", "md_verbatim": "| Row | STUDYID | DOMAIN | USUBJID | SUBJID | AGE | AGEU | SEX | RACE | ETHNIC |\n|-----|---------|--------|---------|--------|-----|------|-----|------|--------|", "score": 0.24, "match_basis": "verbatim_token+domain_route:DM"}, {"md_atom_id": "md_dmDM_ex_a004", "md_file": "knowledge_base/domains/DM/examples.md", "md_atom_type": "TABLE_HEADER", "md_parent_section": "§DM.1 [Example 1]", "md_verbatim": "| Row | STUDYID | DOMAIN | USUBJID | SUBJID | RFSTDTC | RFENDTC | RFXSTDTC | RFXENDTC | RFICDTC | RFPENDTC | SITEID | INVNAM | BRTHDTC | AGE | AGEU | SEX | RACE | ETHNIC | ARMCD | ARM | ACTARMCD | ACTARM | ARMNRS | ACTARMUD | COUNTRY |\n|-----|---------|--------|---------|--------|---------|---------|----------|----------|---------|----------|--------|--------|---------|-----|------|-----|------|--------|-------|-----|----------|--------|--------|----------|---------|", "score": 0.2064, "match_basis": "verbatim_token+domain_route:DM"}, {"md_atom_id": "md_dmDM_assn_a005", "md_file": "knowledge_base/domains/DM/assumptions.md", "md_atom_type": "LIST_ITEM", "md_parent_section": "§DM [DM — Assumptions]", "md_verbatim": "4. With the exception of trials that use multistage processes to assign subjects to arms as described below, ARM and ACTARM must be populated with ARM values from the Trial Arms (TA) dataset and ARMCD and ACTARMCD must be populated with ARMCD values from the TA dataset or be null. The ARM and ARMCD values in the TA dataset have a one-to-one relationship, and that one-to-one relationship must be preserved in the values used to populate ARM and ARMCD in DM, and to populate the values of ACTARM and ACTARMCD in DM.", "score": 0.1959, "match_basis": "verbatim_token+domain_route:DM"}, {"md_atom_id": "md_dmDM_assn_a029", "md_file": "knowledge_base/domains/DM/assumptions.md", "md_atom_type": "LIST_ITEM", "md_parent_section": "§DM [DM — Assumptions]", "md_verbatim": "    c. RFCSTDTC and RFCENDTC: This pair of variables is used only when the study uses a protocol-specified challenge agent to induce a condition that the investigational treatment is intended to cure, mitigate, treat, or prevent. RFCSTDTC and RFCENDTC always represent the date/time of first and last exposure to the challenge agent.", "score": 0.1949, "match_basis": "verbatim_token+domain_route:DM"}, {"md_atom_id": "md_dmDM_assn_a011", "md_file": "knowledge_base/domains/DM/assumptions.md", "md_atom_type": "LIST_ITEM", "md_parent_section": "§DM [DM — Assumptions]", "md_verbatim": "   b. Multistage assignment to treatment: Some trials use a multistage process for assigning a subject to an arm (see Section 7.2.1, Trial Arms, Example Trial 3). In such a case, best practice is to create ARMCD values composed of codes representing the results of the multiple stages of the treatment assignment process. If a subject is partially assigned, then truncated codes representing the stages completed can be used in ARMCD, and similar truncated codes can be used in ACTARMCD. The descriptions used to populate ARM and ACTARM should be similarly truncated, and the one-to-one relationship between these truncated codes should be maintained for all affected subjects in the trial. Example 3 below provides an example of this situation; see also Section 5.3, Subject Elements, Example 2. Note that this use of values not in the TA dataset is allowable only for trials with multistage assignment to arms and to subjects in those trials who do not complete all stages of the assignment.", "score": 0.1929, "match_basis": "verbatim_token+domain_route:DM"}, {"md_atom_id": "md_dmDM_assn_a001", "md_file": "knowledge_base/domains/DM/assumptions.md", "md_atom_type": "HEADING", "md_parent_section": "§DM [DM — Assumptions]", "md_verbatim": "# DM — Assumptions", "score": 0.19, "match_basis": "verbatim_token+domain_route:DM"}, {"md_atom_id": "md_dmDM_assn_a002", "md_file": "knowledge_base/domains/DM/assumptions.md", "md_atom_type": "LIST_ITEM", "md_parent_section": "§DM [DM — Assumptions]", "md_verbatim": "1. Investigator and site identification: Companies use different methods to distinguish sites and investigators. CDISC assumes that SITEID will always be present, with INVID and INVNAM used as necessary. This should be done consistently and the meaning of the variable made clear in the Define-XML document.", "score": 0.19, "match_basis": "verbatim_token+domain_route:DM"}, {"md_atom_id": "md_dmDM_assn_a003", "md_file": "knowledge_base/domains/DM/assumptions.md", "md_atom_type": "LIST_ITEM", "md_parent_section": "§DM [DM — Assumptions]", "md_verbatim": "2. Every subject in a study must have a subject identifier (SUBJID). In some cases a subject may participate in more than 1 study. To identify a subject uniquely across all studies for all applications or submissions involving the product, a unique identifier (USUBJID) must be included in all datasets. Subjects occasionally change sites during the course of a clinical trial. Sponsors must decide how to populate variables such as USUBJID, SUBJID and SITEID based on their operational and analysis needs, but only 1 DM record should be submitted for each subject. The Supplemental Qualifiers dataset may be used if appropriate to provide additional information.", "score": 0.19, "match_basis": "verbatim_token+domain_route:DM"}, {"md_atom_id": "md_dmDM_assn_a004", "md_file": "knowledge_base/domains/DM/assumptions.md", "md_atom_type": "LIST_ITEM", "md_parent_section": "§DM [DM — Assumptions]", "md_verbatim": "3. Concerns for subject privacy suggest caution regarding the collection of variables like BRTHDTC. This variable is included in the Demographics model in the event that a sponsor intends to submit it; however, sponsors should follow regulatory guidelines and guidance as appropriate.", "score": 0.19, "match_basis": "verbatim_token+domain_route:DM"}], "candidate_count": 10, "zero_candidate": false}
{"pdf_atom_id": "ig34_p0063_a019", "pdf_atom_type": "TABLE_ROW", "pdf_source": "SDTMIG_v3.4", "pdf_page": 63, "pdf_parent_section": "§5.2 [Demographics (DM)]", "pdf_verbatim": "SEX | Sex | Char | (SEX) | Record Qualifier | Sex of the subject. | Req", "figure_ref": null, "candidates": [{"md_atom_id": "md_dmDM_ex_a097", "md_file": "knowledge_base/domains/DM/examples.md", "md_atom_type": "TABLE_ROW", "md_parent_section": "§DM.4 [Example 4]", "md_verbatim": "| CRACE18-CRACE21 | 13 | (same) | Race | Select each value that applies if the subject answered \"WHITE\". Check all that apply. | Text | SUPPDM.QVAL | For each value that applies, SUPPDM.QVAL where SUPPDM.QNAM =\"CRACEn\" and SUPPDM.QLABEL = \"Collected Race n\" where n is the choice value. | (RACEC) | ARAB; EUROPEAN; MIDDLE EASTERN; RUSSIAN | | | checkbox | |", "score": 0.4321, "match_basis": "verbatim_token+domain_route:DM"}, {"md_atom_id": "md_dmDM_ex_a094", "md_file": "knowledge_base/domains/DM/examples.md", "md_atom_type": "TABLE_ROW", "md_parent_section": "§DM.4 [Example 4]", "md_verbatim": "| CRACE01-CRACE04 | 10 | (same) | Race | Select each value that applies if the subject answered \"AMERICAN INDIAN OR ALASKA NATIVE\". Check all that apply. | Text | SUPPDM.QVAL | For each value that applies, SUPPDM.QVAL where SUPPDM.QNAM =\"CRACEn\" and SUPPDM.QLABEL = \"Collected Race n\" where n is the choice value. | (RACEC) | ALASKA NATIVE; AMERICAN INDIAN; CARIBBEAN INDIAN; CENTRAL AMERICAN INDIAN | | | checkbox | |", "score": 0.4316, "match_basis": "verbatim_token+domain_route:DM"}, {"md_atom_id": "md_dmDM_ex_a096", "md_file": "knowledge_base/domains/DM/examples.md", "md_atom_type": "TABLE_ROW", "md_parent_section": "§DM.4 [Example 4]", "md_verbatim": "| CRACE11-CRACE17 | 12 | (same) | Race | Select each value that applies if the subject answered \"BLACK OR AFRICAN AMERICAN\". Check all that apply. | Text | SUPPDM.QVAL | For each value that applies, SUPPDM.QVAL where SUPPDM.QNAM =\"CRACEn\" and SUPPDM.QLABEL = \"Collected Race n\" where n is the choice value. | (RACEC) | AFRICAN; AFRICAN AMERICAN; AFRICAN CARIBBEAN; BAHAMIAN; BARBADIAN; BLACK; BLACK CENTRAL AMERICAN | | | checkbox | |", "score": 0.4303, "match_basis": "verbatim_token+domain_route:DM"}, {"md_atom_id": "md_dmDM_ex_a153", "md_file": "knowledge_base/domains/DM/examples.md", "md_atom_type": "TABLE_ROW", "md_parent_section": "§DM.6 [Example 6]", "md_verbatim": "| CRACE11-CRACE17 | 12 | (same) | Race | Select each value that applies if the subject answered \"BLACK OR AFRICAN AMERICAN\". Check all that apply. | Text | SUPPDM.QVAL | For each value that applies, SUPPDM.QVAL where SUPPDM.QNAM =\"CRACEn\" and SUPPDM.QLABEL = \"Collected Race n\" where n is the choice value. | (RACEC) | AFRICAN; AFRICAN AMERICAN; AFRICAN CARIBBEAN; BAHAMIAN; BARBADIAN; BLACK; BLACK CENTRAL AMERICAN | | | checkbox | |", "score": 0.4303, "match_basis": "verbatim_token+domain_route:DM"}, {"md_atom_id": "md_dmDM_ex_a095", "md_file": "knowledge_base/domains/DM/examples.md", "md_atom_type": "TABLE_ROW", "md_parent_section": "§DM.4 [Example 4]", "md_verbatim": "| CRACE05-CRACE10 | 11 | (same) | Race | Select each value that applies if the subject answered \"ASIAN\". Check all that apply. | Text | SUPPDM.QVAL | For each value that applies, SUPPDM.QVAL where SUPPDM.QNAM =\"CRACEn\" and SUPPDM.QLABEL = \"Collected Race n\" where n is the choice value. | (RACEC) | ASIAN AMERICAN; ASIAN INDIAN; BANGLADESHI; CHINESE; JAPANESE; KOREAN | | | checkbox | CRACE05-CRACE10 |", "score": 0.43, "match_basis": "verbatim_token+domain_route:DM"}], "candidate_count": 5, "zero_candidate": false}
{"pdf_atom_id": "ig34_p0063_a020", "pdf_atom_type": "CODE_LITERAL", "pdf_source": "SDTMIG_v3.4", "pdf_page": 63, "pdf_parent_section": "§5.2 [Demographics (DM)]", "pdf_verbatim": "(SEX)", "figure_ref": null, "candidates": [{"md_atom_id": "md_dmDM_ex_a125", "md_file": "knowledge_base/domains/DM/examples.md", "md_atom_type": "TABLE_HEADER", "md_parent_section": "§DM.5 [Example 5]", "md_verbatim": "| Row | STUDYID | DOMAIN | USUBJID | SUBJID | AGE | AGEU | SEX | RACE | ETHNIC |\n|-----|---------|--------|---------|--------|-----|------|-----|------|--------|", "score": 0.215, "match_basis": "verbatim_token+domain_route:DM"}, {"md_atom_id": "md_dmDM_ex_a190", "md_file": "knowledge_base/domains/DM/examples.md", "md_atom_type": "TABLE_HEADER", "md_parent_section": "§DM.7 [Example 7]", "md_verbatim": "| Row | STUDYID | DOMAIN | USUBJID | SUBJID | AGE | AGEU | SEX | RACE | ETHNIC |\n|-----|---------|--------|---------|--------|-----|------|-----|------|--------|", "score": 0.215, "match_basis": "verbatim_token+domain_route:DM"}, {"md_atom_id": "md_dmDM_ex_a004", "md_file": "knowledge_base/domains/DM/examples.md", "md_atom_type": "TABLE_HEADER", "md_parent_section": "§DM.1 [Example 1]", "md_verbatim": "| Row | STUDYID | DOMAIN | USUBJID | SUBJID | RFSTDTC | RFENDTC | RFXSTDTC | RFXENDTC | RFICDTC | RFPENDTC | SITEID | INVNAM | BRTHDTC | AGE | AGEU | SEX | RACE | ETHNIC | ARMCD | ARM | ACTARMCD | ACTARM | ARMNRS | ACTARMUD | COUNTRY |\n|-----|---------|--------|---------|--------|---------|---------|----------|----------|---------|----------|--------|--------|---------|-----|------|-----|------|--------|-------|-----|----------|--------|--------|----------|---------|", "score": 0.1982, "match_basis": "verbatim_token+domain_route:DM"}, {"md_atom_id": "md_dmDM_assn_a001", "md_file": "knowledge_base/domains/DM/assumptions.md", "md_atom_type": "HEADING", "md_parent_section": "§DM [DM — Assumptions]", "md_verbatim": "# DM — Assumptions", "score": 0.19, "match_basis": "verbatim_token+domain_route:DM"}, {"md_atom_id": "md_dmDM_assn_a002", "md_file": "knowledge_base/domains/DM/assumptions.md", "md_atom_type": "LIST_ITEM", "md_parent_section": "§DM [DM — Assumptions]", "md_verbatim": "1. Investigator and site identification: Companies use different methods to distinguish sites and investigators. CDISC assumes that SITEID will always be present, with INVID and INVNAM used as necessary. This should be done consistently and the meaning of the variable made clear in the Define-XML document.", "score": 0.19, "match_basis": "verbatim_token+domain_route:DM"}, {"md_atom_id": "md_dmDM_assn_a003", "md_file": "knowledge_base/domains/DM/assumptions.md", "md_atom_type": "LIST_ITEM", "md_parent_section": "§DM [DM — Assumptions]", "md_verbatim": "2. Every subject in a study must have a subject identifier (SUBJID). In some cases a subject may participate in more than 1 study. To identify a subject uniquely across all studies for all applications or submissions involving the product, a unique identifier (USUBJID) must be included in all datasets. Subjects occasionally change sites during the course of a clinical trial. Sponsors must decide how to populate variables such as USUBJID, SUBJID and SITEID based on their operational and analysis needs, but only 1 DM record should be submitted for each subject. The Supplemental Qualifiers dataset may be used if appropriate to provide additional information.", "score": 0.19, "match_basis": "verbatim_token+domain_route:DM"}, {"md_atom_id": "md_dmDM_assn_a004", "md_file": "knowledge_base/domains/DM/assumptions.md", "md_atom_type": "LIST_ITEM", "md_parent_section": "§DM [DM — Assumptions]", "md_verbatim": "3. Concerns for subject privacy suggest caution regarding the collection of variables like BRTHDTC. This variable is included in the Demographics model in the event that a sponsor intends to submit it; however, sponsors should follow regulatory guidelines and guidance as appropriate.", "score": 0.19, "match_basis": "verbatim_token+domain_route:DM"}, {"md_atom_id": "md_dmDM_assn_a005", "md_file": "knowledge_base/domains/DM/assumptions.md", "md_atom_type": "LIST_ITEM", "md_parent_section": "§DM [DM — Assumptions]", "md_verbatim": "4. With the exception of trials that use multistage processes to assign subjects to arms as described below, ARM and ACTARM must be populated with ARM values from the Trial Arms (TA) dataset and ARMCD and ACTARMCD must be populated with ARMCD values from the TA dataset or be null. The ARM and ARMCD values in the TA dataset have a one-to-one relationship, and that one-to-one relationship must be preserved in the values used to populate ARM and ARMCD in DM, and to populate the values of ACTARM and ACTARMCD in DM.", "score": 0.19, "match_basis": "verbatim_token+domain_route:DM"}, {"md_atom_id": "md_dmDM_assn_a006", "md_file": "knowledge_base/domains/DM/assumptions.md", "md_atom_type": "LIST_ITEM", "md_parent_section": "§DM [DM — Assumptions]", "md_verbatim": "   a. Rules for the arm-related variables:", "score": 0.19, "match_basis": "verbatim_token+domain_route:DM"}, {"md_atom_id": "md_dmDM_assn_a007", "md_file": "knowledge_base/domains/DM/assumptions.md", "md_atom_type": "LIST_ITEM", "md_parent_section": "§DM [DM — Assumptions]", "md_verbatim": "      i. If ARMCD is null, then ARM must be null and ARMNRS must be populated with the reason ARMCD is null.", "score": 0.19, "match_basis": "verbatim_token+domain_route:DM"}], "candidate_count": 10, "zero_candidate": false}
{"pdf_atom_id": "ig34_p0063_a021", "pdf_atom_type": "TABLE_ROW", "pdf_source": "SDTMIG_v3.4", "pdf_page": 63, "pdf_parent_section": "§5.2 [Demographics (DM)]", "pdf_verbatim": "RACE | Race | Char | (RACE) | Record Qualifier | Race of the subject. Sponsors should refer to the FDA guidance2 regarding the collection of race. See assumption below regarding RACE. | Exp", "figure_ref": null, "candidates": [{"md_atom_id": "md_dmDM_ex_a116", "md_file": "knowledge_base/domains/DM/examples.md", "md_atom_type": "TABLE_ROW", "md_parent_section": "§DM.4 [Example 4]", "md_verbatim": "| 5 | ABC789 | DM | ABC789-010-047 | | | CRACE21 | Collected Race 21 | RUSSIAN | CRF | |", "score": 0.4578, "match_basis": "verbatim_token+domain_route:DM"}, {"md_atom_id": "md_dmDM_ex_a097", "md_file": "knowledge_base/domains/DM/examples.md", "md_atom_type": "TABLE_ROW", "md_parent_section": "§DM.4 [Example 4]", "md_verbatim": "| CRACE18-CRACE21 | 13 | (same) | Race | Select each value that applies if the subject answered \"WHITE\". Check all that apply. | Text | SUPPDM.QVAL | For each value that applies, SUPPDM.QVAL where SUPPDM.QNAM =\"CRACEn\" and SUPPDM.QLABEL = \"Collected Race n\" where n is the choice value. | (RACEC) | ARAB; EUROPEAN; MIDDLE EASTERN; RUSSIAN | | | checkbox | |", "score": 0.456, "match_basis": "verbatim_token+domain_route:DM"}, {"md_atom_id": "md_dmDM_ex_a172", "md_file": "knowledge_base/domains/DM/examples.md", "md_atom_type": "TABLE_ROW", "md_parent_section": "§DM.6 [Example 6]", "md_verbatim": "| 3 | ABC789 | DM | ABC789-010-003 | | | CRACE8 | Collected Race 8 | BLACK | CRF | |", "score": 0.4519, "match_basis": "verbatim_token+domain_route:DM"}, {"md_atom_id": "md_dmDM_ex_a094", "md_file": "knowledge_base/domains/DM/examples.md", "md_atom_type": "TABLE_ROW", "md_parent_section": "§DM.4 [Example 4]", "md_verbatim": "| CRACE01-CRACE04 | 10 | (same) | Race | Select each value that applies if the subject answered \"AMERICAN INDIAN OR ALASKA NATIVE\". Check all that apply. | Text | SUPPDM.QVAL | For each value that applies, SUPPDM.QVAL where SUPPDM.QNAM =\"CRACEn\" and SUPPDM.QLABEL = \"Collected Race n\" where n is the choice value. | (RACEC) | ALASKA NATIVE; AMERICAN INDIAN; CARIBBEAN INDIAN; CENTRAL AMERICAN INDIAN | | | checkbox | |", "score": 0.451, "match_basis": "verbatim_token+domain_route:DM"}, {"md_atom_id": "md_dmDM_ex_a114", "md_file": "knowledge_base/domains/DM/examples.md", "md_atom_type": "TABLE_ROW", "md_parent_section": "§DM.4 [Example 4]", "md_verbatim": "| 3 | ABC789 | DM | ABC789-010-047 | | | CRACE8 | Collected Race 8 | CHINESE | CRF | |", "score": 0.4506, "match_basis": "verbatim_token+domain_route:DM"}], "candidate_count": 5, "zero_candidate": false}
{"pdf_atom_id": "ig34_p0063_a022", "pdf_atom_type": "CODE_LITERAL", "pdf_source": "SDTMIG_v3.4", "pdf_page": 63, "pdf_parent_section": "§5.2 [Demographics (DM)]", "pdf_verbatim": "(RACE)", "figure_ref": null, "candidates": [{"md_atom_id": "md_dmDM_ex_a075", "md_file": "knowledge_base/domains/DM/examples.md", "md_atom_type": "LIST_ITEM", "md_parent_section": "§DM.4 [Example 4]", "md_verbatim": "- RACE02: ASIAN", "score": 0.3614, "match_basis": "verbatim_token+domain_route:DM"}, {"md_atom_id": "md_dmDM_ex_a078", "md_file": "knowledge_base/domains/DM/examples.md", "md_atom_type": "LIST_ITEM", "md_parent_section": "§DM.4 [Example 4]", "md_verbatim": "- RACE05: WHITE", "score": 0.3614, "match_basis": "verbatim_token+domain_route:DM"}, {"md_atom_id": "md_dmDM_ex_a080", "md_file": "knowledge_base/domains/DM/examples.md", "md_atom_type": "LIST_ITEM", "md_parent_section": "§DM.4 [Example 4]", "md_verbatim": "- RACE07: UNKNOWN", "score": 0.3233, "match_basis": "verbatim_token+domain_route:DM"}, {"md_atom_id": "md_dmDM_ex_a079", "md_file": "knowledge_base/domains/DM/examples.md", "md_atom_type": "LIST_ITEM", "md_parent_section": "§DM.4 [Example 4]", "md_verbatim": "- RACE06: NOT REPORTED", "score": 0.2991, "match_basis": "verbatim_token+domain_route:DM"}, {"md_atom_id": "md_dmDM_ex_a112", "md_file": "knowledge_base/domains/DM/examples.md", "md_atom_type": "TABLE_ROW", "md_parent_section": "§DM.4 [Example 4]", "md_verbatim": "| 1 | ABC789 | DM | ABC789-010-047 | | | RACE2 | Race 2 | ASIAN | CRF | |", "score": 0.2823, "match_basis": "verbatim_token+domain_route:DM"}, {"md_atom_id": "md_dmDM_ex_a113", "md_file": "knowledge_base/domains/DM/examples.md", "md_atom_type": "TABLE_ROW", "md_parent_section": "§DM.4 [Example 4]", "md_verbatim": "| 2 | ABC789 | DM | ABC789-010-047 | | | RACE5 | Race 5 | WHITE | CRF | |", "score": 0.2823, "match_basis": "verbatim_token+domain_route:DM"}, {"md_atom_id": "md_dmDM_ex_a076", "md_file": "knowledge_base/domains/DM/examples.md", "md_atom_type": "LIST_ITEM", "md_parent_section": "§DM.4 [Example 4]", "md_verbatim": "- RACE03: BLACK OR AFRICAN AMERICAN", "score": 0.27, "match_basis": "verbatim_token+domain_route:DM"}, {"md_atom_id": "md_dmDM_ex_a088", "md_file": "knowledge_base/domains/DM/examples.md", "md_atom_type": "TABLE_ROW", "md_parent_section": "§DM.4 [Example 4]", "md_verbatim": "| RACE02 | 2 | (same) | Race | (same) | Text | RACE | | (RACE) | ASIAN | | | checkbox | |", "score": 0.2606, "match_basis": "verbatim_token+domain_route:DM"}, {"md_atom_id": "md_dmDM_ex_a091", "md_file": "knowledge_base/domains/DM/examples.md", "md_atom_type": "TABLE_ROW", "md_parent_section": "§DM.4 [Example 4]", "md_verbatim": "| RACE05 | 5 | (same) | Race | (same) | Text | RACE | | (RACE) | WHITE | | | checkbox | |", "score": 0.2606, "match_basis": "verbatim_token+domain_route:DM"}, {"md_atom_id": "md_dmDM_ex_a103", "md_file": "knowledge_base/domains/DM/examples.md", "md_atom_type": "TABLE_HEADER", "md_parent_section": "§DM.4 [Example 4]", "md_verbatim": "| Row | STUDYID | DOMAIN | USUBJID | SUBJID | RACE |\n|-----|---------|--------|---------|--------|------|", "score": 0.2606, "match_basis": "verbatim_token+domain_route:DM"}], "candidate_count": 10, "zero_candidate": false}
{"pdf_atom_id": "ig34_p0063_a023", "pdf_atom_type": "TABLE_ROW", "pdf_source": "SDTMIG_v3.4", "pdf_page": 63, "pdf_parent_section": "§5.2 [Demographics (DM)]", "pdf_verbatim": "ETHNIC | Ethnicity | Char | (ETHNIC) | Record Qualifier | The ethnicity of the subject. Sponsors should refer to the FDA guidance1 regarding the collection of ethnicity. | Perm", "figure_ref": null, "candidates": [{"md_atom_id": "md_dmDM_ex_a133", "md_file": "knowledge_base/domains/DM/examples.md", "md_atom_type": "TABLE_ROW", "md_parent_section": "§DM.5 [Example 5]", "md_verbatim": "| 2 | ABC789 | DM | ABC789-010-047 | | | ETHNIC1 | Collected Ethnicity 1 | MIAO | CRF | |", "score": 0.496, "match_basis": "verbatim_token+domain_route:DM"}, {"md_atom_id": "md_dmDM_ex_a134", "md_file": "knowledge_base/domains/DM/examples.md", "md_atom_type": "TABLE_ROW", "md_parent_section": "§DM.5 [Example 5]", "md_verbatim": "| 3 | ABC789 | DM | ABC789-010-047 | | | ETHNIC2 | Collected Ethnicity 2 | ZHUANG | CRF | |", "score": 0.4935, "match_basis": "verbatim_token+domain_route:DM"}, {"md_atom_id": "md_dmDM_ex_a132", "md_file": "knowledge_base/domains/DM/examples.md", "md_atom_type": "TABLE_ROW", "md_parent_section": "§DM.5 [Example 5]", "md_verbatim": "| 1 | ABC789 | DM | ABC789-010-045 | | | ETHNIC1 | Collected Ethnicity 1 | HAN CHINESE | CRF | |", "score": 0.4911, "match_basis": "verbatim_token+domain_route:DM"}, {"md_atom_id": "md_dmDM_ex_a087", "md_file": "knowledge_base/domains/DM/examples.md", "md_atom_type": "TABLE_ROW", "md_parent_section": "§DM.4 [Example 4]", "md_verbatim": "| RACE01 | 1 | Which of the following racial designations best describes you? (More than one choice is acceptable.) | Race | Study participants should self-report race, with race being asked about after ethnicity. | Text | RACE | | (RACE) | AMERICAN INDIAN OR ALASKA NATIVE | | | checkbox | |", "score": 0.4622, "match_basis": "verbatim_token+domain_route:DM"}, {"md_atom_id": "md_dmDM_ex_a145", "md_file": "knowledge_base/domains/DM/examples.md", "md_atom_type": "TABLE_ROW", "md_parent_section": "§DM.6 [Example 6]", "md_verbatim": "| RACE01 | 3 | Which of the following racial designations best describes you? (More than one choice is acceptable.) | Race | Study participants should self-report race, with race being asked about after ethnicity. | Text | RACE | | (RACE) | AMERICAN INDIAN OR ALASKA NATIVE | | | checkbox | |", "score": 0.4622, "match_basis": "verbatim_token+domain_route:DM"}], "candidate_count": 5, "zero_candidate": false}
{"pdf_atom_id": "ig34_p0063_a024", "pdf_atom_type": "CODE_LITERAL", "pdf_source": "SDTMIG_v3.4", "pdf_page": 63, "pdf_parent_section": "§5.2 [Demographics (DM)]", "pdf_verbatim": "(ETHNIC)", "figure_ref": null, "candidates": [{"md_atom_id": "md_dmDM_ex_a125", "md_file": "knowledge_base/domains/DM/examples.md", "md_atom_type": "TABLE_HEADER", "md_parent_section": "§DM.5 [Example 5]", "md_verbatim": "| Row | STUDYID | DOMAIN | USUBJID | SUBJID | AGE | AGEU | SEX | RACE | ETHNIC |\n|-----|---------|--------|---------|--------|-----|------|-----|------|--------|", "score": 0.29, "match_basis": "verbatim_token+domain_route:DM"}, {"md_atom_id": "md_dmDM_ex_a133", "md_file": "knowledge_base/domains/DM/examples.md", "md_atom_type": "TABLE_ROW", "md_parent_section": "§DM.5 [Example 5]", "md_verbatim": "| 2 | ABC789 | DM | ABC789-010-047 | | | ETHNIC1 | Collected Ethnicity 1 | MIAO | CRF | |", "score": 0.29, "match_basis": "verbatim_token+domain_route:DM"}, {"md_atom_id": "md_dmDM_ex_a190", "md_file": "knowledge_base/domains/DM/examples.md", "md_atom_type": "TABLE_HEADER", "md_parent_section": "§DM.7 [Example 7]", "md_verbatim": "| Row | STUDYID | DOMAIN | USUBJID | SUBJID | AGE | AGEU | SEX | RACE | ETHNIC |\n|-----|---------|--------|---------|--------|-----|------|-----|------|--------|", "score": 0.29, "match_basis": "verbatim_token+domain_route:DM"}, {"md_atom_id": "md_dmDM_ex_a134", "md_file": "knowledge_base/domains/DM/examples.md", "md_atom_type": "TABLE_ROW", "md_parent_section": "§DM.5 [Example 5]", "md_verbatim": "| 3 | ABC789 | DM | ABC789-010-047 | | | ETHNIC2 | Collected Ethnicity 2 | ZHUANG | CRF | |", "score": 0.2823, "match_basis": "verbatim_token+domain_route:DM"}, {"md_atom_id": "md_dmDM_ex_a123", "md_file": "knowledge_base/domains/DM/examples.md", "md_atom_type": "SENTENCE", "md_parent_section": "§DM.5 [Example 5]", "md_verbatim": "RACE is identified as \"ASIAN\" and ETHNIC as \"NOT HISPANIC OR LATINO\".", "score": 0.2757, "match_basis": "verbatim_token+domain_route:DM"}, {"md_atom_id": "md_dmDM_ex_a132", "md_file": "knowledge_base/domains/DM/examples.md", "md_atom_type": "TABLE_ROW", "md_parent_section": "§DM.5 [Example 5]", "md_verbatim": "| 1 | ABC789 | DM | ABC789-010-045 | | | ETHNIC1 | Collected Ethnicity 1 | HAN CHINESE | CRF | |", "score": 0.2757, "match_basis": "verbatim_token+domain_route:DM"}, {"md_atom_id": "md_dmDM_ex_a122", "md_file": "knowledge_base/domains/DM/examples.md", "md_atom_type": "SENTENCE", "md_parent_section": "§DM.5 [Example 5]", "md_verbatim": "In this CRF example, subcategorizations of ethnicity are made available.", "score": 0.2485, "match_basis": "verbatim_token+domain_route:DM"}, {"md_atom_id": "md_dmDM_ex_a118", "md_file": "knowledge_base/domains/DM/examples.md", "md_atom_type": "SENTENCE", "md_parent_section": "§DM.5 [Example 5]", "md_verbatim": "This example shows different Chinese regional ethnicity subcategorizations (majority and minority).", "score": 0.2314, "match_basis": "verbatim_token+domain_route:DM"}, {"md_atom_id": "md_dmDM_ex_a121", "md_file": "knowledge_base/domains/DM/examples.md", "md_atom_type": "SENTENCE", "md_parent_section": "§DM.5 [Example 5]", "md_verbatim": "The CRF collects ETHNIC (Hispanic or Latino / Not Hispanic or Latino) with subcategories for Chinese regional ethnicity: HAN CHINESE, MANCHU, MIAO, UYGHUR, ZHUANG.", "score": 0.2269, "match_basis": "verbatim_token+domain_route:DM"}, {"md_atom_id": "md_dmDM_ex_a004", "md_file": "knowledge_base/domains/DM/examples.md", "md_atom_type": "TABLE_HEADER", "md_parent_section": "§DM.1 [Example 1]", "md_verbatim": "| Row | STUDYID | DOMAIN | USUBJID | SUBJID | RFSTDTC | RFENDTC | RFXSTDTC | RFXENDTC | RFICDTC | RFPENDTC | SITEID | INVNAM | BRTHDTC | AGE | AGEU | SEX | RACE | ETHNIC | ARMCD | ARM | ACTARMCD | ACTARM | ARMNRS | ACTARMUD | COUNTRY |\n|-----|---------|--------|---------|--------|---------|---------|----------|----------|---------|----------|--------|--------|---------|-----|------|-----|------|--------|-------|-----|----------|--------|--------|----------|---------|", "score": 0.2229, "match_basis": "verbatim_token+domain_route:DM"}], "candidate_count": 10, "zero_candidate": false}
{"pdf_atom_id": "ig34_p0063_a025", "pdf_atom_type": "TABLE_ROW", "pdf_source": "SDTMIG_v3.4", "pdf_page": 63, "pdf_parent_section": "§5.2 [Demographics (DM)]", "pdf_verbatim": "ARMCD | Planned Arm Code | Char | * | Record Qualifier | ARMCD is limited to 20 characters. It is not subject to the character restrictions that apply to TESTCD. The maximum length of ARMCD is longer than for other \"short\" variables to accommodate the kind of values that are likely to be needed for crossover trials. For example, if ARMCD values for a 7-period crossover were constructed using 2-character abbreviations for each treatment and separating hyphens, the length of [TRUNCATED_AT_PAGE_BOUNDARY] | Exp", "figure_ref": null, "candidates": [{"md_atom_id": "md_dmDM_ex_a094", "md_file": "knowledge_base/domains/DM/examples.md", "md_atom_type": "TABLE_ROW", "md_parent_section": "§DM.4 [Example 4]", "md_verbatim": "| CRACE01-CRACE04 | 10 | (same) | Race | Select each value that applies if the subject answered \"AMERICAN INDIAN OR ALASKA NATIVE\". Check all that apply. | Text | SUPPDM.QVAL | For each value that applies, SUPPDM.QVAL where SUPPDM.QNAM =\"CRACEn\" and SUPPDM.QLABEL = \"Collected Race n\" where n is the choice value. | (RACEC) | ALASKA NATIVE; AMERICAN INDIAN; CARIBBEAN INDIAN; CENTRAL AMERICAN INDIAN | | | checkbox | |", "score": 0.4726, "match_basis": "verbatim_token+domain_route:DM"}, {"md_atom_id": "md_dmDM_ex_a096", "md_file": "knowledge_base/domains/DM/examples.md", "md_atom_type": "TABLE_ROW", "md_parent_section": "§DM.4 [Example 4]", "md_verbatim": "| CRACE11-CRACE17 | 12 | (same) | Race | Select each value that applies if the subject answered \"BLACK OR AFRICAN AMERICAN\". Check all that apply. | Text | SUPPDM.QVAL | For each value that applies, SUPPDM.QVAL where SUPPDM.QNAM =\"CRACEn\" and SUPPDM.QLABEL = \"Collected Race n\" where n is the choice value. | (RACEC) | AFRICAN; AFRICAN AMERICAN; AFRICAN CARIBBEAN; BAHAMIAN; BARBADIAN; BLACK; BLACK CENTRAL AMERICAN | | | checkbox | |", "score": 0.4659, "match_basis": "verbatim_token+domain_route:DM"}, {"md_atom_id": "md_dmDM_ex_a153", "md_file": "knowledge_base/domains/DM/examples.md", "md_atom_type": "TABLE_ROW", "md_parent_section": "§DM.6 [Example 6]", "md_verbatim": "| CRACE11-CRACE17 | 12 | (same) | Race | Select each value that applies if the subject answered \"BLACK OR AFRICAN AMERICAN\". Check all that apply. | Text | SUPPDM.QVAL | For each value that applies, SUPPDM.QVAL where SUPPDM.QNAM =\"CRACEn\" and SUPPDM.QLABEL = \"Collected Race n\" where n is the choice value. | (RACEC) | AFRICAN; AFRICAN AMERICAN; AFRICAN CARIBBEAN; BAHAMIAN; BARBADIAN; BLACK; BLACK CENTRAL AMERICAN | | | checkbox | |", "score": 0.4659, "match_basis": "verbatim_token+domain_route:DM"}, {"md_atom_id": "md_dmDM_ex_a095", "md_file": "knowledge_base/domains/DM/examples.md", "md_atom_type": "TABLE_ROW", "md_parent_section": "§DM.4 [Example 4]", "md_verbatim": "| CRACE05-CRACE10 | 11 | (same) | Race | Select each value that applies if the subject answered \"ASIAN\". Check all that apply. | Text | SUPPDM.QVAL | For each value that applies, SUPPDM.QVAL where SUPPDM.QNAM =\"CRACEn\" and SUPPDM.QLABEL = \"Collected Race n\" where n is the choice value. | (RACEC) | ASIAN AMERICAN; ASIAN INDIAN; BANGLADESHI; CHINESE; JAPANESE; KOREAN | | | checkbox | CRACE05-CRACE10 |", "score": 0.4656, "match_basis": "verbatim_token+domain_route:DM"}, {"md_atom_id": "md_dmDM_ex_a152", "md_file": "knowledge_base/domains/DM/examples.md", "md_atom_type": "TABLE_ROW", "md_parent_section": "§DM.6 [Example 6]", "md_verbatim": "| CRACE05-CRACE10 | 11 | (same) | Race | Select each value that applies if the subject answered \"ASIAN\". Check all that apply. | Text | SUPPDM.QVAL | For each value that applies, SUPPDM.QVAL where SUPPDM.QNAM =\"CRACEn\" and SUPPDM.QLABEL = \"Collected Race n\" where n is the choice value. | (RACEC) | ASIAN AMERICAN; ASIAN INDIAN; BANGLADESHI; CHINESE; JAPANESE; KOREAN | | | checkbox | |", "score": 0.4656, "match_basis": "verbatim_token+domain_route:DM"}], "candidate_count": 5, "zero_candidate": false}
{"pdf_atom_id": "ig34_p0064_a001", "pdf_atom_type": "TABLE_ROW", "pdf_source": "SDTMIG_v3.4", "pdf_page": 64, "pdf_parent_section": "§5.2 [Demographics (DM)]", "pdf_verbatim": "(ARMCD continued) | ARMCD values would be 20. If the subject was not assigned to a trial arm, ARMCD is null and ARMNRS is populated. With the exception of studies which use multistage arm assignments, must be a value of ARMCD in the Trial Arms dataset.", "figure_ref": null, "candidates": [{"md_atom_id": "md_dmDM_assn_a005", "md_file": "knowledge_base/domains/DM/assumptions.md", "md_atom_type": "LIST_ITEM", "md_parent_section": "§DM [DM — Assumptions]", "md_verbatim": "4. With the exception of trials that use multistage processes to assign subjects to arms as described below, ARM and ACTARM must be populated with ARM values from the Trial Arms (TA) dataset and ARMCD and ACTARMCD must be populated with ARMCD values from the TA dataset or be null. The ARM and ARMCD values in the TA dataset have a one-to-one relationship, and that one-to-one relationship must be preserved in the values used to populate ARM and ARMCD in DM, and to populate the values of ACTARM and ACTARMCD in DM.", "score": 0.4785, "match_basis": "verbatim_token+domain_route:DM"}, {"md_atom_id": "md_dmDM_ex_a024", "md_file": "knowledge_base/domains/DM/examples.md", "md_atom_type": "TABLE_ROW", "md_parent_section": "§DM.2 [Example 2]", "md_verbatim": "| 5 | ABC | DM | 005 | A | Drug A | | | ASSIGNED, NOT TREATED | |", "score": 0.4581, "match_basis": "verbatim_token+domain_route:DM"}, {"md_atom_id": "md_dmDM_ex_a087", "md_file": "knowledge_base/domains/DM/examples.md", "md_atom_type": "TABLE_ROW", "md_parent_section": "§DM.4 [Example 4]", "md_verbatim": "| RACE01 | 1 | Which of the following racial designations best describes you? (More than one choice is acceptable.) | Race | Study participants should self-report race, with race being asked about after ethnicity. | Text | RACE | | (RACE) | AMERICAN INDIAN OR ALASKA NATIVE | | | checkbox | |", "score": 0.4581, "match_basis": "verbatim_token+domain_route:DM"}, {"md_atom_id": "md_dmDM_ex_a145", "md_file": "knowledge_base/domains/DM/examples.md", "md_atom_type": "TABLE_ROW", "md_parent_section": "§DM.6 [Example 6]", "md_verbatim": "| RACE01 | 3 | Which of the following racial designations best describes you? (More than one choice is acceptable.) | Race | Study participants should self-report race, with race being asked about after ethnicity. | Text | RACE | | (RACE) | AMERICAN INDIAN OR ALASKA NATIVE | | | checkbox | |", "score": 0.4581, "match_basis": "verbatim_token+domain_route:DM"}, {"md_atom_id": "md_dmDM_ex_a097", "md_file": "knowledge_base/domains/DM/examples.md", "md_atom_type": "TABLE_ROW", "md_parent_section": "§DM.4 [Example 4]", "md_verbatim": "| CRACE18-CRACE21 | 13 | (same) | Race | Select each value that applies if the subject answered \"WHITE\". Check all that apply. | Text | SUPPDM.QVAL | For each value that applies, SUPPDM.QVAL where SUPPDM.QNAM =\"CRACEn\" and SUPPDM.QLABEL = \"Collected Race n\" where n is the choice value. | (RACEC) | ARAB; EUROPEAN; MIDDLE EASTERN; RUSSIAN | | | checkbox | |", "score": 0.4497, "match_basis": "verbatim_token+domain_route:DM"}], "candidate_count": 5, "zero_candidate": false}
{"pdf_atom_id": "ig34_p0064_a002", "pdf_atom_type": "TABLE_ROW", "pdf_source": "SDTMIG_v3.4", "pdf_page": 64, "pdf_parent_section": "§5.2 [Demographics (DM)]", "pdf_verbatim": "ARM | Description of Planned Arm | Char | * | Synonym Qualifier | Name of the arm to which the subject was assigned. If the subject was not assigned to an arm, ARM is null and ARMNRS is populated. With the exception of studies which use multistage arm assignments, must be a value of ARM in the Trial Arms dataset. | Exp", "figure_ref": null, "candidates": [{"md_atom_id": "md_dmDM_ex_a087", "md_file": "knowledge_base/domains/DM/examples.md", "md_atom_type": "TABLE_ROW", "md_parent_section": "§DM.4 [Example 4]", "md_verbatim": "| RACE01 | 1 | Which of the following racial designations best describes you? (More than one choice is acceptable.) | Race | Study participants should self-report race, with race being asked about after ethnicity. | Text | RACE | | (RACE) | AMERICAN INDIAN OR ALASKA NATIVE | | | checkbox | |", "score": 0.464, "match_basis": "verbatim_token+domain_route:DM"}, {"md_atom_id": "md_dmDM_ex_a145", "md_file": "knowledge_base/domains/DM/examples.md", "md_atom_type": "TABLE_ROW", "md_parent_section": "§DM.6 [Example 6]", "md_verbatim": "| RACE01 | 3 | Which of the following racial designations best describes you? (More than one choice is acceptable.) | Race | Study participants should self-report race, with race being asked about after ethnicity. | Text | RACE | | (RACE) | AMERICAN INDIAN OR ALASKA NATIVE | | | checkbox | |", "score": 0.464, "match_basis": "verbatim_token+domain_route:DM"}, {"md_atom_id": "md_dmDM_assn_a005", "md_file": "knowledge_base/domains/DM/assumptions.md", "md_atom_type": "LIST_ITEM", "md_parent_section": "§DM [DM — Assumptions]", "md_verbatim": "4. With the exception of trials that use multistage processes to assign subjects to arms as described below, ARM and ACTARM must be populated with ARM values from the Trial Arms (TA) dataset and ARMCD and ACTARMCD must be populated with ARMCD values from the TA dataset or be null. The ARM and ARMCD values in the TA dataset have a one-to-one relationship, and that one-to-one relationship must be preserved in the values used to populate ARM and ARMCD in DM, and to populate the values of ACTARM and ACTARMCD in DM.", "score": 0.4592, "match_basis": "verbatim_token+domain_route:DM"}, {"md_atom_id": "md_dmDM_ex_a097", "md_file": "knowledge_base/domains/DM/examples.md", "md_atom_type": "TABLE_ROW", "md_parent_section": "§DM.4 [Example 4]", "md_verbatim": "| CRACE18-CRACE21 | 13 | (same) | Race | Select each value that applies if the subject answered \"WHITE\". Check all that apply. | Text | SUPPDM.QVAL | For each value that applies, SUPPDM.QVAL where SUPPDM.QNAM =\"CRACEn\" and SUPPDM.QLABEL = \"Collected Race n\" where n is the choice value. | (RACEC) | ARAB; EUROPEAN; MIDDLE EASTERN; RUSSIAN | | | checkbox | |", "score": 0.453, "match_basis": "verbatim_token+domain_route:DM"}, {"md_atom_id": "md_dmDM_ex_a024", "md_file": "knowledge_base/domains/DM/examples.md", "md_atom_type": "TABLE_ROW", "md_parent_section": "§DM.2 [Example 2]", "md_verbatim": "| 5 | ABC | DM | 005 | A | Drug A | | | ASSIGNED, NOT TREATED | |", "score": 0.4505, "match_basis": "verbatim_token+domain_route:DM"}], "candidate_count": 5, "zero_candidate": false}
{"pdf_atom_id": "ig34_p0064_a003", "pdf_atom_type": "TABLE_ROW", "pdf_source": "SDTMIG_v3.4", "pdf_page": 64, "pdf_parent_section": "§5.2 [Demographics (DM)]", "pdf_verbatim": "ACTARMCD | Actual Arm Code | Char | * | Record Qualifier | Code of actual arm. ACTARMCD is limited to 20 characters. It is not subject to the character restrictions that apply to TESTCD. The maximum length of ACTARMCD is longer than for other short variables to accommodate the kind of values that are likely to be needed for crossover trials. With the exception of studies which use multistage arm assignments, must be a value of ARMCD in the Trial Arms dataset. If the subject was not assigned to an arm or followed a course not described by any planned arm, ACTARMCD is null and ARMNRS is populated. | Exp", "figure_ref": null, "candidates": [{"md_atom_id": "md_dmDM_ex_a087", "md_file": "knowledge_base/domains/DM/examples.md", "md_atom_type": "TABLE_ROW", "md_parent_section": "§DM.4 [Example 4]", "md_verbatim": "| RACE01 | 1 | Which of the following racial designations best describes you? (More than one choice is acceptable.) | Race | Study participants should self-report race, with race being asked about after ethnicity. | Text | RACE | | (RACE) | AMERICAN INDIAN OR ALASKA NATIVE | | | checkbox | |", "score": 0.4854, "match_basis": "verbatim_token+domain_route:DM"}, {"md_atom_id": "md_dmDM_ex_a145", "md_file": "knowledge_base/domains/DM/examples.md", "md_atom_type": "TABLE_ROW", "md_parent_section": "§DM.6 [Example 6]", "md_verbatim": "| RACE01 | 3 | Which of the following racial designations best describes you? (More than one choice is acceptable.) | Race | Study participants should self-report race, with race being asked about after ethnicity. | Text | RACE | | (RACE) | AMERICAN INDIAN OR ALASKA NATIVE | | | checkbox | |", "score": 0.4854, "match_basis": "verbatim_token+domain_route:DM"}, {"md_atom_id": "md_dmDM_ex_a097", "md_file": "knowledge_base/domains/DM/examples.md", "md_atom_type": "TABLE_ROW", "md_parent_section": "§DM.4 [Example 4]", "md_verbatim": "| CRACE18-CRACE21 | 13 | (same) | Race | Select each value that applies if the subject answered \"WHITE\". Check all that apply. | Text | SUPPDM.QVAL | For each value that applies, SUPPDM.QVAL where SUPPDM.QNAM =\"CRACEn\" and SUPPDM.QLABEL = \"Collected Race n\" where n is the choice value. | (RACEC) | ARAB; EUROPEAN; MIDDLE EASTERN; RUSSIAN | | | checkbox | |", "score": 0.4611, "match_basis": "verbatim_token+domain_route:DM"}, {"md_atom_id": "md_dmDM_ex_a094", "md_file": "knowledge_base/domains/DM/examples.md", "md_atom_type": "TABLE_ROW", "md_parent_section": "§DM.4 [Example 4]", "md_verbatim": "| CRACE01-CRACE04 | 10 | (same) | Race | Select each value that applies if the subject answered \"AMERICAN INDIAN OR ALASKA NATIVE\". Check all that apply. | Text | SUPPDM.QVAL | For each value that applies, SUPPDM.QVAL where SUPPDM.QNAM =\"CRACEn\" and SUPPDM.QLABEL = \"Collected Race n\" where n is the choice value. | (RACEC) | ALASKA NATIVE; AMERICAN INDIAN; CARIBBEAN INDIAN; CENTRAL AMERICAN INDIAN | | | checkbox | |", "score": 0.4607, "match_basis": "verbatim_token+domain_route:DM"}, {"md_atom_id": "md_dmDM_ex_a096", "md_file": "knowledge_base/domains/DM/examples.md", "md_atom_type": "TABLE_ROW", "md_parent_section": "§DM.4 [Example 4]", "md_verbatim": "| CRACE11-CRACE17 | 12 | (same) | Race | Select each value that applies if the subject answered \"BLACK OR AFRICAN AMERICAN\". Check all that apply. | Text | SUPPDM.QVAL | For each value that applies, SUPPDM.QVAL where SUPPDM.QNAM =\"CRACEn\" and SUPPDM.QLABEL = \"Collected Race n\" where n is the choice value. | (RACEC) | AFRICAN; AFRICAN AMERICAN; AFRICAN CARIBBEAN; BAHAMIAN; BARBADIAN; BLACK; BLACK CENTRAL AMERICAN | | | checkbox | |", "score": 0.4571, "match_basis": "verbatim_token+domain_route:DM"}], "candidate_count": 5, "zero_candidate": false}
{"pdf_atom_id": "ig34_p0064_a004", "pdf_atom_type": "TABLE_ROW", "pdf_source": "SDTMIG_v3.4", "pdf_page": 64, "pdf_parent_section": "§5.2 [Demographics (DM)]", "pdf_verbatim": "ACTARM | Description of Actual Arm | Char | * | Synonym Qualifier | Description of actual arm. With the exception of studies which use multistage arm assignments, must be a value of ARM in the Trial Arms dataset. If the subject was not assigned to an arm or followed a course not described by any planned arm, ACTARM is null and ARMNRS is populated. | Exp", "figure_ref": null, "candidates": [{"md_atom_id": "md_dmDM_ex_a087", "md_file": "knowledge_base/domains/DM/examples.md", "md_atom_type": "TABLE_ROW", "md_parent_section": "§DM.4 [Example 4]", "md_verbatim": "| RACE01 | 1 | Which of the following racial designations best describes you? (More than one choice is acceptable.) | Race | Study participants should self-report race, with race being asked about after ethnicity. | Text | RACE | | (RACE) | AMERICAN INDIAN OR ALASKA NATIVE | | | checkbox | |", "score": 0.4746, "match_basis": "verbatim_token+domain_route:DM"}, {"md_atom_id": "md_dmDM_ex_a145", "md_file": "knowledge_base/domains/DM/examples.md", "md_atom_type": "TABLE_ROW", "md_parent_section": "§DM.6 [Example 6]", "md_verbatim": "| RACE01 | 3 | Which of the following racial designations best describes you? (More than one choice is acceptable.) | Race | Study participants should self-report race, with race being asked about after ethnicity. | Text | RACE | | (RACE) | AMERICAN INDIAN OR ALASKA NATIVE | | | checkbox | |", "score": 0.4746, "match_basis": "verbatim_token+domain_route:DM"}, {"md_atom_id": "md_dmDM_assn_a005", "md_file": "knowledge_base/domains/DM/assumptions.md", "md_atom_type": "LIST_ITEM", "md_parent_section": "§DM [DM — Assumptions]", "md_verbatim": "4. With the exception of trials that use multistage processes to assign subjects to arms as described below, ARM and ACTARM must be populated with ARM values from the Trial Arms (TA) dataset and ARMCD and ACTARMCD must be populated with ARMCD values from the TA dataset or be null. The ARM and ARMCD values in the TA dataset have a one-to-one relationship, and that one-to-one relationship must be preserved in the values used to populate ARM and ARMCD in DM, and to populate the values of ACTARM and ACTARMCD in DM.", "score": 0.471, "match_basis": "verbatim_token+domain_route:DM"}, {"md_atom_id": "md_dmDM_ex_a097", "md_file": "knowledge_base/domains/DM/examples.md", "md_atom_type": "TABLE_ROW", "md_parent_section": "§DM.4 [Example 4]", "md_verbatim": "| CRACE18-CRACE21 | 13 | (same) | Race | Select each value that applies if the subject answered \"WHITE\". Check all that apply. | Text | SUPPDM.QVAL | For each value that applies, SUPPDM.QVAL where SUPPDM.QNAM =\"CRACEn\" and SUPPDM.QLABEL = \"Collected Race n\" where n is the choice value. | (RACEC) | ARAB; EUROPEAN; MIDDLE EASTERN; RUSSIAN | | | checkbox | |", "score": 0.4452, "match_basis": "verbatim_token+domain_route:DM"}, {"md_atom_id": "md_dmDM_ex_a094", "md_file": "knowledge_base/domains/DM/examples.md", "md_atom_type": "TABLE_ROW", "md_parent_section": "§DM.4 [Example 4]", "md_verbatim": "| CRACE01-CRACE04 | 10 | (same) | Race | Select each value that applies if the subject answered \"AMERICAN INDIAN OR ALASKA NATIVE\". Check all that apply. | Text | SUPPDM.QVAL | For each value that applies, SUPPDM.QVAL where SUPPDM.QNAM =\"CRACEn\" and SUPPDM.QLABEL = \"Collected Race n\" where n is the choice value. | (RACEC) | ALASKA NATIVE; AMERICAN INDIAN; CARIBBEAN INDIAN; CENTRAL AMERICAN INDIAN | | | checkbox | |", "score": 0.4448, "match_basis": "verbatim_token+domain_route:DM"}], "candidate_count": 5, "zero_candidate": false}
{"pdf_atom_id": "ig34_p0064_a005", "pdf_atom_type": "TABLE_ROW", "pdf_source": "SDTMIG_v3.4", "pdf_page": 64, "pdf_parent_section": "§5.2 [Demographics (DM)]", "pdf_verbatim": "ARMNRS | Reason Arm and/or Actual Arm is Null | Char | (ARMNULRS) | Record Qualifier | A coded reason that arm variables (ARM and ARMCD) and/or actual arm variables (ACTARM and ACTARMCD) are null. Examples: \"SCREEN FAILURE\", \"NOT ASSIGNED\", \"ASSIGNED, NOT TREATED\", \"UNPLANNED TREATMENT\". It is assumed that if the arm and actual arm variables are null, the same reason applies to both arm and actual arm. | Exp", "figure_ref": null, "candidates": [{"md_atom_id": "md_dmDM_ex_a024", "md_file": "knowledge_base/domains/DM/examples.md", "md_atom_type": "TABLE_ROW", "md_parent_section": "§DM.2 [Example 2]", "md_verbatim": "| 5 | ABC | DM | 005 | A | Drug A | | | ASSIGNED, NOT TREATED | |", "score": 0.4713, "match_basis": "verbatim_token+domain_route:DM"}, {"md_atom_id": "md_dmDM_ex_a022", "md_file": "knowledge_base/domains/DM/examples.md", "md_atom_type": "TABLE_ROW", "md_parent_section": "§DM.2 [Example 2]", "md_verbatim": "| 3 | ABC | DM | 003 | | | | | SCREEN FAILURE | |", "score": 0.4545, "match_basis": "verbatim_token+domain_route:DM"}, {"md_atom_id": "md_dmDM_ex_a008", "md_file": "knowledge_base/domains/DM/examples.md", "md_atom_type": "TABLE_ROW", "md_parent_section": "§DM.1 [Example 1]", "md_verbatim": "| 4 | ABC123 | DM | ABC12301004 | 01004 | | | | | 2006-01-07 | 2006-01-08 | 01 | JOHNSON, M | 1941-07-02 | | M | ASIAN | NOT HISPANIC OR LATINO | | | | | SCREEN FAILURE | | USA |", "score": 0.4516, "match_basis": "verbatim_token+domain_route:DM"}, {"md_atom_id": "md_dmDM_ex_a015", "md_file": "knowledge_base/domains/DM/examples.md", "md_atom_type": "SENTENCE", "md_parent_section": "§DM.2 [Example 2]", "md_verbatim": "**Row 3:** Subject 003 was a screen failure, so they were not assigned to an arm or treated. The arm actual arm variables are null, and ARMNRS=\"SCREEN FAILURE\".", "score": 0.4478, "match_basis": "verbatim_token+domain_route:DM"}, {"md_atom_id": "md_dmDM_ex_a097", "md_file": "knowledge_base/domains/DM/examples.md", "md_atom_type": "TABLE_ROW", "md_parent_section": "§DM.4 [Example 4]", "md_verbatim": "| CRACE18-CRACE21 | 13 | (same) | Race | Select each value that applies if the subject answered \"WHITE\". Check all that apply. | Text | SUPPDM.QVAL | For each value that applies, SUPPDM.QVAL where SUPPDM.QNAM =\"CRACEn\" and SUPPDM.QLABEL = \"Collected Race n\" where n is the choice value. | (RACEC) | ARAB; EUROPEAN; MIDDLE EASTERN; RUSSIAN | | | checkbox | |", "score": 0.4467, "match_basis": "verbatim_token+domain_route:DM"}], "candidate_count": 5, "zero_candidate": false}
{"pdf_atom_id": "ig34_p0064_a006", "pdf_atom_type": "CODE_LITERAL", "pdf_source": "SDTMIG_v3.4", "pdf_page": 64, "pdf_parent_section": "§5.2 [Demographics (DM)]", "pdf_verbatim": "(ARMNULRS)", "figure_ref": null, "candidates": [{"md_atom_id": "md_dmDM_assn_a007", "md_file": "knowledge_base/domains/DM/assumptions.md", "md_atom_type": "LIST_ITEM", "md_parent_section": "§DM [DM — Assumptions]", "md_verbatim": "      i. If ARMCD is null, then ARM must be null and ARMNRS must be populated with the reason ARMCD is null.", "score": 0.2521, "match_basis": "verbatim_token+domain_route:DM"}, {"md_atom_id": "md_dmDM_ex_a019", "md_file": "knowledge_base/domains/DM/examples.md", "md_atom_type": "TABLE_HEADER", "md_parent_section": "§DM.2 [Example 2]", "md_verbatim": "| Row | STUDYID | DOMAIN | USUBJID | ARMCD | ARM | ACTARMCD | ACTARM | ARMNRS | ACTARMUD |\n|-----|---------|--------|---------|-------|-----|----------|--------|--------|----------|", "score": 0.23, "match_basis": "verbatim_token+domain_route:DM"}, {"md_atom_id": "md_dmDM_ex_a048", "md_file": "knowledge_base/domains/DM/examples.md", "md_atom_type": "TABLE_HEADER", "md_parent_section": "§DM.3 [Example 3]", "md_verbatim": "| Row | STUDYID | DOMAIN | USUBJID | ARMCD | ARM | ACTARMCD | ACTARM | ARMNRS | ACTARMUD |\n|-----|---------|--------|---------|-------|-----|----------|--------|--------|----------|", "score": 0.23, "match_basis": "verbatim_token+domain_route:DM"}, {"md_atom_id": "md_dmDM_ex_a015", "md_file": "knowledge_base/domains/DM/examples.md", "md_atom_type": "SENTENCE", "md_parent_section": "§DM.2 [Example 2]", "md_verbatim": "**Row 3:** Subject 003 was a screen failure, so they were not assigned to an arm or treated. The arm actual arm variables are null, and ARMNRS=\"SCREEN FAILURE\".", "score": 0.2227, "match_basis": "verbatim_token+domain_route:DM"}, {"md_atom_id": "md_dmDM_assn_a006", "md_file": "knowledge_base/domains/DM/assumptions.md", "md_atom_type": "LIST_ITEM", "md_parent_section": "§DM [DM — Assumptions]", "md_verbatim": "   a. Rules for the arm-related variables:", "score": 0.2173, "match_basis": "verbatim_token+domain_route:DM"}], "candidate_count": 5, "zero_candidate": false}
{"pdf_atom_id": "ig34_p0064_a007", "pdf_atom_type": "TABLE_ROW", "pdf_source": "SDTMIG_v3.4", "pdf_page": 64, "pdf_parent_section": "§5.2 [Demographics (DM)]", "pdf_verbatim": "ACTARMUD | Description of Unplanned Actual Arm | Char | | Record Qualifier | A description of actual treatment for a subject who did not receive treatment described in a planned trial arm. | Exp", "figure_ref": null, "candidates": [{"md_atom_id": "md_dmDM_assn_a010", "md_file": "knowledge_base/domains/DM/assumptions.md", "md_atom_type": "LIST_ITEM", "md_parent_section": "§DM [DM — Assumptions]", "md_verbatim": "      iv. If ARMNRS is populated with \"UNPLANNED TREATMENT\", ACTARMUD should be populated with a description of the unplanned treatment received.", "score": 0.4688, "match_basis": "verbatim_token+domain_route:DM"}, {"md_atom_id": "md_dmDM_ex_a059", "md_file": "knowledge_base/domains/DM/examples.md", "md_atom_type": "TABLE_ROW", "md_parent_section": "§DM.3 [Example 3]", "md_verbatim": "| 2 | DEF | SE | 001 | 2 | DBA | Treatment A | 2006-01-12 | 2006-04-10 |", "score": 0.4609, "match_basis": "verbatim_token+domain_route:DM"}, {"md_atom_id": "md_dmDM_ex_a062", "md_file": "knowledge_base/domains/DM/examples.md", "md_atom_type": "TABLE_ROW", "md_parent_section": "§DM.3 [Example 3]", "md_verbatim": "| 5 | DEF | SE | 002 | 2 | DBA | Treatment A | 2006-02-10 | 2006-03-24 |", "score": 0.4609, "match_basis": "verbatim_token+domain_route:DM"}, {"md_atom_id": "md_dmDM_ex_a064", "md_file": "knowledge_base/domains/DM/examples.md", "md_atom_type": "TABLE_ROW", "md_parent_section": "§DM.3 [Example 3]", "md_verbatim": "| 7 | DEF | SE | 003 | 2 | DBB | Treatment B | 2006-03-01 | 2006-06-27 |", "score": 0.4609, "match_basis": "verbatim_token+domain_route:DM"}, {"md_atom_id": "md_dmDM_ex_a024", "md_file": "knowledge_base/domains/DM/examples.md", "md_atom_type": "TABLE_ROW", "md_parent_section": "§DM.2 [Example 2]", "md_verbatim": "| 5 | ABC | DM | 005 | A | Drug A | | | ASSIGNED, NOT TREATED | |", "score": 0.44, "match_basis": "verbatim_token+domain_route:DM"}], "candidate_count": 5, "zero_candidate": false}
{"pdf_atom_id": "ig34_p0064_a008", "pdf_atom_type": "TABLE_ROW", "pdf_source": "SDTMIG_v3.4", "pdf_page": 64, "pdf_parent_section": "§5.2 [Demographics (DM)]", "pdf_verbatim": "COUNTRY | Country | Char | | Record Qualifier | Country of the investigational site in which the subject participated in the trial. Generally represented using ISO 3166-1 Alpha-3. Note that regulatory agency specific requirements (e.g., US FDA) may require other terminologies; in such cases, follow regulatory requirements. | Req", "figure_ref": null, "candidates": [{"md_atom_id": "md_dmDM_ex_a087", "md_file": "knowledge_base/domains/DM/examples.md", "md_atom_type": "TABLE_ROW", "md_parent_section": "§DM.4 [Example 4]", "md_verbatim": "| RACE01 | 1 | Which of the following racial designations best describes you? (More than one choice is acceptable.) | Race | Study participants should self-report race, with race being asked about after ethnicity. | Text | RACE | | (RACE) | AMERICAN INDIAN OR ALASKA NATIVE | | | checkbox | |", "score": 0.4667, "match_basis": "verbatim_token+domain_route:DM"}, {"md_atom_id": "md_dmDM_ex_a145", "md_file": "knowledge_base/domains/DM/examples.md", "md_atom_type": "TABLE_ROW", "md_parent_section": "§DM.6 [Example 6]", "md_verbatim": "| RACE01 | 3 | Which of the following racial designations best describes you? (More than one choice is acceptable.) | Race | Study participants should self-report race, with race being asked about after ethnicity. | Text | RACE | | (RACE) | AMERICAN INDIAN OR ALASKA NATIVE | | | checkbox | |", "score": 0.4667, "match_basis": "verbatim_token+domain_route:DM"}, {"md_atom_id": "md_dmDM_ex_a094", "md_file": "knowledge_base/domains/DM/examples.md", "md_atom_type": "TABLE_ROW", "md_parent_section": "§DM.4 [Example 4]", "md_verbatim": "| CRACE01-CRACE04 | 10 | (same) | Race | Select each value that applies if the subject answered \"AMERICAN INDIAN OR ALASKA NATIVE\". Check all that apply. | Text | SUPPDM.QVAL | For each value that applies, SUPPDM.QVAL where SUPPDM.QNAM =\"CRACEn\" and SUPPDM.QLABEL = \"Collected Race n\" where n is the choice value. | (RACEC) | ALASKA NATIVE; AMERICAN INDIAN; CARIBBEAN INDIAN; CENTRAL AMERICAN INDIAN | | | checkbox | |", "score": 0.4477, "match_basis": "verbatim_token+domain_route:DM"}, {"md_atom_id": "md_dmDM_ex_a097", "md_file": "knowledge_base/domains/DM/examples.md", "md_atom_type": "TABLE_ROW", "md_parent_section": "§DM.4 [Example 4]", "md_verbatim": "| CRACE18-CRACE21 | 13 | (same) | Race | Select each value that applies if the subject answered \"WHITE\". Check all that apply. | Text | SUPPDM.QVAL | For each value that applies, SUPPDM.QVAL where SUPPDM.QNAM =\"CRACEn\" and SUPPDM.QLABEL = \"Collected Race n\" where n is the choice value. | (RACEC) | ARAB; EUROPEAN; MIDDLE EASTERN; RUSSIAN | | | checkbox | |", "score": 0.4451, "match_basis": "verbatim_token+domain_route:DM"}, {"md_atom_id": "md_dmDM_ex_a096", "md_file": "knowledge_base/domains/DM/examples.md", "md_atom_type": "TABLE_ROW", "md_parent_section": "§DM.4 [Example 4]", "md_verbatim": "| CRACE11-CRACE17 | 12 | (same) | Race | Select each value that applies if the subject answered \"BLACK OR AFRICAN AMERICAN\". Check all that apply. | Text | SUPPDM.QVAL | For each value that applies, SUPPDM.QVAL where SUPPDM.QNAM =\"CRACEn\" and SUPPDM.QLABEL = \"Collected Race n\" where n is the choice value. | (RACEC) | AFRICAN; AFRICAN AMERICAN; AFRICAN CARIBBEAN; BAHAMIAN; BARBADIAN; BLACK; BLACK CENTRAL AMERICAN | | | checkbox | |", "score": 0.4436, "match_basis": "verbatim_token+domain_route:DM"}], "candidate_count": 5, "zero_candidate": false}
{"pdf_atom_id": "ig34_p0064_a009", "pdf_atom_type": "TABLE_ROW", "pdf_source": "SDTMIG_v3.4", "pdf_page": 64, "pdf_parent_section": "§5.2 [Demographics (DM)]", "pdf_verbatim": "DMDTC | Date/Time of Collection | Char | ISO 8601 datetime or interval | Timing | Date/time of demographic data collection. | Perm", "figure_ref": null, "candidates": [{"md_atom_id": "md_dmDM_ex_a172", "md_file": "knowledge_base/domains/DM/examples.md", "md_atom_type": "TABLE_ROW", "md_parent_section": "§DM.6 [Example 6]", "md_verbatim": "| 3 | ABC789 | DM | ABC789-010-003 | | | CRACE8 | Collected Race 8 | BLACK | CRF | |", "score": 0.4508, "match_basis": "verbatim_token+domain_route:DM"}, {"md_atom_id": "md_dmDM_ex_a114", "md_file": "knowledge_base/domains/DM/examples.md", "md_atom_type": "TABLE_ROW", "md_parent_section": "§DM.4 [Example 4]", "md_verbatim": "| 3 | ABC789 | DM | ABC789-010-047 | | | CRACE8 | Collected Race 8 | CHINESE | CRF | |", "score": 0.4492, "match_basis": "verbatim_token+domain_route:DM"}, {"md_atom_id": "md_dmDM_ex_a115", "md_file": "knowledge_base/domains/DM/examples.md", "md_atom_type": "TABLE_ROW", "md_parent_section": "§DM.4 [Example 4]", "md_verbatim": "| 4 | ABC789 | DM | ABC789-010-047 | | | CRACE10 | Collected Race 10 | KOREAN | CRF | |", "score": 0.4492, "match_basis": "verbatim_token+domain_route:DM"}, {"md_atom_id": "md_dmDM_ex_a116", "md_file": "knowledge_base/domains/DM/examples.md", "md_atom_type": "TABLE_ROW", "md_parent_section": "§DM.4 [Example 4]", "md_verbatim": "| 5 | ABC789 | DM | ABC789-010-047 | | | CRACE21 | Collected Race 21 | RUSSIAN | CRF | |", "score": 0.4484, "match_basis": "verbatim_token+domain_route:DM"}, {"md_atom_id": "md_dmDM_ex_a133", "md_file": "knowledge_base/domains/DM/examples.md", "md_atom_type": "TABLE_ROW", "md_parent_section": "§DM.5 [Example 5]", "md_verbatim": "| 2 | ABC789 | DM | ABC789-010-047 | | | ETHNIC1 | Collected Ethnicity 1 | MIAO | CRF | |", "score": 0.4484, "match_basis": "verbatim_token+domain_route:DM"}], "candidate_count": 5, "zero_candidate": false}
{"pdf_atom_id": "ig34_p0064_a010", "pdf_atom_type": "TABLE_ROW", "pdf_source": "SDTMIG_v3.4", "pdf_page": 64, "pdf_parent_section": "§5.2 [Demographics (DM)]", "pdf_verbatim": "DMDY | Study Day of Collection | Num | | Timing | Study day of collection measured as integer days. | Perm", "figure_ref": null, "candidates": [{"md_atom_id": "md_dmDM_ex_a172", "md_file": "knowledge_base/domains/DM/examples.md", "md_atom_type": "TABLE_ROW", "md_parent_section": "§DM.6 [Example 6]", "md_verbatim": "| 3 | ABC789 | DM | ABC789-010-003 | | | CRACE8 | Collected Race 8 | BLACK | CRF | |", "score": 0.4612, "match_basis": "verbatim_token+domain_route:DM"}, {"md_atom_id": "md_dmDM_ex_a114", "md_file": "knowledge_base/domains/DM/examples.md", "md_atom_type": "TABLE_ROW", "md_parent_section": "§DM.4 [Example 4]", "md_verbatim": "| 3 | ABC789 | DM | ABC789-010-047 | | | CRACE8 | Collected Race 8 | CHINESE | CRF | |", "score": 0.4588, "match_basis": "verbatim_token+domain_route:DM"}, {"md_atom_id": "md_dmDM_ex_a115", "md_file": "knowledge_base/domains/DM/examples.md", "md_atom_type": "TABLE_ROW", "md_parent_section": "§DM.4 [Example 4]", "md_verbatim": "| 4 | ABC789 | DM | ABC789-010-047 | | | CRACE10 | Collected Race 10 | KOREAN | CRF | |", "score": 0.4588, "match_basis": "verbatim_token+domain_route:DM"}, {"md_atom_id": "md_dmDM_ex_a116", "md_file": "knowledge_base/domains/DM/examples.md", "md_atom_type": "TABLE_ROW", "md_parent_section": "§DM.4 [Example 4]", "md_verbatim": "| 5 | ABC789 | DM | ABC789-010-047 | | | CRACE21 | Collected Race 21 | RUSSIAN | CRF | |", "score": 0.4577, "match_basis": "verbatim_token+domain_route:DM"}, {"md_atom_id": "md_dmDM_ex_a133", "md_file": "knowledge_base/domains/DM/examples.md", "md_atom_type": "TABLE_ROW", "md_parent_section": "§DM.5 [Example 5]", "md_verbatim": "| 2 | ABC789 | DM | ABC789-010-047 | | | ETHNIC1 | Collected Ethnicity 1 | MIAO | CRF | |", "score": 0.4577, "match_basis": "verbatim_token+domain_route:DM"}], "candidate_count": 5, "zero_candidate": false}
{"pdf_atom_id": "ig34_p0064_a011", "pdf_atom_type": "NOTE", "pdf_source": "SDTMIG_v3.4", "pdf_page": 64, "pdf_parent_section": "§5.2 [Demographics (DM)]", "pdf_verbatim": "1In this column, an asterisk (*) indicates that the variable may be subject to controlled terminology. CDISC/NCI codelist values are enclosed in parentheses.", "figure_ref": null, "candidates": [{"md_atom_id": "md_dmDM_ex_a154", "md_file": "knowledge_base/domains/DM/examples.md", "md_atom_type": "SENTENCE", "md_parent_section": "§DM.6 [Example 6]", "md_verbatim": "The value of RACE is used to represent the high-level racial designation as a single collected value per CDISC Controlled Terminology in dm.xpt. In this example, subjects chose to select 1 high-level racial designation.", "score": 0.4856, "match_basis": "verbatim_token+domain_route:DM"}, {"md_atom_id": "md_dmDM_ex_a098", "md_file": "knowledge_base/domains/DM/examples.md", "md_atom_type": "SENTENCE", "md_parent_section": "§DM.4 [Example 4]", "md_verbatim": "The value of RACE is used to represent the high-level racial designation as a single collected value per CDISC Controlled Terminology in dm.xpt. When more than 1 choice is selected, the value is represented with \"MULTIPLE\" as shown in this example. **Note:** Only those variables relevant to this example are shown.", "score": 0.4689, "match_basis": "verbatim_token+domain_route:DM"}, {"md_atom_id": "md_dmDM_ex_a155", "md_file": "knowledge_base/domains/DM/examples.md", "md_atom_type": "NOTE", "md_parent_section": "§DM.6 [Example 6]", "md_verbatim": "**Note:** Only those variables relevant to this example are shown.", "score": 0.46, "match_basis": "verbatim_token+domain_route:DM"}, {"md_atom_id": "md_dmDM_ex_a188", "md_file": "knowledge_base/domains/DM/examples.md", "md_atom_type": "NOTE", "md_parent_section": "§DM.7 [Example 7]", "md_verbatim": "**Note:** Not all DM variables are shown.", "score": 0.4488, "match_basis": "verbatim_token+domain_route:DM"}, {"md_atom_id": "md_dmDM_ex_a197", "md_file": "knowledge_base/domains/DM/examples.md", "md_atom_type": "NOTE", "md_parent_section": "§DM.7 [Example 7]", "md_verbatim": "**Note:** Recommended QNAM-QLABEL values have been provided.", "score": 0.4229, "match_basis": "verbatim_token+domain_route:DM"}], "candidate_count": 5, "zero_candidate": false}
{"pdf_atom_id": "ig34_p0064_a012", "pdf_atom_type": "NOTE", "pdf_source": "SDTMIG_v3.4", "pdf_page": 64, "pdf_parent_section": "§5.2 [Demographics (DM)]", "pdf_verbatim": "2Food and Drug Administration. Collection of Race and Ethnicity Data in Clinical Trials. US Department of Health and Human Services;2016. Accessed January 8, 2020. https://www.fda.gov/downloads/regulatoryinformation/guidances/ucm126396.pdf", "figure_ref": null, "candidates": [{"md_atom_id": "md_dmDM_ex_a188", "md_file": "knowledge_base/domains/DM/examples.md", "md_atom_type": "NOTE", "md_parent_section": "§DM.7 [Example 7]", "md_verbatim": "**Note:** Not all DM variables are shown.", "score": 0.409, "match_basis": "verbatim_token+domain_route:DM"}, {"md_atom_id": "md_dmDM_ex_a155", "md_file": "knowledge_base/domains/DM/examples.md", "md_atom_type": "NOTE", "md_parent_section": "§DM.6 [Example 6]", "md_verbatim": "**Note:** Only those variables relevant to this example are shown.", "score": 0.408, "match_basis": "verbatim_token+domain_route:DM"}, {"md_atom_id": "md_dmDM_ex_a197", "md_file": "knowledge_base/domains/DM/examples.md", "md_atom_type": "NOTE", "md_parent_section": "§DM.7 [Example 7]", "md_verbatim": "**Note:** Recommended QNAM-QLABEL values have been provided.", "score": 0.404, "match_basis": "verbatim_token+domain_route:DM"}, {"md_atom_id": "md_dmDM_ex_a068", "md_file": "knowledge_base/domains/DM/examples.md", "md_atom_type": "SENTENCE", "md_parent_section": "§DM.4 [Example 4]", "md_verbatim": "See the CDASH Model and Implementation Guide for additional information: https://www.cdisc.org/standards/foundational/cdash.", "score": 0.3831, "match_basis": "verbatim_token+domain_route:DM"}, {"md_atom_id": "md_dmDM_ex_a137", "md_file": "knowledge_base/domains/DM/examples.md", "md_atom_type": "SENTENCE", "md_parent_section": "§DM.6 [Example 6]", "md_verbatim": "See the CDASH Model and Implementation Guide for additional information: https://www.cdisc.org/standards/foundational/cdash.", "score": 0.3831, "match_basis": "verbatim_token+domain_route:DM"}], "candidate_count": 5, "zero_candidate": false}
{"pdf_atom_id": "ig34_p0065_a001", "pdf_atom_type": "HEADING", "pdf_source": "SDTMIG_v3.4", "pdf_page": 65, "pdf_parent_section": "§5.2 [Demographics (DM)]", "pdf_verbatim": "DM –Assumptions", "figure_ref": null, "candidates": [{"md_atom_id": "md_dmDM_assn_a001", "md_file": "knowledge_base/domains/DM/assumptions.md", "md_atom_type": "HEADING", "md_parent_section": "§DM [DM — Assumptions]", "md_verbatim": "# DM — Assumptions", "score": 1.0, "match_basis": "verbatim_token+domain_route:DM"}, {"md_atom_id": "md_dmDM_ex_a001", "md_file": "knowledge_base/domains/DM/examples.md", "md_atom_type": "HEADING", "md_parent_section": "§DM [DM — Examples]", "md_verbatim": "# DM — Examples", "score": 0.4, "match_basis": "verbatim_token+domain_route:DM"}, {"md_atom_id": "md_dmDM_ex_a002", "md_file": "knowledge_base/domains/DM/examples.md", "md_atom_type": "HEADING", "md_parent_section": "§DM [DM — Examples]", "md_verbatim": "## Example 1", "score": 0.4, "match_basis": "verbatim_token+domain_route:DM"}, {"md_atom_id": "md_dmDM_ex_a011", "md_file": "knowledge_base/domains/DM/examples.md", "md_atom_type": "HEADING", "md_parent_section": "§DM [DM — Examples]", "md_verbatim": "## Example 2", "score": 0.4, "match_basis": "verbatim_token+domain_route:DM"}, {"md_atom_id": "md_dmDM_ex_a043", "md_file": "knowledge_base/domains/DM/examples.md", "md_atom_type": "HEADING", "md_parent_section": "§DM [DM — Examples]", "md_verbatim": "## Example 3", "score": 0.4, "match_basis": "verbatim_token+domain_route:DM"}], "candidate_count": 5, "zero_candidate": false}
{"pdf_atom_id": "ig34_p0065_a002", "pdf_atom_type": "LIST_ITEM", "pdf_source": "SDTMIG_v3.4", "pdf_page": 65, "pdf_parent_section": "§5.2 [Demographics (DM)]", "pdf_verbatim": "1. Investigator and site identification: Companies use different methods to distinguish sites and investigators.", "figure_ref": null, "candidates": [{"md_atom_id": "md_dmDM_assn_a002", "md_file": "knowledge_base/domains/DM/assumptions.md", "md_atom_type": "LIST_ITEM", "md_parent_section": "§DM [DM — Assumptions]", "md_verbatim": "1. Investigator and site identification: Companies use different methods to distinguish sites and investigators. CDISC assumes that SITEID will always be present, with INVID and INVNAM used as necessary. This should be done consistently and the meaning of the variable made clear in the Define-XML document.", "score": 0.6492, "match_basis": "verbatim_token+domain_route:DM"}, {"md_atom_id": "md_dmDM_assn_a022", "md_file": "knowledge_base/domains/DM/assumptions.md", "md_atom_type": "LIST_ITEM", "md_parent_section": "§DM [DM — Assumptions]", "md_verbatim": "8. Additional permissible identifier, qualifier, and timing variables:", "score": 0.4714, "match_basis": "verbatim_token+domain_route:DM"}, {"md_atom_id": "md_dmDM_assn_a017", "md_file": "knowledge_base/domains/DM/assumptions.md", "md_atom_type": "LIST_ITEM", "md_parent_section": "§DM [DM — Assumptions]", "md_verbatim": "         3. Section 5.3, Subject Elements, Example 2 illustrates a situation in which a subject received a set of treatments different from that for any of the planned arms.", "score": 0.4649, "match_basis": "verbatim_token+domain_route:DM"}, {"md_atom_id": "md_dmDM_assn_a029", "md_file": "knowledge_base/domains/DM/assumptions.md", "md_atom_type": "LIST_ITEM", "md_parent_section": "§DM [DM — Assumptions]", "md_verbatim": "    c. RFCSTDTC and RFCENDTC: This pair of variables is used only when the study uses a protocol-specified challenge agent to induce a condition that the investigational treatment is intended to cure, mitigate, treat, or prevent. RFCSTDTC and RFCENDTC always represent the date/time of first and last exposure to the challenge agent.", "score": 0.4562, "match_basis": "verbatim_token+domain_route:DM"}, {"md_atom_id": "md_dmDM_assn_a003", "md_file": "knowledge_base/domains/DM/assumptions.md", "md_atom_type": "LIST_ITEM", "md_parent_section": "§DM [DM — Assumptions]", "md_verbatim": "2. Every subject in a study must have a subject identifier (SUBJID). In some cases a subject may participate in more than 1 study. To identify a subject uniquely across all studies for all applications or submissions involving the product, a unique identifier (USUBJID) must be included in all datasets. Subjects occasionally change sites during the course of a clinical trial. Sponsors must decide how to populate variables such as USUBJID, SUBJID and SITEID based on their operational and analysis needs, but only 1 DM record should be submitted for each subject. The Supplemental Qualifiers dataset may be used if appropriate to provide additional information.", "score": 0.4476, "match_basis": "verbatim_token+domain_route:DM"}], "candidate_count": 5, "zero_candidate": false}
{"pdf_atom_id": "ig34_p0065_a003", "pdf_atom_type": "SENTENCE", "pdf_source": "SDTMIG_v3.4", "pdf_page": 65, "pdf_parent_section": "§5.2 [Demographics (DM)]", "pdf_verbatim": "CDISC assumes that SITEID will always be present, with INVID and INVNAM used as necessary.", "figure_ref": null, "candidates": [{"md_atom_id": "md_dmDM_assn_a002", "md_file": "knowledge_base/domains/DM/assumptions.md", "md_atom_type": "LIST_ITEM", "md_parent_section": "§DM [DM — Assumptions]", "md_verbatim": "1. Investigator and site identification: Companies use different methods to distinguish sites and investigators. CDISC assumes that SITEID will always be present, with INVID and INVNAM used as necessary. This should be done consistently and the meaning of the variable made clear in the Define-XML document.", "score": 0.5085, "match_basis": "verbatim_token+domain_route:DM"}, {"md_atom_id": "md_dmDM_ex_a073", "md_file": "knowledge_base/domains/DM/examples.md", "md_atom_type": "SENTENCE", "md_parent_section": "§DM.4 [Example 4]", "md_verbatim": "The CRF presents 7 race questions (RACE01-RACE07) with checkbox options:", "score": 0.4636, "match_basis": "verbatim_token+domain_route:DM"}, {"md_atom_id": "md_dmDM_ex_a055", "md_file": "knowledge_base/domains/DM/examples.md", "md_atom_type": "SENTENCE", "md_parent_section": "§DM.3 [Example 3]", "md_verbatim": "**Rows 6-8:** Show that the subject passed through the 3 elements associated with the \"B-Rescue\" arm.", "score": 0.4632, "match_basis": "verbatim_token+domain_route:DM"}, {"md_atom_id": "md_dmDM_ex_a098", "md_file": "knowledge_base/domains/DM/examples.md", "md_atom_type": "SENTENCE", "md_parent_section": "§DM.4 [Example 4]", "md_verbatim": "The value of RACE is used to represent the high-level racial designation as a single collected value per CDISC Controlled Terminology in dm.xpt. When more than 1 choice is selected, the value is represented with \"MULTIPLE\" as shown in this example. **Note:** Only those variables relevant to this example are shown.", "score": 0.4549, "match_basis": "verbatim_token+domain_route:DM"}, {"md_atom_id": "md_dmDM_ex_a154", "md_file": "knowledge_base/domains/DM/examples.md", "md_atom_type": "SENTENCE", "md_parent_section": "§DM.6 [Example 6]", "md_verbatim": "The value of RACE is used to represent the high-level racial designation as a single collected value per CDISC Controlled Terminology in dm.xpt. In this example, subjects chose to select 1 high-level racial designation.", "score": 0.4531, "match_basis": "verbatim_token+domain_route:DM"}], "candidate_count": 5, "zero_candidate": false}
{"pdf_atom_id": "ig34_p0065_a004", "pdf_atom_type": "SENTENCE", "pdf_source": "SDTMIG_v3.4", "pdf_page": 65, "pdf_parent_section": "§5.2 [Demographics (DM)]", "pdf_verbatim": "This should be done consistently and the meaning of the variable made clear in the Define-XML document.", "figure_ref": null, "candidates": [{"md_atom_id": "md_dmDM_assn_a002", "md_file": "knowledge_base/domains/DM/assumptions.md", "md_atom_type": "LIST_ITEM", "md_parent_section": "§DM [DM — Assumptions]", "md_verbatim": "1. Investigator and site identification: Companies use different methods to distinguish sites and investigators. CDISC assumes that SITEID will always be present, with INVID and INVNAM used as necessary. This should be done consistently and the meaning of the variable made clear in the Define-XML document.", "score": 0.5223, "match_basis": "verbatim_token+domain_route:DM"}, {"md_atom_id": "md_dmDM_ex_a067", "md_file": "knowledge_base/domains/DM/examples.md", "md_atom_type": "SENTENCE", "md_parent_section": "§DM.4 [Example 4]", "md_verbatim": "The CRF in this example is annotated to show the CDASH variable name and the target SDTMIG variable. Data that are collected using the same variable name as defined in the SDTMIG are in RED. If the CDASHIG variable differs from the one defined in the SDTMIG, the CDASHIG variable is in GREY.", "score": 0.502, "match_basis": "verbatim_token+domain_route:DM"}, {"md_atom_id": "md_dmDM_ex_a136", "md_file": "knowledge_base/domains/DM/examples.md", "md_atom_type": "SENTENCE", "md_parent_section": "§DM.6 [Example 6]", "md_verbatim": "The CRF in this example is annotated to show the CDASH variable name and the target SDTMIG variable. Data that are collected using the same variable name as defined in the SDTMIG are in RED. If the CDASHIG variable differs from the one defined in the SDTMIG, the CDASHIG variable is in GREY.", "score": 0.502, "match_basis": "verbatim_token+domain_route:DM"}, {"md_atom_id": "md_dmDM_ex_a014", "md_file": "knowledge_base/domains/DM/examples.md", "md_atom_type": "SENTENCE", "md_parent_section": "§DM.2 [Example 2]", "md_verbatim": "**Row 2:** Subject 002 was randomized to arm \"Drug B\". As shown in the SE dataset, their actual arm was consistent with their randomization.", "score": 0.4786, "match_basis": "verbatim_token+domain_route:DM"}, {"md_atom_id": "md_dmDM_ex_a069", "md_file": "knowledge_base/domains/DM/examples.md", "md_atom_type": "SENTENCE", "md_parent_section": "§DM.4 [Example 4]", "md_verbatim": "This example shows multiple race categories and subcategories. Only a subset of options is shown for this instrument due to space constraints.", "score": 0.4568, "match_basis": "verbatim_token+domain_route:DM"}], "candidate_count": 5, "zero_candidate": false}
{"pdf_atom_id": "ig34_p0065_a005", "pdf_atom_type": "LIST_ITEM", "pdf_source": "SDTMIG_v3.4", "pdf_page": 65, "pdf_parent_section": "§5.2 [Demographics (DM)]", "pdf_verbatim": "2. Every subject in a study must have a subject identifier (SUBJID).", "figure_ref": null, "candidates": [{"md_atom_id": "md_dmDM_assn_a022", "md_file": "knowledge_base/domains/DM/assumptions.md", "md_atom_type": "LIST_ITEM", "md_parent_section": "§DM [DM — Assumptions]", "md_verbatim": "8. Additional permissible identifier, qualifier, and timing variables:", "score": 0.4842, "match_basis": "verbatim_token+domain_route:DM"}, {"md_atom_id": "md_dmDM_assn_a013", "md_file": "knowledge_base/domains/DM/assumptions.md", "md_atom_type": "LIST_ITEM", "md_parent_section": "§DM [DM — Assumptions]", "md_verbatim": "      i. Example 1 below shows how to handle a subject who was a screen failure and was never treated.", "score": 0.4737, "match_basis": "verbatim_token+domain_route:DM"}, {"md_atom_id": "md_dmDM_assn_a003", "md_file": "knowledge_base/domains/DM/assumptions.md", "md_atom_type": "LIST_ITEM", "md_parent_section": "§DM [DM — Assumptions]", "md_verbatim": "2. Every subject in a study must have a subject identifier (SUBJID). In some cases a subject may participate in more than 1 study. To identify a subject uniquely across all studies for all applications or submissions involving the product, a unique identifier (USUBJID) must be included in all datasets. Subjects occasionally change sites during the course of a clinical trial. Sponsors must decide how to populate variables such as USUBJID, SUBJID and SITEID based on their operational and analysis needs, but only 1 DM record should be submitted for each subject. The Supplemental Qualifiers dataset may be used if appropriate to provide additional information.", "score": 0.4688, "match_basis": "verbatim_token+domain_route:DM"}, {"md_atom_id": "md_dmDM_assn_a008", "md_file": "knowledge_base/domains/DM/assumptions.md", "md_atom_type": "LIST_ITEM", "md_parent_section": "§DM [DM — Assumptions]", "md_verbatim": "      ii. If ACTARMCD is null, then ACTARM must be null and ARMNRS must be populated with the reason ACTARMCD is null. Both ARMCD and ACTARMCD will be null for subjects who were not assigned to treatment. The same reason will provide the reason that both are null.", "score": 0.4659, "match_basis": "verbatim_token+domain_route:DM"}, {"md_atom_id": "md_dmDM_assn_a015", "md_file": "knowledge_base/domains/DM/assumptions.md", "md_atom_type": "LIST_ITEM", "md_parent_section": "§DM [DM — Assumptions]", "md_verbatim": "         1. Example 2 below shows how subjects who started the trial but were never assigned to an arm would be handled.", "score": 0.4636, "match_basis": "verbatim_token+domain_route:DM"}], "candidate_count": 5, "zero_candidate": false}
{"pdf_atom_id": "ig34_p0065_a006", "pdf_atom_type": "SENTENCE", "pdf_source": "SDTMIG_v3.4", "pdf_page": 65, "pdf_parent_section": "§5.2 [Demographics (DM)]", "pdf_verbatim": "In some cases a subject may participate in more than 1 study.", "figure_ref": null, "candidates": [{"md_atom_id": "md_dmDM_ex_a027", "md_file": "knowledge_base/domains/DM/examples.md", "md_atom_type": "SENTENCE", "md_parent_section": "§DM.2 [Example 2]", "md_verbatim": "**Row 7:** Subject 003 was a screen failure, who participated only in the \"Screen\" element.", "score": 0.5714, "match_basis": "verbatim_token+domain_route:DM"}, {"md_atom_id": "md_dmDM_ex_a082", "md_file": "knowledge_base/domains/DM/examples.md", "md_atom_type": "SENTENCE", "md_parent_section": "§DM.4 [Example 4]", "md_verbatim": "If the study participant answered ASIAN, subcategories (CRACE05-CRACE10) are presented: ASIAN AMERICAN, ASIAN INDIAN, BANGLADESHI, CHINESE, JAPANESE, KOREAN.", "score": 0.4857, "match_basis": "verbatim_token+domain_route:DM"}, {"md_atom_id": "md_dmDM_ex_a084", "md_file": "knowledge_base/domains/DM/examples.md", "md_atom_type": "SENTENCE", "md_parent_section": "§DM.4 [Example 4]", "md_verbatim": "If the study participant answered WHITE, subcategories (CRACE18-CRACE21) are presented: ARAB, EUROPEAN, MIDDLE EASTERN, RUSSIAN.", "score": 0.4847, "match_basis": "verbatim_token+domain_route:DM"}, {"md_atom_id": "md_dmDM_ex_a083", "md_file": "knowledge_base/domains/DM/examples.md", "md_atom_type": "SENTENCE", "md_parent_section": "§DM.4 [Example 4]", "md_verbatim": "If the study participant answered BLACK OR AFRICAN AMERICAN, subcategories (CRACE11-CRACE17) are presented: AFRICAN, AFRICAN AMERICAN, AFRICAN CARIBBEAN, BAHAMIAN, BARBADIAN, BLACK, BLACK CENTRAL AMERICAN.", "score": 0.4774, "match_basis": "verbatim_token+domain_route:DM"}, {"md_atom_id": "md_dmDM_ex_a081", "md_file": "knowledge_base/domains/DM/examples.md", "md_atom_type": "SENTENCE", "md_parent_section": "§DM.4 [Example 4]", "md_verbatim": "If the study participant answered AMERICAN INDIAN OR ALASKA NATIVE, subcategories (CRACE01-CRACE04) from the RACEC codelist are presented: ALASKA NATIVE, AMERICAN INDIAN, CARIBBEAN INDIAN, CENTRAL AMERICAN INDIAN.", "score": 0.4742, "match_basis": "verbatim_token+domain_route:DM"}], "candidate_count": 5, "zero_candidate": false}
{"pdf_atom_id": "ig34_p0065_a007", "pdf_atom_type": "SENTENCE", "pdf_source": "SDTMIG_v3.4", "pdf_page": 65, "pdf_parent_section": "§5.2 [Demographics (DM)]", "pdf_verbatim": "To identify a subject uniquely across all studies for all applications or submissions involving the product, a unique identifier (USUBJID) must be included in all datasets.", "figure_ref": null, "candidates": [{"md_atom_id": "md_dmDM_ex_a187", "md_file": "knowledge_base/domains/DM/examples.md", "md_atom_type": "SENTENCE", "md_parent_section": "§DM.7 [Example 7]", "md_verbatim": "**Row 4:** Subject could not self-identify to any of the race options including identification of an \"Other\". RACE was populated with \"UNKNOWN\" in this case.", "score": 0.5405, "match_basis": "verbatim_token+domain_route:DM"}, {"md_atom_id": "md_dmDM_assn_a003", "md_file": "knowledge_base/domains/DM/assumptions.md", "md_atom_type": "LIST_ITEM", "md_parent_section": "§DM [DM — Assumptions]", "md_verbatim": "2. Every subject in a study must have a subject identifier (SUBJID). In some cases a subject may participate in more than 1 study. To identify a subject uniquely across all studies for all applications or submissions involving the product, a unique identifier (USUBJID) must be included in all datasets. Subjects occasionally change sites during the course of a clinical trial. Sponsors must decide how to populate variables such as USUBJID, SUBJID and SITEID based on their operational and analysis needs, but only 1 DM record should be submitted for each subject. The Supplemental Qualifiers dataset may be used if appropriate to provide additional information.", "score": 0.5219, "match_basis": "verbatim_token+domain_route:DM"}, {"md_atom_id": "md_dmDM_ex_a185", "md_file": "knowledge_base/domains/DM/examples.md", "md_atom_type": "SENTENCE", "md_parent_section": "§DM.7 [Example 7]", "md_verbatim": "**Rows 1-2:** Subjects self-identify to 1 of the first 5 race options on the CRF form.", "score": 0.5055, "match_basis": "verbatim_token+domain_route:DM"}, {"md_atom_id": "md_dmDM_ex_a186", "md_file": "knowledge_base/domains/DM/examples.md", "md_atom_type": "SENTENCE", "md_parent_section": "§DM.7 [Example 7]", "md_verbatim": "**Row 3:** Subject did not self-identify to 1 of the existing race options and selected \"Other\". RACE was populated with \"OTHER\" in this case.", "score": 0.4927, "match_basis": "verbatim_token+domain_route:DM"}, {"md_atom_id": "md_dmDM_ex_a012", "md_file": "knowledge_base/domains/DM/examples.md", "md_atom_type": "SENTENCE", "md_parent_section": "§DM.2 [Example 2]", "md_verbatim": "This example Demographics dataset does not include all the DM required and expected variables, only those that illustrate the variables that represent arm information. The following example illustrates values of ARMCD for subjects in Example Trial 1, described in Section 7.2.1, Trial Arms. This study included 2 elements, screen and run-in, before subjects were randomized to treatment. For this study, the sponsor submitted data on all subjects, including screen-failure subjects.", "score": 0.4894, "match_basis": "verbatim_token+domain_route:DM"}], "candidate_count": 5, "zero_candidate": false}
{"pdf_atom_id": "ig34_p0065_a008", "pdf_atom_type": "SENTENCE", "pdf_source": "SDTMIG_v3.4", "pdf_page": 65, "pdf_parent_section": "§5.2 [Demographics (DM)]", "pdf_verbatim": "Subjects occasionally change sites during the course of a clinical trial.", "figure_ref": null, "candidates": [{"md_atom_id": "md_dmDM_ex_a052", "md_file": "knowledge_base/domains/DM/examples.md", "md_atom_type": "SENTENCE", "md_parent_section": "§DM.3 [Example 3]", "md_verbatim": "The following example illustrates values of ARMCD for subjects in Example Trial 3, described in Section 7.2.1, Trial Arms.", "score": 0.4987, "match_basis": "verbatim_token+domain_route:DM"}, {"md_atom_id": "md_dmDM_ex_a028", "md_file": "knowledge_base/domains/DM/examples.md", "md_atom_type": "SENTENCE", "md_parent_section": "§DM.2 [Example 2]", "md_verbatim": "**Rows 8-9:** Subject 004 withdrew during the \"Run-in\" element, before they could be randomized.", "score": 0.493, "match_basis": "verbatim_token+domain_route:DM"}, {"md_atom_id": "md_dmDM_ex_a185", "md_file": "knowledge_base/domains/DM/examples.md", "md_atom_type": "SENTENCE", "md_parent_section": "§DM.7 [Example 7]", "md_verbatim": "**Rows 1-2:** Subjects self-identify to 1 of the first 5 race options on the CRF form.", "score": 0.4762, "match_basis": "verbatim_token+domain_route:DM"}, {"md_atom_id": "md_dmDM_ex_a187", "md_file": "knowledge_base/domains/DM/examples.md", "md_atom_type": "SENTENCE", "md_parent_section": "§DM.7 [Example 7]", "md_verbatim": "**Row 4:** Subject could not self-identify to any of the race options including identification of an \"Other\". RACE was populated with \"UNKNOWN\" in this case.", "score": 0.4733, "match_basis": "verbatim_token+domain_route:DM"}, {"md_atom_id": "md_dmDM_ex_a025", "md_file": "knowledge_base/domains/DM/examples.md", "md_atom_type": "SENTENCE", "md_parent_section": "§DM.2 [Example 2]", "md_verbatim": "**Rows 1-3:** Subject 001 completed all the elements for arm A.", "score": 0.4712, "match_basis": "verbatim_token+domain_route:DM"}], "candidate_count": 5, "zero_candidate": false}
{"pdf_atom_id": "ig34_p0065_a009", "pdf_atom_type": "SENTENCE", "pdf_source": "SDTMIG_v3.4", "pdf_page": 65, "pdf_parent_section": "§5.2 [Demographics (DM)]", "pdf_verbatim": "Sponsors must decide how to populate variables such as USUBJID, SUBJID and SITEID based on their operational and analysis needs, but only 1 DM record should be submitted for each subject.", "figure_ref": null, "candidates": [{"md_atom_id": "md_dmDM_assn_a003", "md_file": "knowledge_base/domains/DM/assumptions.md", "md_atom_type": "LIST_ITEM", "md_parent_section": "§DM [DM — Assumptions]", "md_verbatim": "2. Every subject in a study must have a subject identifier (SUBJID). In some cases a subject may participate in more than 1 study. To identify a subject uniquely across all studies for all applications or submissions involving the product, a unique identifier (USUBJID) must be included in all datasets. Subjects occasionally change sites during the course of a clinical trial. Sponsors must decide how to populate variables such as USUBJID, SUBJID and SITEID based on their operational and analysis needs, but only 1 DM record should be submitted for each subject. The Supplemental Qualifiers dataset may be used if appropriate to provide additional information.", "score": 0.5412, "match_basis": "verbatim_token+domain_route:DM"}, {"md_atom_id": "md_dmDM_ex_a017", "md_file": "knowledge_base/domains/DM/examples.md", "md_atom_type": "SENTENCE", "md_parent_section": "§DM.2 [Example 2]", "md_verbatim": "**Row 5:** Subject 005 was randomized but dropped out before being treated. Thus, the actual arm variables are not populated and ARMNRS=\"ASSIGNED, NOT TREATED\".", "score": 0.5087, "match_basis": "verbatim_token+domain_route:DM"}, {"md_atom_id": "md_dmDM_ex_a187", "md_file": "knowledge_base/domains/DM/examples.md", "md_atom_type": "SENTENCE", "md_parent_section": "§DM.7 [Example 7]", "md_verbatim": "**Row 4:** Subject could not self-identify to any of the race options including identification of an \"Other\". RACE was populated with \"UNKNOWN\" in this case.", "score": 0.5024, "match_basis": "verbatim_token+domain_route:DM"}, {"md_atom_id": "md_dmDM_ex_a012", "md_file": "knowledge_base/domains/DM/examples.md", "md_atom_type": "SENTENCE", "md_parent_section": "§DM.2 [Example 2]", "md_verbatim": "This example Demographics dataset does not include all the DM required and expected variables, only those that illustrate the variables that represent arm information. The following example illustrates values of ARMCD for subjects in Example Trial 1, described in Section 7.2.1, Trial Arms. This study included 2 elements, screen and run-in, before subjects were randomized to treatment. For this study, the sponsor submitted data on all subjects, including screen-failure subjects.", "score": 0.4995, "match_basis": "verbatim_token+domain_route:DM"}, {"md_atom_id": "md_dmDM_ex_a186", "md_file": "knowledge_base/domains/DM/examples.md", "md_atom_type": "SENTENCE", "md_parent_section": "§DM.7 [Example 7]", "md_verbatim": "**Row 3:** Subject did not self-identify to 1 of the existing race options and selected \"Other\". RACE was populated with \"OTHER\" in this case.", "score": 0.4991, "match_basis": "verbatim_token+domain_route:DM"}], "candidate_count": 5, "zero_candidate": false}
{"pdf_atom_id": "ig34_p0065_a010", "pdf_atom_type": "SENTENCE", "pdf_source": "SDTMIG_v3.4", "pdf_page": 65, "pdf_parent_section": "§5.2 [Demographics (DM)]", "pdf_verbatim": "The Supplemental Qualifiers dataset may be used if appropriate to provide additional information.", "figure_ref": null, "candidates": [{"md_atom_id": "md_dmDM_ex_a068", "md_file": "knowledge_base/domains/DM/examples.md", "md_atom_type": "SENTENCE", "md_parent_section": "§DM.4 [Example 4]", "md_verbatim": "See the CDASH Model and Implementation Guide for additional information: https://www.cdisc.org/standards/foundational/cdash.", "score": 0.5694, "match_basis": "verbatim_token+domain_route:DM"}, {"md_atom_id": "md_dmDM_ex_a137", "md_file": "knowledge_base/domains/DM/examples.md", "md_atom_type": "SENTENCE", "md_parent_section": "§DM.6 [Example 6]", "md_verbatim": "See the CDASH Model and Implementation Guide for additional information: https://www.cdisc.org/standards/foundational/cdash.", "score": 0.5694, "match_basis": "verbatim_token+domain_route:DM"}, {"md_atom_id": "md_dmDM_ex_a184", "md_file": "knowledge_base/domains/DM/examples.md", "md_atom_type": "SENTENCE", "md_parent_section": "§DM.7 [Example 7]", "md_verbatim": "Additional fields: \"What was the other race?\" (RACEOTH → SUPPDM.QVAL where SUPPDM.QNAM = \"RACEOTH\") and \"If Unknown, please specify:\" (RACEREAS → SUPPDM.QVAL where SUPPDM.QNAM = \"RACEREAS\").", "score": 0.4933, "match_basis": "verbatim_token+domain_route:DM"}, {"md_atom_id": "md_dmDM_ex_a013", "md_file": "knowledge_base/domains/DM/examples.md", "md_atom_type": "SENTENCE", "md_parent_section": "§DM.2 [Example 2]", "md_verbatim": "**Row 1:** Subject 001 was randomized to arm \"Drug A\". As shown in the SE dataset, this subject completed the \"Drug A\" element, so their actual arm was also \"Drug A\".", "score": 0.4774, "match_basis": "verbatim_token+domain_route:DM"}, {"md_atom_id": "md_dmDM_ex_a070", "md_file": "knowledge_base/domains/DM/examples.md", "md_atom_type": "SENTENCE", "md_parent_section": "§DM.4 [Example 4]", "md_verbatim": "**Demographics Sample aCRF for Race with Additional Granularity**", "score": 0.4732, "match_basis": "verbatim_token+domain_route:DM"}], "candidate_count": 5, "zero_candidate": false}
{"pdf_atom_id": "ig34_p0065_a011", "pdf_atom_type": "LIST_ITEM", "pdf_source": "SDTMIG_v3.4", "pdf_page": 65, "pdf_parent_section": "§5.2 [Demographics (DM)]", "pdf_verbatim": "3. Concerns for subject privacy suggest caution regarding the collection of variables like BRTHDTC.", "figure_ref": null, "candidates": [{"md_atom_id": "md_dmDM_assn_a004", "md_file": "knowledge_base/domains/DM/assumptions.md", "md_atom_type": "LIST_ITEM", "md_parent_section": "§DM [DM — Assumptions]", "md_verbatim": "3. Concerns for subject privacy suggest caution regarding the collection of variables like BRTHDTC. This variable is included in the Demographics model in the event that a sponsor intends to submit it; however, sponsors should follow regulatory guidelines and guidance as appropriate.", "score": 0.6492, "match_basis": "verbatim_token+domain_route:DM"}, {"md_atom_id": "md_dmDM_assn_a006", "md_file": "knowledge_base/domains/DM/assumptions.md", "md_atom_type": "LIST_ITEM", "md_parent_section": "§DM [DM — Assumptions]", "md_verbatim": "   a. Rules for the arm-related variables:", "score": 0.4871, "match_basis": "verbatim_token+domain_route:DM"}, {"md_atom_id": "md_dmDM_assn_a021", "md_file": "knowledge_base/domains/DM/assumptions.md", "md_atom_type": "LIST_ITEM", "md_parent_section": "§DM [DM — Assumptions]", "md_verbatim": "7. RFSTDTC, RFENDTC, RFXSTDTC, RFXENDTC, RFCSTDTC, RFCENDTC, RFICDTC, RFPENDTC, DTHDTC, and BRTHDTC represent date/time values, but they are considered to have a record qualifier role in DM. They are not considered to be timing variables because they are not intended for use in the general observation classes.", "score": 0.476, "match_basis": "verbatim_token+domain_route:DM"}, {"md_atom_id": "md_dmDM_assn_a024", "md_file": "knowledge_base/domains/DM/assumptions.md", "md_atom_type": "LIST_ITEM", "md_parent_section": "§DM [DM — Assumptions]", "md_verbatim": "   b. The order of these additional variables within the domain should follow the rules as described in Section 4.1.4, Order of the Variables, and the order described in Section 4.2, General Variable Assumptions.", "score": 0.4757, "match_basis": "verbatim_token+domain_route:DM"}, {"md_atom_id": "md_dmDM_assn_a012", "md_file": "knowledge_base/domains/DM/assumptions.md", "md_atom_type": "LIST_ITEM", "md_parent_section": "§DM [DM — Assumptions]", "md_verbatim": "   c. Examples illustrating the arm-related variables", "score": 0.473, "match_basis": "verbatim_token+domain_route:DM"}], "candidate_count": 5, "zero_candidate": false}
{"pdf_atom_id": "ig34_p0065_a012", "pdf_atom_type": "SENTENCE", "pdf_source": "SDTMIG_v3.4", "pdf_page": 65, "pdf_parent_section": "§5.2 [Demographics (DM)]", "pdf_verbatim": "This variable is included in the Demographics model in the event that a sponsor intends to submit it; however, sponsors should follow regulatory guidelines and guidance as appropriate.", "figure_ref": null, "candidates": [{"md_atom_id": "md_dmDM_assn_a004", "md_file": "knowledge_base/domains/DM/assumptions.md", "md_atom_type": "LIST_ITEM", "md_parent_section": "§DM [DM — Assumptions]", "md_verbatim": "3. Concerns for subject privacy suggest caution regarding the collection of variables like BRTHDTC. This variable is included in the Demographics model in the event that a sponsor intends to submit it; however, sponsors should follow regulatory guidelines and guidance as appropriate.", "score": 0.7162, "match_basis": "verbatim_token+domain_route:DM"}, {"md_atom_id": "md_dmDM_ex_a012", "md_file": "knowledge_base/domains/DM/examples.md", "md_atom_type": "SENTENCE", "md_parent_section": "§DM.2 [Example 2]", "md_verbatim": "This example Demographics dataset does not include all the DM required and expected variables, only those that illustrate the variables that represent arm information. The following example illustrates values of ARMCD for subjects in Example Trial 1, described in Section 7.2.1, Trial Arms. This study included 2 elements, screen and run-in, before subjects were randomized to treatment. For this study, the sponsor submitted data on all subjects, including screen-failure subjects.", "score": 0.5246, "match_basis": "verbatim_token+domain_route:DM"}, {"md_atom_id": "md_dmDM_ex_a187", "md_file": "knowledge_base/domains/DM/examples.md", "md_atom_type": "SENTENCE", "md_parent_section": "§DM.7 [Example 7]", "md_verbatim": "**Row 4:** Subject could not self-identify to any of the race options including identification of an \"Other\". RACE was populated with \"UNKNOWN\" in this case.", "score": 0.4727, "match_basis": "verbatim_token+domain_route:DM"}, {"md_atom_id": "md_dmDM_ex_a067", "md_file": "knowledge_base/domains/DM/examples.md", "md_atom_type": "SENTENCE", "md_parent_section": "§DM.4 [Example 4]", "md_verbatim": "The CRF in this example is annotated to show the CDASH variable name and the target SDTMIG variable. Data that are collected using the same variable name as defined in the SDTMIG are in RED. If the CDASHIG variable differs from the one defined in the SDTMIG, the CDASHIG variable is in GREY.", "score": 0.4718, "match_basis": "verbatim_token+domain_route:DM"}, {"md_atom_id": "md_dmDM_ex_a136", "md_file": "knowledge_base/domains/DM/examples.md", "md_atom_type": "SENTENCE", "md_parent_section": "§DM.6 [Example 6]", "md_verbatim": "The CRF in this example is annotated to show the CDASH variable name and the target SDTMIG variable. Data that are collected using the same variable name as defined in the SDTMIG are in RED. If the CDASHIG variable differs from the one defined in the SDTMIG, the CDASHIG variable is in GREY.", "score": 0.4718, "match_basis": "verbatim_token+domain_route:DM"}], "candidate_count": 5, "zero_candidate": false}
{"pdf_atom_id": "ig34_p0065_a013", "pdf_atom_type": "LIST_ITEM", "pdf_source": "SDTMIG_v3.4", "pdf_page": 65, "pdf_parent_section": "§5.2 [Demographics (DM)]", "pdf_verbatim": "4. With the exception of trials that use multistage processes to assign subjects to arms described below, ARM and ACTARM must be populated with ARM values from the Trial Arms (TA) dataset and ARMCD and ACTARMCD must be populated with ARMCD values from the TA dataset or be null.", "figure_ref": null, "candidates": [{"md_atom_id": "md_dmDM_assn_a005", "md_file": "knowledge_base/domains/DM/assumptions.md", "md_atom_type": "LIST_ITEM", "md_parent_section": "§DM [DM — Assumptions]", "md_verbatim": "4. With the exception of trials that use multistage processes to assign subjects to arms as described below, ARM and ACTARM must be populated with ARM values from the Trial Arms (TA) dataset and ARMCD and ACTARMCD must be populated with ARMCD values from the TA dataset or be null. The ARM and ARMCD values in the TA dataset have a one-to-one relationship, and that one-to-one relationship must be preserved in the values used to populate ARM and ARMCD in DM, and to populate the values of ACTARM and ACTARMCD in DM.", "score": 0.892, "match_basis": "verbatim_token+domain_route:DM"}, {"md_atom_id": "md_dmDM_assn_a011", "md_file": "knowledge_base/domains/DM/assumptions.md", "md_atom_type": "LIST_ITEM", "md_parent_section": "§DM [DM — Assumptions]", "md_verbatim": "   b. Multistage assignment to treatment: Some trials use a multistage process for assigning a subject to an arm (see Section 7.2.1, Trial Arms, Example Trial 3). In such a case, best practice is to create ARMCD values composed of codes representing the results of the multiple stages of the treatment assignment process. If a subject is partially assigned, then truncated codes representing the stages completed can be used in ARMCD, and similar truncated codes can be used in ACTARMCD. The descriptions used to populate ARM and ACTARM should be similarly truncated, and the one-to-one relationship between these truncated codes should be maintained for all affected subjects in the trial. Example 3 below provides an example of this situation; see also Section 5.3, Subject Elements, Example 2. Note that this use of values not in the TA dataset is allowable only for trials with multistage assignment to arms and to subjects in those trials who do not complete all stages of the assignment.", "score": 0.5844, "match_basis": "verbatim_token+domain_route:DM"}, {"md_atom_id": "md_dmDM_assn_a008", "md_file": "knowledge_base/domains/DM/assumptions.md", "md_atom_type": "LIST_ITEM", "md_parent_section": "§DM [DM — Assumptions]", "md_verbatim": "      ii. If ACTARMCD is null, then ACTARM must be null and ARMNRS must be populated with the reason ACTARMCD is null. Both ARMCD and ACTARMCD will be null for subjects who were not assigned to treatment. The same reason will provide the reason that both are null.", "score": 0.5789, "match_basis": "verbatim_token+domain_route:DM"}, {"md_atom_id": "md_dmDM_assn_a009", "md_file": "knowledge_base/domains/DM/assumptions.md", "md_atom_type": "LIST_ITEM", "md_parent_section": "§DM [DM — Assumptions]", "md_verbatim": "      iii. ARMNRS may not be populated if both ARMCD and ACTARMCD are populated. ARMCD and ACTARMCD will be populated if the subject was assigned to an arm and received treatment consistent with 1 of the arms in the TA dataset. If ARMCD and ACTARMCD are not the same, that is sufficient to explain the situation; ARMNRS should not be populated.", "score": 0.5609, "match_basis": "verbatim_token+domain_route:DM"}, {"md_atom_id": "md_dmDM_assn_a014", "md_file": "knowledge_base/domains/DM/assumptions.md", "md_atom_type": "LIST_ITEM", "md_parent_section": "§DM [DM — Assumptions]", "md_verbatim": "      ii. The Subject Elements (SE) dataset records the series of elements a subject passed through in the course of a trial, and these determine the value of ACTARMCD. The following examples include sample data for both datasets to illustrate this relationship.", "score": 0.5247, "match_basis": "verbatim_token+domain_route:DM"}], "candidate_count": 5, "zero_candidate": false}
{"pdf_atom_id": "ig34_p0065_a014", "pdf_atom_type": "SENTENCE", "pdf_source": "SDTMIG_v3.4", "pdf_page": 65, "pdf_parent_section": "§5.2 [Demographics (DM)]", "pdf_verbatim": "The ARM and ARMCD values in the TA dataset have a one-to-one relationship, and that one-to-one relationship must be preserved in the values used to populate ARM and ARMCD in DM, and to populate the values of ACTARM and ACTARMCD in DM.", "figure_ref": null, "candidates": [{"md_atom_id": "md_dmDM_assn_a005", "md_file": "knowledge_base/domains/DM/assumptions.md", "md_atom_type": "LIST_ITEM", "md_parent_section": "§DM [DM — Assumptions]", "md_verbatim": "4. With the exception of trials that use multistage processes to assign subjects to arms as described below, ARM and ACTARM must be populated with ARM values from the Trial Arms (TA) dataset and ARMCD and ACTARMCD must be populated with ARMCD values from the TA dataset or be null. The ARM and ARMCD values in the TA dataset have a one-to-one relationship, and that one-to-one relationship must be preserved in the values used to populate ARM and ARMCD in DM, and to populate the values of ACTARM and ACTARMCD in DM.", "score": 0.598, "match_basis": "verbatim_token+domain_route:DM"}, {"md_atom_id": "md_dmDM_ex_a045", "md_file": "knowledge_base/domains/DM/examples.md", "md_atom_type": "SENTENCE", "md_parent_section": "§DM.3 [Example 3]", "md_verbatim": "**Row 2:** Subject 002 was randomized to drug A. They were lost to follow-up during the double-blind treatment epoch, so never reached the open label epoch, when they would have been assigned to either drug A or the rescue element. Their ARMCD is \"A\". This case illustrates the exception to the rule that ARMCD, ARM, ACTARMCD, and ACTARM must be populated with values from the TA dataset.", "score": 0.5263, "match_basis": "verbatim_token+domain_route:DM"}, {"md_atom_id": "md_dmDM_ex_a014", "md_file": "knowledge_base/domains/DM/examples.md", "md_atom_type": "SENTENCE", "md_parent_section": "§DM.2 [Example 2]", "md_verbatim": "**Row 2:** Subject 002 was randomized to arm \"Drug B\". As shown in the SE dataset, their actual arm was consistent with their randomization.", "score": 0.4929, "match_basis": "verbatim_token+domain_route:DM"}, {"md_atom_id": "md_dmDM_ex_a186", "md_file": "knowledge_base/domains/DM/examples.md", "md_atom_type": "SENTENCE", "md_parent_section": "§DM.7 [Example 7]", "md_verbatim": "**Row 3:** Subject did not self-identify to 1 of the existing race options and selected \"Other\". RACE was populated with \"OTHER\" in this case.", "score": 0.4837, "match_basis": "verbatim_token+domain_route:DM"}, {"md_atom_id": "md_dmDM_ex_a052", "md_file": "knowledge_base/domains/DM/examples.md", "md_atom_type": "SENTENCE", "md_parent_section": "§DM.3 [Example 3]", "md_verbatim": "The following example illustrates values of ARMCD for subjects in Example Trial 3, described in Section 7.2.1, Trial Arms.", "score": 0.4828, "match_basis": "verbatim_token+domain_route:DM"}], "candidate_count": 5, "zero_candidate": false}
{"pdf_atom_id": "ig34_p0065_a015", "pdf_atom_type": "LIST_ITEM", "pdf_source": "SDTMIG_v3.4", "pdf_page": 65, "pdf_parent_section": "§5.2 [Demographics (DM)]", "pdf_verbatim": "a. Rules for the arm-related variables:", "figure_ref": null, "candidates": [{"md_atom_id": "md_dmDM_assn_a006", "md_file": "knowledge_base/domains/DM/assumptions.md", "md_atom_type": "LIST_ITEM", "md_parent_section": "§DM [DM — Assumptions]", "md_verbatim": "   a. Rules for the arm-related variables:", "score": 1.0, "match_basis": "verbatim_token+domain_route:DM"}, {"md_atom_id": "md_dmDM_assn_a012", "md_file": "knowledge_base/domains/DM/assumptions.md", "md_atom_type": "LIST_ITEM", "md_parent_section": "§DM [DM — Assumptions]", "md_verbatim": "   c. Examples illustrating the arm-related variables", "score": 0.6625, "match_basis": "verbatim_token+domain_route:DM"}, {"md_atom_id": "md_dmDM_assn_a024", "md_file": "knowledge_base/domains/DM/assumptions.md", "md_atom_type": "LIST_ITEM", "md_parent_section": "§DM [DM — Assumptions]", "md_verbatim": "   b. The order of these additional variables within the domain should follow the rules as described in Section 4.1.4, Order of the Variables, and the order described in Section 4.2, General Variable Assumptions.", "score": 0.487, "match_basis": "verbatim_token+domain_route:DM"}, {"md_atom_id": "md_dmDM_assn_a022", "md_file": "knowledge_base/domains/DM/assumptions.md", "md_atom_type": "LIST_ITEM", "md_parent_section": "§DM [DM — Assumptions]", "md_verbatim": "8. Additional permissible identifier, qualifier, and timing variables:", "score": 0.484, "match_basis": "verbatim_token+domain_route:DM"}, {"md_atom_id": "md_dmDM_assn_a007", "md_file": "knowledge_base/domains/DM/assumptions.md", "md_atom_type": "LIST_ITEM", "md_parent_section": "§DM [DM — Assumptions]", "md_verbatim": "      i. If ARMCD is null, then ARM must be null and ARMNRS must be populated with the reason ARMCD is null.", "score": 0.4789, "match_basis": "verbatim_token+domain_route:DM"}], "candidate_count": 5, "zero_candidate": false}
{"pdf_atom_id": "ig34_p0065_a016", "pdf_atom_type": "LIST_ITEM", "pdf_source": "SDTMIG_v3.4", "pdf_page": 65, "pdf_parent_section": "§5.2 [Demographics (DM)]", "pdf_verbatim": "i. If ARMCD is null, then ARM must be null and ARMNRS must be populated with the reason ARMCD is null.", "figure_ref": null, "candidates": [{"md_atom_id": "md_dmDM_assn_a007", "md_file": "knowledge_base/domains/DM/assumptions.md", "md_atom_type": "LIST_ITEM", "md_parent_section": "§DM [DM — Assumptions]", "md_verbatim": "      i. If ARMCD is null, then ARM must be null and ARMNRS must be populated with the reason ARMCD is null.", "score": 1.0, "match_basis": "verbatim_token+domain_route:DM"}, {"md_atom_id": "md_dmDM_assn_a008", "md_file": "knowledge_base/domains/DM/assumptions.md", "md_atom_type": "LIST_ITEM", "md_parent_section": "§DM [DM — Assumptions]", "md_verbatim": "      ii. If ACTARMCD is null, then ACTARM must be null and ARMNRS must be populated with the reason ACTARMCD is null. Both ARMCD and ACTARMCD will be null for subjects who were not assigned to treatment. The same reason will provide the reason that both are null.", "score": 0.6364, "match_basis": "verbatim_token+domain_route:DM"}, {"md_atom_id": "md_dmDM_assn_a010", "md_file": "knowledge_base/domains/DM/assumptions.md", "md_atom_type": "LIST_ITEM", "md_parent_section": "§DM [DM — Assumptions]", "md_verbatim": "      iv. If ARMNRS is populated with \"UNPLANNED TREATMENT\", ACTARMUD should be populated with a description of the unplanned treatment received.", "score": 0.5429, "match_basis": "verbatim_token+domain_route:DM"}, {"md_atom_id": "md_dmDM_assn_a009", "md_file": "knowledge_base/domains/DM/assumptions.md", "md_atom_type": "LIST_ITEM", "md_parent_section": "§DM [DM — Assumptions]", "md_verbatim": "      iii. ARMNRS may not be populated if both ARMCD and ACTARMCD are populated. ARMCD and ACTARMCD will be populated if the subject was assigned to an arm and received treatment consistent with 1 of the arms in the TA dataset. If ARMCD and ACTARMCD are not the same, that is sufficient to explain the situation; ARMNRS should not be populated.", "score": 0.5069, "match_basis": "verbatim_token+domain_route:DM"}, {"md_atom_id": "md_dmDM_assn_a005", "md_file": "knowledge_base/domains/DM/assumptions.md", "md_atom_type": "LIST_ITEM", "md_parent_section": "§DM [DM — Assumptions]", "md_verbatim": "4. With the exception of trials that use multistage processes to assign subjects to arms as described below, ARM and ACTARM must be populated with ARM values from the Trial Arms (TA) dataset and ARMCD and ACTARMCD must be populated with ARMCD values from the TA dataset or be null. The ARM and ARMCD values in the TA dataset have a one-to-one relationship, and that one-to-one relationship must be preserved in the values used to populate ARM and ARMCD in DM, and to populate the values of ACTARM and ACTARMCD in DM.", "score": 0.5, "match_basis": "verbatim_token+domain_route:DM"}], "candidate_count": 5, "zero_candidate": false}
{"pdf_atom_id": "ig34_p0065_a017", "pdf_atom_type": "LIST_ITEM", "pdf_source": "SDTMIG_v3.4", "pdf_page": 65, "pdf_parent_section": "§5.2 [Demographics (DM)]", "pdf_verbatim": "ii. If ACTARMCD is null, then ACTARM must be null and ARMNRS must be populated with the reason ACTARMCD is null. Both ARMCD and ACTARMCD will be null for subjects who were not assigned to treatment. The same reason will provide the reason that both are null.", "figure_ref": null, "candidates": [{"md_atom_id": "md_dmDM_assn_a008", "md_file": "knowledge_base/domains/DM/assumptions.md", "md_atom_type": "LIST_ITEM", "md_parent_section": "§DM [DM — Assumptions]", "md_verbatim": "      ii. If ACTARMCD is null, then ACTARM must be null and ARMNRS must be populated with the reason ACTARMCD is null. Both ARMCD and ACTARMCD will be null for subjects who were not assigned to treatment. The same reason will provide the reason that both are null.", "score": 1.0, "match_basis": "verbatim_token+domain_route:DM"}, {"md_atom_id": "md_dmDM_assn_a009", "md_file": "knowledge_base/domains/DM/assumptions.md", "md_atom_type": "LIST_ITEM", "md_parent_section": "§DM [DM — Assumptions]", "md_verbatim": "      iii. ARMNRS may not be populated if both ARMCD and ACTARMCD are populated. ARMCD and ACTARMCD will be populated if the subject was assigned to an arm and received treatment consistent with 1 of the arms in the TA dataset. If ARMCD and ACTARMCD are not the same, that is sufficient to explain the situation; ARMNRS should not be populated.", "score": 0.6595, "match_basis": "verbatim_token+domain_route:DM"}, {"md_atom_id": "md_dmDM_assn_a007", "md_file": "knowledge_base/domains/DM/assumptions.md", "md_atom_type": "LIST_ITEM", "md_parent_section": "§DM [DM — Assumptions]", "md_verbatim": "      i. If ARMCD is null, then ARM must be null and ARMNRS must be populated with the reason ARMCD is null.", "score": 0.6364, "match_basis": "verbatim_token+domain_route:DM"}, {"md_atom_id": "md_dmDM_assn_a016", "md_file": "knowledge_base/domains/DM/assumptions.md", "md_atom_type": "LIST_ITEM", "md_parent_section": "§DM [DM — Assumptions]", "md_verbatim": "         2. Section 5.3, Subject Elements, Example 1 illustrates a situation for a subject who received a treatment that was not the one to which they were assigned.", "score": 0.5706, "match_basis": "verbatim_token+domain_route:DM"}, {"md_atom_id": "md_dmDM_assn_a010", "md_file": "knowledge_base/domains/DM/assumptions.md", "md_atom_type": "LIST_ITEM", "md_parent_section": "§DM [DM — Assumptions]", "md_verbatim": "      iv. If ARMNRS is populated with \"UNPLANNED TREATMENT\", ACTARMUD should be populated with a description of the unplanned treatment received.", "score": 0.5613, "match_basis": "verbatim_token+domain_route:DM"}], "candidate_count": 5, "zero_candidate": false}
{"pdf_atom_id": "ig34_p0065_a018", "pdf_atom_type": "LIST_ITEM", "pdf_source": "SDTMIG_v3.4", "pdf_page": 65, "pdf_parent_section": "§5.2 [Demographics (DM)]", "pdf_verbatim": "iii. ARMNRS may not be populated if both ARMCD and ACTARMCD are populated. ARMCD and ACTARMCD will be populated if the subject was assigned to an arm and received treatment consistent with 1 of the arms in the TA dataset. If ARMCD and ACTARMCD are not the same, that is sufficient to explain the situation; ARMNRS should not be populated.", "figure_ref": null, "candidates": [{"md_atom_id": "md_dmDM_assn_a009", "md_file": "knowledge_base/domains/DM/assumptions.md", "md_atom_type": "LIST_ITEM", "md_parent_section": "§DM [DM — Assumptions]", "md_verbatim": "      iii. ARMNRS may not be populated if both ARMCD and ACTARMCD are populated. ARMCD and ACTARMCD will be populated if the subject was assigned to an arm and received treatment consistent with 1 of the arms in the TA dataset. If ARMCD and ACTARMCD are not the same, that is sufficient to explain the situation; ARMNRS should not be populated.", "score": 1.0, "match_basis": "verbatim_token+domain_route:DM"}, {"md_atom_id": "md_dmDM_assn_a008", "md_file": "knowledge_base/domains/DM/assumptions.md", "md_atom_type": "LIST_ITEM", "md_parent_section": "§DM [DM — Assumptions]", "md_verbatim": "      ii. If ACTARMCD is null, then ACTARM must be null and ARMNRS must be populated with the reason ACTARMCD is null. Both ARMCD and ACTARMCD will be null for subjects who were not assigned to treatment. The same reason will provide the reason that both are null.", "score": 0.6595, "match_basis": "verbatim_token+domain_route:DM"}, {"md_atom_id": "md_dmDM_assn_a010", "md_file": "knowledge_base/domains/DM/assumptions.md", "md_atom_type": "LIST_ITEM", "md_parent_section": "§DM [DM — Assumptions]", "md_verbatim": "      iv. If ARMNRS is populated with \"UNPLANNED TREATMENT\", ACTARMUD should be populated with a description of the unplanned treatment received.", "score": 0.6131, "match_basis": "verbatim_token+domain_route:DM"}, {"md_atom_id": "md_dmDM_assn_a016", "md_file": "knowledge_base/domains/DM/assumptions.md", "md_atom_type": "LIST_ITEM", "md_parent_section": "§DM [DM — Assumptions]", "md_verbatim": "         2. Section 5.3, Subject Elements, Example 1 illustrates a situation for a subject who received a treatment that was not the one to which they were assigned.", "score": 0.59, "match_basis": "verbatim_token+domain_route:DM"}, {"md_atom_id": "md_dmDM_assn_a017", "md_file": "knowledge_base/domains/DM/assumptions.md", "md_atom_type": "LIST_ITEM", "md_parent_section": "§DM [DM — Assumptions]", "md_verbatim": "         3. Section 5.3, Subject Elements, Example 2 illustrates a situation in which a subject received a set of treatments different from that for any of the planned arms.", "score": 0.5654, "match_basis": "verbatim_token+domain_route:DM"}], "candidate_count": 5, "zero_candidate": false}
{"pdf_atom_id": "ig34_p0065_a019", "pdf_atom_type": "LIST_ITEM", "pdf_source": "SDTMIG_v3.4", "pdf_page": 65, "pdf_parent_section": "§5.2 [Demographics (DM)]", "pdf_verbatim": "iv. If ARMNRS is populated with \"UNPLANNED TREATMENT\", ACTARMUD should be populated with a description of the unplanned treatment received.", "figure_ref": null, "candidates": [{"md_atom_id": "md_dmDM_assn_a010", "md_file": "knowledge_base/domains/DM/assumptions.md", "md_atom_type": "LIST_ITEM", "md_parent_section": "§DM [DM — Assumptions]", "md_verbatim": "      iv. If ARMNRS is populated with \"UNPLANNED TREATMENT\", ACTARMUD should be populated with a description of the unplanned treatment received.", "score": 1.0, "match_basis": "verbatim_token+domain_route:DM"}, {"md_atom_id": "md_dmDM_assn_a009", "md_file": "knowledge_base/domains/DM/assumptions.md", "md_atom_type": "LIST_ITEM", "md_parent_section": "§DM [DM — Assumptions]", "md_verbatim": "      iii. ARMNRS may not be populated if both ARMCD and ACTARMCD are populated. ARMCD and ACTARMCD will be populated if the subject was assigned to an arm and received treatment consistent with 1 of the arms in the TA dataset. If ARMCD and ACTARMCD are not the same, that is sufficient to explain the situation; ARMNRS should not be populated.", "score": 0.6131, "match_basis": "verbatim_token+domain_route:DM"}, {"md_atom_id": "md_dmDM_assn_a008", "md_file": "knowledge_base/domains/DM/assumptions.md", "md_atom_type": "LIST_ITEM", "md_parent_section": "§DM [DM — Assumptions]", "md_verbatim": "      ii. If ACTARMCD is null, then ACTARM must be null and ARMNRS must be populated with the reason ACTARMCD is null. Both ARMCD and ACTARMCD will be null for subjects who were not assigned to treatment. The same reason will provide the reason that both are null.", "score": 0.5613, "match_basis": "verbatim_token+domain_route:DM"}, {"md_atom_id": "md_dmDM_assn_a007", "md_file": "knowledge_base/domains/DM/assumptions.md", "md_atom_type": "LIST_ITEM", "md_parent_section": "§DM [DM — Assumptions]", "md_verbatim": "      i. If ARMCD is null, then ARM must be null and ARMNRS must be populated with the reason ARMCD is null.", "score": 0.5429, "match_basis": "verbatim_token+domain_route:DM"}, {"md_atom_id": "md_dmDM_assn_a017", "md_file": "knowledge_base/domains/DM/assumptions.md", "md_atom_type": "LIST_ITEM", "md_parent_section": "§DM [DM — Assumptions]", "md_verbatim": "         3. Section 5.3, Subject Elements, Example 2 illustrates a situation in which a subject received a set of treatments different from that for any of the planned arms.", "score": 0.5408, "match_basis": "verbatim_token+domain_route:DM"}], "candidate_count": 5, "zero_candidate": false}
{"pdf_atom_id": "ig34_p0065_a020", "pdf_atom_type": "CODE_LITERAL", "pdf_source": "SDTMIG_v3.4", "pdf_page": 65, "pdf_parent_section": "§5.2 [Demographics (DM)]", "pdf_verbatim": "\"UNPLANNED TREATMENT\"", "figure_ref": null, "candidates": [{"md_atom_id": "md_dmDM_ex_a059", "md_file": "knowledge_base/domains/DM/examples.md", "md_atom_type": "TABLE_ROW", "md_parent_section": "§DM.3 [Example 3]", "md_verbatim": "| 2 | DEF | SE | 001 | 2 | DBA | Treatment A | 2006-01-12 | 2006-04-10 |", "score": 0.4111, "match_basis": "verbatim_token+domain_route:DM"}, {"md_atom_id": "md_dmDM_ex_a062", "md_file": "knowledge_base/domains/DM/examples.md", "md_atom_type": "TABLE_ROW", "md_parent_section": "§DM.3 [Example 3]", "md_verbatim": "| 5 | DEF | SE | 002 | 2 | DBA | Treatment A | 2006-02-10 | 2006-03-24 |", "score": 0.4111, "match_basis": "verbatim_token+domain_route:DM"}, {"md_atom_id": "md_dmDM_ex_a064", "md_file": "knowledge_base/domains/DM/examples.md", "md_atom_type": "TABLE_ROW", "md_parent_section": "§DM.3 [Example 3]", "md_verbatim": "| 7 | DEF | SE | 003 | 2 | DBB | Treatment B | 2006-03-01 | 2006-06-27 |", "score": 0.4111, "match_basis": "verbatim_token+domain_route:DM"}, {"md_atom_id": "md_dmDM_assn_a010", "md_file": "knowledge_base/domains/DM/assumptions.md", "md_atom_type": "LIST_ITEM", "md_parent_section": "§DM [DM — Assumptions]", "md_verbatim": "      iv. If ARMNRS is populated with \"UNPLANNED TREATMENT\", ACTARMUD should be populated with a description of the unplanned treatment received.", "score": 0.3515, "match_basis": "verbatim_token+domain_route:DM"}, {"md_atom_id": "md_dmDM_assn_a017", "md_file": "knowledge_base/domains/DM/assumptions.md", "md_atom_type": "LIST_ITEM", "md_parent_section": "§DM [DM — Assumptions]", "md_verbatim": "         3. Section 5.3, Subject Elements, Example 2 illustrates a situation in which a subject received a set of treatments different from that for any of the planned arms.", "score": 0.2914, "match_basis": "verbatim_token+domain_route:DM"}], "candidate_count": 5, "zero_candidate": false}
{"pdf_atom_id": "ig34_p0065_a021", "pdf_atom_type": "LIST_ITEM", "pdf_source": "SDTMIG_v3.4", "pdf_page": 65, "pdf_parent_section": "§5.2 [Demographics (DM)]", "pdf_verbatim": "b. Multistage assignment to treatment: Some trials use a multistage process for assigning a subject to an arm (see Section 7.2.1, Trial Arms, Example Trial 3).", "figure_ref": null, "candidates": [{"md_atom_id": "md_dmDM_assn_a016", "md_file": "knowledge_base/domains/DM/assumptions.md", "md_atom_type": "LIST_ITEM", "md_parent_section": "§DM [DM — Assumptions]", "md_verbatim": "         2. Section 5.3, Subject Elements, Example 1 illustrates a situation for a subject who received a treatment that was not the one to which they were assigned.", "score": 0.5677, "match_basis": "verbatim_token+domain_route:DM"}, {"md_atom_id": "md_dmDM_assn_a011", "md_file": "knowledge_base/domains/DM/assumptions.md", "md_atom_type": "LIST_ITEM", "md_parent_section": "§DM [DM — Assumptions]", "md_verbatim": "   b. Multistage assignment to treatment: Some trials use a multistage process for assigning a subject to an arm (see Section 7.2.1, Trial Arms, Example Trial 3). In such a case, best practice is to create ARMCD values composed of codes representing the results of the multiple stages of the treatment assignment process. If a subject is partially assigned, then truncated codes representing the stages completed can be used in ARMCD, and similar truncated codes can be used in ACTARMCD. The descriptions used to populate ARM and ACTARM should be similarly truncated, and the one-to-one relationship between these truncated codes should be maintained for all affected subjects in the trial. Example 3 below provides an example of this situation; see also Section 5.3, Subject Elements, Example 2. Note that this use of values not in the TA dataset is allowable only for trials with multistage assignment to arms and to subjects in those trials who do not complete all stages of the assignment.", "score": 0.5596, "match_basis": "verbatim_token+domain_route:DM"}, {"md_atom_id": "md_dmDM_assn_a005", "md_file": "knowledge_base/domains/DM/assumptions.md", "md_atom_type": "LIST_ITEM", "md_parent_section": "§DM [DM — Assumptions]", "md_verbatim": "4. With the exception of trials that use multistage processes to assign subjects to arms as described below, ARM and ACTARM must be populated with ARM values from the Trial Arms (TA) dataset and ARMCD and ACTARMCD must be populated with ARMCD values from the TA dataset or be null. The ARM and ARMCD values in the TA dataset have a one-to-one relationship, and that one-to-one relationship must be preserved in the values used to populate ARM and ARMCD in DM, and to populate the values of ACTARM and ACTARMCD in DM.", "score": 0.5512, "match_basis": "verbatim_token+domain_route:DM"}, {"md_atom_id": "md_dmDM_assn_a017", "md_file": "knowledge_base/domains/DM/assumptions.md", "md_atom_type": "LIST_ITEM", "md_parent_section": "§DM [DM — Assumptions]", "md_verbatim": "         3. Section 5.3, Subject Elements, Example 2 illustrates a situation in which a subject received a set of treatments different from that for any of the planned arms.", "score": 0.5455, "match_basis": "verbatim_token+domain_route:DM"}, {"md_atom_id": "md_dmDM_assn_a015", "md_file": "knowledge_base/domains/DM/assumptions.md", "md_atom_type": "LIST_ITEM", "md_parent_section": "§DM [DM — Assumptions]", "md_verbatim": "         1. Example 2 below shows how subjects who started the trial but were never assigned to an arm would be handled.", "score": 0.5373, "match_basis": "verbatim_token+domain_route:DM"}], "candidate_count": 5, "zero_candidate": false}
{"pdf_atom_id": "ig34_p0065_a022", "pdf_atom_type": "CROSS_REF", "pdf_source": "SDTMIG_v3.4", "pdf_page": 65, "pdf_parent_section": "§5.2 [Demographics (DM)]", "pdf_verbatim": "See Section 7.2.1, Trial Arms, Example Trial 3", "figure_ref": null, "candidates": [{"md_atom_id": "md_dmDM_ex_a002", "md_file": "knowledge_base/domains/DM/examples.md", "md_atom_type": "HEADING", "md_parent_section": "§DM [DM — Examples]", "md_verbatim": "## Example 1", "score": 0.3775, "match_basis": "verbatim_token+domain_route:DM"}, {"md_atom_id": "md_dmDM_ex_a011", "md_file": "knowledge_base/domains/DM/examples.md", "md_atom_type": "HEADING", "md_parent_section": "§DM [DM — Examples]", "md_verbatim": "## Example 2", "score": 0.3775, "match_basis": "verbatim_token+domain_route:DM"}, {"md_atom_id": "md_dmDM_ex_a043", "md_file": "knowledge_base/domains/DM/examples.md", "md_atom_type": "HEADING", "md_parent_section": "§DM [DM — Examples]", "md_verbatim": "## Example 3", "score": 0.3775, "match_basis": "verbatim_token+domain_route:DM"}, {"md_atom_id": "md_dmDM_ex_a066", "md_file": "knowledge_base/domains/DM/examples.md", "md_atom_type": "HEADING", "md_parent_section": "§DM [DM — Examples]", "md_verbatim": "## Example 4", "score": 0.3775, "match_basis": "verbatim_token+domain_route:DM"}, {"md_atom_id": "md_dmDM_ex_a117", "md_file": "knowledge_base/domains/DM/examples.md", "md_atom_type": "HEADING", "md_parent_section": "§DM [DM — Examples]", "md_verbatim": "## Example 5", "score": 0.3775, "match_basis": "verbatim_token+domain_route:DM"}], "candidate_count": 5, "zero_candidate": false}
{"pdf_atom_id": "ig34_p0065_a023", "pdf_atom_type": "SENTENCE", "pdf_source": "SDTMIG_v3.4", "pdf_page": 65, "pdf_parent_section": "§5.2 [Demographics (DM)]", "pdf_verbatim": "In such a case, best practice is to create ARMCD values composed of codes representing the results of the multiple stages of the treatment assignment process.", "figure_ref": null, "candidates": [{"md_atom_id": "md_dmDM_ex_a101", "md_file": "knowledge_base/domains/DM/examples.md", "md_atom_type": "SENTENCE", "md_parent_section": "§DM.4 [Example 4]", "md_verbatim": "**Row 3:** Shows that USUBJID ABC789-010-047 designated multiple races as the values that best describe their race. \"MULTIPLE\" is assigned in RACE.", "score": 0.5235, "match_basis": "verbatim_token+domain_route:DM"}, {"md_atom_id": "md_dmDM_assn_a011", "md_file": "knowledge_base/domains/DM/assumptions.md", "md_atom_type": "LIST_ITEM", "md_parent_section": "§DM [DM — Assumptions]", "md_verbatim": "   b. Multistage assignment to treatment: Some trials use a multistage process for assigning a subject to an arm (see Section 7.2.1, Trial Arms, Example Trial 3). In such a case, best practice is to create ARMCD values composed of codes representing the results of the multiple stages of the treatment assignment process. If a subject is partially assigned, then truncated codes representing the stages completed can be used in ARMCD, and similar truncated codes can be used in ACTARMCD. The descriptions used to populate ARM and ACTARM should be similarly truncated, and the one-to-one relationship between these truncated codes should be maintained for all affected subjects in the trial. Example 3 below provides an example of this situation; see also Section 5.3, Subject Elements, Example 2. Note that this use of values not in the TA dataset is allowable only for trials with multistage assignment to arms and to subjects in those trials who do not complete all stages of the assignment.", "score": 0.5199, "match_basis": "verbatim_token+domain_route:DM"}, {"md_atom_id": "md_dmDM_ex_a046", "md_file": "knowledge_base/domains/DM/examples.md", "md_atom_type": "SENTENCE", "md_parent_section": "§DM.3 [Example 3]", "md_verbatim": "**Row 3:** Subject \"003\" was randomized to drug A, but received drug B. At the end of the double-blind treatment epoch, they were assigned to rescue treatment. ARMCD shows the result of their assignments, \"AR\"; ACTARMCD shows their actual treatment, \"BR\".", "score": 0.5048, "match_basis": "verbatim_token+domain_route:DM"}, {"md_atom_id": "md_dmDM_ex_a098", "md_file": "knowledge_base/domains/DM/examples.md", "md_atom_type": "SENTENCE", "md_parent_section": "§DM.4 [Example 4]", "md_verbatim": "The value of RACE is used to represent the high-level racial designation as a single collected value per CDISC Controlled Terminology in dm.xpt. When more than 1 choice is selected, the value is represented with \"MULTIPLE\" as shown in this example. **Note:** Only those variables relevant to this example are shown.", "score": 0.4949, "match_basis": "verbatim_token+domain_route:DM"}, {"md_atom_id": "md_dmDM_ex_a154", "md_file": "knowledge_base/domains/DM/examples.md", "md_atom_type": "SENTENCE", "md_parent_section": "§DM.6 [Example 6]", "md_verbatim": "The value of RACE is used to represent the high-level racial designation as a single collected value per CDISC Controlled Terminology in dm.xpt. In this example, subjects chose to select 1 high-level racial designation.", "score": 0.4864, "match_basis": "verbatim_token+domain_route:DM"}], "candidate_count": 5, "zero_candidate": false}
{"pdf_atom_id": "ig34_p0065_a024", "pdf_atom_type": "SENTENCE", "pdf_source": "SDTMIG_v3.4", "pdf_page": 65, "pdf_parent_section": "§5.2 [Demographics (DM)]", "pdf_verbatim": "If a subject is partially assigned, then truncated codes representing the stages completed can be used in ARMCD, and similar truncated codes can be used in ACTARMCD.", "figure_ref": null, "candidates": [{"md_atom_id": "md_dmDM_ex_a025", "md_file": "knowledge_base/domains/DM/examples.md", "md_atom_type": "SENTENCE", "md_parent_section": "§DM.2 [Example 2]", "md_verbatim": "**Rows 1-3:** Subject 001 completed all the elements for arm A.", "score": 0.5297, "match_basis": "verbatim_token+domain_route:DM"}, {"md_atom_id": "md_dmDM_ex_a026", "md_file": "knowledge_base/domains/DM/examples.md", "md_atom_type": "SENTENCE", "md_parent_section": "§DM.2 [Example 2]", "md_verbatim": "**Rows 4-6:** Subject 002 completed all the elements for arm B.", "score": 0.5297, "match_basis": "verbatim_token+domain_route:DM"}, {"md_atom_id": "md_dmDM_ex_a154", "md_file": "knowledge_base/domains/DM/examples.md", "md_atom_type": "SENTENCE", "md_parent_section": "§DM.6 [Example 6]", "md_verbatim": "The value of RACE is used to represent the high-level racial designation as a single collected value per CDISC Controlled Terminology in dm.xpt. In this example, subjects chose to select 1 high-level racial designation.", "score": 0.5131, "match_basis": "verbatim_token+domain_route:DM"}, {"md_atom_id": "md_dmDM_ex_a046", "md_file": "knowledge_base/domains/DM/examples.md", "md_atom_type": "SENTENCE", "md_parent_section": "§DM.3 [Example 3]", "md_verbatim": "**Row 3:** Subject \"003\" was randomized to drug A, but received drug B. At the end of the double-blind treatment epoch, they were assigned to rescue treatment. ARMCD shows the result of their assignments, \"AR\"; ACTARMCD shows their actual treatment, \"BR\".", "score": 0.5041, "match_basis": "verbatim_token+domain_route:DM"}, {"md_atom_id": "md_dmDM_ex_a013", "md_file": "knowledge_base/domains/DM/examples.md", "md_atom_type": "SENTENCE", "md_parent_section": "§DM.2 [Example 2]", "md_verbatim": "**Row 1:** Subject 001 was randomized to arm \"Drug A\". As shown in the SE dataset, this subject completed the \"Drug A\" element, so their actual arm was also \"Drug A\".", "score": 0.5041, "match_basis": "verbatim_token+domain_route:DM"}], "candidate_count": 5, "zero_candidate": false}
{"pdf_atom_id": "ig34_p0065_a025", "pdf_atom_type": "SENTENCE", "pdf_source": "SDTMIG_v3.4", "pdf_page": 65, "pdf_parent_section": "§5.2 [Demographics (DM)]", "pdf_verbatim": "The descriptions used to populate ARM and ACTARM should be similarly truncated, and the one-to-one relationship between these truncated codes should be maintained for all affected subjects in the trial.", "figure_ref": null, "candidates": [{"md_atom_id": "md_dmDM_assn_a011", "md_file": "knowledge_base/domains/DM/assumptions.md", "md_atom_type": "LIST_ITEM", "md_parent_section": "§DM [DM — Assumptions]", "md_verbatim": "   b. Multistage assignment to treatment: Some trials use a multistage process for assigning a subject to an arm (see Section 7.2.1, Trial Arms, Example Trial 3). In such a case, best practice is to create ARMCD values composed of codes representing the results of the multiple stages of the treatment assignment process. If a subject is partially assigned, then truncated codes representing the stages completed can be used in ARMCD, and similar truncated codes can be used in ACTARMCD. The descriptions used to populate ARM and ACTARM should be similarly truncated, and the one-to-one relationship between these truncated codes should be maintained for all affected subjects in the trial. Example 3 below provides an example of this situation; see also Section 5.3, Subject Elements, Example 2. Note that this use of values not in the TA dataset is allowable only for trials with multistage assignment to arms and to subjects in those trials who do not complete all stages of the assignment.", "score": 0.5435, "match_basis": "verbatim_token+domain_route:DM"}, {"md_atom_id": "md_dmDM_ex_a187", "md_file": "knowledge_base/domains/DM/examples.md", "md_atom_type": "SENTENCE", "md_parent_section": "§DM.7 [Example 7]", "md_verbatim": "**Row 4:** Subject could not self-identify to any of the race options including identification of an \"Other\". RACE was populated with \"UNKNOWN\" in this case.", "score": 0.5068, "match_basis": "verbatim_token+domain_route:DM"}, {"md_atom_id": "md_dmDM_ex_a186", "md_file": "knowledge_base/domains/DM/examples.md", "md_atom_type": "SENTENCE", "md_parent_section": "§DM.7 [Example 7]", "md_verbatim": "**Row 3:** Subject did not self-identify to 1 of the existing race options and selected \"Other\". RACE was populated with \"OTHER\" in this case.", "score": 0.5036, "match_basis": "verbatim_token+domain_route:DM"}, {"md_atom_id": "md_dmDM_ex_a052", "md_file": "knowledge_base/domains/DM/examples.md", "md_atom_type": "SENTENCE", "md_parent_section": "§DM.3 [Example 3]", "md_verbatim": "The following example illustrates values of ARMCD for subjects in Example Trial 3, described in Section 7.2.1, Trial Arms.", "score": 0.5027, "match_basis": "verbatim_token+domain_route:DM"}, {"md_atom_id": "md_dmDM_ex_a017", "md_file": "knowledge_base/domains/DM/examples.md", "md_atom_type": "SENTENCE", "md_parent_section": "§DM.2 [Example 2]", "md_verbatim": "**Row 5:** Subject 005 was randomized but dropped out before being treated. Thus, the actual arm variables are not populated and ARMNRS=\"ASSIGNED, NOT TREATED\".", "score": 0.4905, "match_basis": "verbatim_token+domain_route:DM"}], "candidate_count": 5, "zero_candidate": false}
{"pdf_atom_id": "ig34_p0065_a026", "pdf_atom_type": "SENTENCE", "pdf_source": "SDTMIG_v3.4", "pdf_page": 65, "pdf_parent_section": "§5.2 [Demographics (DM)]", "pdf_verbatim": "Example 3 below provides an example of this situation; see also Section 5.3, Subject Elements, Example 2.", "figure_ref": null, "candidates": [{"md_atom_id": "md_dmDM_ex_a025", "md_file": "knowledge_base/domains/DM/examples.md", "md_atom_type": "SENTENCE", "md_parent_section": "§DM.2 [Example 2]", "md_verbatim": "**Rows 1-3:** Subject 001 completed all the elements for arm A.", "score": 0.5529, "match_basis": "verbatim_token+domain_route:DM"}, {"md_atom_id": "md_dmDM_ex_a026", "md_file": "knowledge_base/domains/DM/examples.md", "md_atom_type": "SENTENCE", "md_parent_section": "§DM.2 [Example 2]", "md_verbatim": "**Rows 4-6:** Subject 002 completed all the elements for arm B.", "score": 0.5529, "match_basis": "verbatim_token+domain_route:DM"}, {"md_atom_id": "md_dmDM_ex_a013", "md_file": "knowledge_base/domains/DM/examples.md", "md_atom_type": "SENTENCE", "md_parent_section": "§DM.2 [Example 2]", "md_verbatim": "**Row 1:** Subject 001 was randomized to arm \"Drug A\". As shown in the SE dataset, this subject completed the \"Drug A\" element, so their actual arm was also \"Drug A\".", "score": 0.5417, "match_basis": "verbatim_token+domain_route:DM"}, {"md_atom_id": "md_dmDM_ex_a052", "md_file": "knowledge_base/domains/DM/examples.md", "md_atom_type": "SENTENCE", "md_parent_section": "§DM.3 [Example 3]", "md_verbatim": "The following example illustrates values of ARMCD for subjects in Example Trial 3, described in Section 7.2.1, Trial Arms.", "score": 0.5297, "match_basis": "verbatim_token+domain_route:DM"}, {"md_atom_id": "md_dmDM_ex_a053", "md_file": "knowledge_base/domains/DM/examples.md", "md_atom_type": "SENTENCE", "md_parent_section": "§DM.3 [Example 3]", "md_verbatim": "**Rows 1-3:** Show that the subject passed through all 3 elements for the AA arm.", "score": 0.5138, "match_basis": "verbatim_token+domain_route:DM"}], "candidate_count": 5, "zero_candidate": false}
{"pdf_atom_id": "ig34_p0065_a027", "pdf_atom_type": "CROSS_REF", "pdf_source": "SDTMIG_v3.4", "pdf_page": 65, "pdf_parent_section": "§5.2 [Demographics (DM)]", "pdf_verbatim": "see also Section 5.3, Subject Elements, Example 2", "figure_ref": null, "candidates": [{"md_atom_id": "md_dmDM_ex_a025", "md_file": "knowledge_base/domains/DM/examples.md", "md_atom_type": "SENTENCE", "md_parent_section": "§DM.2 [Example 2]", "md_verbatim": "**Rows 1-3:** Subject 001 completed all the elements for arm A.", "score": 0.4129, "match_basis": "verbatim_token+domain_route:DM"}, {"md_atom_id": "md_dmDM_ex_a026", "md_file": "knowledge_base/domains/DM/examples.md", "md_atom_type": "SENTENCE", "md_parent_section": "§DM.2 [Example 2]", "md_verbatim": "**Rows 4-6:** Subject 002 completed all the elements for arm B.", "score": 0.4129, "match_basis": "verbatim_token+domain_route:DM"}, {"md_atom_id": "md_dmDM_assn_a016", "md_file": "knowledge_base/domains/DM/assumptions.md", "md_atom_type": "LIST_ITEM", "md_parent_section": "§DM [DM — Assumptions]", "md_verbatim": "         2. Section 5.3, Subject Elements, Example 1 illustrates a situation for a subject who received a treatment that was not the one to which they were assigned.", "score": 0.3665, "match_basis": "verbatim_token+domain_route:DM"}, {"md_atom_id": "md_dmDM_assn_a017", "md_file": "knowledge_base/domains/DM/assumptions.md", "md_atom_type": "LIST_ITEM", "md_parent_section": "§DM [DM — Assumptions]", "md_verbatim": "         3. Section 5.3, Subject Elements, Example 2 illustrates a situation in which a subject received a set of treatments different from that for any of the planned arms.", "score": 0.3567, "match_basis": "verbatim_token+domain_route:DM"}, {"md_atom_id": "md_dmDM_ex_a053", "md_file": "knowledge_base/domains/DM/examples.md", "md_atom_type": "SENTENCE", "md_parent_section": "§DM.3 [Example 3]", "md_verbatim": "**Rows 1-3:** Show that the subject passed through all 3 elements for the AA arm.", "score": 0.3471, "match_basis": "verbatim_token+domain_route:DM"}], "candidate_count": 5, "zero_candidate": false}
{"pdf_atom_id": "ig34_p0065_a028", "pdf_atom_type": "SENTENCE", "pdf_source": "SDTMIG_v3.4", "pdf_page": 65, "pdf_parent_section": "§5.2 [Demographics (DM)]", "pdf_verbatim": "Note that this use of values not in the TA dataset is allowable only for trials with multistage assignment to arms and to subjects in those trials who do not complete all stages of the assignment.", "figure_ref": null, "candidates": [{"md_atom_id": "md_dmDM_ex_a013", "md_file": "knowledge_base/domains/DM/examples.md", "md_atom_type": "SENTENCE", "md_parent_section": "§DM.2 [Example 2]", "md_verbatim": "**Row 1:** Subject 001 was randomized to arm \"Drug A\". As shown in the SE dataset, this subject completed the \"Drug A\" element, so their actual arm was also \"Drug A\".", "score": 0.5516, "match_basis": "verbatim_token+domain_route:DM"}, {"md_atom_id": "md_dmDM_ex_a012", "md_file": "knowledge_base/domains/DM/examples.md", "md_atom_type": "SENTENCE", "md_parent_section": "§DM.2 [Example 2]", "md_verbatim": "This example Demographics dataset does not include all the DM required and expected variables, only those that illustrate the variables that represent arm information. The following example illustrates values of ARMCD for subjects in Example Trial 1, described in Section 7.2.1, Trial Arms. This study included 2 elements, screen and run-in, before subjects were randomized to treatment. For this study, the sponsor submitted data on all subjects, including screen-failure subjects.", "score": 0.5333, "match_basis": "verbatim_token+domain_route:DM"}, {"md_atom_id": "md_dmDM_ex_a025", "md_file": "knowledge_base/domains/DM/examples.md", "md_atom_type": "SENTENCE", "md_parent_section": "§DM.2 [Example 2]", "md_verbatim": "**Rows 1-3:** Subject 001 completed all the elements for arm A.", "score": 0.5325, "match_basis": "verbatim_token+domain_route:DM"}, {"md_atom_id": "md_dmDM_ex_a026", "md_file": "knowledge_base/domains/DM/examples.md", "md_atom_type": "SENTENCE", "md_parent_section": "§DM.2 [Example 2]", "md_verbatim": "**Rows 4-6:** Subject 002 completed all the elements for arm B.", "score": 0.5325, "match_basis": "verbatim_token+domain_route:DM"}, {"md_atom_id": "md_dmDM_ex_a052", "md_file": "knowledge_base/domains/DM/examples.md", "md_atom_type": "SENTENCE", "md_parent_section": "§DM.3 [Example 3]", "md_verbatim": "The following example illustrates values of ARMCD for subjects in Example Trial 3, described in Section 7.2.1, Trial Arms.", "score": 0.5273, "match_basis": "verbatim_token+domain_route:DM"}], "candidate_count": 5, "zero_candidate": false}
{"pdf_atom_id": "ig34_p0065_a029", "pdf_atom_type": "LIST_ITEM", "pdf_source": "SDTMIG_v3.4", "pdf_page": 65, "pdf_parent_section": "§5.2 [Demographics (DM)]", "pdf_verbatim": "c. Examples illustrating the arm-related variables", "figure_ref": null, "candidates": [{"md_atom_id": "md_dmDM_assn_a012", "md_file": "knowledge_base/domains/DM/assumptions.md", "md_atom_type": "LIST_ITEM", "md_parent_section": "§DM [DM — Assumptions]", "md_verbatim": "   c. Examples illustrating the arm-related variables", "score": 1.0, "match_basis": "verbatim_token+domain_route:DM"}, {"md_atom_id": "md_dmDM_assn_a006", "md_file": "knowledge_base/domains/DM/assumptions.md", "md_atom_type": "LIST_ITEM", "md_parent_section": "§DM [DM — Assumptions]", "md_verbatim": "   a. Rules for the arm-related variables:", "score": 0.6625, "match_basis": "verbatim_token+domain_route:DM"}, {"md_atom_id": "md_dmDM_assn_a014", "md_file": "knowledge_base/domains/DM/assumptions.md", "md_atom_type": "LIST_ITEM", "md_parent_section": "§DM [DM — Assumptions]", "md_verbatim": "      ii. The Subject Elements (SE) dataset records the series of elements a subject passed through in the course of a trial, and these determine the value of ACTARMCD. The following examples include sample data for both datasets to illustrate this relationship.", "score": 0.5189, "match_basis": "verbatim_token+domain_route:DM"}, {"md_atom_id": "md_dmDM_assn_a017", "md_file": "knowledge_base/domains/DM/assumptions.md", "md_atom_type": "LIST_ITEM", "md_parent_section": "§DM [DM — Assumptions]", "md_verbatim": "         3. Section 5.3, Subject Elements, Example 2 illustrates a situation in which a subject received a set of treatments different from that for any of the planned arms.", "score": 0.5171, "match_basis": "verbatim_token+domain_route:DM"}, {"md_atom_id": "md_dmDM_assn_a016", "md_file": "knowledge_base/domains/DM/assumptions.md", "md_atom_type": "LIST_ITEM", "md_parent_section": "§DM [DM — Assumptions]", "md_verbatim": "         2. Section 5.3, Subject Elements, Example 1 illustrates a situation for a subject who received a treatment that was not the one to which they were assigned.", "score": 0.5139, "match_basis": "verbatim_token+domain_route:DM"}], "candidate_count": 5, "zero_candidate": false}
{"pdf_atom_id": "ig34_p0065_a030", "pdf_atom_type": "LIST_ITEM", "pdf_source": "SDTMIG_v3.4", "pdf_page": 65, "pdf_parent_section": "§5.2 [Demographics (DM)]", "pdf_verbatim": "i. Example 1 below shows how to handle a subject who was a screen failure and was never treated.", "figure_ref": null, "candidates": [{"md_atom_id": "md_dmDM_assn_a013", "md_file": "knowledge_base/domains/DM/assumptions.md", "md_atom_type": "LIST_ITEM", "md_parent_section": "§DM [DM — Assumptions]", "md_verbatim": "      i. Example 1 below shows how to handle a subject who was a screen failure and was never treated.", "score": 1.0, "match_basis": "verbatim_token+domain_route:DM"}, {"md_atom_id": "md_dmDM_assn_a015", "md_file": "knowledge_base/domains/DM/assumptions.md", "md_atom_type": "LIST_ITEM", "md_parent_section": "§DM [DM — Assumptions]", "md_verbatim": "         1. Example 2 below shows how subjects who started the trial but were never assigned to an arm would be handled.", "score": 0.6419, "match_basis": "verbatim_token+domain_route:DM"}, {"md_atom_id": "md_dmDM_assn_a016", "md_file": "knowledge_base/domains/DM/assumptions.md", "md_atom_type": "LIST_ITEM", "md_parent_section": "§DM [DM — Assumptions]", "md_verbatim": "         2. Section 5.3, Subject Elements, Example 1 illustrates a situation for a subject who received a treatment that was not the one to which they were assigned.", "score": 0.5091, "match_basis": "verbatim_token+domain_route:DM"}, {"md_atom_id": "md_dmDM_ex_a027", "md_file": "knowledge_base/domains/DM/examples.md", "md_atom_type": "SENTENCE", "md_parent_section": "§DM.2 [Example 2]", "md_verbatim": "**Row 7:** Subject 003 was a screen failure, who participated only in the \"Screen\" element.", "score": 0.4995, "match_basis": "verbatim_token+domain_route:DM"}, {"md_atom_id": "md_dmDM_ex_a015", "md_file": "knowledge_base/domains/DM/examples.md", "md_atom_type": "SENTENCE", "md_parent_section": "§DM.2 [Example 2]", "md_verbatim": "**Row 3:** Subject 003 was a screen failure, so they were not assigned to an arm or treated. The arm actual arm variables are null, and ARMNRS=\"SCREEN FAILURE\".", "score": 0.49, "match_basis": "verbatim_token+domain_route:DM"}], "candidate_count": 5, "zero_candidate": false}
{"pdf_atom_id": "ig34_p0065_a031", "pdf_atom_type": "LIST_ITEM", "pdf_source": "SDTMIG_v3.4", "pdf_page": 65, "pdf_parent_section": "§5.2 [Demographics (DM)]", "pdf_verbatim": "ii. The Subject Elements (SE) dataset records the series of elements a subject passed through in the course of a trial, and these determine the value of ACTARMCD. The following examples include sample data for both datasets to illustrate this relationship.", "figure_ref": null, "candidates": [{"md_atom_id": "md_dmDM_assn_a014", "md_file": "knowledge_base/domains/DM/assumptions.md", "md_atom_type": "LIST_ITEM", "md_parent_section": "§DM [DM — Assumptions]", "md_verbatim": "      ii. The Subject Elements (SE) dataset records the series of elements a subject passed through in the course of a trial, and these determine the value of ACTARMCD. The following examples include sample data for both datasets to illustrate this relationship.", "score": 1.0, "match_basis": "verbatim_token+domain_route:DM"}, {"md_atom_id": "md_dmDM_assn_a005", "md_file": "knowledge_base/domains/DM/assumptions.md", "md_atom_type": "LIST_ITEM", "md_parent_section": "§DM [DM — Assumptions]", "md_verbatim": "4. With the exception of trials that use multistage processes to assign subjects to arms as described below, ARM and ACTARM must be populated with ARM values from the Trial Arms (TA) dataset and ARMCD and ACTARMCD must be populated with ARMCD values from the TA dataset or be null. The ARM and ARMCD values in the TA dataset have a one-to-one relationship, and that one-to-one relationship must be preserved in the values used to populate ARM and ARMCD in DM, and to populate the values of ACTARM and ACTARMCD in DM.", "score": 0.5556, "match_basis": "verbatim_token+domain_route:DM"}, {"md_atom_id": "md_dmDM_assn_a011", "md_file": "knowledge_base/domains/DM/assumptions.md", "md_atom_type": "LIST_ITEM", "md_parent_section": "§DM [DM — Assumptions]", "md_verbatim": "   b. Multistage assignment to treatment: Some trials use a multistage process for assigning a subject to an arm (see Section 7.2.1, Trial Arms, Example Trial 3). In such a case, best practice is to create ARMCD values composed of codes representing the results of the multiple stages of the treatment assignment process. If a subject is partially assigned, then truncated codes representing the stages completed can be used in ARMCD, and similar truncated codes can be used in ACTARMCD. The descriptions used to populate ARM and ACTARM should be similarly truncated, and the one-to-one relationship between these truncated codes should be maintained for all affected subjects in the trial. Example 3 below provides an example of this situation; see also Section 5.3, Subject Elements, Example 2. Note that this use of values not in the TA dataset is allowable only for trials with multistage assignment to arms and to subjects in those trials who do not complete all stages of the assignment.", "score": 0.5398, "match_basis": "verbatim_token+domain_route:DM"}, {"md_atom_id": "md_dmDM_assn_a017", "md_file": "knowledge_base/domains/DM/assumptions.md", "md_atom_type": "LIST_ITEM", "md_parent_section": "§DM [DM — Assumptions]", "md_verbatim": "         3. Section 5.3, Subject Elements, Example 2 illustrates a situation in which a subject received a set of treatments different from that for any of the planned arms.", "score": 0.5362, "match_basis": "verbatim_token+domain_route:DM"}, {"md_atom_id": "md_dmDM_assn_a016", "md_file": "knowledge_base/domains/DM/assumptions.md", "md_atom_type": "LIST_ITEM", "md_parent_section": "§DM [DM — Assumptions]", "md_verbatim": "         2. Section 5.3, Subject Elements, Example 1 illustrates a situation for a subject who received a treatment that was not the one to which they were assigned.", "score": 0.5348, "match_basis": "verbatim_token+domain_route:DM"}], "candidate_count": 5, "zero_candidate": false}
{"pdf_atom_id": "ig34_p0065_a032", "pdf_atom_type": "LIST_ITEM", "pdf_source": "SDTMIG_v3.4", "pdf_page": 65, "pdf_parent_section": "§5.2 [Demographics (DM)]", "pdf_verbatim": "1. Example 2 below shows how subjects who started the trial but were never assigned to an arm would be handled.", "figure_ref": null, "candidates": [{"md_atom_id": "md_dmDM_assn_a015", "md_file": "knowledge_base/domains/DM/assumptions.md", "md_atom_type": "LIST_ITEM", "md_parent_section": "§DM [DM — Assumptions]", "md_verbatim": "         1. Example 2 below shows how subjects who started the trial but were never assigned to an arm would be handled.", "score": 1.0, "match_basis": "verbatim_token+domain_route:DM"}, {"md_atom_id": "md_dmDM_assn_a013", "md_file": "knowledge_base/domains/DM/assumptions.md", "md_atom_type": "LIST_ITEM", "md_parent_section": "§DM [DM — Assumptions]", "md_verbatim": "      i. Example 1 below shows how to handle a subject who was a screen failure and was never treated.", "score": 0.6419, "match_basis": "verbatim_token+domain_route:DM"}, {"md_atom_id": "md_dmDM_assn_a016", "md_file": "knowledge_base/domains/DM/assumptions.md", "md_atom_type": "LIST_ITEM", "md_parent_section": "§DM [DM — Assumptions]", "md_verbatim": "         2. Section 5.3, Subject Elements, Example 1 illustrates a situation for a subject who received a treatment that was not the one to which they were assigned.", "score": 0.529, "match_basis": "verbatim_token+domain_route:DM"}, {"md_atom_id": "md_dmDM_assn_a008", "md_file": "knowledge_base/domains/DM/assumptions.md", "md_atom_type": "LIST_ITEM", "md_parent_section": "§DM [DM — Assumptions]", "md_verbatim": "      ii. If ACTARMCD is null, then ACTARM must be null and ARMNRS must be populated with the reason ACTARMCD is null. Both ARMCD and ACTARMCD will be null for subjects who were not assigned to treatment. The same reason will provide the reason that both are null.", "score": 0.5277, "match_basis": "verbatim_token+domain_route:DM"}, {"md_atom_id": "md_dmDM_assn_a005", "md_file": "knowledge_base/domains/DM/assumptions.md", "md_atom_type": "LIST_ITEM", "md_parent_section": "§DM [DM — Assumptions]", "md_verbatim": "4. With the exception of trials that use multistage processes to assign subjects to arms as described below, ARM and ACTARM must be populated with ARM values from the Trial Arms (TA) dataset and ARMCD and ACTARMCD must be populated with ARMCD values from the TA dataset or be null. The ARM and ARMCD values in the TA dataset have a one-to-one relationship, and that one-to-one relationship must be preserved in the values used to populate ARM and ARMCD in DM, and to populate the values of ACTARM and ACTARMCD in DM.", "score": 0.5048, "match_basis": "verbatim_token+domain_route:DM"}], "candidate_count": 5, "zero_candidate": false}
{"pdf_atom_id": "ig34_p0066_a001", "pdf_atom_type": "SENTENCE", "pdf_source": "SDTMIG_v3.4", "pdf_page": 66, "pdf_parent_section": "§5 [General Observation Classes]", "pdf_verbatim": "When the values of the variables may be exactly the same, particularly with RFSTDTC-RFENDTC and RFXSTDTC-RFXENDTC.", "figure_ref": null, "candidates": [{"md_atom_id": "md_dmDM_assn_a026", "md_file": "knowledge_base/domains/DM/assumptions.md", "md_atom_type": "LIST_ITEM", "md_parent_section": "§DM [DM — Assumptions]", "md_verbatim": "10. The DM domain contains several pairs of reference period variables: RFSTDTC and RFENDTC, RFXSTDTC and RFXENDTC, RFCSTDTC and RFCENDTC, and RFICDTC and RFPENDTC. There are 4 sets of reference variables to accommodate distinct reference-period definitions and there are instances when the values of the variables may be exactly the same, particularly with RFSTDTC-RFENDTC and RFXSTDTC-RFXENDTC.", "score": 0.451, "match_basis": "verbatim_token+global_search"}, {"md_atom_id": "md_ch04_a1040", "md_file": "knowledge_base/chapters/ch04_general_assumptions.md", "md_atom_type": "SENTENCE", "md_parent_section": "§4.5.9 [Baseline Values]", "md_verbatim": "The content of --LOBXFL and ABLFL will be exactly the same when the SAP specifies that the baseline used for analysis is the last non-missing value prior to RFXSTDTC.", "score": 0.4286, "match_basis": "verbatim_token+global_search"}, {"md_atom_id": "md_dmTA_ex_a272", "md_file": "knowledge_base/domains/TA/examples.md", "md_atom_type": "SENTENCE", "md_parent_section": "§TA.8.4 [Rule Variables]", "md_verbatim": "At the moment, values of Rule variables are text.", "score": 0.4241, "match_basis": "verbatim_token+global_search"}, {"md_atom_id": "md_ch04_a177", "md_file": "knowledge_base/chapters/ch04_general_assumptions.md", "md_atom_type": "SENTENCE", "md_parent_section": "§4.2.1 [Variable-Naming Conventions]", "md_verbatim": "Values of other \"CD\" variables are **not** subject to the same restrictions as --TESTCD:", "score": 0.4183, "match_basis": "verbatim_token+global_search"}, {"md_atom_id": "md_ch04_a548", "md_file": "knowledge_base/chapters/ch04_general_assumptions.md", "md_atom_type": "SENTENCE", "md_parent_section": "§4.4.3.1 [Intervals of Time and Use of Duration]", "md_verbatim": "As defined by ISO 8601, an interval of time is the part of a time axis, limited by 2 time \"instants\" such as the times represented in SDTM by the variables --STDTC and --ENDTC.", "score": 0.4146, "match_basis": "verbatim_token+global_search"}], "candidate_count": 5, "zero_candidate": false}
{"pdf_atom_id": "ig34_p0066_a003", "pdf_atom_type": "SENTENCE", "pdf_source": "SDTMIG_v3.4", "pdf_page": 66, "pdf_parent_section": "§5 [General Observation Classes]", "pdf_verbatim": "However, there are certain study designs where the start of the reference period is defined differently, such as studies that have a washout period before randomization or have a medical procedure required during screening (e.g., biopsy).", "figure_ref": null, "candidates": [{"md_atom_id": "md_dmDM_assn_a027", "md_file": "knowledge_base/domains/DM/assumptions.md", "md_atom_type": "LIST_ITEM", "md_parent_section": "§DM [DM — Assumptions]", "md_verbatim": "    a. RFSTDTC and RFENDTC: This pair of variables is sponsor-defined, but usually represents the date/time of first and last study exposure. However, there are certain study designs where the start of the reference period is defined differently, such as studies that have a washout period before randomization or have a medical procedure required during screening (e.g., biopsy). In these cases, RFSTDTC may be the enrollment date, which is prior to first dose. Because study day values are calculated using RFSTDTC, in this case study days would not be based on the date of first dose.", "score": 0.5263, "match_basis": "verbatim_token+global_search"}, {"md_atom_id": "md_dmSV_ex_a035", "md_file": "knowledge_base/domains/SV/examples.md", "md_atom_type": "SENTENCE", "md_parent_section": "§SV.1 [Example 1]", "md_verbatim": "**Row 1:** Shows that screening data for subject 37 was collected during a period of 4 days. This subject is shown as a screen failure in ds.xpt and therefore would have a null DM.RFSTDTC, hence the study day values in SVSTDY and SVENDY, which are based on the sponsor-defined reference start date, are null.", "score": 0.4699, "match_basis": "verbatim_token+global_search"}, {"md_atom_id": "md_dmDS_ex_a248", "md_file": "knowledge_base/domains/DS/examples.md", "md_atom_type": "SENTENCE", "md_parent_section": "§DS.11 [Example 11]", "md_verbatim": "**Rows 1-2:** Show that informed consent was obtained and randomization occurred during the screening epoch.", "score": 0.4654, "match_basis": "verbatim_token+global_search"}, {"md_atom_id": "md_dmDS_ex_a005", "md_file": "knowledge_base/domains/DS/examples.md", "md_atom_type": "SENTENCE", "md_parent_section": "§DS.1 [Example 1]", "md_verbatim": "**Rows 1, 2, 6, 8, 9, 12, 13, 17, 18:** Show records for protocol milestones. DSTERM and DSDECOD are populated with the same value, the name of the milestone. Note that for randomization events, EPOCH = \"SCREENING\", because randomization occurred before the start of treatment, during the screening epoch.", "score": 0.4318, "match_basis": "verbatim_token+global_search"}, {"md_atom_id": "md_ch04_a026", "md_file": "knowledge_base/chapters/ch04_general_assumptions.md", "md_atom_type": "SENTENCE", "md_parent_section": "§4.1.3.1 [EPOCH Variable Guidance]", "md_verbatim": "Note that a subject's participation in a study includes screening, which generally occurs before the reference start date (RFSTDTC) in the Demographics (DM) domain.", "score": 0.4253, "match_basis": "verbatim_token+global_search"}], "candidate_count": 5, "zero_candidate": false}
{"pdf_atom_id": "ig34_p0066_a004", "pdf_atom_type": "SENTENCE", "pdf_source": "SDTMIG_v3.4", "pdf_page": 66, "pdf_parent_section": "§5 [General Observation Classes]", "pdf_verbatim": "In these cases, RFSTDTC may be the enrollment date, which is prior to first dose.", "figure_ref": null, "candidates": [{"md_atom_id": "md_dmMH_ex_a014", "md_file": "knowledge_base/domains/MH/examples.md", "md_atom_type": "SENTENCE", "md_parent_section": "§MH.1 [Example 1]", "md_verbatim": "MHSTDTC was populated with the date and time at which the event occurred.", "score": 0.4091, "match_basis": "verbatim_token+global_search"}, {"md_atom_id": "md_dmMH_ex_a038", "md_file": "knowledge_base/domains/MH/examples.md", "md_atom_type": "SENTENCE", "md_parent_section": "§MH.2 [Example 2]", "md_verbatim": "MHSTDTC was populated with the date and time at which the event occurred.", "score": 0.4091, "match_basis": "verbatim_token+global_search"}, {"md_atom_id": "md_dmSE_ex_a032", "md_file": "knowledge_base/domains/SE/examples.md", "md_atom_type": "SENTENCE", "md_parent_section": "§SE.2 [Example 2]", "md_verbatim": "The following data represent 2 subjects enrolled in a trial in which assignment to an arm occurs in 2 stages.", "score": 0.4014, "match_basis": "verbatim_token+global_search"}, {"md_atom_id": "md_ch04_a260", "md_file": "knowledge_base/chapters/ch04_general_assumptions.md", "md_atom_type": "SENTENCE", "md_parent_section": "§4.2.7 [Submitting Free Text from the CRF]", "md_verbatim": "The manner in which these data are submitted will vary based on their role.", "score": 0.3982, "match_basis": "verbatim_token+global_search"}, {"md_atom_id": "md_dmDS_ex_a132", "md_file": "knowledge_base/domains/DS/examples.md", "md_atom_type": "SENTENCE", "md_parent_section": "§DS.10 [Example 10]", "md_verbatim": "**Rows 2, 3:** Show the elements for treatment (either \"DRUG1\" or \"DRUG2\"). These appear in the first treatment epoch in the TA dataset.", "score": 0.3937, "match_basis": "verbatim_token+global_search"}], "candidate_count": 5, "zero_candidate": false}
{"pdf_atom_id": "ig34_p0066_a005", "pdf_atom_type": "SENTENCE", "pdf_source": "SDTMIG_v3.4", "pdf_page": 66, "pdf_parent_section": "§5 [General Observation Classes]", "pdf_verbatim": "Because study day values are calculated using RFSTDTC, in this case study days would not be based on the date of first dose.", "figure_ref": null, "candidates": [{"md_atom_id": "md_ch04_a555", "md_file": "knowledge_base/chapters/ch04_general_assumptions.md", "md_atom_type": "SENTENCE", "md_parent_section": "§4.4.3.1 [Intervals of Time and Use of Duration]", "md_verbatim": "If both --STDTC and --ENDTC are collected, durations can be calculated by the difference in these 2 values, and need not be in the submission dataset.", "score": 0.4348, "match_basis": "verbatim_token+global_search"}, {"md_atom_id": "md_dmSV_ex_a035", "md_file": "knowledge_base/domains/SV/examples.md", "md_atom_type": "SENTENCE", "md_parent_section": "§SV.1 [Example 1]", "md_verbatim": "**Row 1:** Shows that screening data for subject 37 was collected during a period of 4 days. This subject is shown as a screen failure in ds.xpt and therefore would have a null DM.RFSTDTC, hence the study day values in SVSTDY and SVENDY, which are based on the sponsor-defined reference start date, are null.", "score": 0.4333, "match_basis": "verbatim_token+global_search"}, {"md_atom_id": "md_dmCE_ex_a105", "md_file": "knowledge_base/domains/CE/examples.md", "md_atom_type": "SENTENCE", "md_parent_section": "§CE.3 [Example 3]", "md_verbatim": "PRSTDTC is an expected variable, so it is included in the dataset, although it was not collected in this study.", "score": 0.405, "match_basis": "verbatim_token+global_search"}, {"md_atom_id": "md_dmMK_ex_a040", "md_file": "knowledge_base/domains/MK/examples.md", "md_atom_type": "SENTENCE", "md_parent_section": "§MK.2 [Example 2]", "md_verbatim": "Each image was assessed by 2 readers of the same role; in this example, MKEVALID is populated with \"READER 1\" because these assessments were performed by the first reader.", "score": 0.4041, "match_basis": "verbatim_token+global_search"}, {"md_atom_id": "md_ch08_a211", "md_file": "knowledge_base/chapters/ch08_relationships.md", "md_atom_type": "SENTENCE", "md_parent_section": "§8.5 [Relating Comments to a Parent Domain]", "md_verbatim": "STUDYID, USUBJID, and DOMAIN (with the value CO) must always be populated.", "score": 0.4029, "match_basis": "verbatim_token+global_search"}], "candidate_count": 5, "zero_candidate": false}
{"pdf_atom_id": "ig34_p0066_a007", "pdf_atom_type": "SENTENCE", "pdf_source": "SDTMIG_v3.4", "pdf_page": 66, "pdf_parent_section": "§5 [General Observation Classes]", "pdf_verbatim": "RFXSTDTC and RFXENDTC always represent the date/time of first and last study exposure.", "figure_ref": null, "candidates": [{"md_atom_id": "md_dmDS_ex_a190", "md_file": "knowledge_base/domains/DS/examples.md", "md_atom_type": "SENTENCE", "md_parent_section": "§DS.10 [Example 10]", "md_verbatim": "**Rows 3, 5, 10, 12:** Represent the completion of drug for each EPOCH, where DSSCAT has the name of the drug(s). The DSSTDTC is the end date of study treatment for the epoch.", "score": 0.4342, "match_basis": "verbatim_token+global_search"}, {"md_atom_id": "md_ch04_a573", "md_file": "knowledge_base/chapters/ch04_general_assumptions.md", "md_atom_type": "SENTENCE", "md_parent_section": "§4.4.3.1 [Intervals of Time and Use of Duration]", "md_verbatim": "As is the case with the date/time representation in --DTC, --STDTC, or --ENDTC, only the components of duration that are known or collected need to be represented.", "score": 0.4308, "match_basis": "verbatim_token+global_search"}, {"md_atom_id": "md_dmDS_ex_a192", "md_file": "knowledge_base/domains/DS/examples.md", "md_atom_type": "SENTENCE", "md_parent_section": "§DS.10 [Example 10]", "md_verbatim": "**Rows 7, 14:** Represent the completion of study participation follow-up epoch, where DSSCAT has the name of \"STUDY PARTICIPATION\". The DSSTDTC is the end date of study participation for the epoch.", "score": 0.4291, "match_basis": "verbatim_token+global_search"}, {"md_atom_id": "md_model05_a007", "md_file": "knowledge_base/model/05_study_level_data.md", "md_atom_type": "SENTENCE", "md_parent_section": "§ 5.1 Trial Design Model", "md_verbatim": "These include ways to represent:", "score": 0.4277, "match_basis": "verbatim_token+global_search"}, {"md_atom_id": "md_dmMB_ex_a078", "md_file": "knowledge_base/domains/MB/examples.md", "md_atom_type": "SENTENCE", "md_parent_section": "§MB.3 [Example 3]", "md_verbatim": "In the BE, BS, MB, and MS domains, --DTC represents the date of sample collection.", "score": 0.422, "match_basis": "verbatim_token+global_search"}], "candidate_count": 5, "zero_candidate": false}
{"pdf_atom_id": "ig34_p0066_a008", "pdf_atom_type": "SENTENCE", "pdf_source": "SDTMIG_v3.4", "pdf_page": 66, "pdf_parent_section": "§5 [General Observation Classes]", "pdf_verbatim": "The study reference period often duplicates the reference period defined in RFSTDTC and RFENDTC, but not always.", "figure_ref": null, "candidates": [{"md_atom_id": "md_ch04_a630", "md_file": "knowledge_base/chapters/ch04_general_assumptions.md", "md_atom_type": "SENTENCE", "md_parent_section": "§4.4.7 [Use of Relative Timing Variables]", "md_verbatim": "The sponsor-defined study reference period is the continuous period of time defined by the discrete starting point, RFSTDTC, and the discrete ending point, RFENDTC, for each subject in the Demographics (DM) dataset.", "score": 0.4782, "match_basis": "verbatim_token+global_search"}, {"md_atom_id": "md_dmAE_ex_a006", "md_file": "knowledge_base/domains/AE/examples.md", "md_atom_type": "SENTENCE", "md_parent_section": "§AE.1 [Example 1]", "md_verbatim": "In this study, the study reference period started at the start of study treatment.", "score": 0.4475, "match_basis": "verbatim_token+global_search"}, {"md_atom_id": "md_dmSV_ex_a035", "md_file": "knowledge_base/domains/SV/examples.md", "md_atom_type": "SENTENCE", "md_parent_section": "§SV.1 [Example 1]", "md_verbatim": "**Row 1:** Shows that screening data for subject 37 was collected during a period of 4 days. This subject is shown as a screen failure in ds.xpt and therefore would have a null DM.RFSTDTC, hence the study day values in SVSTDY and SVENDY, which are based on the sponsor-defined reference start date, are null.", "score": 0.4403, "match_basis": "verbatim_token+global_search"}, {"md_atom_id": "md_ch04_a629", "md_file": "knowledge_base/chapters/ch04_general_assumptions.md", "md_atom_type": "SENTENCE", "md_parent_section": "§4.4.7 [Use of Relative Timing Variables]", "md_verbatim": "The variables --STRF and --ENRF represent the timing of an observation relative to the sponsor-defined study reference period, when information such as \"BEFORE\", \"PRIOR\", \"ONGOING\", or \"CONTINUING\" is collected in lieu of a date and this collected information is in relation to the sponsor-defined study reference period.", "score": 0.4048, "match_basis": "verbatim_token+global_search"}, {"md_atom_id": "md_model05_a004", "md_file": "knowledge_base/model/05_study_level_data.md", "md_atom_type": "SENTENCE", "md_parent_section": "§ Overview", "md_verbatim": "The SDTM includes 2 types of study-level data: trial design data and study reference data.", "score": 0.4043, "match_basis": "verbatim_token+global_search"}], "candidate_count": 5, "zero_candidate": false}
{"pdf_atom_id": "ig34_p0066_a009", "pdf_atom_type": "SENTENCE", "pdf_source": "SDTMIG_v3.4", "pdf_page": 66, "pdf_parent_section": "§5 [General Observation Classes]", "pdf_verbatim": "Therefore, this pair of variables is important as they guarantee that a reviewer will always be able to reference the first and last study exposure period.", "figure_ref": null, "candidates": [{"md_atom_id": "md_dmDM_assn_a028", "md_file": "knowledge_base/domains/DM/assumptions.md", "md_atom_type": "LIST_ITEM", "md_parent_section": "§DM [DM — Assumptions]", "md_verbatim": "    b. RFXSTDTC and RFXENDTC: This pair of variables defines a consistent reference period for all interventional studies and is not open to customization. RFXSTDTC and RFXENDTC always represent the date/time of first and last study exposure. The study reference period often duplicates the reference period defined in RFSTDTC and RFENDTC, but not always. Therefore, this pair of variables is important as they guarantee that a reviewer will always be able to reference the first and last study exposure reference period. RFXSTDTC should be the same as SESTDTC for the first treatment element described in the SE dataset. RFXENDTC may often be the same as the SEENDTC for the last treatment element described in the SE dataset.", "score": 0.45, "match_basis": "verbatim_token+global_search"}, {"md_atom_id": "md_dmAE_ex_a006", "md_file": "knowledge_base/domains/AE/examples.md", "md_atom_type": "SENTENCE", "md_parent_section": "§AE.1 [Example 1]", "md_verbatim": "In this study, the study reference period started at the start of study treatment.", "score": 0.4244, "match_basis": "verbatim_token+global_search"}, {"md_atom_id": "md_dmAE_ex_a014", "md_file": "knowledge_base/domains/AE/examples.md", "md_atom_type": "SENTENCE", "md_parent_section": "§AE.1 [Example 1]", "md_verbatim": "This row also shows AEENRF being populated because the AE was marked as \"Continuing\" as of the end of the study reference period for the subject (see Section 4.4.7, Use of Relative Timing Variables).", "score": 0.419, "match_basis": "verbatim_token+global_search"}, {"md_atom_id": "md_ch04_a629", "md_file": "knowledge_base/chapters/ch04_general_assumptions.md", "md_atom_type": "SENTENCE", "md_parent_section": "§4.4.7 [Use of Relative Timing Variables]", "md_verbatim": "The variables --STRF and --ENRF represent the timing of an observation relative to the sponsor-defined study reference period, when information such as \"BEFORE\", \"PRIOR\", \"ONGOING\", or \"CONTINUING\" is collected in lieu of a date and this collected information is in relation to the sponsor-defined study reference period.", "score": 0.4175, "match_basis": "verbatim_token+global_search"}, {"md_atom_id": "md_dmAG_ex_a037", "md_file": "knowledge_base/domains/AG/examples.md", "md_atom_type": "SENTENCE", "md_parent_section": "§AG.2 [Example 2]", "md_verbatim": "The timing reference variables RETPT, RETPTNUM, REELTM, RETPTREF, and RERFTDTC show that this test was performed 5 minutes before the bronchodilator challenge.", "score": 0.4161, "match_basis": "verbatim_token+global_search"}], "candidate_count": 5, "zero_candidate": false}
{"pdf_atom_id": "ig34_p0066_a010", "pdf_atom_type": "SENTENCE", "pdf_source": "SDTMIG_v3.4", "pdf_page": 66, "pdf_parent_section": "§5 [General Observation Classes]", "pdf_verbatim": "RFXSTDTC should be the same as SSTDTC for the first treatment element described in the SE dataset.", "figure_ref": null, "candidates": [{"md_atom_id": "md_dmDS_ex_a132", "md_file": "knowledge_base/domains/DS/examples.md", "md_atom_type": "SENTENCE", "md_parent_section": "§DS.10 [Example 10]", "md_verbatim": "**Rows 2, 3:** Show the elements for treatment (either \"DRUG1\" or \"DRUG2\"). These appear in the first treatment epoch in the TA dataset.", "score": 0.51, "match_basis": "verbatim_token+global_search"}, {"md_atom_id": "md_dmDS_ex_a133", "md_file": "knowledge_base/domains/DS/examples.md", "md_atom_type": "SENTENCE", "md_parent_section": "§DS.10 [Example 10]", "md_verbatim": "**Rows 4, 5:** Show the elements for treatment (either \"DG1INDG\" or \"DG2INDG\"). These appear in the second treatment epoch in the TA dataset.", "score": 0.4588, "match_basis": "verbatim_token+global_search"}, {"md_atom_id": "md_dmDS_ex_a211", "md_file": "knowledge_base/domains/DS/examples.md", "md_atom_type": "SENTENCE", "md_parent_section": "§DS.11 [Example 11]", "md_verbatim": "The TE dataset shows the elements of the trial.", "score": 0.4565, "match_basis": "verbatim_token+global_search"}, {"md_atom_id": "md_dmDS_ex_a143", "md_file": "knowledge_base/domains/DS/examples.md", "md_atom_type": "SENTENCE", "md_parent_section": "§DS.10 [Example 10]", "md_verbatim": "The TA dataset describes the design of the study.", "score": 0.4532, "match_basis": "verbatim_token+global_search"}, {"md_atom_id": "md_ch08_a270", "md_file": "knowledge_base/chapters/ch08_relationships.md", "md_atom_type": "SENTENCE", "md_parent_section": "§8.6.3 [Guidelines for Differentiating Between Interventions, Events, Findings, and Findings About Events or Interventions]", "md_verbatim": "Data that do not describe the event as a whole should not be stored in the record for that event or in a --SUPP record tied to that event.", "score": 0.45, "match_basis": "verbatim_token+global_search"}], "candidate_count": 5, "zero_candidate": false}
{"pdf_atom_id": "ig34_p0066_a011", "pdf_atom_type": "SENTENCE", "pdf_source": "SDTMIG_v3.4", "pdf_page": 66, "pdf_parent_section": "§5 [General Observation Classes]", "pdf_verbatim": "RFXENDTC may often be the same as the SEENDTC for the last treatment element described in the SE dataset.", "figure_ref": null, "candidates": [{"md_atom_id": "md_dmDS_ex_a132", "md_file": "knowledge_base/domains/DS/examples.md", "md_atom_type": "SENTENCE", "md_parent_section": "§DS.10 [Example 10]", "md_verbatim": "**Rows 2, 3:** Show the elements for treatment (either \"DRUG1\" or \"DRUG2\"). These appear in the first treatment epoch in the TA dataset.", "score": 0.4594, "match_basis": "verbatim_token+global_search"}, {"md_atom_id": "md_dmDS_ex_a143", "md_file": "knowledge_base/domains/DS/examples.md", "md_atom_type": "SENTENCE", "md_parent_section": "§DS.10 [Example 10]", "md_verbatim": "The TA dataset describes the design of the study.", "score": 0.4532, "match_basis": "verbatim_token+global_search"}, {"md_atom_id": "md_dmDS_ex_a133", "md_file": "knowledge_base/domains/DS/examples.md", "md_atom_type": "SENTENCE", "md_parent_section": "§DS.10 [Example 10]", "md_verbatim": "**Rows 4, 5:** Show the elements for treatment (either \"DG1INDG\" or \"DG2INDG\"). These appear in the second treatment epoch in the TA dataset.", "score": 0.4478, "match_basis": "verbatim_token+global_search"}, {"md_atom_id": "md_dmDS_ex_a211", "md_file": "knowledge_base/domains/DS/examples.md", "md_atom_type": "SENTENCE", "md_parent_section": "§DS.11 [Example 11]", "md_verbatim": "The TE dataset shows the elements of the trial.", "score": 0.4404, "match_basis": "verbatim_token+global_search"}, {"md_atom_id": "md_model03_a088", "md_file": "knowledge_base/model/03_special_purpose_domains.md", "md_atom_type": "SENTENCE", "md_parent_section": "§ Subject Elements (SE)", "md_verbatim": "Planned elements are described in the Trial Design Model.", "score": 0.4393, "match_basis": "verbatim_token+global_search"}], "candidate_count": 5, "zero_candidate": false}
{"pdf_atom_id": "ig34_p0066_a013", "pdf_atom_type": "SENTENCE", "pdf_source": "SDTMIG_v3.4", "pdf_page": 66, "pdf_parent_section": "§5 [General Observation Classes]", "pdf_verbatim": "RFCSTDTC and RFCENDTC always represent the date/time of first and last exposure to the challenge agent.", "figure_ref": null, "candidates": [{"md_atom_id": "md_model03_a059", "md_file": "knowledge_base/model/03_special_purpose_domains.md", "md_atom_type": "TABLE_ROW", "md_parent_section": "§ Demographics (DM) > Key Reference Date Variables", "md_verbatim": "| RFCSTDTC | Date/Time of First Challenge Agent Admin | First exposure to challenge agent |", "score": 0.468, "match_basis": "verbatim_token+global_search"}, {"md_atom_id": "md_model03_a060", "md_file": "knowledge_base/model/03_special_purpose_domains.md", "md_atom_type": "TABLE_ROW", "md_parent_section": "§ Demographics (DM) > Key Reference Date Variables", "md_verbatim": "| RFCENDTC | Date/Time of Last Challenge Agent Admin | Last exposure to challenge agent |", "score": 0.456, "match_basis": "verbatim_token+global_search"}, {"md_atom_id": "md_dmDM_assn_a029", "md_file": "knowledge_base/domains/DM/assumptions.md", "md_atom_type": "LIST_ITEM", "md_parent_section": "§DM [DM — Assumptions]", "md_verbatim": "    c. RFCSTDTC and RFCENDTC: This pair of variables is used only when the study uses a protocol-specified challenge agent to induce a condition that the investigational treatment is intended to cure, mitigate, treat, or prevent. RFCSTDTC and RFCENDTC always represent the date/time of first and last exposure to the challenge agent.", "score": 0.4431, "match_basis": "verbatim_token+global_search"}, {"md_atom_id": "md_ch04_a573", "md_file": "knowledge_base/chapters/ch04_general_assumptions.md", "md_atom_type": "SENTENCE", "md_parent_section": "§4.4.3.1 [Intervals of Time and Use of Duration]", "md_verbatim": "As is the case with the date/time representation in --DTC, --STDTC, or --ENDTC, only the components of duration that are known or collected need to be represented.", "score": 0.4301, "match_basis": "verbatim_token+global_search"}, {"md_atom_id": "md_dmMB_ex_a078", "md_file": "knowledge_base/domains/MB/examples.md", "md_atom_type": "SENTENCE", "md_parent_section": "§MB.3 [Example 3]", "md_verbatim": "In the BE, BS, MB, and MS domains, --DTC represents the date of sample collection.", "score": 0.4219, "match_basis": "verbatim_token+global_search"}], "candidate_count": 5, "zero_candidate": false}
{"pdf_atom_id": "ig34_p0066_a015", "pdf_atom_type": "SENTENCE", "pdf_source": "SDTMIG_v3.4", "pdf_page": 66, "pdf_parent_section": "§5 [General Observation Classes]", "pdf_verbatim": "They represent the entire period of a subject's involvement in a study, from providing informed consent through the last participation event or activity.", "figure_ref": null, "candidates": [{"md_atom_id": "md_dmDS_ex_a158", "md_file": "knowledge_base/domains/DS/examples.md", "md_atom_type": "SENTENCE", "md_parent_section": "§DS.10 [Example 10]", "md_verbatim": "The DM dataset includes the arm to which the subjects were randomized, and the dates of informed consent, start of study treatment, end of study treatment, and end of study participation.", "score": 0.4714, "match_basis": "verbatim_token+global_search"}, {"md_atom_id": "md_ch04_a024", "md_file": "knowledge_base/chapters/ch04_general_assumptions.md", "md_atom_type": "SENTENCE", "md_parent_section": "§4.1.3.1 [EPOCH Variable Guidance]", "md_verbatim": "Because EPOCH is a study-design construct, it is not applicable to interventions or events that started before the subject's participation in a study, nor to findings performed before participation in a study.", "score": 0.4597, "match_basis": "verbatim_token+global_search"}, {"md_atom_id": "md_dmSE_assn_a003", "md_file": "knowledge_base/domains/SE/assumptions.md", "md_atom_type": "SENTENCE", "md_parent_section": "§SE [SE — Assumptions]", "md_verbatim": "The SE domain allows the submission of data on the timing of the trial elements a subject actually passed through in their participation in the trial. Section 7.2.2, Trial Elements, and Section 7.2.1, Trial Arms, provide additional information on these datasets, which define a trial's planned elements and describe the planned sequences of elements for the arms of the trial.", "score": 0.4442, "match_basis": "verbatim_token+global_search"}, {"md_atom_id": "md_dmDS_ex_a097", "md_file": "knowledge_base/domains/DS/examples.md", "md_atom_type": "SENTENCE", "md_parent_section": "§DS.7 [Example 7]", "md_verbatim": "**Rows 2, 4:** Represent the disposition of study participation continuation for each treatment epoch, as indicated by DSSCAT = \"STUDY PARTICIPATION\".", "score": 0.4418, "match_basis": "verbatim_token+global_search"}, {"md_atom_id": "md_dmDS_ex_a076", "md_file": "knowledge_base/domains/DS/examples.md", "md_atom_type": "SENTENCE", "md_parent_section": "§DS.5 [Example 5]", "md_verbatim": "**Rows 3, 5:** Represent the study disposition for each treatment epoch, as indicated by DSSCAT = \"STUDY PARTICIPATION\".", "score": 0.4371, "match_basis": "verbatim_token+global_search"}], "candidate_count": 5, "zero_candidate": false}
{"pdf_atom_id": "ig34_p0066_a016", "pdf_atom_type": "SENTENCE", "pdf_source": "SDTMIG_v3.4", "pdf_page": 66, "pdf_parent_section": "§5 [General Observation Classes]", "pdf_verbatim": "There may be times when this period coincides with other reference periods but that is unusual.", "figure_ref": null, "candidates": [{"md_atom_id": "md_ch04_a640", "md_file": "knowledge_base/chapters/ch04_general_assumptions.md", "md_atom_type": "SENTENCE", "md_parent_section": "§4.4.7 [Use of Relative Timing Variables]", "md_verbatim": "Although --STRF and --ENRF are useful when relative timing assessments are made coincident with the start and end of the study reference period, they may not be suitable for expressing relative timing assessments collected at other times of the study.", "score": 0.4585, "match_basis": "verbatim_token+global_search"}, {"md_atom_id": "md_dmAE_ex_a006", "md_file": "knowledge_base/domains/AE/examples.md", "md_atom_type": "SENTENCE", "md_parent_section": "§AE.1 [Example 1]", "md_verbatim": "In this study, the study reference period started at the start of study treatment.", "score": 0.4527, "match_basis": "verbatim_token+global_search"}, {"md_atom_id": "md_ch04_a755", "md_file": "knowledge_base/chapters/ch04_general_assumptions.md", "md_atom_type": "SENTENCE", "md_parent_section": "§4.4.10 [Representing Time Points]", "md_verbatim": "Option 2 — VISITNUM designates period and day within period; --TPTREF designates dose within the day; --TPTNUM designates timing relative to reference time point:", "score": 0.4481, "match_basis": "verbatim_token+global_search"}, {"md_atom_id": "md_dmTV_ex_a039", "md_file": "knowledge_base/domains/TV/examples.md", "md_atom_type": "SENTENCE", "md_parent_section": "§TV.2.2 [Trial Visit Rules]", "md_verbatim": "There are usually gaps between visits, periods of time that do not belong to any visit, so it is usually not necessary to identify the moment when one visit stops and another starts.", "score": 0.4341, "match_basis": "verbatim_token+global_search"}, {"md_atom_id": "md_ch04_a735", "md_file": "knowledge_base/chapters/ch04_general_assumptions.md", "md_atom_type": "SENTENCE", "md_parent_section": "§4.4.10 [Representing Time Points]", "md_verbatim": "Option 1 — VISITNUM designates period; --TPTREF designates day and dose; --TPTNUM designates timing relative to reference time point:", "score": 0.4184, "match_basis": "verbatim_token+global_search"}], "candidate_count": 5, "zero_candidate": false}
{"pdf_atom_id": "ig34_p0066_a017", "pdf_atom_type": "SENTENCE", "pdf_source": "SDTMIG_v3.4", "pdf_page": 66, "pdf_parent_section": "§5 [General Observation Classes]", "pdf_verbatim": "An example of when these periods might coincide with the study reference period, RFSTDTC to RFENDTC, might be an observational trial where no study intervention is administered.", "figure_ref": null, "candidates": [{"md_atom_id": "md_ch04_a1007", "md_file": "knowledge_base/chapters/ch04_general_assumptions.md", "md_atom_type": "SENTENCE", "md_parent_section": "§4.5.7 [Presence or Absence of Prespecified Interventions and Events]", "md_verbatim": "Refer to the standard domains in the Events and Interventions general observation classes for additional assumptions and examples.", "score": 0.4473, "match_basis": "verbatim_token+global_search"}, {"md_atom_id": "md_model02_a012", "md_file": "knowledge_base/model/02_observation_classes.md", "md_atom_type": "SENTENCE", "md_parent_section": "§3.1.1 The Interventions Observation Class", "md_verbatim": "The Interventions Observation Class represents investigational, therapeutic, and other treatments that are administered to or used by a subject (with some actual or expected physiological effect).", "score": 0.4343, "match_basis": "verbatim_token+global_search"}, {"md_atom_id": "md_ch04_a629", "md_file": "knowledge_base/chapters/ch04_general_assumptions.md", "md_atom_type": "SENTENCE", "md_parent_section": "§4.4.7 [Use of Relative Timing Variables]", "md_verbatim": "The variables --STRF and --ENRF represent the timing of an observation relative to the sponsor-defined study reference period, when information such as \"BEFORE\", \"PRIOR\", \"ONGOING\", or \"CONTINUING\" is collected in lieu of a date and this collected information is in relation to the sponsor-defined study reference period.", "score": 0.4333, "match_basis": "verbatim_token+global_search"}, {"md_atom_id": "md_ch04_a640", "md_file": "knowledge_base/chapters/ch04_general_assumptions.md", "md_atom_type": "SENTENCE", "md_parent_section": "§4.4.7 [Use of Relative Timing Variables]", "md_verbatim": "Although --STRF and --ENRF are useful when relative timing assessments are made coincident with the start and end of the study reference period, they may not be suitable for expressing relative timing assessments collected at other times of the study.", "score": 0.4295, "match_basis": "verbatim_token+global_search"}, {"md_atom_id": "md_ch04_a018", "md_file": "knowledge_base/chapters/ch04_general_assumptions.md", "md_atom_type": "SENTENCE", "md_parent_section": "§4.1.3.1 [EPOCH Variable Guidance]", "md_verbatim": "For observations in Interventions or Events class domains, EPOCH should be based on the --STDTC variable, since this is the start of the intervention or event.", "score": 0.4278, "match_basis": "verbatim_token+global_search"}], "candidate_count": 5, "zero_candidate": false}
{"pdf_atom_id": "ig34_p0066_a018", "pdf_atom_type": "SENTENCE", "pdf_source": "SDTMIG_v3.4", "pdf_page": 66, "pdf_parent_section": "§5 [General Observation Classes]", "pdf_verbatim": "RFICIDITC should correspond to the date of the informed consent protocol milestone in Disposition (DS), if that protocol milestone is documented in DS.", "figure_ref": null, "candidates": [{"md_atom_id": "md_dmDS_ex_a187", "md_file": "knowledge_base/domains/DS/examples.md", "md_atom_type": "SENTENCE", "md_parent_section": "§DS.10 [Example 10]", "md_verbatim": "The DS dataset shows the disposition events and protocol milestones for each subject.", "score": 0.5, "match_basis": "verbatim_token+global_search"}, {"md_atom_id": "md_dmDD_ex_a026", "md_file": "knowledge_base/domains/DD/examples.md", "md_atom_type": "SENTENCE", "md_parent_section": "§DD.2 [Example 2]", "md_verbatim": "**Rows 1-2:** Show typical protocol milestones and disposition events.", "score": 0.4895, "match_basis": "verbatim_token+global_search"}, {"md_atom_id": "md_ch04_a389", "md_file": "knowledge_base/chapters/ch04_general_assumptions.md", "md_atom_type": "SENTENCE", "md_parent_section": "§4.2.8.3 [Multiple Values for a Non-result Qualifier Variable]", "md_verbatim": "If the sponsor has clearly documented that one response is of primary interest (e.g., in the CRF, protocol, or analysis plan), the standard domain variable may be populated with the primary response and SUPP-- may be used to store the secondary response(s).", "score": 0.445, "match_basis": "verbatim_token+global_search"}, {"md_atom_id": "md_dmDS_ex_a119", "md_file": "knowledge_base/domains/DS/examples.md", "md_atom_type": "SENTENCE", "md_parent_section": "§DS.9 [Example 9]", "md_verbatim": "**Row 2:** Shows randomization, another event with DSCAT = \"PROTOCOL MILESTONE\".", "score": 0.4256, "match_basis": "verbatim_token+global_search"}, {"md_atom_id": "md_dmDS_ex_a004", "md_file": "knowledge_base/domains/DS/examples.md", "md_atom_type": "SENTENCE", "md_parent_section": "§DS.1 [Example 1]", "md_verbatim": "Data were also collected about several protocol milestones represented with DSCAT = \"PROTOCOL MILESTONE\".", "score": 0.4253, "match_basis": "verbatim_token+global_search"}], "candidate_count": 5, "zero_candidate": false}
{"pdf_atom_id": "ig34_p0066_a019", "pdf_atom_type": "SENTENCE", "pdf_source": "SDTMIG_v3.4", "pdf_page": 66, "pdf_parent_section": "§5 [General Observation Classes]", "pdf_verbatim": "In the event that there are multiple informed consents, this will be the date of the first.", "figure_ref": null, "candidates": [{"md_atom_id": "md_dmSV_ex_a020", "md_file": "knowledge_base/domains/SV/examples.md", "md_atom_type": "SENTENCE", "md_parent_section": "§SV.1 [Example 1]", "md_verbatim": "**Row 1:** Shows informed consent for subject 37.", "score": 0.45, "match_basis": "verbatim_token+global_search"}, {"md_atom_id": "md_dmSV_ex_a022", "md_file": "knowledge_base/domains/SV/examples.md", "md_atom_type": "SENTENCE", "md_parent_section": "§SV.1 [Example 1]", "md_verbatim": "**Row 3:** Shows informed consent for subject 85.", "score": 0.45, "match_basis": "verbatim_token+global_search"}, {"md_atom_id": "md_dmSV_ex_a024", "md_file": "knowledge_base/domains/SV/examples.md", "md_atom_type": "SENTENCE", "md_parent_section": "§SV.1 [Example 1]", "md_verbatim": "**Row 5:** Shows informed consent for subject 101.", "score": 0.4467, "match_basis": "verbatim_token+global_search"}, {"md_atom_id": "md_ch08_a271", "md_file": "knowledge_base/chapters/ch08_relationships.md", "md_atom_type": "SENTENCE", "md_parent_section": "§8.6.3 [Guidelines for Differentiating Between Interventions, Events, Findings, and Findings About Events or Interventions]", "md_verbatim": "If there are multiple assessments of an event, then each should be stored in a separate FA record.", "score": 0.4452, "match_basis": "verbatim_token+global_search"}, {"md_atom_id": "md_dmDS_ex_a118", "md_file": "knowledge_base/domains/DS/examples.md", "md_atom_type": "SENTENCE", "md_parent_section": "§DS.9 [Example 9]", "md_verbatim": "**Row 1:** Shows the obtaining of the initial study informed consent.", "score": 0.4358, "match_basis": "verbatim_token+global_search"}], "candidate_count": 5, "zero_candidate": false}
{"pdf_atom_id": "ig34_p0066_a020", "pdf_atom_type": "SENTENCE", "pdf_source": "SDTMIG_v3.4", "pdf_page": 66, "pdf_parent_section": "§5 [General Observation Classes]", "pdf_verbatim": "RFPENDTC will be the last date of any record for the subject in the database at the time it is locked for submission.", "figure_ref": null, "candidates": [{"md_atom_id": "md_ch04_a350", "md_file": "knowledge_base/chapters/ch04_general_assumptions.md", "md_atom_type": "SENTENCE", "md_parent_section": "§4.2.8.1 [Multiple Values for an Intervention or Event Topic Variable]", "md_verbatim": "By the time of submission, datasets should be in conformance with the record structures described in the SDTMIG.", "score": 0.4462, "match_basis": "verbatim_token+global_search"}, {"md_atom_id": "md_dmSE_ex_a007", "md_file": "knowledge_base/domains/SE/examples.md", "md_atom_type": "SENTENCE", "md_parent_section": "§SE.1 [Example 1]", "md_verbatim": "**Row 3:** The record for the ORAL element for subject 789. Only the date, and not the time, of the start of follow-up was collected.", "score": 0.4324, "match_basis": "verbatim_token+global_search"}, {"md_atom_id": "md_dmDS_ex_a237", "md_file": "knowledge_base/domains/DS/examples.md", "md_atom_type": "SENTENCE", "md_parent_section": "§DS.11 [Example 11]", "md_verbatim": "The SE dataset records the elements this subject experienced.", "score": 0.4258, "match_basis": "verbatim_token+global_search"}, {"md_atom_id": "md_dmSE_ex_a006", "md_file": "knowledge_base/domains/SE/examples.md", "md_atom_type": "SENTENCE", "md_parent_section": "§SE.1 [Example 1]", "md_verbatim": "**Row 2:** The record for the IV element for subject 789. The IV element started with the start of IV dosing and ended with the start of oral dosing, and full date/times were collected for both.", "score": 0.4247, "match_basis": "verbatim_token+global_search"}, {"md_atom_id": "md_dmAE_ex_a028", "md_file": "knowledge_base/domains/AE/examples.md", "md_atom_type": "SENTENCE", "md_parent_section": "§AE.2 [Example 2]", "md_verbatim": "The subject did not experience diarrhea, so no record for that term exists in the AE dataset.", "score": 0.4235, "match_basis": "verbatim_token+global_search"}], "candidate_count": 5, "zero_candidate": false}
{"pdf_atom_id": "ig34_p0066_a021", "pdf_atom_type": "SENTENCE", "pdf_source": "SDTMIG_v3.4", "pdf_page": 66, "pdf_parent_section": "§5 [General Observation Classes]", "pdf_verbatim": "As such, it may not be the last date of participation in the study if the submission includes interim data.", "figure_ref": null, "candidates": [{"md_atom_id": "md_dmDS_ex_a158", "md_file": "knowledge_base/domains/DS/examples.md", "md_atom_type": "SENTENCE", "md_parent_section": "§DS.10 [Example 10]", "md_verbatim": "The DM dataset includes the arm to which the subjects were randomized, and the dates of informed consent, start of study treatment, end of study treatment, and end of study participation.", "score": 0.4765, "match_basis": "verbatim_token+global_search"}, {"md_atom_id": "md_ch04_a026", "md_file": "knowledge_base/chapters/ch04_general_assumptions.md", "md_atom_type": "SENTENCE", "md_parent_section": "§4.1.3.1 [EPOCH Variable Guidance]", "md_verbatim": "Note that a subject's participation in a study includes screening, which generally occurs before the reference start date (RFSTDTC) in the Demographics (DM) domain.", "score": 0.4485, "match_basis": "verbatim_token+global_search"}, {"md_atom_id": "md_ch04_a431", "md_file": "knowledge_base/chapters/ch04_general_assumptions.md", "md_atom_type": "SENTENCE", "md_parent_section": "§4.3.3 [Controlled Terminology Values]", "md_verbatim": "All values in the permissible value set for the study should be included, whether or not they are represented in submitted data.", "score": 0.4481, "match_basis": "verbatim_token+global_search"}, {"md_atom_id": "md_dmDS_ex_a253", "md_file": "knowledge_base/domains/DS/examples.md", "md_atom_type": "SENTENCE", "md_parent_section": "§DS.11 [Example 11]", "md_verbatim": "**Row 7:** Shows disposition of study participation in the follow-up epoch. The subject died.", "score": 0.4455, "match_basis": "verbatim_token+global_search"}, {"md_atom_id": "md_dmDS_ex_a252", "md_file": "knowledge_base/domains/DS/examples.md", "md_atom_type": "SENTENCE", "md_parent_section": "§DS.11 [Example 11]", "md_verbatim": "**Row 6:** Shows disposition of study participation in the treatment epoch.", "score": 0.4429, "match_basis": "verbatim_token+global_search"}], "candidate_count": 5, "zero_candidate": false}
{"pdf_atom_id": "ig34_p0067_a001", "pdf_atom_type": "SENTENCE", "pdf_source": "SDTMIG_v3.4", "pdf_page": 67, "pdf_parent_section": "§5 [General Observation Classes]", "pdf_verbatim": "When the values of the variables may be exactly the same, particularly with RFSTDTC-RFENDTC and RFXSTDTC-RFXENDTC.", "figure_ref": null, "candidates": [{"md_atom_id": "md_dmDM_assn_a026", "md_file": "knowledge_base/domains/DM/assumptions.md", "md_atom_type": "LIST_ITEM", "md_parent_section": "§DM [DM — Assumptions]", "md_verbatim": "10. The DM domain contains several pairs of reference period variables: RFSTDTC and RFENDTC, RFXSTDTC and RFXENDTC, RFCSTDTC and RFCENDTC, and RFICDTC and RFPENDTC. There are 4 sets of reference variables to accommodate distinct reference-period definitions and there are instances when the values of the variables may be exactly the same, particularly with RFSTDTC-RFENDTC and RFXSTDTC-RFXENDTC.", "score": 0.451, "match_basis": "verbatim_token+global_search"}, {"md_atom_id": "md_ch04_a1040", "md_file": "knowledge_base/chapters/ch04_general_assumptions.md", "md_atom_type": "SENTENCE", "md_parent_section": "§4.5.9 [Baseline Values]", "md_verbatim": "The content of --LOBXFL and ABLFL will be exactly the same when the SAP specifies that the baseline used for analysis is the last non-missing value prior to RFXSTDTC.", "score": 0.4286, "match_basis": "verbatim_token+global_search"}, {"md_atom_id": "md_dmTA_ex_a272", "md_file": "knowledge_base/domains/TA/examples.md", "md_atom_type": "SENTENCE", "md_parent_section": "§TA.8.4 [Rule Variables]", "md_verbatim": "At the moment, values of Rule variables are text.", "score": 0.4241, "match_basis": "verbatim_token+global_search"}, {"md_atom_id": "md_ch04_a177", "md_file": "knowledge_base/chapters/ch04_general_assumptions.md", "md_atom_type": "SENTENCE", "md_parent_section": "§4.2.1 [Variable-Naming Conventions]", "md_verbatim": "Values of other \"CD\" variables are **not** subject to the same restrictions as --TESTCD:", "score": 0.4183, "match_basis": "verbatim_token+global_search"}, {"md_atom_id": "md_ch04_a548", "md_file": "knowledge_base/chapters/ch04_general_assumptions.md", "md_atom_type": "SENTENCE", "md_parent_section": "§4.4.3.1 [Intervals of Time and Use of Duration]", "md_verbatim": "As defined by ISO 8601, an interval of time is the part of a time axis, limited by 2 time \"instants\" such as the times represented in SDTM by the variables --STDTC and --ENDTC.", "score": 0.4146, "match_basis": "verbatim_token+global_search"}], "candidate_count": 5, "zero_candidate": false}
