{"pdf_atom_id": "ig34_p0360_a002", "pdf_atom_type": "TABLE_ROW", "pdf_source": "SDTMIG_v3.4", "pdf_page": 360, "pdf_parent_section": "VS – Specification", "pdf_verbatim": "| VSELTM | Planned Elapsed Time from Time Point Ref | Char | ISO 8601 duration | Timing | Planned elapsed time (in ISO 8601) relative to a planned fixed reference (VSTPTREF). This variable is useful where there are repetitive measures. Not a clock time or a date time variable. Represented as an ISO 8601 Duration. Examples: \"-PT15M\" to represent the period of 15 minutes prior to the reference point indicated by VSTPTREF, \"PT8H\" to represent the period of 8 hours after the reference point indicated by VSTPTREF. | Perm |", "figure_ref": null, "candidates": [{"md_atom_id": "md_dmVS_ex_a014", "md_file": "knowledge_base/domains/VS/examples.md", "md_atom_type": "TABLE_ROW", "md_parent_section": "§VS.1 [Example 1]", "md_verbatim": "| 3 | ABC | VS | ABC-001-001 | 3 | DIABP | Diastolic Blood Pressure | SITTING | 44 | mmHg | 44 | 44 | mmHg | | | ARM | LEFT | | 1 | Baseline | 1 | 1999-06-19T08:45 | 1 | BASELINE | 1 |", "score": 0.4259, "match_basis": "verbatim_token+domain_route:VS"}, {"md_atom_id": "md_dmVS_ex_a015", "md_file": "knowledge_base/domains/VS/examples.md", "md_atom_type": "TABLE_ROW", "md_parent_section": "§VS.1 [Example 1]", "md_verbatim": "| 4 | ABC | VS | ABC-001-001 | 4 | DIABP | Diastolic Blood Pressure | SITTING | 48 | mmHg | 48 | 48 | mmHg | | | ARM | LEFT | Y | 1 | Baseline | 1 | 1999-06-19T09:00 | 1 | BASELINE | 2 |", "score": 0.4259, "match_basis": "verbatim_token+domain_route:VS"}, {"md_atom_id": "md_dmVS_ex_a017", "md_file": "knowledge_base/domains/VS/examples.md", "md_atom_type": "TABLE_ROW", "md_parent_section": "§VS.1 [Example 1]", "md_verbatim": "| 6 | ABC | VS | ABC-001-001 | 6 | TEMP | Temperature | | 34.7 | C | 34.7 | 34.7 | C | | | SUBLINGUAL REGION | | | 1 | Baseline | 1 | 1999-06-19T08:45 | 1 | BASELINE | 1 |", "score": 0.4232, "match_basis": "verbatim_token+domain_route:VS"}, {"md_atom_id": "md_dmVS_ex_a018", "md_file": "knowledge_base/domains/VS/examples.md", "md_atom_type": "TABLE_ROW", "md_parent_section": "§VS.1 [Example 1]", "md_verbatim": "| 7 | ABC | VS | ABC-001-001 | 7 | TEMP | Temperature | | 38.2 | C | 38.2 | 38.2 | C | | | SUBLINGUAL REGION | | Y | 1 | Baseline | 1 | 1999-06-19T09:00 | 1 | BASELINE | 2 |", "score": 0.4232, "match_basis": "verbatim_token+domain_route:VS"}, {"md_atom_id": "md_dmVS_ex_a022", "md_file": "knowledge_base/domains/VS/examples.md", "md_atom_type": "TABLE_ROW", "md_parent_section": "§VS.1 [Example 1]", "md_verbatim": "| 11 | ABC | VS | ABC-001-001 | 11 | DIABP | Diastolic Blood Pressure | SITTING | 44 | mmHg | 44 | 44 | mmHg | | | ARM | LEFT | | 2 | Visit 2 | 35 | 1999-07-21 | 33 | | |", "score": 0.4231, "match_basis": "verbatim_token+domain_route:VS"}], "candidate_count": 5, "zero_candidate": false}
{"pdf_atom_id": "ig34_p0360_a003", "pdf_atom_type": "TABLE_ROW", "pdf_source": "SDTMIG_v3.4", "pdf_page": 360, "pdf_parent_section": "VS – Specification", "pdf_verbatim": "| VSTPTREF | Time Point Reference | Char | | Timing | Name of the fixed reference point referred to by VSELTM, VSTPTNUM, and VSTPT. Examples: \"PREVIOUS DOSE\", \"PREVIOUS MEAL\". | Perm |", "figure_ref": null, "candidates": [{"md_atom_id": "md_dmVS_ex_a019", "md_file": "knowledge_base/domains/VS/examples.md", "md_atom_type": "TABLE_ROW", "md_parent_section": "§VS.1 [Example 1]", "md_verbatim": "| 8 | ABC | VS | ABC-001-001 | 8 | WEIGHT | Weight | STANDING | 90.5 | kg | 90.5 | 90.5 | kg | | | | | Y | 1 | Baseline | 1 | 1999-06-19 | 1 | | |", "score": 0.4243, "match_basis": "verbatim_token+domain_route:VS"}, {"md_atom_id": "md_dmVS_ex_a020", "md_file": "knowledge_base/domains/VS/examples.md", "md_atom_type": "TABLE_ROW", "md_parent_section": "§VS.1 [Example 1]", "md_verbatim": "| 9 | ABC | VS | ABC-001-001 | 9 | HEIGHT | Height | STANDING | 157 | cm | 157 | 157 | cm | | | | | Y | 1 | Baseline | 1 | 1999-06-19 | 1 | | |", "score": 0.424, "match_basis": "verbatim_token+domain_route:VS"}, {"md_atom_id": "md_dmVS_ex_a016", "md_file": "knowledge_base/domains/VS/examples.md", "md_atom_type": "TABLE_ROW", "md_parent_section": "§VS.1 [Example 1]", "md_verbatim": "| 5 | ABC | VS | ABC-001-001 | 5 | PULSE | Pulse Rate | SITTING | 72 | beats/min | 72 | 72 | beats/min | | | ARM | LEFT | Y | 1 | Baseline | 1 | 1999-06-19 | 1 | | |", "score": 0.4222, "match_basis": "verbatim_token+domain_route:VS"}, {"md_atom_id": "md_dmVS_ex_a017", "md_file": "knowledge_base/domains/VS/examples.md", "md_atom_type": "TABLE_ROW", "md_parent_section": "§VS.1 [Example 1]", "md_verbatim": "| 6 | ABC | VS | ABC-001-001 | 6 | TEMP | Temperature | | 34.7 | C | 34.7 | 34.7 | C | | | SUBLINGUAL REGION | | | 1 | Baseline | 1 | 1999-06-19T08:45 | 1 | BASELINE | 1 |", "score": 0.4207, "match_basis": "verbatim_token+domain_route:VS"}, {"md_atom_id": "md_dmVS_ex_a018", "md_file": "knowledge_base/domains/VS/examples.md", "md_atom_type": "TABLE_ROW", "md_parent_section": "§VS.1 [Example 1]", "md_verbatim": "| 7 | ABC | VS | ABC-001-001 | 7 | TEMP | Temperature | | 38.2 | C | 38.2 | 38.2 | C | | | SUBLINGUAL REGION | | Y | 1 | Baseline | 1 | 1999-06-19T09:00 | 1 | BASELINE | 2 |", "score": 0.4207, "match_basis": "verbatim_token+domain_route:VS"}], "candidate_count": 5, "zero_candidate": false}
{"pdf_atom_id": "ig34_p0360_a004", "pdf_atom_type": "TABLE_ROW", "pdf_source": "SDTMIG_v3.4", "pdf_page": 360, "pdf_parent_section": "VS – Specification", "pdf_verbatim": "| VSRFTDTC | Date/Time of Reference Time Point | Char | ISO 8601 datetime or interval | Timing | Date/time of the reference time point, VSTPTREF. | Perm |", "figure_ref": null, "candidates": [{"md_atom_id": "md_dmVS_ex_a016", "md_file": "knowledge_base/domains/VS/examples.md", "md_atom_type": "TABLE_ROW", "md_parent_section": "§VS.1 [Example 1]", "md_verbatim": "| 5 | ABC | VS | ABC-001-001 | 5 | PULSE | Pulse Rate | SITTING | 72 | beats/min | 72 | 72 | beats/min | | | ARM | LEFT | Y | 1 | Baseline | 1 | 1999-06-19 | 1 | | |", "score": 0.4269, "match_basis": "verbatim_token+domain_route:VS"}, {"md_atom_id": "md_dmVS_ex_a023", "md_file": "knowledge_base/domains/VS/examples.md", "md_atom_type": "TABLE_ROW", "md_parent_section": "§VS.1 [Example 1]", "md_verbatim": "| 12 | ABC | VS | ABC-001-001 | 12 | TEMP | Temperature | | 97.16 | F | 38.2 | 36.2 | C | | | SUBLINGUAL REGION | | | 2 | Visit 2 | 35 | 1999-07-21 | 33 | | |", "score": 0.4174, "match_basis": "verbatim_token+domain_route:VS"}, {"md_atom_id": "md_dmVS_ex_a017", "md_file": "knowledge_base/domains/VS/examples.md", "md_atom_type": "TABLE_ROW", "md_parent_section": "§VS.1 [Example 1]", "md_verbatim": "| 6 | ABC | VS | ABC-001-001 | 6 | TEMP | Temperature | | 34.7 | C | 34.7 | 34.7 | C | | | SUBLINGUAL REGION | | | 1 | Baseline | 1 | 1999-06-19T08:45 | 1 | BASELINE | 1 |", "score": 0.4162, "match_basis": "verbatim_token+domain_route:VS"}, {"md_atom_id": "md_dmVS_ex_a018", "md_file": "knowledge_base/domains/VS/examples.md", "md_atom_type": "TABLE_ROW", "md_parent_section": "§VS.1 [Example 1]", "md_verbatim": "| 7 | ABC | VS | ABC-001-001 | 7 | TEMP | Temperature | | 38.2 | C | 38.2 | 38.2 | C | | | SUBLINGUAL REGION | | Y | 1 | Baseline | 1 | 1999-06-19T09:00 | 1 | BASELINE | 2 |", "score": 0.4162, "match_basis": "verbatim_token+domain_route:VS"}, {"md_atom_id": "md_dmVS_ex_a019", "md_file": "knowledge_base/domains/VS/examples.md", "md_atom_type": "TABLE_ROW", "md_parent_section": "§VS.1 [Example 1]", "md_verbatim": "| 8 | ABC | VS | ABC-001-001 | 8 | WEIGHT | Weight | STANDING | 90.5 | kg | 90.5 | 90.5 | kg | | | | | Y | 1 | Baseline | 1 | 1999-06-19 | 1 | | |", "score": 0.4097, "match_basis": "verbatim_token+domain_route:VS"}], "candidate_count": 5, "zero_candidate": false}
{"pdf_atom_id": "ig34_p0360_a005", "pdf_atom_type": "NOTE", "pdf_source": "SDTMIG_v3.4", "pdf_page": 360, "pdf_parent_section": "VS – Specification", "pdf_verbatim": "¹In this column, an asterisk (*) indicates that the variable may be subject to controlled terminology. CDISC/NCI codelist values are enclosed in parentheses.", "figure_ref": null, "candidates": [{"md_atom_id": "md_dmVS_ex_a008", "md_file": "knowledge_base/domains/VS/examples.md", "md_atom_type": "NOTE", "md_parent_section": "§VS.1 [Example 1]", "md_verbatim": "**Row 13:** Shows the proper use of the --STAT variable to indicate \"NOT DONE\" where a reason was collected when a test was not done.", "score": 0.5029, "match_basis": "verbatim_token+domain_route:VS"}, {"md_atom_id": "md_dmVS_ex_a005", "md_file": "knowledge_base/domains/VS/examples.md", "md_atom_type": "NOTE", "md_parent_section": "§VS.1 [Example 1]", "md_verbatim": "**Rows 2, 4-5, 7-9:** VSLOBXFL=\"Y\" indicates that the observation was used as the last observation before exposure measurement.", "score": 0.4684, "match_basis": "verbatim_token+domain_route:VS"}, {"md_atom_id": "md_dmVS_ex_a007", "md_file": "knowledge_base/domains/VS/examples.md", "md_atom_type": "NOTE", "md_parent_section": "§VS.1 [Example 1]", "md_verbatim": "**Row 12:** Shows a value collected in one unit, but converted to selected standard unit.", "score": 0.4471, "match_basis": "verbatim_token+domain_route:VS"}, {"md_atom_id": "md_dmVS_ex_a004", "md_file": "knowledge_base/domains/VS/examples.md", "md_atom_type": "NOTE", "md_parent_section": "§VS.1 [Example 1]", "md_verbatim": "**Rows 1-4, 6-7:** VSTPT and VSTPTNUM are populated because more than 1 measurement was taken at this visit.", "score": 0.431, "match_basis": "verbatim_token+domain_route:VS"}, {"md_atom_id": "md_dmVS_ex_a006", "md_file": "knowledge_base/domains/VS/examples.md", "md_atom_type": "NOTE", "md_parent_section": "§VS.1 [Example 1]", "md_verbatim": "**Rows 10-11:** Show blood pressure observations obtained at visit 2.", "score": 0.4, "match_basis": "verbatim_token+domain_route:VS"}], "candidate_count": 5, "zero_candidate": false}
{"pdf_atom_id": "ig34_p0360_a006", "pdf_atom_type": "HEADING", "pdf_source": "SDTMIG_v3.4", "pdf_page": 360, "pdf_parent_section": "§6.3.13 Vital Signs (VS)", "pdf_verbatim": "VS – Assumptions", "figure_ref": null, "candidates": [{"md_atom_id": "md_dmVS_assn_a001", "md_file": "knowledge_base/domains/VS/assumptions.md", "md_atom_type": "HEADING", "md_parent_section": "§VS [VS — Assumptions]", "md_verbatim": "# VS — Assumptions", "score": 1.0, "match_basis": "verbatim_token+domain_route:VS"}, {"md_atom_id": "md_dmVS_ex_a001", "md_file": "knowledge_base/domains/VS/examples.md", "md_atom_type": "HEADING", "md_parent_section": "§VS [VS — Examples]", "md_verbatim": "# VS — Examples", "score": 0.4, "match_basis": "verbatim_token+domain_route:VS"}, {"md_atom_id": "md_dmVS_ex_a002", "md_file": "knowledge_base/domains/VS/examples.md", "md_atom_type": "HEADING", "md_parent_section": "§VS [VS — Examples]", "md_verbatim": "## Example 1", "score": 0.4, "match_basis": "verbatim_token+domain_route:VS"}], "candidate_count": 3, "zero_candidate": false}
{"pdf_atom_id": "ig34_p0360_a007", "pdf_atom_type": "LIST_ITEM", "pdf_source": "SDTMIG_v3.4", "pdf_page": 360, "pdf_parent_section": "VS – Assumptions", "pdf_verbatim": "1.    In cases where the LOINC dictionary is used for vital sign tests, the permissible variable VSLOINC may be used. Sponsors are expected to provide the dictionary name and version used to map terms using the external codelist element in the Define-XML document.", "figure_ref": null, "candidates": [{"md_atom_id": "md_dmVS_assn_a002", "md_file": "knowledge_base/domains/VS/assumptions.md", "md_atom_type": "LIST_ITEM", "md_parent_section": "§VS [VS — Assumptions]", "md_verbatim": "1. In cases where the LOINC dictionary is used for vital sign tests, the permissible variable VSLOINC may be used. Sponsors are expected to provide the dictionary name and version used to map terms using the external codelist element in the Define-XML document.", "score": 1.0, "match_basis": "verbatim_token+domain_route:VS"}, {"md_atom_id": "md_dmVS_assn_a004", "md_file": "knowledge_base/domains/VS/assumptions.md", "md_atom_type": "LIST_ITEM", "md_parent_section": "§VS [VS — Assumptions]", "md_verbatim": "3. Associations between some vital sign tests and qualifier codelists are described in the VS codetable, available at https://www.cdisc.org/standards/terminology/controlled-terminology.", "score": 0.4904, "match_basis": "verbatim_token+domain_route:VS"}, {"md_atom_id": "md_dmVS_assn_a003", "md_file": "knowledge_base/domains/VS/assumptions.md", "md_atom_type": "LIST_ITEM", "md_parent_section": "§VS [VS — Assumptions]", "md_verbatim": "2. If a reference range is available for a vital signs test, the variables VSORNRLO, VSORNRHI, VSNRIND from the Findings observation class may be added to the domain. VSORNRLO and VSORNRHI would represent the reference range, and VSNRIND would be used to indicate where a result falls with respect to the reference range (e.g., \"HIGH\", \"LOW\"). If toxicity grading is available, values would be represented in the variables VSTOX and VSTOXGR. Clinical significance would be represented in VSCLSIG, as described in Section 4.5.5, Clinical Significance for Findings Observation Class Data.", "score": 0.49, "match_basis": "verbatim_token+domain_route:VS"}, {"md_atom_id": "md_dmVS_assn_a005", "md_file": "knowledge_base/domains/VS/assumptions.md", "md_atom_type": "LIST_ITEM", "md_parent_section": "§VS [VS — Assumptions]", "md_verbatim": "4. Any Identifiers, Timing variables, or Findings general observation class qualifiers may be added to the VS domain, but the following qualifiers would not generally be used: --BODSYS, --XFN, --SPEC, --SPCCND, --FAST.", "score": 0.4643, "match_basis": "verbatim_token+domain_route:VS"}, {"md_atom_id": "md_dmVS_ex_a008", "md_file": "knowledge_base/domains/VS/examples.md", "md_atom_type": "NOTE", "md_parent_section": "§VS.1 [Example 1]", "md_verbatim": "**Row 13:** Shows the proper use of the --STAT variable to indicate \"NOT DONE\" where a reason was collected when a test was not done.", "score": 0.3391, "match_basis": "verbatim_token+domain_route:VS"}], "candidate_count": 5, "zero_candidate": false}
{"pdf_atom_id": "ig34_p0360_a008", "pdf_atom_type": "LIST_ITEM", "pdf_source": "SDTMIG_v3.4", "pdf_page": 360, "pdf_parent_section": "VS – Assumptions", "pdf_verbatim": "2.    If a reference range is available for a vital signs test, the variables VSORNRLO, VSORNRHI, VSNRIND from the Findings observation class may be added to the domain. VSORNRLO and VSORNRHI would represent the reference range, and VSNRIND would be used to indicate where a result falls with respect to the reference range (e.g., \"HIGH\", \"LOW\").  If toxicity grading is available, values would be represented in the variables VSTOX and VSTOXGR. Clinical significance would be represented in VSCLSIG, as described in Section 4.5.5, Clinical Significance for Findings Observation Class Data.", "figure_ref": null, "candidates": [{"md_atom_id": "md_dmVS_assn_a003", "md_file": "knowledge_base/domains/VS/assumptions.md", "md_atom_type": "LIST_ITEM", "md_parent_section": "§VS [VS — Assumptions]", "md_verbatim": "2. If a reference range is available for a vital signs test, the variables VSORNRLO, VSORNRHI, VSNRIND from the Findings observation class may be added to the domain. VSORNRLO and VSORNRHI would represent the reference range, and VSNRIND would be used to indicate where a result falls with respect to the reference range (e.g., \"HIGH\", \"LOW\"). If toxicity grading is available, values would be represented in the variables VSTOX and VSTOXGR. Clinical significance would be represented in VSCLSIG, as described in Section 4.5.5, Clinical Significance for Findings Observation Class Data.", "score": 1.0, "match_basis": "verbatim_token+domain_route:VS"}, {"md_atom_id": "md_dmVS_assn_a005", "md_file": "knowledge_base/domains/VS/assumptions.md", "md_atom_type": "LIST_ITEM", "md_parent_section": "§VS [VS — Assumptions]", "md_verbatim": "4. Any Identifiers, Timing variables, or Findings general observation class qualifiers may be added to the VS domain, but the following qualifiers would not generally be used: --BODSYS, --XFN, --SPEC, --SPCCND, --FAST.", "score": 0.5421, "match_basis": "verbatim_token+domain_route:VS"}, {"md_atom_id": "md_dmVS_assn_a002", "md_file": "knowledge_base/domains/VS/assumptions.md", "md_atom_type": "LIST_ITEM", "md_parent_section": "§VS [VS — Assumptions]", "md_verbatim": "1. In cases where the LOINC dictionary is used for vital sign tests, the permissible variable VSLOINC may be used. Sponsors are expected to provide the dictionary name and version used to map terms using the external codelist element in the Define-XML document.", "score": 0.49, "match_basis": "verbatim_token+domain_route:VS"}, {"md_atom_id": "md_dmVS_assn_a004", "md_file": "knowledge_base/domains/VS/assumptions.md", "md_atom_type": "LIST_ITEM", "md_parent_section": "§VS [VS — Assumptions]", "md_verbatim": "3. Associations between some vital sign tests and qualifier codelists are described in the VS codetable, available at https://www.cdisc.org/standards/terminology/controlled-terminology.", "score": 0.4792, "match_basis": "verbatim_token+domain_route:VS"}, {"md_atom_id": "md_dmVS_ex_a003", "md_file": "knowledge_base/domains/VS/examples.md", "md_atom_type": "SENTENCE", "md_parent_section": "§VS.1 [Example 1]", "md_verbatim": "This example shows results for 1 subject from 2 visits (i.e., baseline, visit 2).", "score": 0.3409, "match_basis": "verbatim_token+domain_route:VS"}], "candidate_count": 5, "zero_candidate": false}
{"pdf_atom_id": "ig34_p0360_a009", "pdf_atom_type": "LIST_ITEM", "pdf_source": "SDTMIG_v3.4", "pdf_page": 360, "pdf_parent_section": "VS – Assumptions", "pdf_verbatim": "3.    Associations between some vital sign tests and qualifier codelists are described in the VS codetable, available at https://www.cdisc.org/standards/terminology/controlled-terminology.", "figure_ref": null, "candidates": [{"md_atom_id": "md_dmVS_assn_a004", "md_file": "knowledge_base/domains/VS/assumptions.md", "md_atom_type": "LIST_ITEM", "md_parent_section": "§VS [VS — Assumptions]", "md_verbatim": "3. Associations between some vital sign tests and qualifier codelists are described in the VS codetable, available at https://www.cdisc.org/standards/terminology/controlled-terminology.", "score": 1.0, "match_basis": "verbatim_token+domain_route:VS"}, {"md_atom_id": "md_dmVS_assn_a002", "md_file": "knowledge_base/domains/VS/assumptions.md", "md_atom_type": "LIST_ITEM", "md_parent_section": "§VS [VS — Assumptions]", "md_verbatim": "1. In cases where the LOINC dictionary is used for vital sign tests, the permissible variable VSLOINC may be used. Sponsors are expected to provide the dictionary name and version used to map terms using the external codelist element in the Define-XML document.", "score": 0.4904, "match_basis": "verbatim_token+domain_route:VS"}, {"md_atom_id": "md_dmVS_assn_a003", "md_file": "knowledge_base/domains/VS/assumptions.md", "md_atom_type": "LIST_ITEM", "md_parent_section": "§VS [VS — Assumptions]", "md_verbatim": "2. If a reference range is available for a vital signs test, the variables VSORNRLO, VSORNRHI, VSNRIND from the Findings observation class may be added to the domain. VSORNRLO and VSORNRHI would represent the reference range, and VSNRIND would be used to indicate where a result falls with respect to the reference range (e.g., \"HIGH\", \"LOW\"). If toxicity grading is available, values would be represented in the variables VSTOX and VSTOXGR. Clinical significance would be represented in VSCLSIG, as described in Section 4.5.5, Clinical Significance for Findings Observation Class Data.", "score": 0.4792, "match_basis": "verbatim_token+domain_route:VS"}, {"md_atom_id": "md_dmVS_assn_a005", "md_file": "knowledge_base/domains/VS/assumptions.md", "md_atom_type": "LIST_ITEM", "md_parent_section": "§VS [VS — Assumptions]", "md_verbatim": "4. Any Identifiers, Timing variables, or Findings general observation class qualifiers may be added to the VS domain, but the following qualifiers would not generally be used: --BODSYS, --XFN, --SPEC, --SPCCND, --FAST.", "score": 0.4611, "match_basis": "verbatim_token+domain_route:VS"}, {"md_atom_id": "md_dmVS_ex_a003", "md_file": "knowledge_base/domains/VS/examples.md", "md_atom_type": "SENTENCE", "md_parent_section": "§VS.1 [Example 1]", "md_verbatim": "This example shows results for 1 subject from 2 visits (i.e., baseline, visit 2).", "score": 0.315, "match_basis": "verbatim_token+domain_route:VS"}], "candidate_count": 5, "zero_candidate": false}
{"pdf_atom_id": "ig34_p0360_a010", "pdf_atom_type": "LIST_ITEM", "pdf_source": "SDTMIG_v3.4", "pdf_page": 360, "pdf_parent_section": "VS – Assumptions", "pdf_verbatim": "4.    Any Identifiers, Timing variables, or Findings general observation class qualifiers may be added to the VS domain, but the following qualifiers would not generally be used: --BODSYS, --XFN, --SPEC, --SPCCND, --FAST.", "figure_ref": null, "candidates": [{"md_atom_id": "md_dmVS_assn_a005", "md_file": "knowledge_base/domains/VS/assumptions.md", "md_atom_type": "LIST_ITEM", "md_parent_section": "§VS [VS — Assumptions]", "md_verbatim": "4. Any Identifiers, Timing variables, or Findings general observation class qualifiers may be added to the VS domain, but the following qualifiers would not generally be used: --BODSYS, --XFN, --SPEC, --SPCCND, --FAST.", "score": 1.0, "match_basis": "verbatim_token+domain_route:VS"}, {"md_atom_id": "md_dmVS_assn_a003", "md_file": "knowledge_base/domains/VS/assumptions.md", "md_atom_type": "LIST_ITEM", "md_parent_section": "§VS [VS — Assumptions]", "md_verbatim": "2. If a reference range is available for a vital signs test, the variables VSORNRLO, VSORNRHI, VSNRIND from the Findings observation class may be added to the domain. VSORNRLO and VSORNRHI would represent the reference range, and VSNRIND would be used to indicate where a result falls with respect to the reference range (e.g., \"HIGH\", \"LOW\"). If toxicity grading is available, values would be represented in the variables VSTOX and VSTOXGR. Clinical significance would be represented in VSCLSIG, as described in Section 4.5.5, Clinical Significance for Findings Observation Class Data.", "score": 0.5421, "match_basis": "verbatim_token+domain_route:VS"}, {"md_atom_id": "md_dmVS_assn_a002", "md_file": "knowledge_base/domains/VS/assumptions.md", "md_atom_type": "LIST_ITEM", "md_parent_section": "§VS [VS — Assumptions]", "md_verbatim": "1. In cases where the LOINC dictionary is used for vital sign tests, the permissible variable VSLOINC may be used. Sponsors are expected to provide the dictionary name and version used to map terms using the external codelist element in the Define-XML document.", "score": 0.4643, "match_basis": "verbatim_token+domain_route:VS"}, {"md_atom_id": "md_dmVS_assn_a004", "md_file": "knowledge_base/domains/VS/assumptions.md", "md_atom_type": "LIST_ITEM", "md_parent_section": "§VS [VS — Assumptions]", "md_verbatim": "3. Associations between some vital sign tests and qualifier codelists are described in the VS codetable, available at https://www.cdisc.org/standards/terminology/controlled-terminology.", "score": 0.4611, "match_basis": "verbatim_token+domain_route:VS"}, {"md_atom_id": "md_dmVS_ex_a005", "md_file": "knowledge_base/domains/VS/examples.md", "md_atom_type": "NOTE", "md_parent_section": "§VS.1 [Example 1]", "md_verbatim": "**Rows 2, 4-5, 7-9:** VSLOBXFL=\"Y\" indicates that the observation was used as the last observation before exposure measurement.", "score": 0.3379, "match_basis": "verbatim_token+domain_route:VS"}], "candidate_count": 5, "zero_candidate": false}
{"pdf_atom_id": "ig34_p0360_a011", "pdf_atom_type": "HEADING", "pdf_source": "SDTMIG_v3.4", "pdf_page": 360, "pdf_parent_section": "§6.3.13 Vital Signs (VS)", "pdf_verbatim": "VS – Examples", "figure_ref": null, "candidates": [{"md_atom_id": "md_dmVS_ex_a001", "md_file": "knowledge_base/domains/VS/examples.md", "md_atom_type": "HEADING", "md_parent_section": "§VS [VS — Examples]", "md_verbatim": "# VS — Examples", "score": 1.0, "match_basis": "verbatim_token+domain_route:VS"}, {"md_atom_id": "md_dmVS_ex_a002", "md_file": "knowledge_base/domains/VS/examples.md", "md_atom_type": "HEADING", "md_parent_section": "§VS [VS — Examples]", "md_verbatim": "## Example 1", "score": 0.9, "match_basis": "verbatim_token+domain_route:VS"}, {"md_atom_id": "md_dmVS_assn_a001", "md_file": "knowledge_base/domains/VS/assumptions.md", "md_atom_type": "HEADING", "md_parent_section": "§VS [VS — Assumptions]", "md_verbatim": "# VS — Assumptions", "score": 0.4, "match_basis": "verbatim_token+domain_route:VS"}], "candidate_count": 3, "zero_candidate": false}
{"pdf_atom_id": "ig34_p0360_a012", "pdf_atom_type": "HEADING", "pdf_source": "SDTMIG_v3.4", "pdf_page": 360, "pdf_parent_section": "VS – Examples", "pdf_verbatim": "Example 1", "figure_ref": null, "candidates": [{"md_atom_id": "md_dmVS_ex_a002", "md_file": "knowledge_base/domains/VS/examples.md", "md_atom_type": "HEADING", "md_parent_section": "§VS [VS — Examples]", "md_verbatim": "## Example 1", "score": 1.0, "match_basis": "verbatim_token+domain_route:VS"}, {"md_atom_id": "md_dmVS_ex_a001", "md_file": "knowledge_base/domains/VS/examples.md", "md_atom_type": "HEADING", "md_parent_section": "§VS [VS — Examples]", "md_verbatim": "# VS — Examples", "score": 0.9, "match_basis": "verbatim_token+domain_route:VS"}, {"md_atom_id": "md_dmVS_assn_a001", "md_file": "knowledge_base/domains/VS/assumptions.md", "md_atom_type": "HEADING", "md_parent_section": "§VS [VS — Assumptions]", "md_verbatim": "# VS — Assumptions", "score": 0.4, "match_basis": "verbatim_token+domain_route:VS"}], "candidate_count": 3, "zero_candidate": false}
{"pdf_atom_id": "ig34_p0360_a013", "pdf_atom_type": "SENTENCE", "pdf_source": "SDTMIG_v3.4", "pdf_page": 360, "pdf_parent_section": "VS – Examples", "pdf_verbatim": "This example shows results for 1 subject from 2 visits (i.e., baseline, visit 2).", "figure_ref": null, "candidates": [{"md_atom_id": "md_dmVS_ex_a003", "md_file": "knowledge_base/domains/VS/examples.md", "md_atom_type": "SENTENCE", "md_parent_section": "§VS.1 [Example 1]", "md_verbatim": "This example shows results for 1 subject from 2 visits (i.e., baseline, visit 2).", "score": 1.0, "match_basis": "verbatim_token+domain_route:VS"}, {"md_atom_id": "md_dmVS_ex_a006", "md_file": "knowledge_base/domains/VS/examples.md", "md_atom_type": "NOTE", "md_parent_section": "§VS.1 [Example 1]", "md_verbatim": "**Rows 10-11:** Show blood pressure observations obtained at visit 2.", "score": 0.3942, "match_basis": "verbatim_token+domain_route:VS"}, {"md_atom_id": "md_dmVS_ex_a004", "md_file": "knowledge_base/domains/VS/examples.md", "md_atom_type": "NOTE", "md_parent_section": "§VS.1 [Example 1]", "md_verbatim": "**Rows 1-4, 6-7:** VSTPT and VSTPTNUM are populated because more than 1 measurement was taken at this visit.", "score": 0.3607, "match_basis": "verbatim_token+domain_route:VS"}, {"md_atom_id": "md_dmVS_ex_a007", "md_file": "knowledge_base/domains/VS/examples.md", "md_atom_type": "NOTE", "md_parent_section": "§VS.1 [Example 1]", "md_verbatim": "**Row 12:** Shows a value collected in one unit, but converted to selected standard unit.", "score": 0.36, "match_basis": "verbatim_token+domain_route:VS"}, {"md_atom_id": "md_dmVS_ex_a008", "md_file": "knowledge_base/domains/VS/examples.md", "md_atom_type": "NOTE", "md_parent_section": "§VS.1 [Example 1]", "md_verbatim": "**Row 13:** Shows the proper use of the --STAT variable to indicate \"NOT DONE\" where a reason was collected when a test was not done.", "score": 0.3424, "match_basis": "verbatim_token+domain_route:VS"}], "candidate_count": 5, "zero_candidate": false}
{"pdf_atom_id": "ig34_p0360_a014", "pdf_atom_type": "LIST_ITEM", "pdf_source": "SDTMIG_v3.4", "pdf_page": 360, "pdf_parent_section": "VS – Examples", "pdf_verbatim": "Rows 1-4, 6-7:    VSTPT and VSTPTNUM are populated because more than 1 measurement was taken at this visit.", "figure_ref": null, "candidates": [{"md_atom_id": "md_dmVS_ex_a004", "md_file": "knowledge_base/domains/VS/examples.md", "md_atom_type": "NOTE", "md_parent_section": "§VS.1 [Example 1]", "md_verbatim": "**Rows 1-4, 6-7:** VSTPT and VSTPTNUM are populated because more than 1 measurement was taken at this visit.", "score": 0.85, "match_basis": "verbatim_token+domain_route:VS"}, {"md_atom_id": "md_dmVS_assn_a002", "md_file": "knowledge_base/domains/VS/assumptions.md", "md_atom_type": "LIST_ITEM", "md_parent_section": "§VS [VS — Assumptions]", "md_verbatim": "1. In cases where the LOINC dictionary is used for vital sign tests, the permissible variable VSLOINC may be used. Sponsors are expected to provide the dictionary name and version used to map terms using the external codelist element in the Define-XML document.", "score": 0.4302, "match_basis": "verbatim_token+domain_route:VS"}, {"md_atom_id": "md_dmVS_assn_a003", "md_file": "knowledge_base/domains/VS/assumptions.md", "md_atom_type": "LIST_ITEM", "md_parent_section": "§VS [VS — Assumptions]", "md_verbatim": "2. If a reference range is available for a vital signs test, the variables VSORNRLO, VSORNRHI, VSNRIND from the Findings observation class may be added to the domain. VSORNRLO and VSORNRHI would represent the reference range, and VSNRIND would be used to indicate where a result falls with respect to the reference range (e.g., \"HIGH\", \"LOW\"). If toxicity grading is available, values would be represented in the variables VSTOX and VSTOXGR. Clinical significance would be represented in VSCLSIG, as described in Section 4.5.5, Clinical Significance for Findings Observation Class Data.", "score": 0.419, "match_basis": "verbatim_token+domain_route:VS"}, {"md_atom_id": "md_dmVS_assn_a005", "md_file": "knowledge_base/domains/VS/assumptions.md", "md_atom_type": "LIST_ITEM", "md_parent_section": "§VS [VS — Assumptions]", "md_verbatim": "4. Any Identifiers, Timing variables, or Findings general observation class qualifiers may be added to the VS domain, but the following qualifiers would not generally be used: --BODSYS, --XFN, --SPEC, --SPCCND, --FAST.", "score": 0.4095, "match_basis": "verbatim_token+domain_route:VS"}, {"md_atom_id": "md_dmVS_assn_a004", "md_file": "knowledge_base/domains/VS/assumptions.md", "md_atom_type": "LIST_ITEM", "md_parent_section": "§VS [VS — Assumptions]", "md_verbatim": "3. Associations between some vital sign tests and qualifier codelists are described in the VS codetable, available at https://www.cdisc.org/standards/terminology/controlled-terminology.", "score": 0.4092, "match_basis": "verbatim_token+domain_route:VS"}], "candidate_count": 5, "zero_candidate": false}
{"pdf_atom_id": "ig34_p0360_a015", "pdf_atom_type": "LIST_ITEM", "pdf_source": "SDTMIG_v3.4", "pdf_page": 360, "pdf_parent_section": "VS – Examples", "pdf_verbatim": "Rows 2, 4-5, 7-9:    VSLOBXFL=\"Y\" indicates that the observation was used as the last observation before exposure measurement.", "figure_ref": null, "candidates": [{"md_atom_id": "md_dmVS_ex_a005", "md_file": "knowledge_base/domains/VS/examples.md", "md_atom_type": "NOTE", "md_parent_section": "§VS.1 [Example 1]", "md_verbatim": "**Rows 2, 4-5, 7-9:** VSLOBXFL=\"Y\" indicates that the observation was used as the last observation before exposure measurement.", "score": 0.85, "match_basis": "verbatim_token+domain_route:VS"}, {"md_atom_id": "md_dmVS_assn_a005", "md_file": "knowledge_base/domains/VS/assumptions.md", "md_atom_type": "LIST_ITEM", "md_parent_section": "§VS [VS — Assumptions]", "md_verbatim": "4. Any Identifiers, Timing variables, or Findings general observation class qualifiers may be added to the VS domain, but the following qualifiers would not generally be used: --BODSYS, --XFN, --SPEC, --SPCCND, --FAST.", "score": 0.4879, "match_basis": "verbatim_token+domain_route:VS"}, {"md_atom_id": "md_dmVS_assn_a003", "md_file": "knowledge_base/domains/VS/assumptions.md", "md_atom_type": "LIST_ITEM", "md_parent_section": "§VS [VS — Assumptions]", "md_verbatim": "2. If a reference range is available for a vital signs test, the variables VSORNRLO, VSORNRHI, VSNRIND from the Findings observation class may be added to the domain. VSORNRLO and VSORNRHI would represent the reference range, and VSNRIND would be used to indicate where a result falls with respect to the reference range (e.g., \"HIGH\", \"LOW\"). If toxicity grading is available, values would be represented in the variables VSTOX and VSTOXGR. Clinical significance would be represented in VSCLSIG, as described in Section 4.5.5, Clinical Significance for Findings Observation Class Data.", "score": 0.4742, "match_basis": "verbatim_token+domain_route:VS"}, {"md_atom_id": "md_dmVS_assn_a002", "md_file": "knowledge_base/domains/VS/assumptions.md", "md_atom_type": "LIST_ITEM", "md_parent_section": "§VS [VS — Assumptions]", "md_verbatim": "1. In cases where the LOINC dictionary is used for vital sign tests, the permissible variable VSLOINC may be used. Sponsors are expected to provide the dictionary name and version used to map terms using the external codelist element in the Define-XML document.", "score": 0.4613, "match_basis": "verbatim_token+domain_route:VS"}, {"md_atom_id": "md_dmVS_assn_a004", "md_file": "knowledge_base/domains/VS/assumptions.md", "md_atom_type": "LIST_ITEM", "md_parent_section": "§VS [VS — Assumptions]", "md_verbatim": "3. Associations between some vital sign tests and qualifier codelists are described in the VS codetable, available at https://www.cdisc.org/standards/terminology/controlled-terminology.", "score": 0.4226, "match_basis": "verbatim_token+domain_route:VS"}], "candidate_count": 5, "zero_candidate": false}
{"pdf_atom_id": "ig34_p0360_a016", "pdf_atom_type": "LIST_ITEM", "pdf_source": "SDTMIG_v3.4", "pdf_page": 360, "pdf_parent_section": "VS – Examples", "pdf_verbatim": "Rows 10-11:    Show blood pressure observations obtained at visit 2.", "figure_ref": null, "candidates": [{"md_atom_id": "md_dmVS_ex_a006", "md_file": "knowledge_base/domains/VS/examples.md", "md_atom_type": "NOTE", "md_parent_section": "§VS.1 [Example 1]", "md_verbatim": "**Rows 10-11:** Show blood pressure observations obtained at visit 2.", "score": 0.85, "match_basis": "verbatim_token+domain_route:VS"}, {"md_atom_id": "md_dmVS_assn_a005", "md_file": "knowledge_base/domains/VS/assumptions.md", "md_atom_type": "LIST_ITEM", "md_parent_section": "§VS [VS — Assumptions]", "md_verbatim": "4. Any Identifiers, Timing variables, or Findings general observation class qualifiers may be added to the VS domain, but the following qualifiers would not generally be used: --BODSYS, --XFN, --SPEC, --SPCCND, --FAST.", "score": 0.4566, "match_basis": "verbatim_token+domain_route:VS"}, {"md_atom_id": "md_dmVS_assn_a003", "md_file": "knowledge_base/domains/VS/assumptions.md", "md_atom_type": "LIST_ITEM", "md_parent_section": "§VS [VS — Assumptions]", "md_verbatim": "2. If a reference range is available for a vital signs test, the variables VSORNRLO, VSORNRHI, VSNRIND from the Findings observation class may be added to the domain. VSORNRLO and VSORNRHI would represent the reference range, and VSNRIND would be used to indicate where a result falls with respect to the reference range (e.g., \"HIGH\", \"LOW\"). If toxicity grading is available, values would be represented in the variables VSTOX and VSTOXGR. Clinical significance would be represented in VSCLSIG, as described in Section 4.5.5, Clinical Significance for Findings Observation Class Data.", "score": 0.4421, "match_basis": "verbatim_token+domain_route:VS"}, {"md_atom_id": "md_dmVS_assn_a004", "md_file": "knowledge_base/domains/VS/assumptions.md", "md_atom_type": "LIST_ITEM", "md_parent_section": "§VS [VS — Assumptions]", "md_verbatim": "3. Associations between some vital sign tests and qualifier codelists are described in the VS codetable, available at https://www.cdisc.org/standards/terminology/controlled-terminology.", "score": 0.4205, "match_basis": "verbatim_token+domain_route:VS"}, {"md_atom_id": "md_dmVS_assn_a002", "md_file": "knowledge_base/domains/VS/assumptions.md", "md_atom_type": "LIST_ITEM", "md_parent_section": "§VS [VS — Assumptions]", "md_verbatim": "1. In cases where the LOINC dictionary is used for vital sign tests, the permissible variable VSLOINC may be used. Sponsors are expected to provide the dictionary name and version used to map terms using the external codelist element in the Define-XML document.", "score": 0.4185, "match_basis": "verbatim_token+domain_route:VS"}], "candidate_count": 5, "zero_candidate": false}
{"pdf_atom_id": "ig34_p0360_a017", "pdf_atom_type": "LIST_ITEM", "pdf_source": "SDTMIG_v3.4", "pdf_page": 360, "pdf_parent_section": "VS – Examples", "pdf_verbatim": "Row 12:    Shows a value collected in one unit, but converted to selected standard unit.", "figure_ref": null, "candidates": [{"md_atom_id": "md_dmVS_ex_a007", "md_file": "knowledge_base/domains/VS/examples.md", "md_atom_type": "NOTE", "md_parent_section": "§VS.1 [Example 1]", "md_verbatim": "**Row 12:** Shows a value collected in one unit, but converted to selected standard unit.", "score": 0.85, "match_basis": "verbatim_token+domain_route:VS"}, {"md_atom_id": "md_dmVS_assn_a004", "md_file": "knowledge_base/domains/VS/assumptions.md", "md_atom_type": "LIST_ITEM", "md_parent_section": "§VS [VS — Assumptions]", "md_verbatim": "3. Associations between some vital sign tests and qualifier codelists are described in the VS codetable, available at https://www.cdisc.org/standards/terminology/controlled-terminology.", "score": 0.4482, "match_basis": "verbatim_token+domain_route:VS"}, {"md_atom_id": "md_dmVS_assn_a002", "md_file": "knowledge_base/domains/VS/assumptions.md", "md_atom_type": "LIST_ITEM", "md_parent_section": "§VS [VS — Assumptions]", "md_verbatim": "1. In cases where the LOINC dictionary is used for vital sign tests, the permissible variable VSLOINC may be used. Sponsors are expected to provide the dictionary name and version used to map terms using the external codelist element in the Define-XML document.", "score": 0.4281, "match_basis": "verbatim_token+domain_route:VS"}, {"md_atom_id": "md_dmVS_assn_a003", "md_file": "knowledge_base/domains/VS/assumptions.md", "md_atom_type": "LIST_ITEM", "md_parent_section": "§VS [VS — Assumptions]", "md_verbatim": "2. If a reference range is available for a vital signs test, the variables VSORNRLO, VSORNRHI, VSNRIND from the Findings observation class may be added to the domain. VSORNRLO and VSORNRHI would represent the reference range, and VSNRIND would be used to indicate where a result falls with respect to the reference range (e.g., \"HIGH\", \"LOW\"). If toxicity grading is available, values would be represented in the variables VSTOX and VSTOXGR. Clinical significance would be represented in VSCLSIG, as described in Section 4.5.5, Clinical Significance for Findings Observation Class Data.", "score": 0.4203, "match_basis": "verbatim_token+domain_route:VS"}, {"md_atom_id": "md_dmVS_assn_a005", "md_file": "knowledge_base/domains/VS/assumptions.md", "md_atom_type": "LIST_ITEM", "md_parent_section": "§VS [VS — Assumptions]", "md_verbatim": "4. Any Identifiers, Timing variables, or Findings general observation class qualifiers may be added to the VS domain, but the following qualifiers would not generally be used: --BODSYS, --XFN, --SPEC, --SPCCND, --FAST.", "score": 0.4105, "match_basis": "verbatim_token+domain_route:VS"}], "candidate_count": 5, "zero_candidate": false}
{"pdf_atom_id": "ig34_p0360_a018", "pdf_atom_type": "LIST_ITEM", "pdf_source": "SDTMIG_v3.4", "pdf_page": 360, "pdf_parent_section": "VS – Examples", "pdf_verbatim": "Row 13:    Shows the proper use of the --STAT variable to indicate \"NOT DONE\" where a reason was collected when a test was not done.", "figure_ref": null, "candidates": [{"md_atom_id": "md_dmVS_ex_a008", "md_file": "knowledge_base/domains/VS/examples.md", "md_atom_type": "NOTE", "md_parent_section": "§VS.1 [Example 1]", "md_verbatim": "**Row 13:** Shows the proper use of the --STAT variable to indicate \"NOT DONE\" where a reason was collected when a test was not done.", "score": 0.85, "match_basis": "verbatim_token+domain_route:VS"}, {"md_atom_id": "md_dmVS_assn_a002", "md_file": "knowledge_base/domains/VS/assumptions.md", "md_atom_type": "LIST_ITEM", "md_parent_section": "§VS [VS — Assumptions]", "md_verbatim": "1. In cases where the LOINC dictionary is used for vital sign tests, the permissible variable VSLOINC may be used. Sponsors are expected to provide the dictionary name and version used to map terms using the external codelist element in the Define-XML document.", "score": 0.4891, "match_basis": "verbatim_token+domain_route:VS"}, {"md_atom_id": "md_dmVS_assn_a003", "md_file": "knowledge_base/domains/VS/assumptions.md", "md_atom_type": "LIST_ITEM", "md_parent_section": "§VS [VS — Assumptions]", "md_verbatim": "2. If a reference range is available for a vital signs test, the variables VSORNRLO, VSORNRHI, VSNRIND from the Findings observation class may be added to the domain. VSORNRLO and VSORNRHI would represent the reference range, and VSNRIND would be used to indicate where a result falls with respect to the reference range (e.g., \"HIGH\", \"LOW\"). If toxicity grading is available, values would be represented in the variables VSTOX and VSTOXGR. Clinical significance would be represented in VSCLSIG, as described in Section 4.5.5, Clinical Significance for Findings Observation Class Data.", "score": 0.472, "match_basis": "verbatim_token+domain_route:VS"}, {"md_atom_id": "md_dmVS_assn_a005", "md_file": "knowledge_base/domains/VS/assumptions.md", "md_atom_type": "LIST_ITEM", "md_parent_section": "§VS [VS — Assumptions]", "md_verbatim": "4. Any Identifiers, Timing variables, or Findings general observation class qualifiers may be added to the VS domain, but the following qualifiers would not generally be used: --BODSYS, --XFN, --SPEC, --SPCCND, --FAST.", "score": 0.4615, "match_basis": "verbatim_token+domain_route:VS"}, {"md_atom_id": "md_dmVS_assn_a004", "md_file": "knowledge_base/domains/VS/assumptions.md", "md_atom_type": "LIST_ITEM", "md_parent_section": "§VS [VS — Assumptions]", "md_verbatim": "3. Associations between some vital sign tests and qualifier codelists are described in the VS codetable, available at https://www.cdisc.org/standards/terminology/controlled-terminology.", "score": 0.4381, "match_basis": "verbatim_token+domain_route:VS"}], "candidate_count": 5, "zero_candidate": false}
{"pdf_atom_id": "ig34_p0360_a019", "pdf_atom_type": "HEADING", "pdf_source": "SDTMIG_v3.4", "pdf_page": 360, "pdf_parent_section": "VS – Examples", "pdf_verbatim": "vs.xpt", "figure_ref": null, "candidates": [{"md_atom_id": "md_dmVS_assn_a001", "md_file": "knowledge_base/domains/VS/assumptions.md", "md_atom_type": "HEADING", "md_parent_section": "§VS [VS — Assumptions]", "md_verbatim": "# VS — Assumptions", "score": 0.4, "match_basis": "verbatim_token+domain_route:VS"}, {"md_atom_id": "md_dmVS_ex_a001", "md_file": "knowledge_base/domains/VS/examples.md", "md_atom_type": "HEADING", "md_parent_section": "§VS [VS — Examples]", "md_verbatim": "# VS — Examples", "score": 0.4, "match_basis": "verbatim_token+domain_route:VS"}, {"md_atom_id": "md_dmVS_ex_a002", "md_file": "knowledge_base/domains/VS/examples.md", "md_atom_type": "HEADING", "md_parent_section": "§VS [VS — Examples]", "md_verbatim": "## Example 1", "score": 0.4, "match_basis": "verbatim_token+domain_route:VS"}], "candidate_count": 3, "zero_candidate": false}
{"pdf_atom_id": "ig34_p0360_a020", "pdf_atom_type": "TABLE_HEADER", "pdf_source": "SDTMIG_v3.4", "pdf_page": 360, "pdf_parent_section": "§6.3.13 VS – Examples", "pdf_verbatim": "| Row | STUDYID | DOMAIN | USUBJID | VSSEQ | VSTESTCD | VSTEST | VSPOS | VSORRES | VSORRESU | VSSTRESC | VSSTRESN | VSSTRESU | VSSTAT | VSREASND | VSLOC | VSLAT | VSLOBXFL | VISITNUM | VISIT | VISITDY | VSDTC | VSDY | VSTPT | VSTPTNUM |", "figure_ref": null, "candidates": [{"md_atom_id": "md_dmVS_ex_a010", "md_file": "knowledge_base/domains/VS/examples.md", "md_atom_type": "TABLE_HEADER", "md_parent_section": "§VS.1 [Example 1]", "md_verbatim": "| Row | STUDYID | DOMAIN | USUBJID | VSSEQ | VSTESTCD | VSTEST | VSPOS | VSORRES | VSORRESU | VSSTRESC | VSSTRESN | VSSTRESU | VSSTAT | VSREASND | VSLOC | VSLAT | VSLOBXFL | VISITNUM | VISIT | VISITDY | VSDTC | VSDY | VSTPT | VSTPTNUM |", "score": 1.0, "match_basis": "verbatim_token+domain_route:VS"}, {"md_atom_id": "md_dmVS_ex_a011", "md_file": "knowledge_base/domains/VS/examples.md", "md_atom_type": "TABLE_HEADER", "md_parent_section": "§VS.1 [Example 1]", "md_verbatim": "|-----|---------|--------|---------|-------|----------|--------|-------|---------|----------|----------|----------|----------|--------|----------|-------|-------|----------|----------|-------|---------|-------|------|-------|----------|", "score": 0.4, "match_basis": "verbatim_token+domain_route:VS"}, {"md_atom_id": "md_dmVS_ex_a024", "md_file": "knowledge_base/domains/VS/examples.md", "md_atom_type": "TABLE_ROW", "md_parent_section": "§VS.1 [Example 1]", "md_verbatim": "| 13 | ABC | VS | ABC-001-001 | 13 | WEIGHT | Weight | | | | | | | NOT DONE | SUBJECT REFUSED | | | | 2 | Visit 2 | 35 | 1999-07-21 | 33 | | |", "score": 0.3737, "match_basis": "verbatim_token+domain_route:VS"}, {"md_atom_id": "md_dmVS_ex_a023", "md_file": "knowledge_base/domains/VS/examples.md", "md_atom_type": "TABLE_ROW", "md_parent_section": "§VS.1 [Example 1]", "md_verbatim": "| 12 | ABC | VS | ABC-001-001 | 12 | TEMP | Temperature | | 97.16 | F | 38.2 | 36.2 | C | | | SUBLINGUAL REGION | | | 2 | Visit 2 | 35 | 1999-07-21 | 33 | | |", "score": 0.3655, "match_basis": "verbatim_token+domain_route:VS"}, {"md_atom_id": "md_dmVS_ex_a021", "md_file": "knowledge_base/domains/VS/examples.md", "md_atom_type": "TABLE_ROW", "md_parent_section": "§VS.1 [Example 1]", "md_verbatim": "| 10 | ABC | VS | ABC-001-001 | 10 | SYSBP | Systolic Blood Pressure | SITTING | 95 | mmHg | 95 | 95 | mmHg | | | ARM | LEFT | | 2 | Visit 2 | 35 | 1999-07-21 | 33 | | |", "score": 0.3642, "match_basis": "verbatim_token+domain_route:VS"}], "candidate_count": 5, "zero_candidate": false}
{"pdf_atom_id": "ig34_p0360_a021", "pdf_atom_type": "TABLE_ROW", "pdf_source": "SDTMIG_v3.4", "pdf_page": 360, "pdf_parent_section": "§6.3.13 VS – Examples", "pdf_verbatim": "| 1 | ABC | VS | ABC-001-001 | 1 | SYSBP | Systolic Blood Pressure | SITTING | 154 | mmHg | 154 | 154 | mmHg | | | ARM | LEFT | | 1 | Baseline | 1 | 1999-06-19T08:45 | | BASELINE | 1 |", "figure_ref": null, "candidates": [{"md_atom_id": "md_dmVS_ex_a012", "md_file": "knowledge_base/domains/VS/examples.md", "md_atom_type": "TABLE_ROW", "md_parent_section": "§VS.1 [Example 1]", "md_verbatim": "| 1 | ABC | VS | ABC-001-001 | 1 | SYSBP | Systolic Blood Pressure | SITTING | 154 | mmHg | 154 | 154 | mmHg | | | ARM | LEFT | | 1 | Baseline | 1 | 1999-06-19T08:45 | 1 | BASELINE | 1 |", "score": 1.0, "match_basis": "verbatim_token+domain_route:VS"}, {"md_atom_id": "md_dmVS_ex_a013", "md_file": "knowledge_base/domains/VS/examples.md", "md_atom_type": "TABLE_ROW", "md_parent_section": "§VS.1 [Example 1]", "md_verbatim": "| 2 | ABC | VS | ABC-001-001 | 2 | SYSBP | Systolic Blood Pressure | SITTING | 152 | mmHg | 152 | 152 | mmHg | | | ARM | LEFT | Y | 1 | Baseline | 1 | 1999-06-19T09:00 | 1 | BASELINE | 2 |", "score": 0.9442, "match_basis": "verbatim_token+domain_route:VS"}, {"md_atom_id": "md_dmVS_ex_a014", "md_file": "knowledge_base/domains/VS/examples.md", "md_atom_type": "TABLE_ROW", "md_parent_section": "§VS.1 [Example 1]", "md_verbatim": "| 3 | ABC | VS | ABC-001-001 | 3 | DIABP | Diastolic Blood Pressure | SITTING | 44 | mmHg | 44 | 44 | mmHg | | | ARM | LEFT | | 1 | Baseline | 1 | 1999-06-19T08:45 | 1 | BASELINE | 1 |", "score": 0.8696, "match_basis": "verbatim_token+domain_route:VS"}, {"md_atom_id": "md_dmVS_ex_a015", "md_file": "knowledge_base/domains/VS/examples.md", "md_atom_type": "TABLE_ROW", "md_parent_section": "§VS.1 [Example 1]", "md_verbatim": "| 4 | ABC | VS | ABC-001-001 | 4 | DIABP | Diastolic Blood Pressure | SITTING | 48 | mmHg | 48 | 48 | mmHg | | | ARM | LEFT | Y | 1 | Baseline | 1 | 1999-06-19T09:00 | 1 | BASELINE | 2 |", "score": 0.8468, "match_basis": "verbatim_token+domain_route:VS"}, {"md_atom_id": "md_dmVS_ex_a021", "md_file": "knowledge_base/domains/VS/examples.md", "md_atom_type": "TABLE_ROW", "md_parent_section": "§VS.1 [Example 1]", "md_verbatim": "| 10 | ABC | VS | ABC-001-001 | 10 | SYSBP | Systolic Blood Pressure | SITTING | 95 | mmHg | 95 | 95 | mmHg | | | ARM | LEFT | | 2 | Visit 2 | 35 | 1999-07-21 | 33 | | |", "score": 0.8326, "match_basis": "verbatim_token+domain_route:VS"}], "candidate_count": 5, "zero_candidate": false}
{"pdf_atom_id": "ig34_p0360_a022", "pdf_atom_type": "TABLE_ROW", "pdf_source": "SDTMIG_v3.4", "pdf_page": 360, "pdf_parent_section": "§6.3.13 VS – Examples", "pdf_verbatim": "| 2 | ABC | VS | ABC-001-001 | 2 | SYSBP | Systolic Blood Pressure | SITTING | 152 | mmHg | 152 | 152 | mmHg | | | ARM | LEFT | Y | 1 | Baseline | 1 | 1999-06-19T09:00 | | BASELINE | 2 |", "figure_ref": null, "candidates": [{"md_atom_id": "md_dmVS_ex_a013", "md_file": "knowledge_base/domains/VS/examples.md", "md_atom_type": "TABLE_ROW", "md_parent_section": "§VS.1 [Example 1]", "md_verbatim": "| 2 | ABC | VS | ABC-001-001 | 2 | SYSBP | Systolic Blood Pressure | SITTING | 152 | mmHg | 152 | 152 | mmHg | | | ARM | LEFT | Y | 1 | Baseline | 1 | 1999-06-19T09:00 | 1 | BASELINE | 2 |", "score": 1.0, "match_basis": "verbatim_token+domain_route:VS"}, {"md_atom_id": "md_dmVS_ex_a012", "md_file": "knowledge_base/domains/VS/examples.md", "md_atom_type": "TABLE_ROW", "md_parent_section": "§VS.1 [Example 1]", "md_verbatim": "| 1 | ABC | VS | ABC-001-001 | 1 | SYSBP | Systolic Blood Pressure | SITTING | 154 | mmHg | 154 | 154 | mmHg | | | ARM | LEFT | | 1 | Baseline | 1 | 1999-06-19T08:45 | 1 | BASELINE | 1 |", "score": 0.9442, "match_basis": "verbatim_token+domain_route:VS"}, {"md_atom_id": "md_dmVS_ex_a015", "md_file": "knowledge_base/domains/VS/examples.md", "md_atom_type": "TABLE_ROW", "md_parent_section": "§VS.1 [Example 1]", "md_verbatim": "| 4 | ABC | VS | ABC-001-001 | 4 | DIABP | Diastolic Blood Pressure | SITTING | 48 | mmHg | 48 | 48 | mmHg | | | ARM | LEFT | Y | 1 | Baseline | 1 | 1999-06-19T09:00 | 1 | BASELINE | 2 |", "score": 0.8696, "match_basis": "verbatim_token+domain_route:VS"}, {"md_atom_id": "md_dmVS_ex_a014", "md_file": "knowledge_base/domains/VS/examples.md", "md_atom_type": "TABLE_ROW", "md_parent_section": "§VS.1 [Example 1]", "md_verbatim": "| 3 | ABC | VS | ABC-001-001 | 3 | DIABP | Diastolic Blood Pressure | SITTING | 44 | mmHg | 44 | 44 | mmHg | | | ARM | LEFT | | 1 | Baseline | 1 | 1999-06-19T08:45 | 1 | BASELINE | 1 |", "score": 0.8468, "match_basis": "verbatim_token+domain_route:VS"}, {"md_atom_id": "md_dmVS_ex_a021", "md_file": "knowledge_base/domains/VS/examples.md", "md_atom_type": "TABLE_ROW", "md_parent_section": "§VS.1 [Example 1]", "md_verbatim": "| 10 | ABC | VS | ABC-001-001 | 10 | SYSBP | Systolic Blood Pressure | SITTING | 95 | mmHg | 95 | 95 | mmHg | | | ARM | LEFT | | 2 | Visit 2 | 35 | 1999-07-21 | 33 | | |", "score": 0.8326, "match_basis": "verbatim_token+domain_route:VS"}], "candidate_count": 5, "zero_candidate": false}
{"pdf_atom_id": "ig34_p0360_a023", "pdf_atom_type": "TABLE_ROW", "pdf_source": "SDTMIG_v3.4", "pdf_page": 360, "pdf_parent_section": "§6.3.13 VS – Examples", "pdf_verbatim": "| 3 | ABC | VS | ABC-001-001 | 3 | DIABP | Diastolic Blood Pressure | SITTING | 44 | mmHg | 44 | 44 | mmHg | | | ARM | LEFT | | 1 | Baseline | 1 | 1999-06-19T08:45 | | BASELINE | 1 |", "figure_ref": null, "candidates": [{"md_atom_id": "md_dmVS_ex_a014", "md_file": "knowledge_base/domains/VS/examples.md", "md_atom_type": "TABLE_ROW", "md_parent_section": "§VS.1 [Example 1]", "md_verbatim": "| 3 | ABC | VS | ABC-001-001 | 3 | DIABP | Diastolic Blood Pressure | SITTING | 44 | mmHg | 44 | 44 | mmHg | | | ARM | LEFT | | 1 | Baseline | 1 | 1999-06-19T08:45 | 1 | BASELINE | 1 |", "score": 1.0, "match_basis": "verbatim_token+domain_route:VS"}, {"md_atom_id": "md_dmVS_ex_a015", "md_file": "knowledge_base/domains/VS/examples.md", "md_atom_type": "TABLE_ROW", "md_parent_section": "§VS.1 [Example 1]", "md_verbatim": "| 4 | ABC | VS | ABC-001-001 | 4 | DIABP | Diastolic Blood Pressure | SITTING | 48 | mmHg | 48 | 48 | mmHg | | | ARM | LEFT | Y | 1 | Baseline | 1 | 1999-06-19T09:00 | 1 | BASELINE | 2 |", "score": 0.9714, "match_basis": "verbatim_token+domain_route:VS"}, {"md_atom_id": "md_dmVS_ex_a012", "md_file": "knowledge_base/domains/VS/examples.md", "md_atom_type": "TABLE_ROW", "md_parent_section": "§VS.1 [Example 1]", "md_verbatim": "| 1 | ABC | VS | ABC-001-001 | 1 | SYSBP | Systolic Blood Pressure | SITTING | 154 | mmHg | 154 | 154 | mmHg | | | ARM | LEFT | | 1 | Baseline | 1 | 1999-06-19T08:45 | 1 | BASELINE | 1 |", "score": 0.8696, "match_basis": "verbatim_token+domain_route:VS"}, {"md_atom_id": "md_dmVS_ex_a013", "md_file": "knowledge_base/domains/VS/examples.md", "md_atom_type": "TABLE_ROW", "md_parent_section": "§VS.1 [Example 1]", "md_verbatim": "| 2 | ABC | VS | ABC-001-001 | 2 | SYSBP | Systolic Blood Pressure | SITTING | 152 | mmHg | 152 | 152 | mmHg | | | ARM | LEFT | Y | 1 | Baseline | 1 | 1999-06-19T09:00 | 1 | BASELINE | 2 |", "score": 0.8468, "match_basis": "verbatim_token+domain_route:VS"}, {"md_atom_id": "md_dmVS_ex_a022", "md_file": "knowledge_base/domains/VS/examples.md", "md_atom_type": "TABLE_ROW", "md_parent_section": "§VS.1 [Example 1]", "md_verbatim": "| 11 | ABC | VS | ABC-001-001 | 11 | DIABP | Diastolic Blood Pressure | SITTING | 44 | mmHg | 44 | 44 | mmHg | | | ARM | LEFT | | 2 | Visit 2 | 35 | 1999-07-21 | 33 | | |", "score": 0.8465, "match_basis": "verbatim_token+domain_route:VS"}], "candidate_count": 5, "zero_candidate": false}
{"pdf_atom_id": "ig34_p0360_a024", "pdf_atom_type": "TABLE_ROW", "pdf_source": "SDTMIG_v3.4", "pdf_page": 360, "pdf_parent_section": "§6.3.13 VS – Examples", "pdf_verbatim": "| 4 | ABC | VS | ABC-001-001 | 4 | DIABP | Diastolic Blood Pressure | SITTING | 48 | mmHg | 48 | 48 | mmHg | | | ARM | LEFT | Y | 1 | Baseline | 1 | 1999-06-19T09:00 | | BASELINE | 2 |", "figure_ref": null, "candidates": [{"md_atom_id": "md_dmVS_ex_a015", "md_file": "knowledge_base/domains/VS/examples.md", "md_atom_type": "TABLE_ROW", "md_parent_section": "§VS.1 [Example 1]", "md_verbatim": "| 4 | ABC | VS | ABC-001-001 | 4 | DIABP | Diastolic Blood Pressure | SITTING | 48 | mmHg | 48 | 48 | mmHg | | | ARM | LEFT | Y | 1 | Baseline | 1 | 1999-06-19T09:00 | 1 | BASELINE | 2 |", "score": 1.0, "match_basis": "verbatim_token+domain_route:VS"}, {"md_atom_id": "md_dmVS_ex_a014", "md_file": "knowledge_base/domains/VS/examples.md", "md_atom_type": "TABLE_ROW", "md_parent_section": "§VS.1 [Example 1]", "md_verbatim": "| 3 | ABC | VS | ABC-001-001 | 3 | DIABP | Diastolic Blood Pressure | SITTING | 44 | mmHg | 44 | 44 | mmHg | | | ARM | LEFT | | 1 | Baseline | 1 | 1999-06-19T08:45 | 1 | BASELINE | 1 |", "score": 0.9714, "match_basis": "verbatim_token+domain_route:VS"}, {"md_atom_id": "md_dmVS_ex_a013", "md_file": "knowledge_base/domains/VS/examples.md", "md_atom_type": "TABLE_ROW", "md_parent_section": "§VS.1 [Example 1]", "md_verbatim": "| 2 | ABC | VS | ABC-001-001 | 2 | SYSBP | Systolic Blood Pressure | SITTING | 152 | mmHg | 152 | 152 | mmHg | | | ARM | LEFT | Y | 1 | Baseline | 1 | 1999-06-19T09:00 | 1 | BASELINE | 2 |", "score": 0.8696, "match_basis": "verbatim_token+domain_route:VS"}, {"md_atom_id": "md_dmVS_ex_a012", "md_file": "knowledge_base/domains/VS/examples.md", "md_atom_type": "TABLE_ROW", "md_parent_section": "§VS.1 [Example 1]", "md_verbatim": "| 1 | ABC | VS | ABC-001-001 | 1 | SYSBP | Systolic Blood Pressure | SITTING | 154 | mmHg | 154 | 154 | mmHg | | | ARM | LEFT | | 1 | Baseline | 1 | 1999-06-19T08:45 | 1 | BASELINE | 1 |", "score": 0.8468, "match_basis": "verbatim_token+domain_route:VS"}, {"md_atom_id": "md_dmVS_ex_a022", "md_file": "knowledge_base/domains/VS/examples.md", "md_atom_type": "TABLE_ROW", "md_parent_section": "§VS.1 [Example 1]", "md_verbatim": "| 11 | ABC | VS | ABC-001-001 | 11 | DIABP | Diastolic Blood Pressure | SITTING | 44 | mmHg | 44 | 44 | mmHg | | | ARM | LEFT | | 2 | Visit 2 | 35 | 1999-07-21 | 33 | | |", "score": 0.8465, "match_basis": "verbatim_token+domain_route:VS"}], "candidate_count": 5, "zero_candidate": false}
{"pdf_atom_id": "ig34_p0361_a001", "pdf_atom_type": "TABLE_ROW", "pdf_source": "SDTMIG_v3.4", "pdf_page": 361, "pdf_parent_section": "§6.3.13 VS – Examples", "pdf_verbatim": "| 5 | ABC | VS | ABC-001-001 | 5 | PULSE | Pulse Rate | SITTING | 72 | beats/min | 72 | 72 | beats/min | | | ARM | LEFT | Y | 1 | Baseline | 1 | 1999-06-19 | 1 | | |", "figure_ref": null, "candidates": [{"md_atom_id": "md_dmVS_ex_a016", "md_file": "knowledge_base/domains/VS/examples.md", "md_atom_type": "TABLE_ROW", "md_parent_section": "§VS.1 [Example 1]", "md_verbatim": "| 5 | ABC | VS | ABC-001-001 | 5 | PULSE | Pulse Rate | SITTING | 72 | beats/min | 72 | 72 | beats/min | | | ARM | LEFT | Y | 1 | Baseline | 1 | 1999-06-19 | 1 | | |", "score": 1.0, "match_basis": "verbatim_token+domain_route:VS"}, {"md_atom_id": "md_dmVS_ex_a012", "md_file": "knowledge_base/domains/VS/examples.md", "md_atom_type": "TABLE_ROW", "md_parent_section": "§VS.1 [Example 1]", "md_verbatim": "| 1 | ABC | VS | ABC-001-001 | 1 | SYSBP | Systolic Blood Pressure | SITTING | 154 | mmHg | 154 | 154 | mmHg | | | ARM | LEFT | | 1 | Baseline | 1 | 1999-06-19T08:45 | 1 | BASELINE | 1 |", "score": 0.616, "match_basis": "verbatim_token+domain_route:VS"}, {"md_atom_id": "md_dmVS_ex_a013", "md_file": "knowledge_base/domains/VS/examples.md", "md_atom_type": "TABLE_ROW", "md_parent_section": "§VS.1 [Example 1]", "md_verbatim": "| 2 | ABC | VS | ABC-001-001 | 2 | SYSBP | Systolic Blood Pressure | SITTING | 152 | mmHg | 152 | 152 | mmHg | | | ARM | LEFT | Y | 1 | Baseline | 1 | 1999-06-19T09:00 | 1 | BASELINE | 2 |", "score": 0.616, "match_basis": "verbatim_token+domain_route:VS"}, {"md_atom_id": "md_dmVS_ex_a014", "md_file": "knowledge_base/domains/VS/examples.md", "md_atom_type": "TABLE_ROW", "md_parent_section": "§VS.1 [Example 1]", "md_verbatim": "| 3 | ABC | VS | ABC-001-001 | 3 | DIABP | Diastolic Blood Pressure | SITTING | 44 | mmHg | 44 | 44 | mmHg | | | ARM | LEFT | | 1 | Baseline | 1 | 1999-06-19T08:45 | 1 | BASELINE | 1 |", "score": 0.616, "match_basis": "verbatim_token+domain_route:VS"}, {"md_atom_id": "md_dmVS_ex_a015", "md_file": "knowledge_base/domains/VS/examples.md", "md_atom_type": "TABLE_ROW", "md_parent_section": "§VS.1 [Example 1]", "md_verbatim": "| 4 | ABC | VS | ABC-001-001 | 4 | DIABP | Diastolic Blood Pressure | SITTING | 48 | mmHg | 48 | 48 | mmHg | | | ARM | LEFT | Y | 1 | Baseline | 1 | 1999-06-19T09:00 | 1 | BASELINE | 2 |", "score": 0.616, "match_basis": "verbatim_token+domain_route:VS"}], "candidate_count": 5, "zero_candidate": false}
{"pdf_atom_id": "ig34_p0361_a002", "pdf_atom_type": "TABLE_ROW", "pdf_source": "SDTMIG_v3.4", "pdf_page": 361, "pdf_parent_section": "§6.3.13 VS – Examples", "pdf_verbatim": "| 6 | ABC | VS | ABC-001-001 | 6 | TEMP | Temperature | | 34.7 | C | 34.7 | 34.7 | C | | | SUBLINGUAL REGION | | | 1 | Baseline | 1 | 1999-06-19T08:45 | 1 | BASELINE 1 | 1 |", "figure_ref": null, "candidates": [{"md_atom_id": "md_dmVS_ex_a017", "md_file": "knowledge_base/domains/VS/examples.md", "md_atom_type": "TABLE_ROW", "md_parent_section": "§VS.1 [Example 1]", "md_verbatim": "| 6 | ABC | VS | ABC-001-001 | 6 | TEMP | Temperature | | 34.7 | C | 34.7 | 34.7 | C | | | SUBLINGUAL REGION | | | 1 | Baseline | 1 | 1999-06-19T08:45 | 1 | BASELINE | 1 |", "score": 1.0, "match_basis": "verbatim_token+domain_route:VS"}, {"md_atom_id": "md_dmVS_ex_a018", "md_file": "knowledge_base/domains/VS/examples.md", "md_atom_type": "TABLE_ROW", "md_parent_section": "§VS.1 [Example 1]", "md_verbatim": "| 7 | ABC | VS | ABC-001-001 | 7 | TEMP | Temperature | | 38.2 | C | 38.2 | 38.2 | C | | | SUBLINGUAL REGION | | Y | 1 | Baseline | 1 | 1999-06-19T09:00 | 1 | BASELINE | 2 |", "score": 0.9647, "match_basis": "verbatim_token+domain_route:VS"}, {"md_atom_id": "md_dmVS_ex_a023", "md_file": "knowledge_base/domains/VS/examples.md", "md_atom_type": "TABLE_ROW", "md_parent_section": "§VS.1 [Example 1]", "md_verbatim": "| 12 | ABC | VS | ABC-001-001 | 12 | TEMP | Temperature | | 97.16 | F | 38.2 | 36.2 | C | | | SUBLINGUAL REGION | | | 2 | Visit 2 | 35 | 1999-07-21 | 33 | | |", "score": 0.8167, "match_basis": "verbatim_token+domain_route:VS"}, {"md_atom_id": "md_dmVS_ex_a019", "md_file": "knowledge_base/domains/VS/examples.md", "md_atom_type": "TABLE_ROW", "md_parent_section": "§VS.1 [Example 1]", "md_verbatim": "| 8 | ABC | VS | ABC-001-001 | 8 | WEIGHT | Weight | STANDING | 90.5 | kg | 90.5 | 90.5 | kg | | | | | Y | 1 | Baseline | 1 | 1999-06-19 | 1 | | |", "score": 0.5571, "match_basis": "verbatim_token+domain_route:VS"}, {"md_atom_id": "md_dmVS_ex_a020", "md_file": "knowledge_base/domains/VS/examples.md", "md_atom_type": "TABLE_ROW", "md_parent_section": "§VS.1 [Example 1]", "md_verbatim": "| 9 | ABC | VS | ABC-001-001 | 9 | HEIGHT | Height | STANDING | 157 | cm | 157 | 157 | cm | | | | | Y | 1 | Baseline | 1 | 1999-06-19 | 1 | | |", "score": 0.5535, "match_basis": "verbatim_token+domain_route:VS"}], "candidate_count": 5, "zero_candidate": false}
{"pdf_atom_id": "ig34_p0361_a003", "pdf_atom_type": "TABLE_ROW", "pdf_source": "SDTMIG_v3.4", "pdf_page": 361, "pdf_parent_section": "§6.3.13 VS – Examples", "pdf_verbatim": "| 7 | ABC | VS | ABC-001-001 | 7 | TEMP | Temperature | | 36.2 | C | 36.2 | 36.2 | C | | | SUBLINGUAL REGION | | Y | 1 | Baseline | 1 | 1999-06-19T09:00 | 1 | BASELINE 2 | 2 |", "figure_ref": null, "candidates": [{"md_atom_id": "md_dmVS_ex_a018", "md_file": "knowledge_base/domains/VS/examples.md", "md_atom_type": "TABLE_ROW", "md_parent_section": "§VS.1 [Example 1]", "md_verbatim": "| 7 | ABC | VS | ABC-001-001 | 7 | TEMP | Temperature | | 38.2 | C | 38.2 | 38.2 | C | | | SUBLINGUAL REGION | | Y | 1 | Baseline | 1 | 1999-06-19T09:00 | 1 | BASELINE | 2 |", "score": 1.0, "match_basis": "verbatim_token+domain_route:VS"}, {"md_atom_id": "md_dmVS_ex_a017", "md_file": "knowledge_base/domains/VS/examples.md", "md_atom_type": "TABLE_ROW", "md_parent_section": "§VS.1 [Example 1]", "md_verbatim": "| 6 | ABC | VS | ABC-001-001 | 6 | TEMP | Temperature | | 34.7 | C | 34.7 | 34.7 | C | | | SUBLINGUAL REGION | | | 1 | Baseline | 1 | 1999-06-19T08:45 | 1 | BASELINE | 1 |", "score": 0.9647, "match_basis": "verbatim_token+domain_route:VS"}, {"md_atom_id": "md_dmVS_ex_a023", "md_file": "knowledge_base/domains/VS/examples.md", "md_atom_type": "TABLE_ROW", "md_parent_section": "§VS.1 [Example 1]", "md_verbatim": "| 12 | ABC | VS | ABC-001-001 | 12 | TEMP | Temperature | | 97.16 | F | 38.2 | 36.2 | C | | | SUBLINGUAL REGION | | | 2 | Visit 2 | 35 | 1999-07-21 | 33 | | |", "score": 0.8167, "match_basis": "verbatim_token+domain_route:VS"}, {"md_atom_id": "md_dmVS_ex_a019", "md_file": "knowledge_base/domains/VS/examples.md", "md_atom_type": "TABLE_ROW", "md_parent_section": "§VS.1 [Example 1]", "md_verbatim": "| 8 | ABC | VS | ABC-001-001 | 8 | WEIGHT | Weight | STANDING | 90.5 | kg | 90.5 | 90.5 | kg | | | | | Y | 1 | Baseline | 1 | 1999-06-19 | 1 | | |", "score": 0.5571, "match_basis": "verbatim_token+domain_route:VS"}, {"md_atom_id": "md_dmVS_ex_a020", "md_file": "knowledge_base/domains/VS/examples.md", "md_atom_type": "TABLE_ROW", "md_parent_section": "§VS.1 [Example 1]", "md_verbatim": "| 9 | ABC | VS | ABC-001-001 | 9 | HEIGHT | Height | STANDING | 157 | cm | 157 | 157 | cm | | | | | Y | 1 | Baseline | 1 | 1999-06-19 | 1 | | |", "score": 0.5535, "match_basis": "verbatim_token+domain_route:VS"}], "candidate_count": 5, "zero_candidate": false}
{"pdf_atom_id": "ig34_p0361_a004", "pdf_atom_type": "TABLE_ROW", "pdf_source": "SDTMIG_v3.4", "pdf_page": 361, "pdf_parent_section": "§6.3.13 VS – Examples", "pdf_verbatim": "| 8 | ABC | VS | ABC-001-001 | 8 | WEIGHT | Weight | STANDING | 90.5 | kg | 90.5 | 90.5 | kg | | | | | Y | 1 | Baseline | 1 | 1999-06-19 | 1 | | |", "figure_ref": null, "candidates": [{"md_atom_id": "md_dmVS_ex_a019", "md_file": "knowledge_base/domains/VS/examples.md", "md_atom_type": "TABLE_ROW", "md_parent_section": "§VS.1 [Example 1]", "md_verbatim": "| 8 | ABC | VS | ABC-001-001 | 8 | WEIGHT | Weight | STANDING | 90.5 | kg | 90.5 | 90.5 | kg | | | | | Y | 1 | Baseline | 1 | 1999-06-19 | 1 | | |", "score": 1.0, "match_basis": "verbatim_token+domain_route:VS"}, {"md_atom_id": "md_dmVS_ex_a020", "md_file": "knowledge_base/domains/VS/examples.md", "md_atom_type": "TABLE_ROW", "md_parent_section": "§VS.1 [Example 1]", "md_verbatim": "| 9 | ABC | VS | ABC-001-001 | 9 | HEIGHT | Height | STANDING | 157 | cm | 157 | 157 | cm | | | | | Y | 1 | Baseline | 1 | 1999-06-19 | 1 | | |", "score": 0.9182, "match_basis": "verbatim_token+domain_route:VS"}, {"md_atom_id": "md_dmVS_ex_a016", "md_file": "knowledge_base/domains/VS/examples.md", "md_atom_type": "TABLE_ROW", "md_parent_section": "§VS.1 [Example 1]", "md_verbatim": "| 5 | ABC | VS | ABC-001-001 | 5 | PULSE | Pulse Rate | SITTING | 72 | beats/min | 72 | 72 | beats/min | | | ARM | LEFT | Y | 1 | Baseline | 1 | 1999-06-19 | 1 | | |", "score": 0.5833, "match_basis": "verbatim_token+domain_route:VS"}, {"md_atom_id": "md_dmVS_ex_a017", "md_file": "knowledge_base/domains/VS/examples.md", "md_atom_type": "TABLE_ROW", "md_parent_section": "§VS.1 [Example 1]", "md_verbatim": "| 6 | ABC | VS | ABC-001-001 | 6 | TEMP | Temperature | | 34.7 | C | 34.7 | 34.7 | C | | | SUBLINGUAL REGION | | | 1 | Baseline | 1 | 1999-06-19T08:45 | 1 | BASELINE | 1 |", "score": 0.5571, "match_basis": "verbatim_token+domain_route:VS"}, {"md_atom_id": "md_dmVS_ex_a018", "md_file": "knowledge_base/domains/VS/examples.md", "md_atom_type": "TABLE_ROW", "md_parent_section": "§VS.1 [Example 1]", "md_verbatim": "| 7 | ABC | VS | ABC-001-001 | 7 | TEMP | Temperature | | 38.2 | C | 38.2 | 38.2 | C | | | SUBLINGUAL REGION | | Y | 1 | Baseline | 1 | 1999-06-19T09:00 | 1 | BASELINE | 2 |", "score": 0.5571, "match_basis": "verbatim_token+domain_route:VS"}], "candidate_count": 5, "zero_candidate": false}
{"pdf_atom_id": "ig34_p0361_a005", "pdf_atom_type": "TABLE_ROW", "pdf_source": "SDTMIG_v3.4", "pdf_page": 361, "pdf_parent_section": "§6.3.13 VS – Examples", "pdf_verbatim": "| 9 | ABC | VS | ABC-001-001 | 9 | HEIGHT | Height | STANDING | 157 | cm | 157 | 157 | cm | | | | | Y | 1 | Baseline | 1 | 1999-06-19 | 1 | | |", "figure_ref": null, "candidates": [{"md_atom_id": "md_dmVS_ex_a020", "md_file": "knowledge_base/domains/VS/examples.md", "md_atom_type": "TABLE_ROW", "md_parent_section": "§VS.1 [Example 1]", "md_verbatim": "| 9 | ABC | VS | ABC-001-001 | 9 | HEIGHT | Height | STANDING | 157 | cm | 157 | 157 | cm | | | | | Y | 1 | Baseline | 1 | 1999-06-19 | 1 | | |", "score": 1.0, "match_basis": "verbatim_token+domain_route:VS"}, {"md_atom_id": "md_dmVS_ex_a019", "md_file": "knowledge_base/domains/VS/examples.md", "md_atom_type": "TABLE_ROW", "md_parent_section": "§VS.1 [Example 1]", "md_verbatim": "| 8 | ABC | VS | ABC-001-001 | 8 | WEIGHT | Weight | STANDING | 90.5 | kg | 90.5 | 90.5 | kg | | | | | Y | 1 | Baseline | 1 | 1999-06-19 | 1 | | |", "score": 0.9182, "match_basis": "verbatim_token+domain_route:VS"}, {"md_atom_id": "md_dmVS_ex_a016", "md_file": "knowledge_base/domains/VS/examples.md", "md_atom_type": "TABLE_ROW", "md_parent_section": "§VS.1 [Example 1]", "md_verbatim": "| 5 | ABC | VS | ABC-001-001 | 5 | PULSE | Pulse Rate | SITTING | 72 | beats/min | 72 | 72 | beats/min | | | ARM | LEFT | Y | 1 | Baseline | 1 | 1999-06-19 | 1 | | |", "score": 0.5784, "match_basis": "verbatim_token+domain_route:VS"}, {"md_atom_id": "md_dmVS_ex_a017", "md_file": "knowledge_base/domains/VS/examples.md", "md_atom_type": "TABLE_ROW", "md_parent_section": "§VS.1 [Example 1]", "md_verbatim": "| 6 | ABC | VS | ABC-001-001 | 6 | TEMP | Temperature | | 34.7 | C | 34.7 | 34.7 | C | | | SUBLINGUAL REGION | | | 1 | Baseline | 1 | 1999-06-19T08:45 | 1 | BASELINE | 1 |", "score": 0.5535, "match_basis": "verbatim_token+domain_route:VS"}, {"md_atom_id": "md_dmVS_ex_a018", "md_file": "knowledge_base/domains/VS/examples.md", "md_atom_type": "TABLE_ROW", "md_parent_section": "§VS.1 [Example 1]", "md_verbatim": "| 7 | ABC | VS | ABC-001-001 | 7 | TEMP | Temperature | | 38.2 | C | 38.2 | 38.2 | C | | | SUBLINGUAL REGION | | Y | 1 | Baseline | 1 | 1999-06-19T09:00 | 1 | BASELINE | 2 |", "score": 0.5535, "match_basis": "verbatim_token+domain_route:VS"}], "candidate_count": 5, "zero_candidate": false}
{"pdf_atom_id": "ig34_p0361_a006", "pdf_atom_type": "TABLE_ROW", "pdf_source": "SDTMIG_v3.4", "pdf_page": 361, "pdf_parent_section": "§6.3.13 VS – Examples", "pdf_verbatim": "| 10 | ABC | VS | ABC-001-001 | 10 | SYSBP | Systolic Blood Pressure | SITTING | 95 | mmHg | 95 | 95 | mmHg | | | ARM | LEFT | | 2 | Visit 2 | 35 | 1999-07-21 | 33 | | |", "figure_ref": null, "candidates": [{"md_atom_id": "md_dmVS_ex_a021", "md_file": "knowledge_base/domains/VS/examples.md", "md_atom_type": "TABLE_ROW", "md_parent_section": "§VS.1 [Example 1]", "md_verbatim": "| 10 | ABC | VS | ABC-001-001 | 10 | SYSBP | Systolic Blood Pressure | SITTING | 95 | mmHg | 95 | 95 | mmHg | | | ARM | LEFT | | 2 | Visit 2 | 35 | 1999-07-21 | 33 | | |", "score": 1.0, "match_basis": "verbatim_token+domain_route:VS"}, {"md_atom_id": "md_dmVS_ex_a022", "md_file": "knowledge_base/domains/VS/examples.md", "md_atom_type": "TABLE_ROW", "md_parent_section": "§VS.1 [Example 1]", "md_verbatim": "| 11 | ABC | VS | ABC-001-001 | 11 | DIABP | Diastolic Blood Pressure | SITTING | 44 | mmHg | 44 | 44 | mmHg | | | ARM | LEFT | | 2 | Visit 2 | 35 | 1999-07-21 | 33 | | |", "score": 0.8579, "match_basis": "verbatim_token+domain_route:VS"}, {"md_atom_id": "md_dmVS_ex_a012", "md_file": "knowledge_base/domains/VS/examples.md", "md_atom_type": "TABLE_ROW", "md_parent_section": "§VS.1 [Example 1]", "md_verbatim": "| 1 | ABC | VS | ABC-001-001 | 1 | SYSBP | Systolic Blood Pressure | SITTING | 154 | mmHg | 154 | 154 | mmHg | | | ARM | LEFT | | 1 | Baseline | 1 | 1999-06-19T08:45 | 1 | BASELINE | 1 |", "score": 0.8326, "match_basis": "verbatim_token+domain_route:VS"}, {"md_atom_id": "md_dmVS_ex_a013", "md_file": "knowledge_base/domains/VS/examples.md", "md_atom_type": "TABLE_ROW", "md_parent_section": "§VS.1 [Example 1]", "md_verbatim": "| 2 | ABC | VS | ABC-001-001 | 2 | SYSBP | Systolic Blood Pressure | SITTING | 152 | mmHg | 152 | 152 | mmHg | | | ARM | LEFT | Y | 1 | Baseline | 1 | 1999-06-19T09:00 | 1 | BASELINE | 2 |", "score": 0.8326, "match_basis": "verbatim_token+domain_route:VS"}, {"md_atom_id": "md_dmVS_ex_a014", "md_file": "knowledge_base/domains/VS/examples.md", "md_atom_type": "TABLE_ROW", "md_parent_section": "§VS.1 [Example 1]", "md_verbatim": "| 3 | ABC | VS | ABC-001-001 | 3 | DIABP | Diastolic Blood Pressure | SITTING | 44 | mmHg | 44 | 44 | mmHg | | | ARM | LEFT | | 1 | Baseline | 1 | 1999-06-19T08:45 | 1 | BASELINE | 1 |", "score": 0.7447, "match_basis": "verbatim_token+domain_route:VS"}], "candidate_count": 5, "zero_candidate": false}
{"pdf_atom_id": "ig34_p0361_a007", "pdf_atom_type": "TABLE_ROW", "pdf_source": "SDTMIG_v3.4", "pdf_page": 361, "pdf_parent_section": "§6.3.13 VS – Examples", "pdf_verbatim": "| 11 | ABC | VS | ABC-001-001 | 11 | DIABP | Diastolic Blood Pressure | SITTING | 44 | mmHg | 44 | 44 | mmHg | | | ARM | LEFT | | 2 | Visit 2 | 35 | 1999-07-21 | 33 | | |", "figure_ref": null, "candidates": [{"md_atom_id": "md_dmVS_ex_a022", "md_file": "knowledge_base/domains/VS/examples.md", "md_atom_type": "TABLE_ROW", "md_parent_section": "§VS.1 [Example 1]", "md_verbatim": "| 11 | ABC | VS | ABC-001-001 | 11 | DIABP | Diastolic Blood Pressure | SITTING | 44 | mmHg | 44 | 44 | mmHg | | | ARM | LEFT | | 2 | Visit 2 | 35 | 1999-07-21 | 33 | | |", "score": 1.0, "match_basis": "verbatim_token+domain_route:VS"}, {"md_atom_id": "md_dmVS_ex_a021", "md_file": "knowledge_base/domains/VS/examples.md", "md_atom_type": "TABLE_ROW", "md_parent_section": "§VS.1 [Example 1]", "md_verbatim": "| 10 | ABC | VS | ABC-001-001 | 10 | SYSBP | Systolic Blood Pressure | SITTING | 95 | mmHg | 95 | 95 | mmHg | | | ARM | LEFT | | 2 | Visit 2 | 35 | 1999-07-21 | 33 | | |", "score": 0.8579, "match_basis": "verbatim_token+domain_route:VS"}, {"md_atom_id": "md_dmVS_ex_a014", "md_file": "knowledge_base/domains/VS/examples.md", "md_atom_type": "TABLE_ROW", "md_parent_section": "§VS.1 [Example 1]", "md_verbatim": "| 3 | ABC | VS | ABC-001-001 | 3 | DIABP | Diastolic Blood Pressure | SITTING | 44 | mmHg | 44 | 44 | mmHg | | | ARM | LEFT | | 1 | Baseline | 1 | 1999-06-19T08:45 | 1 | BASELINE | 1 |", "score": 0.8465, "match_basis": "verbatim_token+domain_route:VS"}, {"md_atom_id": "md_dmVS_ex_a015", "md_file": "knowledge_base/domains/VS/examples.md", "md_atom_type": "TABLE_ROW", "md_parent_section": "§VS.1 [Example 1]", "md_verbatim": "| 4 | ABC | VS | ABC-001-001 | 4 | DIABP | Diastolic Blood Pressure | SITTING | 48 | mmHg | 48 | 48 | mmHg | | | ARM | LEFT | Y | 1 | Baseline | 1 | 1999-06-19T09:00 | 1 | BASELINE | 2 |", "score": 0.8465, "match_basis": "verbatim_token+domain_route:VS"}, {"md_atom_id": "md_dmVS_ex_a012", "md_file": "knowledge_base/domains/VS/examples.md", "md_atom_type": "TABLE_ROW", "md_parent_section": "§VS.1 [Example 1]", "md_verbatim": "| 1 | ABC | VS | ABC-001-001 | 1 | SYSBP | Systolic Blood Pressure | SITTING | 154 | mmHg | 154 | 154 | mmHg | | | ARM | LEFT | | 1 | Baseline | 1 | 1999-06-19T08:45 | 1 | BASELINE | 1 |", "score": 0.7375, "match_basis": "verbatim_token+domain_route:VS"}], "candidate_count": 5, "zero_candidate": false}
{"pdf_atom_id": "ig34_p0361_a008", "pdf_atom_type": "TABLE_ROW", "pdf_source": "SDTMIG_v3.4", "pdf_page": 361, "pdf_parent_section": "§6.3.13 VS – Examples", "pdf_verbatim": "| 12 | ABC | VS | ABC-001-001 | 12 | TEMP | Temperature | | 97.16 | F | 36.2 | 36.2 | C | | | SUBLINGUAL REGION | | | 2 | Visit 2 | 35 | 1999-07-21 | 33 | | |", "figure_ref": null, "candidates": [{"md_atom_id": "md_dmVS_ex_a023", "md_file": "knowledge_base/domains/VS/examples.md", "md_atom_type": "TABLE_ROW", "md_parent_section": "§VS.1 [Example 1]", "md_verbatim": "| 12 | ABC | VS | ABC-001-001 | 12 | TEMP | Temperature | | 97.16 | F | 38.2 | 36.2 | C | | | SUBLINGUAL REGION | | | 2 | Visit 2 | 35 | 1999-07-21 | 33 | | |", "score": 1.0, "match_basis": "verbatim_token+domain_route:VS"}, {"md_atom_id": "md_dmVS_ex_a017", "md_file": "knowledge_base/domains/VS/examples.md", "md_atom_type": "TABLE_ROW", "md_parent_section": "§VS.1 [Example 1]", "md_verbatim": "| 6 | ABC | VS | ABC-001-001 | 6 | TEMP | Temperature | | 34.7 | C | 34.7 | 34.7 | C | | | SUBLINGUAL REGION | | | 1 | Baseline | 1 | 1999-06-19T08:45 | 1 | BASELINE | 1 |", "score": 0.8167, "match_basis": "verbatim_token+domain_route:VS"}, {"md_atom_id": "md_dmVS_ex_a018", "md_file": "knowledge_base/domains/VS/examples.md", "md_atom_type": "TABLE_ROW", "md_parent_section": "§VS.1 [Example 1]", "md_verbatim": "| 7 | ABC | VS | ABC-001-001 | 7 | TEMP | Temperature | | 38.2 | C | 38.2 | 38.2 | C | | | SUBLINGUAL REGION | | Y | 1 | Baseline | 1 | 1999-06-19T09:00 | 1 | BASELINE | 2 |", "score": 0.8167, "match_basis": "verbatim_token+domain_route:VS"}, {"md_atom_id": "md_dmVS_ex_a024", "md_file": "knowledge_base/domains/VS/examples.md", "md_atom_type": "TABLE_ROW", "md_parent_section": "§VS.1 [Example 1]", "md_verbatim": "| 13 | ABC | VS | ABC-001-001 | 13 | WEIGHT | Weight | | | | | | | NOT DONE | SUBJECT REFUSED | | | | 2 | Visit 2 | 35 | 1999-07-21 | 33 | | |", "score": 0.5091, "match_basis": "verbatim_token+domain_route:VS"}, {"md_atom_id": "md_dmVS_ex_a021", "md_file": "knowledge_base/domains/VS/examples.md", "md_atom_type": "TABLE_ROW", "md_parent_section": "§VS.1 [Example 1]", "md_verbatim": "| 10 | ABC | VS | ABC-001-001 | 10 | SYSBP | Systolic Blood Pressure | SITTING | 95 | mmHg | 95 | 95 | mmHg | | | ARM | LEFT | | 2 | Visit 2 | 35 | 1999-07-21 | 33 | | |", "score": 0.5038, "match_basis": "verbatim_token+domain_route:VS"}], "candidate_count": 5, "zero_candidate": false}
{"pdf_atom_id": "ig34_p0361_a009", "pdf_atom_type": "TABLE_ROW", "pdf_source": "SDTMIG_v3.4", "pdf_page": 361, "pdf_parent_section": "§6.3.13 VS – Examples", "pdf_verbatim": "| 13 | ABC | VS | ABC-001-001 | 13 | WEIGHT | Weight | | | | | | | NOT DONE | SUBJECT REFUSED | | | | 2 | Visit 2 | 35 | 1999-07-21 | 33 | | |", "figure_ref": null, "candidates": [{"md_atom_id": "md_dmVS_ex_a024", "md_file": "knowledge_base/domains/VS/examples.md", "md_atom_type": "TABLE_ROW", "md_parent_section": "§VS.1 [Example 1]", "md_verbatim": "| 13 | ABC | VS | ABC-001-001 | 13 | WEIGHT | Weight | | | | | | | NOT DONE | SUBJECT REFUSED | | | | 2 | Visit 2 | 35 | 1999-07-21 | 33 | | |", "score": 1.0, "match_basis": "verbatim_token+domain_route:VS"}, {"md_atom_id": "md_dmVS_ex_a019", "md_file": "knowledge_base/domains/VS/examples.md", "md_atom_type": "TABLE_ROW", "md_parent_section": "§VS.1 [Example 1]", "md_verbatim": "| 8 | ABC | VS | ABC-001-001 | 8 | WEIGHT | Weight | STANDING | 90.5 | kg | 90.5 | 90.5 | kg | | | | | Y | 1 | Baseline | 1 | 1999-06-19 | 1 | | |", "score": 0.5333, "match_basis": "verbatim_token+domain_route:VS"}, {"md_atom_id": "md_dmVS_ex_a020", "md_file": "knowledge_base/domains/VS/examples.md", "md_atom_type": "TABLE_ROW", "md_parent_section": "§VS.1 [Example 1]", "md_verbatim": "| 9 | ABC | VS | ABC-001-001 | 9 | HEIGHT | Height | STANDING | 157 | cm | 157 | 157 | cm | | | | | Y | 1 | Baseline | 1 | 1999-06-19 | 1 | | |", "score": 0.5105, "match_basis": "verbatim_token+domain_route:VS"}, {"md_atom_id": "md_dmVS_ex_a023", "md_file": "knowledge_base/domains/VS/examples.md", "md_atom_type": "TABLE_ROW", "md_parent_section": "§VS.1 [Example 1]", "md_verbatim": "| 12 | ABC | VS | ABC-001-001 | 12 | TEMP | Temperature | | 97.16 | F | 38.2 | 36.2 | C | | | SUBLINGUAL REGION | | | 2 | Visit 2 | 35 | 1999-07-21 | 33 | | |", "score": 0.5091, "match_basis": "verbatim_token+domain_route:VS"}, {"md_atom_id": "md_dmVS_ex_a021", "md_file": "knowledge_base/domains/VS/examples.md", "md_atom_type": "TABLE_ROW", "md_parent_section": "§VS.1 [Example 1]", "md_verbatim": "| 10 | ABC | VS | ABC-001-001 | 10 | SYSBP | Systolic Blood Pressure | SITTING | 95 | mmHg | 95 | 95 | mmHg | | | ARM | LEFT | | 2 | Visit 2 | 35 | 1999-07-21 | 33 | | |", "score": 0.484, "match_basis": "verbatim_token+domain_route:VS"}], "candidate_count": 5, "zero_candidate": false}
{"pdf_atom_id": "ig34_p0361_a010", "pdf_atom_type": "HEADING", "pdf_source": "SDTMIG_v3.4", "pdf_page": 361, "pdf_parent_section": "§6 [DOMAIN MODELS]", "pdf_verbatim": "6.4 Findings About Events or Interventions", "figure_ref": null, "candidates": [{"md_atom_id": "md_varindex_a547", "md_file": "knowledge_base/VARIABLE_INDEX.md", "md_atom_type": "HEADING", "md_parent_section": "§ 二、领域专属变量（仅 1 个域，共 1499 个），按域分组", "md_verbatim": "### FA — Findings About Events or Interventions (Findings About)", "score": 0.9, "match_basis": "verbatim_token+global_search"}, {"md_atom_id": "md_ch08_a244", "md_file": "knowledge_base/chapters/ch08_relationships.md", "md_atom_type": "HEADING", "md_parent_section": "§8.6 [Where Data Belong]", "md_verbatim": "### 8.6.3 Guidelines for Differentiating Between Interventions, Events, Findings, and Findings About Events or Interventions", "score": 0.5809, "match_basis": "verbatim_token+global_search"}, {"md_atom_id": "md_ch04_a447", "md_file": "knowledge_base/chapters/ch04_general_assumptions.md", "md_atom_type": "HEADING", "md_parent_section": "§4.3.5 [Storing Controlled Terminology for Synonym Qualifier Variables (MedDRA and WHODrug)]", "md_verbatim": "#### WHODrug Coding (Interventions)", "score": 0.569, "match_basis": "verbatim_token+global_search"}, {"md_atom_id": "md_ch04_a186", "md_file": "knowledge_base/chapters/ch04_general_assumptions.md", "md_atom_type": "HEADING", "md_parent_section": "§4.2.1 [Variable-Naming Conventions]", "md_verbatim": "#### 4.2.1.2 --TRT Conventions (Interventions)", "score": 0.5538, "match_basis": "verbatim_token+global_search"}, {"md_atom_id": "md_varindex_a921", "md_file": "knowledge_base/VARIABLE_INDEX.md", "md_atom_type": "HEADING", "md_parent_section": "§ 二、领域专属变量（仅 1 个域，共 1499 个），按域分组", "md_verbatim": "### ML — Meal Data (Interventions)", "score": 0.5538, "match_basis": "verbatim_token+global_search"}], "candidate_count": 5, "zero_candidate": false}
{"pdf_atom_id": "ig34_p0361_a011", "pdf_atom_type": "SENTENCE", "pdf_source": "SDTMIG_v3.4", "pdf_page": 361, "pdf_parent_section": "§6.4 Findings About Events or Interventions", "pdf_verbatim": "Findings About Events or Interventions is a specialization of the Findings general observation class. As such, it shares all qualities and conventions of Findings observations but is specialized by the addition of the --OBJ variable.", "figure_ref": null, "candidates": [{"md_atom_id": "md_model02_a156", "md_file": "knowledge_base/model/02_observation_classes.md", "md_atom_type": "SENTENCE", "md_parent_section": "§3.1.3 > Findings About (Subtype)", "md_verbatim": "It utilizes the Findings general observation class variables with the addition of the --OBJ variable.", "score": 0.5675, "match_basis": "verbatim_token+global_search"}, {"md_atom_id": "md_model02_a155", "md_file": "knowledge_base/model/02_observation_classes.md", "md_atom_type": "SENTENCE", "md_parent_section": "§3.1.3 > Findings About (Subtype)", "md_verbatim": "The Findings About observation class is a subtype of Findings used to record findings about events or interventions.", "score": 0.5207, "match_basis": "verbatim_token+global_search"}, {"md_atom_id": "md_ch04_a976", "md_file": "knowledge_base/chapters/ch04_general_assumptions.md", "md_atom_type": "SENTENCE", "md_parent_section": "§4.5.6 [Supplemental Reason Variables]", "md_verbatim": "The SDTM general observation classes include the --REASND variable to submit the reason a response is not present (a result in a findings class or an --OCCUR value in an events or interventions variable).", "score": 0.5196, "match_basis": "verbatim_token+global_search"}, {"md_atom_id": "md_ch04_a453", "md_file": "knowledge_base/chapters/ch04_general_assumptions.md", "md_atom_type": "SENTENCE", "md_parent_section": "§4.3.6 [Storing Topic Variables for General Domain Models]", "md_verbatim": "The topic variable for the Interventions and Events general observation-class models is often stored as verbatim text.", "score": 0.5143, "match_basis": "verbatim_token+global_search"}, {"md_atom_id": "md_ch04_a031", "md_file": "knowledge_base/chapters/ch04_general_assumptions.md", "md_atom_type": "SENTENCE", "md_parent_section": "§4.1.4 [Order of the Variables]", "md_verbatim": "Within each role, variables must be ordered as shown in SDTM Sections 3.1.1, The Interventions Observation Class; 3.1.2, The Events Observation Class; 3.1.3, The Findings Observation Class; 3.1.3.1, Findings About Events or Interventions; 3.1.4, Identifiers for All Classes; and 3.1.5, Timing Variables for All Classes.", "score": 0.5124, "match_basis": "verbatim_token+global_search"}], "candidate_count": 5, "zero_candidate": false}
{"pdf_atom_id": "ig34_p0361_a012", "pdf_atom_type": "HEADING", "pdf_source": "SDTMIG_v3.4", "pdf_page": 361, "pdf_parent_section": "§6.4 [FINDINGS ABOUT EVENTS OR INTERVENTIONS]", "pdf_verbatim": "6.4.1 When to Use Findings About Events or Interventions", "figure_ref": null, "candidates": [{"md_atom_id": "md_varindex_a547", "md_file": "knowledge_base/VARIABLE_INDEX.md", "md_atom_type": "HEADING", "md_parent_section": "§ 二、领域专属变量（仅 1 个域，共 1499 个），按域分组", "md_verbatim": "### FA — Findings About Events or Interventions (Findings About)", "score": 0.828, "match_basis": "verbatim_token+global_search"}, {"md_atom_id": "md_ch08_a244", "md_file": "knowledge_base/chapters/ch08_relationships.md", "md_atom_type": "HEADING", "md_parent_section": "§8.6 [Where Data Belong]", "md_verbatim": "### 8.6.3 Guidelines for Differentiating Between Interventions, Events, Findings, and Findings About Events or Interventions", "score": 0.564, "match_basis": "verbatim_token+global_search"}, {"md_atom_id": "md_ch04_a447", "md_file": "knowledge_base/chapters/ch04_general_assumptions.md", "md_atom_type": "HEADING", "md_parent_section": "§4.3.5 [Storing Controlled Terminology for Synonym Qualifier Variables (MedDRA and WHODrug)]", "md_verbatim": "#### WHODrug Coding (Interventions)", "score": 0.5437, "match_basis": "verbatim_token+global_search"}, {"md_atom_id": "md_ch04_a186", "md_file": "knowledge_base/chapters/ch04_general_assumptions.md", "md_atom_type": "HEADING", "md_parent_section": "§4.2.1 [Variable-Naming Conventions]", "md_verbatim": "#### 4.2.1.2 --TRT Conventions (Interventions)", "score": 0.5276, "match_basis": "verbatim_token+global_search"}, {"md_atom_id": "md_varindex_a921", "md_file": "knowledge_base/VARIABLE_INDEX.md", "md_atom_type": "HEADING", "md_parent_section": "§ 二、领域专属变量（仅 1 个域，共 1499 个），按域分组", "md_verbatim": "### ML — Meal Data (Interventions)", "score": 0.5276, "match_basis": "verbatim_token+global_search"}], "candidate_count": 5, "zero_candidate": false}
{"pdf_atom_id": "ig34_p0361_a013", "pdf_atom_type": "SENTENCE", "pdf_source": "SDTMIG_v3.4", "pdf_page": 361, "pdf_parent_section": "§6.4.1 When to Use Findings About Events or Interventions", "pdf_verbatim": "The Findings About Events or Interventions structure (or \"FA structure\") is intended, as its name implies, to be used when collected data represent \"findings about\" an event or intervention that cannot be represented within an event or intervention record or as a supplemental qualifier to such a record. Not all findings associated with an event or intervention should be represented in the FA structure. The following are criteria for using the FA structure.", "figure_ref": null, "candidates": [{"md_atom_id": "md_ch08_a180", "md_file": "knowledge_base/chapters/ch08_relationships.md", "md_atom_type": "SENTENCE", "md_parent_section": "§8.4.2 [Submitting Supplemental Qualifiers in Separate Datasets]", "md_verbatim": "In cases where data about associated persons have been collected, supplemental qualifiers for Findings About events or interventions for an associated person may need to be represented (see the SDTMIG for Associated Persons).", "score": 0.57, "match_basis": "verbatim_token+global_search"}, {"md_atom_id": "md_dmFA_ex_a106", "md_file": "knowledge_base/domains/FA/examples.md", "md_atom_type": "SENTENCE", "md_parent_section": "§FA.5 [Example 5]", "md_verbatim": "The collected data were represented in FA because they meet criterion 1 in Section 6.4.1, When to Use Findings About Events or Interventions, that is, data that do not describe an event or intervention as a whole. In addition, the volume of vomit data met criterion 2 data (\"about\" an event or intervention), having qualifiers that can be represented in Findings variables (e.g., units, method).", "score": 0.5096, "match_basis": "verbatim_token+global_search"}, {"md_atom_id": "md_dmFA_ex_a138", "md_file": "knowledge_base/domains/FA/examples.md", "md_atom_type": "SENTENCE", "md_parent_section": "§FA.6 [Example 6]", "md_verbatim": "The collected data met criterion 1 in Section 6.4.1, When to Use Findings About Events or Interventions, for data that do not describe an event or intervention as a whole.", "score": 0.4969, "match_basis": "verbatim_token+global_search"}, {"md_atom_id": "md_ch04_a981", "md_file": "knowledge_base/chapters/ch04_general_assumptions.md", "md_atom_type": "SENTENCE", "md_parent_section": "§4.5.6 [Supplemental Reason Variables]", "md_verbatim": "If the sponsor collects a reason for performing an activity represented in an Events domain where the topic is not a medical condition, or a reason for an intervention other than a medical indication, the reason can be represented in the SUPP-- dataset (as described in Section 8.4.1, Supplemental Qualifiers -- SUPP-- Datasets) using the supplemental qualifier with QNAM of \"--REAS\" listed in Appendix C1, Supplemental Qualifiers Name Codes.", "score": 0.4957, "match_basis": "verbatim_token+global_search"}, {"md_atom_id": "md_ch08_a272", "md_file": "knowledge_base/chapters/ch08_relationships.md", "md_atom_type": "SENTENCE", "md_parent_section": "§8.6.3 [Guidelines for Differentiating Between Interventions, Events, Findings, and Findings About Events or Interventions]", "md_verbatim": "When data related to an event do not fit into one of the existing Event general observation class qualifiers, the first question to consider is whether the data represent information about the event itself, or about something (a finding or intervention) that is associated with the event.", "score": 0.4953, "match_basis": "verbatim_token+global_search"}], "candidate_count": 5, "zero_candidate": false}
{"pdf_atom_id": "ig34_p0361_a014", "pdf_atom_type": "SENTENCE", "pdf_source": "SDTMIG_v3.4", "pdf_page": 361, "pdf_parent_section": "§6.4.1 When to Use Findings About Events or Interventions", "pdf_verbatim": "Criterion 1: Data or observations that have different timing from an associated event or intervention as a whole", "figure_ref": null, "candidates": [{"md_atom_id": "md_dmFA_ex_a138", "md_file": "knowledge_base/domains/FA/examples.md", "md_atom_type": "SENTENCE", "md_parent_section": "§FA.6 [Example 6]", "md_verbatim": "The collected data met criterion 1 in Section 6.4.1, When to Use Findings About Events or Interventions, for data that do not describe an event or intervention as a whole.", "score": 0.4926, "match_basis": "verbatim_token+global_search"}, {"md_atom_id": "md_ch04_a477", "md_file": "knowledge_base/chapters/ch04_general_assumptions.md", "md_atom_type": "SENTENCE", "md_parent_section": "§4.4 [Actual and Relative Time Assumptions]", "md_verbatim": "In the Events or Interventions general observation class, this could be the start date of the event or intervention.", "score": 0.4826, "match_basis": "verbatim_token+global_search"}, {"md_atom_id": "md_ch04_a607", "md_file": "knowledge_base/chapters/ch04_general_assumptions.md", "md_atom_type": "SENTENCE", "md_parent_section": "§4.4.5 [Clinical Encounters and Visits]", "md_verbatim": "For domains in the Events or Interventions observation classes, this could be the start date of the event or intervention.", "score": 0.475, "match_basis": "verbatim_token+global_search"}, {"md_atom_id": "md_ch04_a703", "md_file": "knowledge_base/chapters/ch04_general_assumptions.md", "md_atom_type": "SENTENCE", "md_parent_section": "§4.4.9 [Use of Dates as Result Variables]", "md_verbatim": "Remember, in most cases, these dates should be timing variables associated with a record in an Intervention or Events dataset.", "score": 0.4724, "match_basis": "verbatim_token+global_search"}, {"md_atom_id": "md_model02_a155", "md_file": "knowledge_base/model/02_observation_classes.md", "md_atom_type": "SENTENCE", "md_parent_section": "§3.1.3 > Findings About (Subtype)", "md_verbatim": "The Findings About observation class is a subtype of Findings used to record findings about events or interventions.", "score": 0.46, "match_basis": "verbatim_token+global_search"}], "candidate_count": 5, "zero_candidate": false}
{"pdf_atom_id": "ig34_p0361_a015", "pdf_atom_type": "SENTENCE", "pdf_source": "SDTMIG_v3.4", "pdf_page": 361, "pdf_parent_section": "§6.4.1 When to Use Findings About Events or Interventions", "pdf_verbatim": "Per Section 6.2.1, Adverse Events, assumption 7.e, \"It is the sponsor's responsibility to define an event.\" One common practice is to define an event as the period of time during which an adverse event has a constant severity (or, sometimes, other properties). In this approach, a single medical condition may be represented by multiple AE records (see AE Example 4), each with a start and end date, and FA records with a test of severity would not be applicable. Another common practice is to define an adverse event as the whole of a medical condition, even if severity (and other properties) change over time. With this approach, FA records may be used to represent data about severity (or other properties) of the adverse event that have timing different from the medical condition as a whole.", "figure_ref": null, "candidates": [{"md_atom_id": "md_dmFA_ex_a132", "md_file": "knowledge_base/domains/FA/examples.md", "md_atom_type": "SENTENCE", "md_parent_section": "§FA.6 [Example 6]", "md_verbatim": "In this example, the sponsor's definition of \"event\" meant that 1 record would be created for each adverse event, covering it from start to finish (see Section 6.2.1, Adverse Events, assumption 6.4). The AE module also collected information about severity at each visit.", "score": 0.4933, "match_basis": "verbatim_token+global_search"}, {"md_atom_id": "md_dmGF_ex_a098", "md_file": "knowledge_base/domains/GF/examples.md", "md_atom_type": "SENTENCE", "md_parent_section": "§GF.5 [Example 5]", "md_verbatim": "The susceptibility data stemming from this genetic testing above are represented in MS (see Section 6.3.5.7.2, Microbiology Susceptibility, assumption 1b). GFLINKID matches MSLNKID to connect the records in GF with the corresponding conclusion regarding susceptibility in MS. As above, NHOID is used to indicate that influenza A H3N2 is the focus of these records. MSAGENT represents the drug to which the results of susceptible or resistant pertain.", "score": 0.4618, "match_basis": "verbatim_token+global_search"}, {"md_atom_id": "md_ch08_a082", "md_file": "knowledge_base/chapters/ch08_relationships.md", "md_atom_type": "SENTENCE", "md_parent_section": "§8.2.2 [RELREC Dataset Examples]", "md_verbatim": "**Example 1:** This example illustrates the use of the RELREC dataset to relate records stored in separate domains for USUBJID = \"123456\". This example represents a situation in which a single adverse event is part of 2 collected relationships, one with 2 concomitant medications and the other with 2 laboratory findings, but there is no collected relationship between the 2 laboratory findings and the 2 concomitant medications.", "score": 0.4542, "match_basis": "verbatim_token+global_search"}, {"md_atom_id": "md_dmRELREC_ex_a004", "md_file": "knowledge_base/domains/RELREC/examples.md", "md_atom_type": "SENTENCE", "md_parent_section": "§RELREC.1.1 [Example 1]", "md_verbatim": "This example illustrates the use of the RELREC dataset to relate records stored in separate domains for USUBJID = \"123456\". This example represents a situation in which a single adverse event is part of 2 collected relationships, one with 2 concomitant medications and the other with 2 laboratory findings, but there is no collected relationship between the 2 laboratory findings and the 2 concomitant medications.", "score": 0.4542, "match_basis": "verbatim_token+global_search"}, {"md_atom_id": "md_dmFA_ex_a004", "md_file": "knowledge_base/domains/FA/examples.md", "md_atom_type": "SENTENCE", "md_parent_section": "§FA.1 [Example 1]", "md_verbatim": "In this example trial, migraines and symptoms associated with migraines were considered clinical events rather than reportable adverse events. The migraine, its sponsor identifier (i.e., the \"Migraine Reference Number\" on the CRF), and its start date were represented in a CE record.", "score": 0.45, "match_basis": "verbatim_token+global_search"}], "candidate_count": 5, "zero_candidate": false}
{"pdf_atom_id": "ig34_p0361_a016", "pdf_atom_type": "SENTENCE", "pdf_source": "SDTMIG_v3.4", "pdf_page": 361, "pdf_parent_section": "§6.4.1 When to Use Findings About Events or Interventions", "pdf_verbatim": "A finding that is about part of an event, rather than the event as a whole, meets this criterion for the use of FA. An assessment of an event that is not about the whole of an event may be a \"snapshot,\" an assessment at a point in time, or a \"slice,\" an assessment over a period of time (i.e., evaluation interval) during the event. In Section 6.4.4., Findings About Events or Interventions, Example 1 shows snapshot assessments at 3 points in time. The timing variables used to represent a snapshot assessment generally include FADTC, along with visit and time point variables as applicable, but not FAEVLINT or FAEVINTX. FA Example 5 shows assessments over 24-hour slices of the event. Slice assessments use an evaluation interval, the timing variables used would generally include FADTC and either FAEVLINT or FAEVINTX.", "figure_ref": null, "candidates": [{"md_atom_id": "md_dmFA_ex_a136", "md_file": "knowledge_base/domains/FA/examples.md", "md_atom_type": "SENTENCE", "md_parent_section": "§FA.6 [Example 6]", "md_verbatim": "*Note: The FA Example 6 CRF shows severity assessed at Visits 2-6 for up to 3 concurrent AEs per subject. The data collected about severity at each visit represents snapshots or slices of the AE over time, meeting criterion 1 for When to Use Findings About Events or Interventions.*", "score": 0.527, "match_basis": "verbatim_token+global_search"}, {"md_atom_id": "md_dmFA_ex_a040", "md_file": "knowledge_base/domains/FA/examples.md", "md_atom_type": "SENTENCE", "md_parent_section": "§FA.2 [Example 2]", "md_verbatim": "Additional data about the rash were collected at visits 3 and 4, which occurred 2 days and 9 days after the start of the rash. These data were represented in an FA dataset because they were not about the event as a whole (see Section 6.4.1, When to Use Findings About Events or Interventions, criterion 1). In addition, the measurement of the rash requires multiple variables (value and unit) for its representation and the numbers of various kinds of lesions within the rash are a set of similar assessments of the event (see Section 6.4.1, When to Use Findings About Events or Interventions, criterion 2).", "score": 0.4765, "match_basis": "verbatim_token+global_search"}, {"md_atom_id": "md_dmFA_ex_a013", "md_file": "knowledge_base/domains/FA/examples.md", "md_atom_type": "SENTENCE", "md_parent_section": "§FA.1 [Example 1]", "md_verbatim": "**Rows 1, 6, 11:** Severity of the migraine was represented with FATESTCD=\"SEV\". This FATESTCD value is derived from the events class variable name --SEV, and represents the same assessment as CESEV, except that this assessment is at a point in time rather than for the event as a whole.", "score": 0.4677, "match_basis": "verbatim_token+global_search"}, {"md_atom_id": "md_ch04_a031", "md_file": "knowledge_base/chapters/ch04_general_assumptions.md", "md_atom_type": "SENTENCE", "md_parent_section": "§4.1.4 [Order of the Variables]", "md_verbatim": "Within each role, variables must be ordered as shown in SDTM Sections 3.1.1, The Interventions Observation Class; 3.1.2, The Events Observation Class; 3.1.3, The Findings Observation Class; 3.1.3.1, Findings About Events or Interventions; 3.1.4, Identifiers for All Classes; and 3.1.5, Timing Variables for All Classes.", "score": 0.4667, "match_basis": "verbatim_token+global_search"}, {"md_atom_id": "md_dmFA_ex_a083", "md_file": "knowledge_base/domains/FA/examples.md", "md_atom_type": "SENTENCE", "md_parent_section": "§FA.4 [Example 4]", "md_verbatim": "In this example, the occurrence of prespecified adverse events was solicited at every visit and the visit date was used as the date of collection. The data collected meet criterion 3 in Section 6.4.1, When to Use Findings About Events or Interventions; that is, data that indicate the occurrence of prespecified AEs.", "score": 0.4648, "match_basis": "verbatim_token+global_search"}], "candidate_count": 5, "zero_candidate": false}
{"pdf_atom_id": "ig34_p0361_a017", "pdf_atom_type": "SENTENCE", "pdf_source": "SDTMIG_v3.4", "pdf_page": 361, "pdf_parent_section": "§6.4.1 When to Use Findings About Events or Interventions", "pdf_verbatim": "Repeated assessments of disease or treatment-related symptoms, particularly symptoms that are likely to be intermittent, generally produce results that apply to only part of an event; these are represented as findings about clinical events. For example, if severity of an AE is collected at scheduled time points (e.g., per visit) throughout the duration of the AE, as in Section 6.4.4., Findings About Events or Interventions, Example 6, the severities have timing that are different from that of the AE as a whole. Instead, the collected severities represent snapshots or slices of the AE over time.", "figure_ref": null, "candidates": [{"md_atom_id": "md_dmFA_ex_a136", "md_file": "knowledge_base/domains/FA/examples.md", "md_atom_type": "SENTENCE", "md_parent_section": "§FA.6 [Example 6]", "md_verbatim": "*Note: The FA Example 6 CRF shows severity assessed at Visits 2-6 for up to 3 concurrent AEs per subject. The data collected about severity at each visit represents snapshots or slices of the AE over time, meeting criterion 1 for When to Use Findings About Events or Interventions.*", "score": 0.4892, "match_basis": "verbatim_token+global_search"}, {"md_atom_id": "md_dmFA_ex_a012", "md_file": "knowledge_base/domains/FA/examples.md", "md_atom_type": "SENTENCE", "md_parent_section": "§FA.1 [Example 1]", "md_verbatim": "The remaining data on the CRF were \"snapshots\" taken at 3 time points; in accordance with Section 6.4.1, When to Use Findings About Events or Interventions, criterion 1, these were represented as findings about events. The FACAT value \"MIGRAINE SYMPTOMS\" was used to represent the fact that these data were collected in a CRF module called \"Migraine Symptoms Diary.\"", "score": 0.4729, "match_basis": "verbatim_token+global_search"}, {"md_atom_id": "md_dmFA_ex_a014", "md_file": "knowledge_base/domains/FA/examples.md", "md_atom_type": "SENTENCE", "md_parent_section": "§FA.1 [Example 1]", "md_verbatim": "**Rows 2-5, 7-10, 12-15:** The presence of symptoms associated with migraine was represented with the name of the symptom in FAOBJ, as the data collected is about the occurrence of a particular symptom. The test code value \"OCCUR\" is derived from the events class variable name --OCCUR, but is an assessment at a point in time, rather than about the event as a whole. The relationship of these symptoms to migraine is represented in FACAT, which indicates that these data were collected in the Migraine Symptoms Diary.", "score": 0.4658, "match_basis": "verbatim_token+global_search"}, {"md_atom_id": "md_ch08_a237", "md_file": "knowledge_base/chapters/ch08_relationships.md", "md_atom_type": "SENTENCE", "md_parent_section": "§8.6.1 [Guidelines for Determining the General Observation Class]", "md_verbatim": "Where to place data on assessments of events can be particularly challenging, and is discussed further in Section 8.6.3, Guidelines for Differentiating Between Interventions, Events, Findings, and Findings About Events or Interventions.", "score": 0.4447, "match_basis": "verbatim_token+global_search"}, {"md_atom_id": "md_dmTD_assn_a002", "md_file": "knowledge_base/domains/TD/assumptions.md", "md_atom_type": "SENTENCE", "md_parent_section": "§TD [TD — Assumptions]", "md_verbatim": "The purpose of the Trial Disease Assessments (TD) domain is to provide information on planned scheduling of disease assessments when the scheduling of disease assessments is not necessarily tied to the scheduling of visits. In oncology studies, good compliance with the disease-assessment schedule is essential to reduce the risk of \"assessment time bias.\" The TD domain makes possible an evaluation of assessment time bias from the SDTM, in particular for studies with progression-free survival (PFS) endpoints. TD has limited utility in oncology and was developed specifically with RECIST in mind and where an assessment-time bias analysis is appropriate. It is understood that extending this approach to Cheson and other criteria may not be appropriate or may pose difficulties. It is also understood that this approach may not be necessary in non-oncology studies, although it is available for use if appropriate.", "score": 0.4433, "match_basis": "verbatim_token+global_search"}], "candidate_count": 5, "zero_candidate": false}
{"pdf_atom_id": "ig34_p0361_a018", "pdf_atom_type": "SENTENCE", "pdf_source": "SDTMIG_v3.4", "pdf_page": 361, "pdf_parent_section": "§6.4.1 When to Use Findings About Events or Interventions", "pdf_verbatim": "Occasionally, data collection will include questions about the occurrence of prespecified events which are of naturally short duration, so that even though the assessments are repeated during the study, each assessment will provide information about an event as a whole. These type of assessments can be represented in the Events domain.", "figure_ref": null, "candidates": [{"md_atom_id": "md_dmMB_ex_a072", "md_file": "knowledge_base/domains/MB/examples.md", "md_atom_type": "SENTENCE", "md_parent_section": "§MB.3 [Example 3]", "md_verbatim": "Specimen processing events included sample collection, preparation, and culturing; these events are represented in the BE domain.", "score": 0.4846, "match_basis": "verbatim_token+global_search"}, {"md_atom_id": "md_dmFA_ex_a096", "md_file": "knowledge_base/domains/FA/examples.md", "md_atom_type": "SENTENCE", "md_parent_section": "§FA.4 [Example 4]", "md_verbatim": "For each prespecified adverse event for which FAORRES = \"Y\", the adverse event has a record in the AE domain with AEPRESP = \"Y\". No relationship was collected to link the FAAE record for the occurrence indicator test with the AE entries, so no RELREC was created.", "score": 0.4643, "match_basis": "verbatim_token+global_search"}, {"md_atom_id": "md_dmMB_ex_a110", "md_file": "knowledge_base/domains/MB/examples.md", "md_atom_type": "SENTENCE", "md_parent_section": "§MB.3 [Example 3]", "md_verbatim": "Findings data captured about the specimen during collection, preparation, and handling are represented in the BS domain.", "score": 0.4625, "match_basis": "verbatim_token+global_search"}, {"md_atom_id": "md_dmFA_ex_a014", "md_file": "knowledge_base/domains/FA/examples.md", "md_atom_type": "SENTENCE", "md_parent_section": "§FA.1 [Example 1]", "md_verbatim": "**Rows 2-5, 7-10, 12-15:** The presence of symptoms associated with migraine was represented with the name of the symptom in FAOBJ, as the data collected is about the occurrence of a particular symptom. The test code value \"OCCUR\" is derived from the events class variable name --OCCUR, but is an assessment at a point in time, rather than about the event as a whole. The relationship of these symptoms to migraine is represented in FACAT, which indicates that these data were collected in the Migraine Symptoms Diary.", "score": 0.4594, "match_basis": "verbatim_token+global_search"}, {"md_atom_id": "md_dmFA_ex_a067", "md_file": "knowledge_base/domains/FA/examples.md", "md_atom_type": "SENTENCE", "md_parent_section": "§FA.3 [Example 3]", "md_verbatim": "In this study, data were collected only at baseline. Because the occurrence and severity apply to the symptoms as a whole, they are represented in the MH domain. Note that the average duration of early morning stiffness cannot be represented in MHDUR because MHDUR would be the duration of the entire event, rather than the average of daily durations.", "score": 0.4594, "match_basis": "verbatim_token+global_search"}], "candidate_count": 5, "zero_candidate": false}
{"pdf_atom_id": "ig34_p0362_a001", "pdf_atom_type": "SENTENCE", "pdf_source": "SDTMIG_v3.4", "pdf_page": 362, "pdf_parent_section": "§6.4.1 When to Use Findings About Events or Interventions", "pdf_verbatim": "A finding which is a summary of multiple occurrences of a particular kind of event meets this criterion. For example, the number of episodes of vomiting during a particular time period is a finding about vomiting.", "figure_ref": null, "candidates": [{"md_atom_id": "md_dmFA_ex_a083", "md_file": "knowledge_base/domains/FA/examples.md", "md_atom_type": "SENTENCE", "md_parent_section": "§FA.4 [Example 4]", "md_verbatim": "In this example, the occurrence of prespecified adverse events was solicited at every visit and the visit date was used as the date of collection. The data collected meet criterion 3 in Section 6.4.1, When to Use Findings About Events or Interventions; that is, data that indicate the occurrence of prespecified AEs.", "score": 0.4543, "match_basis": "verbatim_token+global_search"}, {"md_atom_id": "md_dmFA_ex_a136", "md_file": "knowledge_base/domains/FA/examples.md", "md_atom_type": "SENTENCE", "md_parent_section": "§FA.6 [Example 6]", "md_verbatim": "*Note: The FA Example 6 CRF shows severity assessed at Visits 2-6 for up to 3 concurrent AEs per subject. The data collected about severity at each visit represents snapshots or slices of the AE over time, meeting criterion 1 for When to Use Findings About Events or Interventions.*", "score": 0.445, "match_basis": "verbatim_token+global_search"}, {"md_atom_id": "md_dmFA_ex_a040", "md_file": "knowledge_base/domains/FA/examples.md", "md_atom_type": "SENTENCE", "md_parent_section": "§FA.2 [Example 2]", "md_verbatim": "Additional data about the rash were collected at visits 3 and 4, which occurred 2 days and 9 days after the start of the rash. These data were represented in an FA dataset because they were not about the event as a whole (see Section 6.4.1, When to Use Findings About Events or Interventions, criterion 1). In addition, the measurement of the rash requires multiple variables (value and unit) for its representation and the numbers of various kinds of lesions within the rash are a set of similar assessments of the event (see Section 6.4.1, When to Use Findings About Events or Interventions, criterion 2).", "score": 0.4323, "match_basis": "verbatim_token+global_search"}, {"md_atom_id": "md_dmTM_ex_a005", "md_file": "knowledge_base/domains/TM/examples.md", "md_atom_type": "SENTENCE", "md_parent_section": "§TM.1 [Example 1]", "md_verbatim": "**Row 2:** Shows that hypoglycemic events are given the MIDSTYPE of \"HYPOGLYCEMIC EVENT\", and a definition in TMDEF. (For an actual study, the definition would be expected to include a particular threshold level, rather than the text \"threshold level\" used in this example.) A subject may experience multiple hypoglycemic events, as indicated by TMRPT = \"Y\".", "score": 0.4214, "match_basis": "verbatim_token+global_search"}, {"md_atom_id": "md_dmFA_ex_a111", "md_file": "knowledge_base/domains/FA/examples.md", "md_atom_type": "SENTENCE", "md_parent_section": "§FA.5 [Example 5]", "md_verbatim": "**Row 11:** Shows that vomiting did not occur in the 24 hours before visit 2; thus, volume, number of episodes, and severity were not applicable.", "score": 0.42, "match_basis": "verbatim_token+global_search"}], "candidate_count": 5, "zero_candidate": false}
{"pdf_atom_id": "ig34_p0362_a002", "pdf_atom_type": "SENTENCE", "pdf_source": "SDTMIG_v3.4", "pdf_page": 362, "pdf_parent_section": "§6.4.1 When to Use Findings About Events or Interventions", "pdf_verbatim": "For events that have not ended at the time of an assessment, \"event as a whole\" means the event up to the time of the assessment. An event need not have ended for information about the event to be considered information about the event as a whole. Data about medical conditions collected before start of study treatment are usually about the event as a whole and are usually represented in Medical History (MH). See Section 6.4.4., Findings About Events or Interventions, Example 3.", "figure_ref": null, "candidates": [{"md_atom_id": "md_ch08_a180", "md_file": "knowledge_base/chapters/ch08_relationships.md", "md_atom_type": "SENTENCE", "md_parent_section": "§8.4.2 [Submitting Supplemental Qualifiers in Separate Datasets]", "md_verbatim": "In cases where data about associated persons have been collected, supplemental qualifiers for Findings About events or interventions for an associated person may need to be represented (see the SDTMIG for Associated Persons).", "score": 0.4961, "match_basis": "verbatim_token+global_search"}, {"md_atom_id": "md_dmFA_ex_a040", "md_file": "knowledge_base/domains/FA/examples.md", "md_atom_type": "SENTENCE", "md_parent_section": "§FA.2 [Example 2]", "md_verbatim": "Additional data about the rash were collected at visits 3 and 4, which occurred 2 days and 9 days after the start of the rash. These data were represented in an FA dataset because they were not about the event as a whole (see Section 6.4.1, When to Use Findings About Events or Interventions, criterion 1). In addition, the measurement of the rash requires multiple variables (value and unit) for its representation and the numbers of various kinds of lesions within the rash are a set of similar assessments of the event (see Section 6.4.1, When to Use Findings About Events or Interventions, criterion 2).", "score": 0.4866, "match_basis": "verbatim_token+global_search"}, {"md_atom_id": "md_dmFA_ex_a138", "md_file": "knowledge_base/domains/FA/examples.md", "md_atom_type": "SENTENCE", "md_parent_section": "§FA.6 [Example 6]", "md_verbatim": "The collected data met criterion 1 in Section 6.4.1, When to Use Findings About Events or Interventions, for data that do not describe an event or intervention as a whole.", "score": 0.485, "match_basis": "verbatim_token+global_search"}, {"md_atom_id": "md_dmFA_ex_a136", "md_file": "knowledge_base/domains/FA/examples.md", "md_atom_type": "SENTENCE", "md_parent_section": "§FA.6 [Example 6]", "md_verbatim": "*Note: The FA Example 6 CRF shows severity assessed at Visits 2-6 for up to 3 concurrent AEs per subject. The data collected about severity at each visit represents snapshots or slices of the AE over time, meeting criterion 1 for When to Use Findings About Events or Interventions.*", "score": 0.4846, "match_basis": "verbatim_token+global_search"}, {"md_atom_id": "md_dmFA_ex_a106", "md_file": "knowledge_base/domains/FA/examples.md", "md_atom_type": "SENTENCE", "md_parent_section": "§FA.5 [Example 5]", "md_verbatim": "The collected data were represented in FA because they meet criterion 1 in Section 6.4.1, When to Use Findings About Events or Interventions, that is, data that do not describe an event or intervention as a whole. In addition, the volume of vomit data met criterion 2 data (\"about\" an event or intervention), having qualifiers that can be represented in Findings variables (e.g., units, method).", "score": 0.4769, "match_basis": "verbatim_token+global_search"}], "candidate_count": 5, "zero_candidate": false}
{"pdf_atom_id": "ig34_p0362_a003", "pdf_atom_type": "SENTENCE", "pdf_source": "SDTMIG_v3.4", "pdf_page": 362, "pdf_parent_section": "§6.4.1 When to Use Findings About Events or Interventions", "pdf_verbatim": "Assessments of parts of events (snapshots or slices) are represented in FA and may or may not have parent records (e.g., FA Example 5). If the FA dataset is split by parent domain, the sponsor must decide which Events domain would have held a parent record for a parent-less FA record. A sponsor may consider that symptoms of the disease under study would be considered clinical events represented in the CE domain, so that FA records for symptoms of the disease under study would be in the FACE split of the FA domain.", "figure_ref": null, "candidates": [{"md_atom_id": "md_dmFA_ex_a004", "md_file": "knowledge_base/domains/FA/examples.md", "md_atom_type": "SENTENCE", "md_parent_section": "§FA.1 [Example 1]", "md_verbatim": "In this example trial, migraines and symptoms associated with migraines were considered clinical events rather than reportable adverse events. The migraine, its sponsor identifier (i.e., the \"Migraine Reference Number\" on the CRF), and its start date were represented in a CE record.", "score": 0.4871, "match_basis": "verbatim_token+global_search"}, {"md_atom_id": "md_dmFA_ex_a105", "md_file": "knowledge_base/domains/FA/examples.md", "md_atom_type": "SENTENCE", "md_parent_section": "§FA.5 [Example 5]", "md_verbatim": "In this example, data about prespecified symptoms of the disease under study were collected on a daily basis. Although the date of the assessment was captured in the CRF header (not shown), start and end timing of the prespecified symptoms was not.", "score": 0.4554, "match_basis": "verbatim_token+global_search"}, {"md_atom_id": "md_dmRS_ex_a005", "md_file": "knowledge_base/domains/RS/examples.md", "md_atom_type": "SENTENCE", "md_parent_section": "§RS.1.1 [Example 1]", "md_verbatim": "This example shows response assessments determined from the TR domain based on RECIST 1.1 criteria and also shows a case where progressive disease due to symptomatic deterioration was determined based on a clinical assessment by the investigator.", "score": 0.4526, "match_basis": "verbatim_token+global_search"}, {"md_atom_id": "md_dmNV_ex_a061", "md_file": "knowledge_base/domains/NV/examples.md", "md_atom_type": "SENTENCE", "md_parent_section": "§NV.2 [Example 2]", "md_verbatim": "Information about the VEP device is not shown. Identifying information would be represented using the DI domain, and any properties of the device that may change between assessments would be represented in the DO and DU domains. See the SDTMIG-MD for examples of these domains.", "score": 0.4446, "match_basis": "verbatim_token+global_search"}, {"md_atom_id": "md_dmFA_ex_a039", "md_file": "knowledge_base/domains/FA/examples.md", "md_atom_type": "SENTENCE", "md_parent_section": "§FA.2 [Example 2]", "md_verbatim": "In this scenario, the injection site rash event was considered a reportable adverse event; therefore, the rash itself was represented in the AE domain. The rash assessment form collects a reference number for the AE, represented in AESPID. Certain required or expected variables have been omitted from the example dataset in consideration of space and clarity.", "score": 0.4405, "match_basis": "verbatim_token+global_search"}], "candidate_count": 5, "zero_candidate": false}
{"pdf_atom_id": "ig34_p0362_a004", "pdf_atom_type": "SENTENCE", "pdf_source": "SDTMIG_v3.4", "pdf_page": 362, "pdf_parent_section": "§6.4.1 When to Use Findings About Events or Interventions", "pdf_verbatim": "This criterion is less likely to apply to interventions records than to events records. Interventions records often represent a series of individual substance administrations. When there is a change in dosing or other characteristics during the series, the most appropriate solution may be to represent the series of individual administrations in 2 records, one for the administrations before the change and a second for administrations after the change, rather than to create findings about records.", "figure_ref": null, "candidates": [{"md_atom_id": "md_dmCM_ex_a065", "md_file": "knowledge_base/domains/CM/examples.md", "md_atom_type": "SENTENCE", "md_parent_section": "§CM.5 [Example 5]", "md_verbatim": "**Row 1:** Shows that subject 101 received prior RA medications. The values of CMTRT and CMCAT are the same, indicating that this record represents the response to a question about a category of medications, rather than an individual medication.", "score": 0.4424, "match_basis": "verbatim_token+global_search"}, {"md_atom_id": "md_dmCM_ex_a066", "md_file": "knowledge_base/domains/CM/examples.md", "md_atom_type": "SENTENCE", "md_parent_section": "§CM.5 [Example 5]", "md_verbatim": "**Row 2:** Shows that subject 101 did not receive prior DMARDs. The values in CMTRT and CMSCAT are the same, indicating that this record represents the response to a question about a group of medications, rather than an individual medication.", "score": 0.4392, "match_basis": "verbatim_token+global_search"}, {"md_atom_id": "md_ch08_a247", "md_file": "knowledge_base/chapters/ch08_relationships.md", "md_atom_type": "SENTENCE", "md_parent_section": "§8.6.3 [Guidelines for Differentiating Between Interventions, Events, Findings, and Findings About Events or Interventions]", "md_verbatim": "The Findings About (FA) domain was initially created to represent findings about events, but can also be used for findings about interventions.", "score": 0.4391, "match_basis": "verbatim_token+global_search"}, {"md_atom_id": "md_dmFA_ex_a012", "md_file": "knowledge_base/domains/FA/examples.md", "md_atom_type": "SENTENCE", "md_parent_section": "§FA.1 [Example 1]", "md_verbatim": "The remaining data on the CRF were \"snapshots\" taken at 3 time points; in accordance with Section 6.4.1, When to Use Findings About Events or Interventions, criterion 1, these were represented as findings about events. The FACAT value \"MIGRAINE SYMPTOMS\" was used to represent the fact that these data were collected in a CRF module called \"Migraine Symptoms Diary.\"", "score": 0.4373, "match_basis": "verbatim_token+global_search"}, {"md_atom_id": "md_dmEX_ex_a119", "md_file": "knowledge_base/domains/EX/examples.md", "md_atom_type": "SENTENCE", "md_parent_section": "§EX.5 [Example 5]", "md_verbatim": "The EC dataset shows the administrations as collected. The time-point variables ECTPT and ECTPTNUM were used to describe the time of day of administration. This use of time-point variables is novel, representing data about multiple time points, 1 on each day of administration, rather than data for a single time point.", "score": 0.437, "match_basis": "verbatim_token+global_search"}], "candidate_count": 5, "zero_candidate": false}
{"pdf_atom_id": "ig34_p0362_a005", "pdf_atom_type": "SENTENCE", "pdf_source": "SDTMIG_v3.4", "pdf_page": 362, "pdf_parent_section": "§6.4.1 When to Use Findings About Events or Interventions", "pdf_verbatim": "Criterion 2: An observation about an event or intervention which requires more than 1 variable for its representation, particularly when the observation may be represented with Findings class variables (e.g., units, method)", "figure_ref": null, "candidates": [{"md_atom_id": "md_dmFA_ex_a106", "md_file": "knowledge_base/domains/FA/examples.md", "md_atom_type": "SENTENCE", "md_parent_section": "§FA.5 [Example 5]", "md_verbatim": "The collected data were represented in FA because they meet criterion 1 in Section 6.4.1, When to Use Findings About Events or Interventions, that is, data that do not describe an event or intervention as a whole. In addition, the volume of vomit data met criterion 2 data (\"about\" an event or intervention), having qualifiers that can be represented in Findings variables (e.g., units, method).", "score": 0.5128, "match_basis": "verbatim_token+global_search"}, {"md_atom_id": "md_dmFA_ex_a040", "md_file": "knowledge_base/domains/FA/examples.md", "md_atom_type": "SENTENCE", "md_parent_section": "§FA.2 [Example 2]", "md_verbatim": "Additional data about the rash were collected at visits 3 and 4, which occurred 2 days and 9 days after the start of the rash. These data were represented in an FA dataset because they were not about the event as a whole (see Section 6.4.1, When to Use Findings About Events or Interventions, criterion 1). In addition, the measurement of the rash requires multiple variables (value and unit) for its representation and the numbers of various kinds of lesions within the rash are a set of similar assessments of the event (see Section 6.4.1, When to Use Findings About Events or Interventions, criterion 2).", "score": 0.5078, "match_basis": "verbatim_token+global_search"}, {"md_atom_id": "md_ch04_a031", "md_file": "knowledge_base/chapters/ch04_general_assumptions.md", "md_atom_type": "SENTENCE", "md_parent_section": "§4.1.4 [Order of the Variables]", "md_verbatim": "Within each role, variables must be ordered as shown in SDTM Sections 3.1.1, The Interventions Observation Class; 3.1.2, The Events Observation Class; 3.1.3, The Findings Observation Class; 3.1.3.1, Findings About Events or Interventions; 3.1.4, Identifiers for All Classes; and 3.1.5, Timing Variables for All Classes.", "score": 0.4951, "match_basis": "verbatim_token+global_search"}, {"md_atom_id": "md_ch08_a272", "md_file": "knowledge_base/chapters/ch08_relationships.md", "md_atom_type": "SENTENCE", "md_parent_section": "§8.6.3 [Guidelines for Differentiating Between Interventions, Events, Findings, and Findings About Events or Interventions]", "md_verbatim": "When data related to an event do not fit into one of the existing Event general observation class qualifiers, the first question to consider is whether the data represent information about the event itself, or about something (a finding or intervention) that is associated with the event.", "score": 0.4849, "match_basis": "verbatim_token+global_search"}, {"md_atom_id": "md_model02_a155", "md_file": "knowledge_base/model/02_observation_classes.md", "md_atom_type": "SENTENCE", "md_parent_section": "§3.1.3 > Findings About (Subtype)", "md_verbatim": "The Findings About observation class is a subtype of Findings used to record findings about events or interventions.", "score": 0.4818, "match_basis": "verbatim_token+global_search"}], "candidate_count": 5, "zero_candidate": false}
{"pdf_atom_id": "ig34_p0362_a006", "pdf_atom_type": "SENTENCE", "pdf_source": "SDTMIG_v3.4", "pdf_page": 362, "pdf_parent_section": "§6.4.1 When to Use Findings About Events or Interventions", "pdf_verbatim": "The need to represent data which require more than 1 variable in a findings about structure, rather than by adding 2 or more supplemental qualifiers to an Events or Interventions domain, is driven by the fact that each supplemental qualifier is in a separate record that links only to the parent record. For example, if the size of a rash is measured, then the result and measurement unit (e.g., centimeters, inches) can be represented in an FA domain in a single record; other information regarding the rash (e.g., start and end times) would, if collected, appear in an Event record. See, for example, the longest diameter measurements in Section 6.4.4., Findings About Events or Interventions, Example 2.", "figure_ref": null, "candidates": [{"md_atom_id": "md_ch03_a106", "md_file": "knowledge_base/chapters/ch03_submitting_data.md", "md_atom_type": "SENTENCE", "md_parent_section": "§3.2.1.2 [CDISC Submission Value-level Metadata]", "md_verbatim": "**Example:** The Vital Signs (VS) data domain could contain subject records related to diastolic and systolic blood pressure, height, weight, and body mass index (BMI). These data are all submitted in the normalized SDTM Findings structure of 1 row per vital signs measurement. This means that there could be 5 records per subject (1 for each test or measurement) for a single visit or time point, with the parameter names stored in the Test Code/Name variables, and the parameter values stored in result variables. Because the unique test code/names could have different attributes (e.g., different origins, roles, definitions) there would be a need to provide value-level metadata for this information.", "score": 0.4967, "match_basis": "verbatim_token+global_search"}, {"md_atom_id": "md_dmFA_ex_a040", "md_file": "knowledge_base/domains/FA/examples.md", "md_atom_type": "SENTENCE", "md_parent_section": "§FA.2 [Example 2]", "md_verbatim": "Additional data about the rash were collected at visits 3 and 4, which occurred 2 days and 9 days after the start of the rash. These data were represented in an FA dataset because they were not about the event as a whole (see Section 6.4.1, When to Use Findings About Events or Interventions, criterion 1). In addition, the measurement of the rash requires multiple variables (value and unit) for its representation and the numbers of various kinds of lesions within the rash are a set of similar assessments of the event (see Section 6.4.1, When to Use Findings About Events or Interventions, criterion 2).", "score": 0.4938, "match_basis": "verbatim_token+global_search"}, {"md_atom_id": "md_ch04_a926", "md_file": "knowledge_base/chapters/ch04_general_assumptions.md", "md_atom_type": "SENTENCE", "md_parent_section": "§4.5.3.2 [Text Strings Greater than 200 Characters in Other Variables]", "md_verbatim": "**Example 2 (ae.xpt / suppae.xpt):** AEACNOTH was longer than 200 characters, but required only 1 supplemental qualifier for the text that extended beyond what could be represented in the standard variable.", "score": 0.4794, "match_basis": "verbatim_token+global_search"}, {"md_atom_id": "md_ch08_a180", "md_file": "knowledge_base/chapters/ch08_relationships.md", "md_atom_type": "SENTENCE", "md_parent_section": "§8.4.2 [Submitting Supplemental Qualifiers in Separate Datasets]", "md_verbatim": "In cases where data about associated persons have been collected, supplemental qualifiers for Findings About events or interventions for an associated person may need to be represented (see the SDTMIG for Associated Persons).", "score": 0.476, "match_basis": "verbatim_token+global_search"}, {"md_atom_id": "md_dmSUPPQUAL_assn_a002", "md_file": "knowledge_base/domains/SUPPQUAL/assumptions.md", "md_atom_type": "SENTENCE", "md_parent_section": "§SUPPQUAL [SUPPQUAL — Assumptions]", "md_verbatim": "The SDTM does not allow the addition of new variables. Therefore, the Supplemental Qualifiers special-purpose dataset model is used to capture non-standard variables (NSVs) and their association to parent records in general-observation class datasets (Events, Findings, Interventions), Demographics (DM), and Subject Visits (SV). Supplemental qualifiers are represented as separate SUPP-- datasets for each dataset containing sponsor-defined variables (see Section 8.4.2, Submitting Supplemental Qualifiers in Separate Datasets).", "score": 0.4754, "match_basis": "verbatim_token+global_search"}], "candidate_count": 5, "zero_candidate": false}
{"pdf_atom_id": "ig34_p0362_a007", "pdf_atom_type": "SENTENCE", "pdf_source": "SDTMIG_v3.4", "pdf_page": 362, "pdf_parent_section": "§6.4.1 When to Use Findings About Events or Interventions", "pdf_verbatim": "Criterion 3: Data or information that indicate the occurrence of pre-specified AEs", "figure_ref": null, "candidates": [{"md_atom_id": "md_dmFA_ex_a083", "md_file": "knowledge_base/domains/FA/examples.md", "md_atom_type": "SENTENCE", "md_parent_section": "§FA.4 [Example 4]", "md_verbatim": "In this example, the occurrence of prespecified adverse events was solicited at every visit and the visit date was used as the date of collection. The data collected meet criterion 3 in Section 6.4.1, When to Use Findings About Events or Interventions; that is, data that indicate the occurrence of prespecified AEs.", "score": 0.516, "match_basis": "verbatim_token+global_search"}, {"md_atom_id": "md_dmCM_ex_a035", "md_file": "knowledge_base/domains/CM/examples.md", "md_atom_type": "SENTENCE", "md_parent_section": "§CM.3 [Example 3]", "md_verbatim": "The value of CMOCCUR indicates the response to the prespecified medication question.", "score": 0.5066, "match_basis": "verbatim_token+global_search"}, {"md_atom_id": "md_ch04_a994", "md_file": "knowledge_base/chapters/ch04_general_assumptions.md", "md_atom_type": "SENTENCE", "md_parent_section": "§4.5.7 [Presence or Absence of Prespecified Interventions and Events]", "md_verbatim": "The --OCCUR variable is used to indicate whether a prespecified intervention or event occurred or did not occur.", "score": 0.5029, "match_basis": "verbatim_token+global_search"}, {"md_atom_id": "md_dmCE_ex_a041", "md_file": "knowledge_base/domains/CE/examples.md", "md_atom_type": "SENTENCE", "md_parent_section": "§CE.2 [Example 2]", "md_verbatim": "The value \"Y\" for CEPRESP indicates it was prespecified.", "score": 0.4846, "match_basis": "verbatim_token+global_search"}, {"md_atom_id": "md_dmFA_ex_a113", "md_file": "knowledge_base/domains/FA/examples.md", "md_atom_type": "SENTENCE", "md_parent_section": "§FA.5 [Example 5]", "md_verbatim": "**Row 15:** Indicates that the occurrence of nausea was not assessed at visit 2.", "score": 0.4729, "match_basis": "verbatim_token+global_search"}], "candidate_count": 5, "zero_candidate": false}
{"pdf_atom_id": "ig34_p0362_a008", "pdf_atom_type": "SENTENCE", "pdf_source": "SDTMIG_v3.4", "pdf_page": 362, "pdf_parent_section": "§6.4.1 When to Use Findings About Events or Interventions", "pdf_verbatim": "Every record in the AE domain must represent an event that actually occurred. Therefore, AE probing questions that are answered in the negative (e.g., did not occur, unknown, not done) cannot be stored in the AE domain. All answers to probing questions about the occurrence of pre-specified adverse events can be stored in the FA domain. (See Section 6.4.4., Findings About Events or Interventions, Example 4.) For each \"Y\" response to a probing question there should be a record in the AE domain. The FA record and the AE record may be linked via RELREC. The responses to all AE occurrence questions—whether \"Y\", \"N\", or \"NOT DONE\"—are represented in FAAE. This approach supports summarization of incidence directly from the FA dataset.", "figure_ref": null, "candidates": [{"md_atom_id": "md_dmAE_ex_a022", "md_file": "knowledge_base/domains/AE/examples.md", "md_atom_type": "SENTENCE", "md_parent_section": "§AE.2 [Example 2]", "md_verbatim": "The responses to the probing questions \"Yes\", \"No\", or \"Not Done\" were represented in the Findings About (FA) domain (see Section 6.4, Findings About Events and Interventions).", "score": 0.489, "match_basis": "verbatim_token+global_search"}, {"md_atom_id": "md_dmAE_ex_a040", "md_file": "knowledge_base/domains/AE/examples.md", "md_atom_type": "SENTENCE", "md_parent_section": "§AE.3 [Example 3]", "md_verbatim": "The responses to the probing questions \"Yes\", \"No\", or \"Not Done\" were represented in the FA domain (see Section 6.4, Findings About Events and Interventions).", "score": 0.489, "match_basis": "verbatim_token+global_search"}, {"md_atom_id": "md_dmFA_ex_a083", "md_file": "knowledge_base/domains/FA/examples.md", "md_atom_type": "SENTENCE", "md_parent_section": "§FA.4 [Example 4]", "md_verbatim": "In this example, the occurrence of prespecified adverse events was solicited at every visit and the visit date was used as the date of collection. The data collected meet criterion 3 in Section 6.4.1, When to Use Findings About Events or Interventions; that is, data that indicate the occurrence of prespecified AEs.", "score": 0.4837, "match_basis": "verbatim_token+global_search"}, {"md_atom_id": "md_dmFA_ex_a096", "md_file": "knowledge_base/domains/FA/examples.md", "md_atom_type": "SENTENCE", "md_parent_section": "§FA.4 [Example 4]", "md_verbatim": "For each prespecified adverse event for which FAORRES = \"Y\", the adverse event has a record in the AE domain with AEPRESP = \"Y\". No relationship was collected to link the FAAE record for the occurrence indicator test with the AE entries, so no RELREC was created.", "score": 0.457, "match_basis": "verbatim_token+global_search"}, {"md_atom_id": "md_dmDD_ex_a017", "md_file": "knowledge_base/domains/DD/examples.md", "md_atom_type": "SENTENCE", "md_parent_section": "§DD.2 [Example 2]", "md_verbatim": "This example illustrates how the DD, Disposition (DS), and AE data for a subject were linked using RELREC. Note that each of these domains serves a different purpose, even though the information is related. This subject had a fatal adverse event, represented in the AE domain.", "score": 0.4533, "match_basis": "verbatim_token+global_search"}], "candidate_count": 5, "zero_candidate": false}
{"pdf_atom_id": "ig34_p0362_a009", "pdf_atom_type": "SENTENCE", "pdf_source": "SDTMIG_v3.4", "pdf_page": 362, "pdf_parent_section": "§6.4.1 When to Use Findings About Events or Interventions", "pdf_verbatim": "Previous versions of the SDTMIG included the criterion, \"Data or observations about an Event or Intervention for which no Event or Intervention record has been collected or created.\" This criterion has been removed, because the amount of data collected about an event or intervention should not determine whether data are represented in an FA dataset. Data that can be represented in an event or intervention record, particularly data for which standard variables exist, should be represented in the appropriate Event or Intervention domain, even if the record is sparse. The absence of a \"parent\" event or intervention record does not prevent representing data about an event or intervention in an FA dataset. One situation that previously used this criterion was the collection of a diagnosis date or symptom onset date for the disease under study when the occurrence of the disease was collected in an inclusion criterion, rather than as medical history. That situation can now be represented in an MH record that includes MHEVDTYP. Events identified during a physical examination would, in accordance with CDASH best practices, be recorded in medical history or adverse events CRFs.", "figure_ref": null, "candidates": [{"md_atom_id": "md_dmCP_ex_a002", "md_file": "knowledge_base/domains/CP/examples.md", "md_atom_type": "SENTENCE", "md_parent_section": "§CP [CP — Examples]", "md_verbatim": "The CP domain includes use of several new qualifier variables. The primary intent of the following examples is to demonstrate the appropriate use of these new variables based on a selection of use cases for which they would ordinarily be included in a well-structured CP dataset. Secondarily, the examples illustrate standardized formatting concepts for variables that are not associated with a formal Controlled Terminology codelist. Although not controlled, the standardized formatting of content for these variables significantly aids understanding of the test and associated data, making data review and comparisons much easier. To make the examples as easy to understand as possible, many of the other SDTM variables that would normally be included in the dataset and which are already familiar to the reader have not been included.", "score": 0.454, "match_basis": "verbatim_token+global_search"}, {"md_atom_id": "md_dmCP_ex_a082", "md_file": "knowledge_base/domains/CP/examples.md", "md_atom_type": "SENTENCE", "md_parent_section": "§CP.7 [Example 7]", "md_verbatim": "Principles related to cell phenotyping are often used to measure the extent of binding between two molecules of interest (e.g., ligand-receptor or protein-protein interactions). Substances involved in the binding interaction can represent naturally occurring, pathological (i.e., disease-related), or therapeutic intervention processes. Quantification of these types of interactions is often used: (1) to aid in diagnosis and/or tracking disease progression; (2) to determine whether a therapy operating through a binding mechanism works as intended at selected doses; and (3) to assess whether potential off-target interactions, particularly those associated with undesirable side effects or safety risks, are likely to be a concern.", "score": 0.4539, "match_basis": "verbatim_token+global_search"}, {"md_atom_id": "md_dmFA_ex_a014", "md_file": "knowledge_base/domains/FA/examples.md", "md_atom_type": "SENTENCE", "md_parent_section": "§FA.1 [Example 1]", "md_verbatim": "**Rows 2-5, 7-10, 12-15:** The presence of symptoms associated with migraine was represented with the name of the symptom in FAOBJ, as the data collected is about the occurrence of a particular symptom. The test code value \"OCCUR\" is derived from the events class variable name --OCCUR, but is an assessment at a point in time, rather than about the event as a whole. The relationship of these symptoms to migraine is represented in FACAT, which indicates that these data were collected in the Migraine Symptoms Diary.", "score": 0.4491, "match_basis": "verbatim_token+global_search"}, {"md_atom_id": "md_dmFA_ex_a067", "md_file": "knowledge_base/domains/FA/examples.md", "md_atom_type": "SENTENCE", "md_parent_section": "§FA.3 [Example 3]", "md_verbatim": "In this study, data were collected only at baseline. Because the occurrence and severity apply to the symptoms as a whole, they are represented in the MH domain. Note that the average duration of early morning stiffness cannot be represented in MHDUR because MHDUR would be the duration of the entire event, rather than the average of daily durations.", "score": 0.4485, "match_basis": "verbatim_token+global_search"}, {"md_atom_id": "md_dmFA_ex_a040", "md_file": "knowledge_base/domains/FA/examples.md", "md_atom_type": "SENTENCE", "md_parent_section": "§FA.2 [Example 2]", "md_verbatim": "Additional data about the rash were collected at visits 3 and 4, which occurred 2 days and 9 days after the start of the rash. These data were represented in an FA dataset because they were not about the event as a whole (see Section 6.4.1, When to Use Findings About Events or Interventions, criterion 1). In addition, the measurement of the rash requires multiple variables (value and unit) for its representation and the numbers of various kinds of lesions within the rash are a set of similar assessments of the event (see Section 6.4.1, When to Use Findings About Events or Interventions, criterion 2).", "score": 0.4482, "match_basis": "verbatim_token+global_search"}], "candidate_count": 5, "zero_candidate": false}
{"pdf_atom_id": "ig34_p0362_a010", "pdf_atom_type": "SENTENCE", "pdf_source": "SDTMIG_v3.4", "pdf_page": 362, "pdf_parent_section": "§6.4.1 When to Use Findings About Events or Interventions", "pdf_verbatim": "Previous versions of the SDTMIG included the criterion, \"Data or information about an Event or Intervention that indicate the occurrence of related symptoms or therapies.\" This criterion has been removed because information about related symptoms or therapies is more appropriately represented as information about those symptoms or therapies rather than as information about the event or intervention to which they are thought to be related. Data about related symptoms or interventions should be evaluated against the above Criterion 1 - 3 to determine whether they should be represented in an FA dataset. If data do not meet one of the criteria above, they should be represented in", "figure_ref": null, "candidates": [{"md_atom_id": "md_dmFA_ex_a067", "md_file": "knowledge_base/domains/FA/examples.md", "md_atom_type": "SENTENCE", "md_parent_section": "§FA.3 [Example 3]", "md_verbatim": "In this study, data were collected only at baseline. Because the occurrence and severity apply to the symptoms as a whole, they are represented in the MH domain. Note that the average duration of early morning stiffness cannot be represented in MHDUR because MHDUR would be the duration of the entire event, rather than the average of daily durations.", "score": 0.4651, "match_basis": "verbatim_token+global_search"}, {"md_atom_id": "md_dmFA_ex_a014", "md_file": "knowledge_base/domains/FA/examples.md", "md_atom_type": "SENTENCE", "md_parent_section": "§FA.1 [Example 1]", "md_verbatim": "**Rows 2-5, 7-10, 12-15:** The presence of symptoms associated with migraine was represented with the name of the symptom in FAOBJ, as the data collected is about the occurrence of a particular symptom. The test code value \"OCCUR\" is derived from the events class variable name --OCCUR, but is an assessment at a point in time, rather than about the event as a whole. The relationship of these symptoms to migraine is represented in FACAT, which indicates that these data were collected in the Migraine Symptoms Diary.", "score": 0.4615, "match_basis": "verbatim_token+global_search"}, {"md_atom_id": "md_dmFA_ex_a040", "md_file": "knowledge_base/domains/FA/examples.md", "md_atom_type": "SENTENCE", "md_parent_section": "§FA.2 [Example 2]", "md_verbatim": "Additional data about the rash were collected at visits 3 and 4, which occurred 2 days and 9 days after the start of the rash. These data were represented in an FA dataset because they were not about the event as a whole (see Section 6.4.1, When to Use Findings About Events or Interventions, criterion 1). In addition, the measurement of the rash requires multiple variables (value and unit) for its representation and the numbers of various kinds of lesions within the rash are a set of similar assessments of the event (see Section 6.4.1, When to Use Findings About Events or Interventions, criterion 2).", "score": 0.4506, "match_basis": "verbatim_token+global_search"}, {"md_atom_id": "md_dmFA_ex_a083", "md_file": "knowledge_base/domains/FA/examples.md", "md_atom_type": "SENTENCE", "md_parent_section": "§FA.4 [Example 4]", "md_verbatim": "In this example, the occurrence of prespecified adverse events was solicited at every visit and the visit date was used as the date of collection. The data collected meet criterion 3 in Section 6.4.1, When to Use Findings About Events or Interventions; that is, data that indicate the occurrence of prespecified AEs.", "score": 0.4485, "match_basis": "verbatim_token+global_search"}, {"md_atom_id": "md_ch08_a272", "md_file": "knowledge_base/chapters/ch08_relationships.md", "md_atom_type": "SENTENCE", "md_parent_section": "§8.6.3 [Guidelines for Differentiating Between Interventions, Events, Findings, and Findings About Events or Interventions]", "md_verbatim": "When data related to an event do not fit into one of the existing Event general observation class qualifiers, the first question to consider is whether the data represent information about the event itself, or about something (a finding or intervention) that is associated with the event.", "score": 0.4402, "match_basis": "verbatim_token+global_search"}], "candidate_count": 5, "zero_candidate": false}
{"pdf_atom_id": "ig34_p0363_a001", "pdf_atom_type": "SENTENCE", "pdf_source": "SDTMIG_v3.4", "pdf_page": 363, "pdf_parent_section": "§6.4.1 When to Use Findings About Events or Interventions", "pdf_verbatim": "an event or interventions record. If data do meet criteria to be represented in the findings about structure, FAOBJ will be the name of the symptom. The relationship to the disease under study may be represented in FACAT or FASCAT, as in FA Example 5.", "figure_ref": null, "candidates": [{"md_atom_id": "md_dmFA_ex_a012", "md_file": "knowledge_base/domains/FA/examples.md", "md_atom_type": "SENTENCE", "md_parent_section": "§FA.1 [Example 1]", "md_verbatim": "The remaining data on the CRF were \"snapshots\" taken at 3 time points; in accordance with Section 6.4.1, When to Use Findings About Events or Interventions, criterion 1, these were represented as findings about events. The FACAT value \"MIGRAINE SYMPTOMS\" was used to represent the fact that these data were collected in a CRF module called \"Migraine Symptoms Diary.\"", "score": 0.4688, "match_basis": "verbatim_token+global_search"}, {"md_atom_id": "md_dmFA_ex_a136", "md_file": "knowledge_base/domains/FA/examples.md", "md_atom_type": "SENTENCE", "md_parent_section": "§FA.6 [Example 6]", "md_verbatim": "*Note: The FA Example 6 CRF shows severity assessed at Visits 2-6 for up to 3 concurrent AEs per subject. The data collected about severity at each visit represents snapshots or slices of the AE over time, meeting criterion 1 for When to Use Findings About Events or Interventions.*", "score": 0.4669, "match_basis": "verbatim_token+global_search"}, {"md_atom_id": "md_dmFA_ex_a083", "md_file": "knowledge_base/domains/FA/examples.md", "md_atom_type": "SENTENCE", "md_parent_section": "§FA.4 [Example 4]", "md_verbatim": "In this example, the occurrence of prespecified adverse events was solicited at every visit and the visit date was used as the date of collection. The data collected meet criterion 3 in Section 6.4.1, When to Use Findings About Events or Interventions; that is, data that indicate the occurrence of prespecified AEs.", "score": 0.4614, "match_basis": "verbatim_token+global_search"}, {"md_atom_id": "md_ch08_a084", "md_file": "knowledge_base/chapters/ch08_relationships.md", "md_atom_type": "SENTENCE", "md_parent_section": "§8.2.2 [RELREC Dataset Examples]", "md_verbatim": "**Rows 4-6:** Show the representation of a relationship between the same AE record and 2 laboratory findings records.", "score": 0.4607, "match_basis": "verbatim_token+global_search"}, {"md_atom_id": "md_dmRELREC_ex_a006", "md_file": "knowledge_base/domains/RELREC/examples.md", "md_atom_type": "SENTENCE", "md_parent_section": "§RELREC.1.1 [Example 1]", "md_verbatim": "**Rows 4-6:** Show the representation of a relationship between the same AE record and 2 laboratory findings records.", "score": 0.4607, "match_basis": "verbatim_token+global_search"}], "candidate_count": 5, "zero_candidate": false}
{"pdf_atom_id": "ig34_p0363_a002", "pdf_atom_type": "SENTENCE", "pdf_source": "SDTMIG_v3.4", "pdf_page": 363, "pdf_parent_section": "§6.4.1 When to Use Findings About Events or Interventions", "pdf_verbatim": "The term \"symptom\" is often used loosely to refer to both symptoms (reported by the subject) and signs (observable by others). When data about signs is collected via questions about the subject's past experience, signs are appropriately represented as SDTM events. However, when a sign is identified or assessed during an examination at a point in time, it may be more appropriate to represent it as an SDTM finding.", "figure_ref": null, "candidates": [{"md_atom_id": "md_dmFA_ex_a136", "md_file": "knowledge_base/domains/FA/examples.md", "md_atom_type": "SENTENCE", "md_parent_section": "§FA.6 [Example 6]", "md_verbatim": "*Note: The FA Example 6 CRF shows severity assessed at Visits 2-6 for up to 3 concurrent AEs per subject. The data collected about severity at each visit represents snapshots or slices of the AE over time, meeting criterion 1 for When to Use Findings About Events or Interventions.*", "score": 0.4806, "match_basis": "verbatim_token+global_search"}, {"md_atom_id": "md_ch08_a180", "md_file": "knowledge_base/chapters/ch08_relationships.md", "md_atom_type": "SENTENCE", "md_parent_section": "§8.4.2 [Submitting Supplemental Qualifiers in Separate Datasets]", "md_verbatim": "In cases where data about associated persons have been collected, supplemental qualifiers for Findings About events or interventions for an associated person may need to be represented (see the SDTMIG for Associated Persons).", "score": 0.468, "match_basis": "verbatim_token+global_search"}, {"md_atom_id": "md_ch04_a031", "md_file": "knowledge_base/chapters/ch04_general_assumptions.md", "md_atom_type": "SENTENCE", "md_parent_section": "§4.1.4 [Order of the Variables]", "md_verbatim": "Within each role, variables must be ordered as shown in SDTM Sections 3.1.1, The Interventions Observation Class; 3.1.2, The Events Observation Class; 3.1.3, The Findings Observation Class; 3.1.3.1, Findings About Events or Interventions; 3.1.4, Identifiers for All Classes; and 3.1.5, Timing Variables for All Classes.", "score": 0.457, "match_basis": "verbatim_token+global_search"}, {"md_atom_id": "md_dmFA_ex_a083", "md_file": "knowledge_base/domains/FA/examples.md", "md_atom_type": "SENTENCE", "md_parent_section": "§FA.4 [Example 4]", "md_verbatim": "In this example, the occurrence of prespecified adverse events was solicited at every visit and the visit date was used as the date of collection. The data collected meet criterion 3 in Section 6.4.1, When to Use Findings About Events or Interventions; that is, data that indicate the occurrence of prespecified AEs.", "score": 0.4557, "match_basis": "verbatim_token+global_search"}, {"md_atom_id": "md_dmFA_ex_a012", "md_file": "knowledge_base/domains/FA/examples.md", "md_atom_type": "SENTENCE", "md_parent_section": "§FA.1 [Example 1]", "md_verbatim": "The remaining data on the CRF were \"snapshots\" taken at 3 time points; in accordance with Section 6.4.1, When to Use Findings About Events or Interventions, criterion 1, these were represented as findings about events. The FACAT value \"MIGRAINE SYMPTOMS\" was used to represent the fact that these data were collected in a CRF module called \"Migraine Symptoms Diary.\"", "score": 0.4545, "match_basis": "verbatim_token+global_search"}], "candidate_count": 5, "zero_candidate": false}
{"pdf_atom_id": "ig34_p0363_a003", "pdf_atom_type": "SENTENCE", "pdf_source": "SDTMIG_v3.4", "pdf_page": 363, "pdf_parent_section": "§6.4.1 When to Use Findings About Events or Interventions", "pdf_verbatim": "Points to Consider", "figure_ref": null, "candidates": [{"md_atom_id": "md_ch04_a697", "md_file": "knowledge_base/chapters/ch04_general_assumptions.md", "md_atom_type": "SENTENCE", "md_parent_section": "§4.4.9 [Use of Dates as Result Variables]", "md_verbatim": "Consider the following cases:", "score": 0.4714, "match_basis": "verbatim_token+global_search"}, {"md_atom_id": "md_dmAE_ex_a092", "md_file": "knowledge_base/domains/AE/examples.md", "md_atom_type": "SENTENCE", "md_parent_section": "§AE.6 [Example 6]", "md_verbatim": "The event was considered to be probably related to the device, and was serious.", "score": 0.3947, "match_basis": "verbatim_token+global_search"}, {"md_atom_id": "md_ch04_a298", "md_file": "knowledge_base/chapters/ch04_general_assumptions.md", "md_atom_type": "SENTENCE", "md_parent_section": "§4.2.7.2 [\"Specify\" Values for Result Qualifier Variables]", "md_verbatim": "For example, consider a CRF where the sponsor requests the subject's eye color:", "score": 0.39, "match_basis": "verbatim_token+global_search"}, {"md_atom_id": "md_ch04_a715", "md_file": "knowledge_base/chapters/ch04_general_assumptions.md", "md_atom_type": "SENTENCE", "md_parent_section": "§4.4.10 [Representing Time Points]", "md_verbatim": "**Example: Vital Signs time points (30, 60, 90 minutes post-dose)**", "score": 0.375, "match_basis": "verbatim_token+global_search"}, {"md_atom_id": "md_ch04_a728", "md_file": "knowledge_base/chapters/ch04_general_assumptions.md", "md_atom_type": "SENTENCE", "md_parent_section": "§4.4.10 [Representing Time Points]", "md_verbatim": "Not all time points will require all 3 variables to provide uniqueness.", "score": 0.375, "match_basis": "verbatim_token+global_search"}], "candidate_count": 5, "zero_candidate": false}
{"pdf_atom_id": "ig34_p0363_a004", "pdf_atom_type": "SENTENCE", "pdf_source": "SDTMIG_v3.4", "pdf_page": 363, "pdf_parent_section": "§6.4.1 When to Use Findings About Events or Interventions", "pdf_verbatim": "The choice between representing a data item as a supplemental qualifier or as a finding about an event or intervention may not be clear-cut. The following questions may help in making a decision.", "figure_ref": null, "candidates": [{"md_atom_id": "md_ch08_a180", "md_file": "knowledge_base/chapters/ch08_relationships.md", "md_atom_type": "SENTENCE", "md_parent_section": "§8.4.2 [Submitting Supplemental Qualifiers in Separate Datasets]", "md_verbatim": "In cases where data about associated persons have been collected, supplemental qualifiers for Findings About events or interventions for an associated person may need to be represented (see the SDTMIG for Associated Persons).", "score": 0.542, "match_basis": "verbatim_token+global_search"}, {"md_atom_id": "md_dmCE_ex_a070", "md_file": "knowledge_base/domains/CE/examples.md", "md_atom_type": "SENTENCE", "md_parent_section": "§CE.3 [Example 3]", "md_verbatim": "The supplemental qualifier MHCAUSE or CECAUSE (depending on domain) was used to represent the response to the question, \"How did the fracture occur?\"", "score": 0.4774, "match_basis": "verbatim_token+global_search"}, {"md_atom_id": "md_dmAE_ex_a022", "md_file": "knowledge_base/domains/AE/examples.md", "md_atom_type": "SENTENCE", "md_parent_section": "§AE.2 [Example 2]", "md_verbatim": "The responses to the probing questions \"Yes\", \"No\", or \"Not Done\" were represented in the Findings About (FA) domain (see Section 6.4, Findings About Events and Interventions).", "score": 0.4761, "match_basis": "verbatim_token+global_search"}, {"md_atom_id": "md_dmAE_ex_a040", "md_file": "knowledge_base/domains/AE/examples.md", "md_atom_type": "SENTENCE", "md_parent_section": "§AE.3 [Example 3]", "md_verbatim": "The responses to the probing questions \"Yes\", \"No\", or \"Not Done\" were represented in the FA domain (see Section 6.4, Findings About Events and Interventions).", "score": 0.4761, "match_basis": "verbatim_token+global_search"}, {"md_atom_id": "md_ch08_a272", "md_file": "knowledge_base/chapters/ch08_relationships.md", "md_atom_type": "SENTENCE", "md_parent_section": "§8.6.3 [Guidelines for Differentiating Between Interventions, Events, Findings, and Findings About Events or Interventions]", "md_verbatim": "When data related to an event do not fit into one of the existing Event general observation class qualifiers, the first question to consider is whether the data represent information about the event itself, or about something (a finding or intervention) that is associated with the event.", "score": 0.4726, "match_basis": "verbatim_token+global_search"}], "candidate_count": 5, "zero_candidate": false}
{"pdf_atom_id": "ig34_p0363_a005", "pdf_atom_type": "LIST_ITEM", "pdf_source": "SDTMIG_v3.4", "pdf_page": 363, "pdf_parent_section": "§6.4.1 When to Use Findings About Events or Interventions", "pdf_verbatim": "Does the data item have its own timing, separate from the timing of the event or intervention? If the data item represents some action during or after the event or intervention, it may be considered to have its own timing, and meet Criterion 1.", "figure_ref": null, "candidates": [{"md_atom_id": "md_ch04_a499", "md_file": "knowledge_base/chapters/ch04_general_assumptions.md", "md_atom_type": "LIST_ITEM", "md_parent_section": "§4.4.1 [Formats for Date/Time Variables]", "md_verbatim": "- [/] (solidus): to separate components in the representation of date/time intervals", "score": 0.4643, "match_basis": "verbatim_token+global_search"}, {"md_atom_id": "md_dmSR_assn_a002", "md_file": "knowledge_base/domains/SR/assumptions.md", "md_atom_type": "LIST_ITEM", "md_parent_section": "§SR [SR — Assumptions]", "md_verbatim": "1. The Skin Response (SR) domain is used to represent findings about an intervention, but it has its own domain code, SR, rather than the domain code FA.", "score": 0.4404, "match_basis": "verbatim_token+global_search"}, {"md_atom_id": "md_ch04_a233", "md_file": "knowledge_base/chapters/ch04_general_assumptions.md", "md_atom_type": "LIST_ITEM", "md_parent_section": "§4.2.6 [Grouping Variables and Categorization]", "md_verbatim": "      - Treatments (e.g., oxygen) administered during the stress test (in an Interventions domain)", "score": 0.44, "match_basis": "verbatim_token+global_search"}, {"md_atom_id": "md_ch04_a865", "md_file": "knowledge_base/chapters/ch04_general_assumptions.md", "md_atom_type": "LIST_ITEM", "md_parent_section": "§4.5.1.3 [Examples of Original and Standard Units and Test Not Done]", "md_verbatim": "- **Row 5:** The overall interpretation of the ECG is represented as a separate test.", "score": 0.439, "match_basis": "verbatim_token+global_search"}, {"md_atom_id": "md_ch04_a497", "md_file": "knowledge_base/chapters/ch04_general_assumptions.md", "md_atom_type": "LIST_ITEM", "md_parent_section": "§4.4.1 [Formats for Date/Time Variables]", "md_verbatim": "- [-] (hyphen): to separate the time elements \"year\" from \"month\" and \"month\" from \"day\" and to represent missing date components", "score": 0.4385, "match_basis": "verbatim_token+global_search"}], "candidate_count": 5, "zero_candidate": false}
{"pdf_atom_id": "ig34_p0363_a006", "pdf_atom_type": "LIST_ITEM", "pdf_source": "SDTMIG_v3.4", "pdf_page": 363, "pdf_parent_section": "§6.4.1 When to Use Findings About Events or Interventions", "pdf_verbatim": "If the event or intervention is a disease milestone, then RELMIDS is not included in this event or intervention record. Is the relationship of a data item to the disease milestone (RELMIDS) needed? If so, it can be represented in FA, but not as a supplemental qualifier to the parent record.", "figure_ref": null, "candidates": [{"md_atom_id": "md_model06_a007", "md_file": "knowledge_base/model/06_relationship_datasets.md", "md_atom_type": "LIST_ITEM", "md_parent_section": "§ Overview", "md_verbatim": "- **Supplemental Qualifiers Dataset** — represents dependent relationships where data cannot be represented by a standard variable", "score": 0.5124, "match_basis": "verbatim_token+global_search"}, {"md_atom_id": "md_ch08_a274", "md_file": "knowledge_base/chapters/ch08_relationships.md", "md_atom_type": "LIST_ITEM", "md_parent_section": "§8.6.3 [Guidelines for Differentiating Between Interventions, Events, Findings, and Findings About Events or Interventions]", "md_verbatim": "- If the data item contains information about the event, then the choices for representing it are a supplemental qualifier or in an FA record. The data should be represented as a supplemental qualifier unless circumstances rule out the use of a supplemental qualifier. If a supplemental qualifier is not appropriate, the data may be stored in FA. See Section 6.4.1, When to Use Findings About Events or Interventions.", "score": 0.5, "match_basis": "verbatim_token+global_search"}, {"md_atom_id": "md_dmFA_assn_a007", "md_file": "knowledge_base/domains/FA/assumptions.md", "md_atom_type": "LIST_ITEM", "md_parent_section": "§FA [FA — Assumptions]", "md_verbatim": "5. When data collection establishes a relationship between FA records and an events or interventions record, the relationship should be represented in RELREC.", "score": 0.4842, "match_basis": "verbatim_token+global_search"}, {"md_atom_id": "md_ch04_a812", "md_file": "knowledge_base/chapters/ch04_general_assumptions.md", "md_atom_type": "LIST_ITEM", "md_parent_section": "§4.4.11 [Disease Milestones and Disease Milestone Timing Variables]", "md_verbatim": "- RELREC indicates that there is a relationship between records or datasets, but not the nature of the relationship; records with the same MIDS value are related to the same disease milestone", "score": 0.478, "match_basis": "verbatim_token+global_search"}, {"md_atom_id": "md_dmHO_assn_a004", "md_file": "knowledge_base/domains/HO/assumptions.md", "md_atom_type": "LIST_ITEM", "md_parent_section": "§HO [HO — Assumptions]", "md_verbatim": "3. Data collected about healthcare encounters may include the reason for the encounter. The following supplemental qualifiers may be appropriate for representing such data:", "score": 0.4708, "match_basis": "verbatim_token+global_search"}], "candidate_count": 5, "zero_candidate": false}
{"pdf_atom_id": "ig34_p0363_a007", "pdf_atom_type": "LIST_ITEM", "pdf_source": "SDTMIG_v3.4", "pdf_page": 363, "pdf_parent_section": "§6.4.1 When to Use Findings About Events or Interventions", "pdf_verbatim": "Are there several items which would be clearer if they could be grouped together? If so, the FA structure allows the use of FAGRPID, FACAT, or FASCAT to group the items.", "figure_ref": null, "candidates": [{"md_atom_id": "md_dmSU_assn_a011", "md_file": "knowledge_base/domains/SU/assumptions.md", "md_atom_type": "LIST_ITEM", "md_parent_section": "§SU [SU — Assumptions]", "md_verbatim": "   b. SUGRPID may be used to link (or associate) different records together to form a block of related records within SU at the subject level (see Section 4.2.6, Grouping Variables and Categorization). It should not be used in place of SUCAT or SUSCAT.", "score": 0.3851, "match_basis": "verbatim_token+global_search"}, {"md_atom_id": "md_dmMH_assn_a013", "md_file": "knowledge_base/domains/MH/assumptions.md", "md_atom_type": "LIST_ITEM", "md_parent_section": "§MH [MH — Assumptions]", "md_verbatim": "   b. MHGRPID may be used to link (or associate) different records together to form a block of related records at the subject level within the MH domain. It should not be used in place of MHCAT or MHSCAT, which are used to group data across subjects. For example, if a group of syndromes reported for a subject were related to a particular disease, then the MHGRPID variable could be populated with the appropriate text.", "score": 0.3847, "match_basis": "verbatim_token+global_search"}, {"md_atom_id": "md_dmEX_assn_a002", "md_file": "knowledge_base/domains/EX/assumptions.md", "md_atom_type": "LIST_ITEM", "md_parent_section": "§EX [EX — Assumptions]", "md_verbatim": "1. EX structure and use", "score": 0.3842, "match_basis": "verbatim_token+global_search"}, {"md_atom_id": "md_dmMB_assn_a010", "md_file": "knowledge_base/domains/MB/assumptions.md", "md_atom_type": "LIST_ITEM", "md_parent_section": "§MB [MB — Assumptions]", "md_verbatim": "      iii. MBGRPID should be used to group characteristic records with the identification record of the organism to which the characteristics apply.", "score": 0.3824, "match_basis": "verbatim_token+global_search"}, {"md_atom_id": "md_ch03_a111", "md_file": "knowledge_base/chapters/ch03_submitting_data.md", "md_atom_type": "LIST_ITEM", "md_parent_section": "§3.2.2 [Conformance]", "md_verbatim": "1. Following the complete metadata structure for data domains", "score": 0.3759, "match_basis": "verbatim_token+global_search"}], "candidate_count": 5, "zero_candidate": false}
{"pdf_atom_id": "ig34_p0363_a008", "pdf_atom_type": "LIST_ITEM", "pdf_source": "SDTMIG_v3.4", "pdf_page": 363, "pdf_parent_section": "§6.4.1 When to Use Findings About Events or Interventions", "pdf_verbatim": "Is the data item alone in a particular study, but related to other data items likely to be collected in other studies? If so, it may be preferable to represent the item in FA, where other FA variables might be needed for related items in the future. For example, the response to \"Was a rechallenge conducted?\" might be represented as a supplemental qualifier, but if additional information about the rechallenge (e.g, When?, What was the result?) were collected, then the FA structure would be needed.", "figure_ref": null, "candidates": [{"md_atom_id": "md_ch04_a450", "md_file": "knowledge_base/chapters/ch04_general_assumptions.md", "md_atom_type": "LIST_ITEM", "md_parent_section": "§4.3.5 [Storing Controlled Terminology for Synonym Qualifier Variables (MedDRA and WHODrug)]", "md_verbatim": "- For concomitant medications, supplemental qualifiers may be used to represent additional coding dictionary information (e.g., a drug's ATC codes from the WHO Drug Dictionary); see Section 8.4, Relating Non-standard Variable Values to a Parent Domain", "score": 0.4614, "match_basis": "verbatim_token+global_search"}, {"md_atom_id": "md_dmDM_assn_a019", "md_file": "knowledge_base/domains/DM/assumptions.md", "md_atom_type": "LIST_ITEM", "md_parent_section": "§DM [DM — Assumptions]", "md_verbatim": "6. Submission of multiple race responses should be represented in the Demographics (DM) domain and Supplemental Qualifiers (SUPPDM) dataset as described in Section 4.2.8.3, Multiple Values for a Non-result Qualifier Variable. If multiple races are collected, then the value of RACE should be \"MULTIPLE\" and the additional information will be included in the Supplemental Qualifiers dataset. Controlled terminology for RACE should be used in both DM and SUPPDM so that consistent values are available for summaries regardless of whether the data are found in a column or row. If multiple races were collected and 1 was designated as primary, RACE in DM should be the primary race and additional races should be reported in SUPPDM. When additional free-text information is reported about subject's race using \"Other, Specify\", sponsors should refer to Section 4.2.7.1, \"Specify\" Values for Non-Result Qualifier Variables. If race was collected via an \"Other, Specify\" field and the sponsor chooses not to map the value as described in the current FDA guidance (see CDISC Notes for RACE in the domain specification), then the value of RACE should be \"OTHER\". For subjects who refuse to provide or do not know their race information, the value of RACE could be \"UNKNOWN\". See DM Example 4, DM Example 5, DM Example 6, and DM Example 7.", "score": 0.459, "match_basis": "verbatim_token+global_search"}, {"md_atom_id": "md_dmDM_assn_a003", "md_file": "knowledge_base/domains/DM/assumptions.md", "md_atom_type": "LIST_ITEM", "md_parent_section": "§DM [DM — Assumptions]", "md_verbatim": "2. Every subject in a study must have a subject identifier (SUBJID). In some cases a subject may participate in more than 1 study. To identify a subject uniquely across all studies for all applications or submissions involving the product, a unique identifier (USUBJID) must be included in all datasets. Subjects occasionally change sites during the course of a clinical trial. Sponsors must decide how to populate variables such as USUBJID, SUBJID and SITEID based on their operational and analysis needs, but only 1 DM record should be submitted for each subject. The Supplemental Qualifiers dataset may be used if appropriate to provide additional information.", "score": 0.4583, "match_basis": "verbatim_token+global_search"}, {"md_atom_id": "md_ch08_a274", "md_file": "knowledge_base/chapters/ch08_relationships.md", "md_atom_type": "LIST_ITEM", "md_parent_section": "§8.6.3 [Guidelines for Differentiating Between Interventions, Events, Findings, and Findings About Events or Interventions]", "md_verbatim": "- If the data item contains information about the event, then the choices for representing it are a supplemental qualifier or in an FA record. The data should be represented as a supplemental qualifier unless circumstances rule out the use of a supplemental qualifier. If a supplemental qualifier is not appropriate, the data may be stored in FA. See Section 6.4.1, When to Use Findings About Events or Interventions.", "score": 0.4565, "match_basis": "verbatim_token+global_search"}, {"md_atom_id": "md_dmFT_assn_a033", "md_file": "knowledge_base/domains/FT/assumptions.md", "md_atom_type": "LIST_ITEM", "md_parent_section": "§FT [FT — Assumptions]", "md_verbatim": "8. --EVAL and --EVALID must not be used to model QRS data in SDTM. These variables have had various interpretations on QRS CRFs and were used to represent a multitude of evaluator information about QRS instruments. This has made it more difficult for users of SDTM QRS data to interpret this data and more difficult to pool data for analyses. If needed, supplemental qualifiers may be used to represent this data. Updated information on a proposed solution to this issue will be posted on the CDISC QRS webpage (https://www.cdisc.org/standards/foundational/qrs).", "score": 0.4524, "match_basis": "verbatim_token+global_search"}], "candidate_count": 5, "zero_candidate": false}
{"pdf_atom_id": "ig34_p0363_a009", "pdf_atom_type": "LIST_ITEM", "pdf_source": "SDTMIG_v3.4", "pdf_page": 363, "pdf_parent_section": "§6.4.1 When to Use Findings About Events or Interventions", "pdf_verbatim": "Are there multiple evaluators for a data item that could otherwise be represented as a supplemental qualifier? If so, FA may provided a clearer representation of the multiple opinions, and would also allow the use of FAEVALID.", "figure_ref": null, "candidates": [{"md_atom_id": "md_dmHO_assn_a006", "md_file": "knowledge_base/domains/HO/assumptions.md", "md_atom_type": "LIST_ITEM", "md_parent_section": "§HO [HO — Assumptions]", "md_verbatim": "   b. The supplemental qualifier with QNAM = \"HOREAS\" would be used to represent a reason for the encounter other than a medical condition (e.g., annual checkup).", "score": 0.4756, "match_basis": "verbatim_token+global_search"}, {"md_atom_id": "md_model06_a007", "md_file": "knowledge_base/model/06_relationship_datasets.md", "md_atom_type": "LIST_ITEM", "md_parent_section": "§ Overview", "md_verbatim": "- **Supplemental Qualifiers Dataset** — represents dependent relationships where data cannot be represented by a standard variable", "score": 0.4672, "match_basis": "verbatim_token+global_search"}, {"md_atom_id": "md_ch08_a274", "md_file": "knowledge_base/chapters/ch08_relationships.md", "md_atom_type": "LIST_ITEM", "md_parent_section": "§8.6.3 [Guidelines for Differentiating Between Interventions, Events, Findings, and Findings About Events or Interventions]", "md_verbatim": "- If the data item contains information about the event, then the choices for representing it are a supplemental qualifier or in an FA record. The data should be represented as a supplemental qualifier unless circumstances rule out the use of a supplemental qualifier. If a supplemental qualifier is not appropriate, the data may be stored in FA. See Section 6.4.1, When to Use Findings About Events or Interventions.", "score": 0.4565, "match_basis": "verbatim_token+global_search"}, {"md_atom_id": "md_dmHO_assn_a004", "md_file": "knowledge_base/domains/HO/assumptions.md", "md_atom_type": "LIST_ITEM", "md_parent_section": "§HO [HO — Assumptions]", "md_verbatim": "3. Data collected about healthcare encounters may include the reason for the encounter. The following supplemental qualifiers may be appropriate for representing such data:", "score": 0.4556, "match_basis": "verbatim_token+global_search"}, {"md_atom_id": "md_dmHO_assn_a005", "md_file": "knowledge_base/domains/HO/assumptions.md", "md_atom_type": "LIST_ITEM", "md_parent_section": "§HO [HO — Assumptions]", "md_verbatim": "   a. The supplemental qualifier with QNAM = \"HOINDC\" would be used to represent the indication/medical condition for the encounter (e.g., stroke). Note that --INDC is an Interventions class variable, so is not a standard variable for HO, which is an Events class domain.", "score": 0.4551, "match_basis": "verbatim_token+global_search"}], "candidate_count": 5, "zero_candidate": false}
{"pdf_atom_id": "ig34_p0363_a010", "pdf_atom_type": "HEADING", "pdf_source": "SDTMIG_v3.4", "pdf_page": 363, "pdf_parent_section": "§6.4 [FINDINGS ABOUT EVENTS OR INTERVENTIONS]", "pdf_verbatim": "6.4.2 Naming Findings About Domains", "figure_ref": null, "candidates": [{"md_atom_id": "md_index_a053", "md_file": "knowledge_base/INDEX.md", "md_atom_type": "HEADING", "md_parent_section": "§ Domains (63 domains)", "md_verbatim": "### Findings Domains", "score": 0.6882, "match_basis": "verbatim_token+global_search"}, {"md_atom_id": "md_model02_a154", "md_file": "knowledge_base/model/02_observation_classes.md", "md_atom_type": "HEADING", "md_parent_section": "§3.1.3 > Findings About (Subtype)", "md_verbatim": "### Findings About (Subtype)", "score": 0.5455, "match_basis": "verbatim_token+global_search"}, {"md_atom_id": "md_varindex_a1399", "md_file": "knowledge_base/VARIABLE_INDEX.md", "md_atom_type": "HEADING", "md_parent_section": "§ 二、领域专属变量（仅 1 个域，共 1499 个），按域分组", "md_verbatim": "### SR — Skin Response (Findings About)", "score": 0.516, "match_basis": "verbatim_token+global_search"}, {"md_atom_id": "md_ch04_a680", "md_file": "knowledge_base/chapters/ch04_general_assumptions.md", "md_atom_type": "HEADING", "md_parent_section": "§4.4 [Use of Timing Variables]", "md_verbatim": "### 4.4.8 Date and Time Reported in a Domain Based on Findings", "score": 0.4935, "match_basis": "verbatim_token+global_search"}, {"md_atom_id": "md_varindex_a547", "md_file": "knowledge_base/VARIABLE_INDEX.md", "md_atom_type": "HEADING", "md_parent_section": "§ 二、领域专属变量（仅 1 个域，共 1499 个），按域分组", "md_verbatim": "### FA — Findings About Events or Interventions (Findings About)", "score": 0.48, "match_basis": "verbatim_token+global_search"}], "candidate_count": 5, "zero_candidate": false}
{"pdf_atom_id": "ig34_p0363_a011", "pdf_atom_type": "SENTENCE", "pdf_source": "SDTMIG_v3.4", "pdf_page": 363, "pdf_parent_section": "§6.4.2 Naming Findings About Domains", "pdf_verbatim": "Findings About domains are defined to store findings about events or interventions. Sponsors may choose to represent FA data collected in the study in a single FA dataset (potentially splitting the FA domain into physically separate datasets following the guidance described in Section 4.1.6, Additional Guidance on Dataset Naming), or separate datasets, assigning unique custom 2-character domain codes (see examples in Section 6.4.5, Skin Response).", "figure_ref": null, "candidates": [{"md_atom_id": "md_ch04_a981", "md_file": "knowledge_base/chapters/ch04_general_assumptions.md", "md_atom_type": "SENTENCE", "md_parent_section": "§4.5.6 [Supplemental Reason Variables]", "md_verbatim": "If the sponsor collects a reason for performing an activity represented in an Events domain where the topic is not a medical condition, or a reason for an intervention other than a medical indication, the reason can be represented in the SUPP-- dataset (as described in Section 8.4.1, Supplemental Qualifiers -- SUPP-- Datasets) using the supplemental qualifier with QNAM of \"--REAS\" listed in Appendix C1, Supplemental Qualifiers Name Codes.", "score": 0.4734, "match_basis": "verbatim_token+global_search"}, {"md_atom_id": "md_dmSUPPQUAL_assn_a002", "md_file": "knowledge_base/domains/SUPPQUAL/assumptions.md", "md_atom_type": "SENTENCE", "md_parent_section": "§SUPPQUAL [SUPPQUAL — Assumptions]", "md_verbatim": "The SDTM does not allow the addition of new variables. Therefore, the Supplemental Qualifiers special-purpose dataset model is used to capture non-standard variables (NSVs) and their association to parent records in general-observation class datasets (Events, Findings, Interventions), Demographics (DM), and Subject Visits (SV). Supplemental qualifiers are represented as separate SUPP-- datasets for each dataset containing sponsor-defined variables (see Section 8.4.2, Submitting Supplemental Qualifiers in Separate Datasets).", "score": 0.4596, "match_basis": "verbatim_token+global_search"}, {"md_atom_id": "md_ch04_a050", "md_file": "knowledge_base/chapters/ch04_general_assumptions.md", "md_atom_type": "SENTENCE", "md_parent_section": "§4.1.7 [Splitting Domains]", "md_verbatim": "Sponsors may choose to split a domain of topically related information into physically separate datasets.", "score": 0.4527, "match_basis": "verbatim_token+global_search"}, {"md_atom_id": "md_dmAE_ex_a022", "md_file": "knowledge_base/domains/AE/examples.md", "md_atom_type": "SENTENCE", "md_parent_section": "§AE.2 [Example 2]", "md_verbatim": "The responses to the probing questions \"Yes\", \"No\", or \"Not Done\" were represented in the Findings About (FA) domain (see Section 6.4, Findings About Events and Interventions).", "score": 0.4509, "match_basis": "verbatim_token+global_search"}, {"md_atom_id": "md_dmAE_ex_a040", "md_file": "knowledge_base/domains/AE/examples.md", "md_atom_type": "SENTENCE", "md_parent_section": "§AE.3 [Example 3]", "md_verbatim": "The responses to the probing questions \"Yes\", \"No\", or \"Not Done\" were represented in the FA domain (see Section 6.4, Findings About Events and Interventions).", "score": 0.4509, "match_basis": "verbatim_token+global_search"}], "candidate_count": 5, "zero_candidate": false}
{"pdf_atom_id": "ig34_p0363_a012", "pdf_atom_type": "SENTENCE", "pdf_source": "SDTMIG_v3.4", "pdf_page": 363, "pdf_parent_section": "§6.4.2 Naming Findings About Domains", "pdf_verbatim": "For example, if findings about clinical events and findings about medical history are collected in a study, these could be represented as:", "figure_ref": null, "candidates": [{"md_atom_id": "md_dmCE_ex_a069", "md_file": "knowledge_base/domains/CE/examples.md", "md_atom_type": "SENTENCE", "md_parent_section": "§CE.3 [Example 3]", "md_verbatim": "Data about the most recent pre-study fracture were represented in the Medical History (MH) domain, and data about fractures during the study were represented in the CE domain.", "score": 0.5127, "match_basis": "verbatim_token+global_search"}, {"md_atom_id": "md_dmCE_ex_a003", "md_file": "knowledge_base/domains/CE/examples.md", "md_atom_type": "SENTENCE", "md_parent_section": "§CE.1 [Example 1]", "md_verbatim": "In this example, data were collected about prespecified events that, in the context of this study, were not reportable as AEs.", "score": 0.4976, "match_basis": "verbatim_token+global_search"}, {"md_atom_id": "md_dmSM_ex_a013", "md_file": "knowledge_base/domains/SM/examples.md", "md_atom_type": "SENTENCE", "md_parent_section": "§SM.1 [Example 1]", "md_verbatim": "Information in SM is taken from records in other domains. In this study, diagnosis was represented in the Medical History (MH) domain, and hypoglycemic events were represented in the Clinical Events (CE) domain.", "score": 0.4864, "match_basis": "verbatim_token+global_search"}, {"md_atom_id": "md_dmMB_ex_a110", "md_file": "knowledge_base/domains/MB/examples.md", "md_atom_type": "SENTENCE", "md_parent_section": "§MB.3 [Example 3]", "md_verbatim": "Findings data captured about the specimen during collection, preparation, and handling are represented in the BS domain.", "score": 0.482, "match_basis": "verbatim_token+global_search"}, {"md_atom_id": "md_dmMH_ex_a025", "md_file": "knowledge_base/domains/MH/examples.md", "md_atom_type": "SENTENCE", "md_parent_section": "§MH.2 [Example 2]", "md_verbatim": "In this example, data from 3 CRF modules related to medical history were collected:", "score": 0.4784, "match_basis": "verbatim_token+global_search"}], "candidate_count": 5, "zero_candidate": false}
{"pdf_atom_id": "ig34_p0363_a013", "pdf_atom_type": "LIST_ITEM", "pdf_source": "SDTMIG_v3.4", "pdf_page": 363, "pdf_parent_section": "§6.4.2 Naming Findings About Domains", "pdf_verbatim": "1. A single FA domain, perhaps separated with different FACAT and/or FASCAT values", "figure_ref": null, "candidates": [{"md_atom_id": "md_ch04_a422", "md_file": "knowledge_base/chapters/ch04_general_assumptions.md", "md_atom_type": "LIST_ITEM", "md_parent_section": "§4.3.1 [Controlled Terms, Codelist or Format Column]", "md_verbatim": "- The single applicable value for the variable DOMAIN (e.g., \"PR\")", "score": 0.4222, "match_basis": "verbatim_token+global_search"}, {"md_atom_id": "md_ch04_a054", "md_file": "knowledge_base/chapters/ch04_general_assumptions.md", "md_atom_type": "LIST_ITEM", "md_parent_section": "§4.1.7 [Splitting Domains]", "md_verbatim": "1. The value of DOMAIN must be consistent across the separate datasets as it would have been if they had not been split (e.g., QS, FA).", "score": 0.4151, "match_basis": "verbatim_token+global_search"}, {"md_atom_id": "md_ch02_a099", "md_file": "knowledge_base/chapters/ch02_fundamentals.md", "md_atom_type": "LIST_ITEM", "md_parent_section": "§2.6 [Creating a New Domain]", "md_verbatim": "- Do not create separate domains based on time (represent both prior and current in one domain; AE and MH are exceptions)", "score": 0.4054, "match_basis": "verbatim_token+global_search"}, {"md_atom_id": "md_ch08_a215", "md_file": "knowledge_base/chapters/ch08_relationships.md", "md_atom_type": "LIST_ITEM", "md_parent_section": "§8.5 [Relating Comments to a Parent Domain]", "md_verbatim": "3. Comments related to specific domain record(s) for a subject would populate the RDOMAIN, IDVAR, and IDVARVAL variables with values that identify the specific parent record(s).", "score": 0.4043, "match_basis": "verbatim_token+global_search"}, {"md_atom_id": "md_ch10_a059", "md_file": "knowledge_base/chapters/ch10_appendices.md", "md_atom_type": "LIST_ITEM", "md_parent_section": "§10.C [Controlled Terminology]", "md_verbatim": "- SDTM terminology was previously provided separately for questionnaires and other domains; as of the 2015-12-18 release, these were merged into a single publication", "score": 0.4019, "match_basis": "verbatim_token+global_search"}], "candidate_count": 5, "zero_candidate": false}
{"pdf_atom_id": "ig34_p0363_a014", "pdf_atom_type": "LIST_ITEM", "pdf_source": "SDTMIG_v3.4", "pdf_page": 363, "pdf_parent_section": "§6.4.2 Naming Findings About Domains", "pdf_verbatim": "2. A split FA domain following the guidance in Section 4.1.7, Splitting Domains:", "figure_ref": null, "candidates": [{"md_atom_id": "md_dmFA_assn_a004", "md_file": "knowledge_base/domains/FA/assumptions.md", "md_atom_type": "LIST_ITEM", "md_parent_section": "§FA [FA — Assumptions]", "md_verbatim": "3. See Section 6.4.2, Naming Findings About Domains, for advice on splitting the FA domain.", "score": 0.5298, "match_basis": "verbatim_token+global_search"}, {"md_atom_id": "md_ch03_a111", "md_file": "knowledge_base/chapters/ch03_submitting_data.md", "md_atom_type": "LIST_ITEM", "md_parent_section": "§3.2.2 [Conformance]", "md_verbatim": "1. Following the complete metadata structure for data domains", "score": 0.456, "match_basis": "verbatim_token+global_search"}, {"md_atom_id": "md_ch01_a042", "md_file": "knowledge_base/chapters/ch01_introduction.md", "md_atom_type": "LIST_ITEM", "md_parent_section": "§1.3 [Relationship to Prior CDISC Documents]", "md_verbatim": "- Updated guidance and examples for the FA domain", "score": 0.4535, "match_basis": "verbatim_token+global_search"}, {"md_atom_id": "md_dmAE_assn_a041", "md_file": "knowledge_base/domains/AE/assumptions.md", "md_atom_type": "LIST_ITEM", "md_parent_section": "§AE [AE — Assumptions]", "md_verbatim": "11. Variable order in the domain should follow the rules as described in Section 4.1.4, Order of the Variables, and the order described in Section 1.1, Purpose.", "score": 0.4424, "match_basis": "verbatim_token+global_search"}, {"md_atom_id": "md_ch03_a112", "md_file": "knowledge_base/chapters/ch03_submitting_data.md", "md_atom_type": "LIST_ITEM", "md_parent_section": "§3.2.2 [Conformance]", "md_verbatim": "2. Following SDTMIG domain models wherever applicable", "score": 0.4412, "match_basis": "verbatim_token+global_search"}], "candidate_count": 5, "zero_candidate": false}
{"pdf_atom_id": "ig34_p0363_a015", "pdf_atom_type": "LIST_ITEM", "pdf_source": "SDTMIG_v3.4", "pdf_page": 363, "pdf_parent_section": "§6.4.2 Naming Findings About Domains", "pdf_verbatim": "The DOMAIN value would be \"FA\".", "figure_ref": null, "candidates": [{"md_atom_id": "md_model01_a043", "md_file": "knowledge_base/model/01_concepts_and_terms.md", "md_atom_type": "LIST_ITEM", "md_parent_section": "§2.1 [Model Concepts and Terms — Variables]", "md_verbatim": "- As the value of the DOMAIN variable in that dataset", "score": 0.5, "match_basis": "verbatim_token+global_search"}, {"md_atom_id": "md_ch04_a912", "md_file": "knowledge_base/chapters/ch04_general_assumptions.md", "md_atom_type": "LIST_ITEM", "md_parent_section": "§4.5.3.2 [Text Strings Greater than 200 Characters in Other Variables]", "md_verbatim": "- The value for **QLABEL should be the original domain variable label**:", "score": 0.5, "match_basis": "verbatim_token+global_search"}, {"md_atom_id": "md_ch02_a031", "md_file": "knowledge_base/chapters/ch02_fundamentals.md", "md_atom_type": "LIST_ITEM", "md_parent_section": "§2.2 [Datasets and Domains]", "md_verbatim": "2. As the value of the DOMAIN variable in that dataset", "score": 0.5, "match_basis": "verbatim_token+global_search"}, {"md_atom_id": "md_ch04_a422", "md_file": "knowledge_base/chapters/ch04_general_assumptions.md", "md_atom_type": "LIST_ITEM", "md_parent_section": "§4.3.1 [Controlled Terms, Codelist or Format Column]", "md_verbatim": "- The single applicable value for the variable DOMAIN (e.g., \"PR\")", "score": 0.4714, "match_basis": "verbatim_token+global_search"}, {"md_atom_id": "md_ch02_a033", "md_file": "knowledge_base/chapters/ch02_fundamentals.md", "md_atom_type": "LIST_ITEM", "md_parent_section": "§2.2 [Datasets and Domains]", "md_verbatim": "4. As a value in the RDOMAIN variable in relationship tables", "score": 0.46, "match_basis": "verbatim_token+global_search"}], "candidate_count": 5, "zero_candidate": false}
{"pdf_atom_id": "ig34_p0363_a016", "pdf_atom_type": "LIST_ITEM", "pdf_source": "SDTMIG_v3.4", "pdf_page": 363, "pdf_parent_section": "§6.4.2 Naming Findings About Domains", "pdf_verbatim": "Variables that require a prefix would use \"FA\".", "figure_ref": null, "candidates": [{"md_atom_id": "md_ch04_a055", "md_file": "knowledge_base/chapters/ch04_general_assumptions.md", "md_atom_type": "LIST_ITEM", "md_parent_section": "§4.1.7 [Splitting Domains]", "md_verbatim": "2. All variables that require a domain prefix (e.g., --TESTCD, --LOC) must use the value of DOMAIN as the prefix value (e.g., QS, FA).", "score": 0.6, "match_basis": "verbatim_token+global_search"}, {"md_atom_id": "md_model01_a044", "md_file": "knowledge_base/model/01_concepts_and_terms.md", "md_atom_type": "LIST_ITEM", "md_parent_section": "§2.1 [Model Concepts and Terms — Variables]", "md_verbatim": "- As a prefix for most variable names in that dataset", "score": 0.5182, "match_basis": "verbatim_token+global_search"}, {"md_atom_id": "md_ch02_a032", "md_file": "knowledge_base/chapters/ch02_fundamentals.md", "md_atom_type": "LIST_ITEM", "md_parent_section": "§2.2 [Datasets and Domains]", "md_verbatim": "3. As a prefix for most variable names in that dataset", "score": 0.5182, "match_basis": "verbatim_token+global_search"}, {"md_atom_id": "md_dmAE_assn_a016", "md_file": "knowledge_base/domains/AE/assumptions.md", "md_atom_type": "LIST_ITEM", "md_parent_section": "§AE [AE — Assumptions]", "md_verbatim": "5. **Timing variables**", "score": 0.4615, "match_basis": "verbatim_token+global_search"}, {"md_atom_id": "md_dmBE_assn_a007", "md_file": "knowledge_base/domains/BE/assumptions.md", "md_atom_type": "LIST_ITEM", "md_parent_section": "§BE [BE — Assumptions]", "md_verbatim": "6. Timing variables:", "score": 0.4615, "match_basis": "verbatim_token+global_search"}], "candidate_count": 5, "zero_candidate": false}
{"pdf_atom_id": "ig34_p0363_a017", "pdf_atom_type": "LIST_ITEM", "pdf_source": "SDTMIG_v3.4", "pdf_page": 363, "pdf_parent_section": "§6.4.2 Naming Findings About Domains", "pdf_verbatim": "The dataset names would be the domain name plus up to 2 additional characters indicating the parent domain (e.g., FACE for Findings About Clinical Events, FAMH for Findings About Medical History). This naming convention may be used for an FA domain that has a parent domain even when the study has only 1 FA dataset that is not being split.", "figure_ref": null, "candidates": [{"md_atom_id": "md_ch04_a059", "md_file": "knowledge_base/chapters/ch04_general_assumptions.md", "md_atom_type": "LIST_ITEM", "md_parent_section": "§4.1.7 [Splitting Domains]", "md_verbatim": "6. For domains with 2-letter domain codes (i.e., other than SUPPxx and RELREC), split dataset names can be up to 4 characters in length. For example, if splitting by --CAT, dataset names would be the domain name plus up to 2 additional characters (e.g., QS36 for SF-36). If splitting Findings About by parent domain, then the dataset name would be the domain code, \"FA\", plus the 2-character domain code for parent domain code (e.g., \"FACM\"). The 4-character dataset-name limitation allows the use of a Supplemental Qualifier dataset associated with the split dataset.", "score": 0.5122, "match_basis": "verbatim_token+global_search"}, {"md_atom_id": "md_ch04_a052", "md_file": "knowledge_base/chapters/ch04_general_assumptions.md", "md_atom_type": "LIST_ITEM", "md_parent_section": "§4.1.7 [Splitting Domains]", "md_verbatim": "- A Findings About (FA) domain (see Section 6.4.4, Findings About Events or Interventions) may alternatively be split based on the domain of the value in --OBJ. For example, FACM would store findings about Concomitant/Prior Medications (CM) records. See Section 6.4.2, Naming Findings About Domains, for more details.", "score": 0.4788, "match_basis": "verbatim_token+global_search"}, {"md_atom_id": "md_ch04_a061", "md_file": "knowledge_base/chapters/ch04_general_assumptions.md", "md_atom_type": "LIST_ITEM", "md_parent_section": "§4.1.7 [Splitting Domains]", "md_verbatim": "8. In RELREC, if a dataset-level relationship is defined for a split Findings About domain, then RDOMAIN may contain the 4-character dataset name, rather than the domain name \"FA\", as shown in the following example.", "score": 0.4765, "match_basis": "verbatim_token+global_search"}, {"md_atom_id": "md_ch04_a908", "md_file": "knowledge_base/chapters/ch04_general_assumptions.md", "md_atom_type": "LIST_ITEM", "md_parent_section": "§4.5.3.2 [Text Strings Greater than 200 Characters in Other Variables]", "md_verbatim": "- The **first 200 characters** of text should be stored in the parent domain variable and each additional 200 characters of text should be stored in a record in the SUPP-- dataset (see Section 8.4, Relating Non-standard Variable Values to a Parent Domain)", "score": 0.4586, "match_basis": "verbatim_token+global_search"}, {"md_atom_id": "md_ch04_a060", "md_file": "knowledge_base/chapters/ch04_general_assumptions.md", "md_atom_type": "LIST_ITEM", "md_parent_section": "§4.1.7 [Splitting Domains]", "md_verbatim": "7. Supplemental Qualifier datasets for split domains would also be split. The nomenclature would include the additional 1 to 2 characters used to identify the split dataset (e.g., SUPPQS36, SUPPFACM). The value of RDOMAIN in the SUPP-- datasets would be the 2-character domain code (e.g., QS, FA).", "score": 0.4541, "match_basis": "verbatim_token+global_search"}], "candidate_count": 5, "zero_candidate": false}
{"pdf_atom_id": "ig34_p0363_a018", "pdf_atom_type": "LIST_ITEM", "pdf_source": "SDTMIG_v3.4", "pdf_page": 363, "pdf_parent_section": "§6.4.2 Naming Findings About Domains", "pdf_verbatim": "FASEQ must be unique within USUBJID for all records across the split datasets.", "figure_ref": null, "candidates": [{"md_atom_id": "md_ch04_a056", "md_file": "knowledge_base/chapters/ch04_general_assumptions.md", "md_atom_type": "LIST_ITEM", "md_parent_section": "§4.1.7 [Splitting Domains]", "md_verbatim": "3. --SEQ must be unique within USUBJID for all records across all the split datasets. If there are 1000 records for a USUBJID across the separate datasets, all 1000 records need unique values for --SEQ.", "score": 0.7036, "match_basis": "verbatim_token+global_search"}, {"md_atom_id": "md_dmRELREC_assn_a010", "md_file": "knowledge_base/domains/RELREC/assumptions.md", "md_atom_type": "LIST_ITEM", "md_parent_section": "§RELREC [RELREC — Assumptions]", "md_verbatim": "- The sequence number (--SEQ) variable uniquely identifies a record for a given USUBJID within a domain. The variable --SEQ is required in all domains except DM.", "score": 0.4595, "match_basis": "verbatim_token+global_search"}, {"md_atom_id": "md_ch04_a054", "md_file": "knowledge_base/chapters/ch04_general_assumptions.md", "md_atom_type": "LIST_ITEM", "md_parent_section": "§4.1.7 [Splitting Domains]", "md_verbatim": "1. The value of DOMAIN must be consistent across the separate datasets as it would have been if they had not been split (e.g., QS, FA).", "score": 0.4391, "match_basis": "verbatim_token+global_search"}, {"md_atom_id": "md_ch08_a129", "md_file": "knowledge_base/chapters/ch08_relationships.md", "md_atom_type": "LIST_ITEM", "md_parent_section": "§8.3.1 [RELREC Dataset Relationship Example]", "md_verbatim": "1. **ONE and ONE.** This combination indicates that there is NO hierarchical relationship between the datasets and the records in the datasets. Only 1 record from each dataset will potentially have the same value of the IDVAR within USUBJID.", "score": 0.4222, "match_basis": "verbatim_token+global_search"}, {"md_atom_id": "md_dmRELREC_assn_a017", "md_file": "knowledge_base/domains/RELREC/assumptions.md", "md_atom_type": "LIST_ITEM", "md_parent_section": "§RELREC [RELREC — Assumptions]", "md_verbatim": "1. **ONE and ONE.** This combination indicates that there is **NO** hierarchical relationship between the datasets and the records in the datasets. Only 1 record from each dataset will potentially have the same value of the IDVAR within USUBJID.", "score": 0.4222, "match_basis": "verbatim_token+global_search"}], "candidate_count": 5, "zero_candidate": false}
{"pdf_atom_id": "ig34_p0363_a019", "pdf_atom_type": "LIST_ITEM", "pdf_source": "SDTMIG_v3.4", "pdf_page": 363, "pdf_parent_section": "§6.4.2 Naming Findings About Domains", "pdf_verbatim": "Supplemental qualifier datasets would need to be managed at the split-file level (e.g., suppface.xpt, suppfamh.xpt). Within each supplemental qualifier dataset, RDOMAIN would be \"FA\".", "figure_ref": null, "candidates": [{"md_atom_id": "md_ch04_a060", "md_file": "knowledge_base/chapters/ch04_general_assumptions.md", "md_atom_type": "LIST_ITEM", "md_parent_section": "§4.1.7 [Splitting Domains]", "md_verbatim": "7. Supplemental Qualifier datasets for split domains would also be split. The nomenclature would include the additional 1 to 2 characters used to identify the split dataset (e.g., SUPPQS36, SUPPFACM). The value of RDOMAIN in the SUPP-- datasets would be the 2-character domain code (e.g., QS, FA).", "score": 0.5073, "match_basis": "verbatim_token+global_search"}, {"md_atom_id": "md_ch04_a059", "md_file": "knowledge_base/chapters/ch04_general_assumptions.md", "md_atom_type": "LIST_ITEM", "md_parent_section": "§4.1.7 [Splitting Domains]", "md_verbatim": "6. For domains with 2-letter domain codes (i.e., other than SUPPxx and RELREC), split dataset names can be up to 4 characters in length. For example, if splitting by --CAT, dataset names would be the domain name plus up to 2 additional characters (e.g., QS36 for SF-36). If splitting Findings About by parent domain, then the dataset name would be the domain code, \"FA\", plus the 2-character domain code for parent domain code (e.g., \"FACM\"). The 4-character dataset-name limitation allows the use of a Supplemental Qualifier dataset associated with the split dataset.", "score": 0.4459, "match_basis": "verbatim_token+global_search"}, {"md_atom_id": "md_ch10_a147", "md_file": "knowledge_base/chapters/ch10_appendices.md", "md_atom_type": "LIST_ITEM", "md_parent_section": "§10.E [Revision History]", "md_verbatim": "- Supplemental qualifier variable names updated to include 2-character domain abbreviations", "score": 0.4375, "match_basis": "verbatim_token+global_search"}, {"md_atom_id": "md_dmHO_assn_a005", "md_file": "knowledge_base/domains/HO/assumptions.md", "md_atom_type": "LIST_ITEM", "md_parent_section": "§HO [HO — Assumptions]", "md_verbatim": "   a. The supplemental qualifier with QNAM = \"HOINDC\" would be used to represent the indication/medical condition for the encounter (e.g., stroke). Note that --INDC is an Interventions class variable, so is not a standard variable for HO, which is an Events class domain.", "score": 0.4302, "match_basis": "verbatim_token+global_search"}, {"md_atom_id": "md_dmHO_assn_a007", "md_file": "knowledge_base/domains/HO/assumptions.md", "md_atom_type": "LIST_ITEM", "md_parent_section": "§HO [HO — Assumptions]", "md_verbatim": "4. If collected data includes the name of the provider or the facility where the encounter took place, this may be represented using the supplemental qualifier with QNAM = \"HONAM\". Note that --NAM is a Findings class variable, so is not a standard variable for HO, which is an Events class domain.", "score": 0.4301, "match_basis": "verbatim_token+global_search"}], "candidate_count": 5, "zero_candidate": false}
