{"pdf_atom_id": "ig34_p0168_a0010", "pdf_atom_type": "TABLE_ROW", "pdf_source": "SDTMIG_v3.4", "pdf_page": 168, "pdf_parent_section": "§6.2.5 Healthcare Encounters (HO)", "pdf_verbatim": "| HOPRESP | Pre-Specified Healthcare Encounter | Char | (NY) | Variable Qualifier | A value of \"Y\" indicates that this healthcare encounter event was prespecified on the CRF. Values are null for spontaneously reported events (i.e., those collected as free-text website terms). | Perm |", "figure_ref": null, "candidates": [{"md_atom_id": "md_dmHO_ex_a034", "md_file": "knowledge_base/domains/HO/examples.md", "md_atom_type": "TABLE_ROW", "md_parent_section": "§HO.1 [Example 1]", "md_verbatim": "| 5 | ABC | HO | ABC123105 | HOSEQ | 1 | HOINDC | Indication | ATRIAL FIBRILLATION | CRF | |", "score": 0.4425, "match_basis": "verbatim_token+domain_route:HO"}, {"md_atom_id": "md_dmHO_ex_a030", "md_file": "knowledge_base/domains/HO/examples.md", "md_atom_type": "TABLE_ROW", "md_parent_section": "§HO.1 [Example 1]", "md_verbatim": "| 1 | ABC | HO | ABC123101 | HOSEQ | 1 | HOINDC | Indication | CONGESTIVE HEART FAILURE | CRF | |", "score": 0.4409, "match_basis": "verbatim_token+domain_route:HO"}, {"md_atom_id": "md_dmHO_ex_a054", "md_file": "knowledge_base/domains/HO/examples.md", "md_atom_type": "TABLE_ROW", "md_parent_section": "§HO.2 [Example 2]", "md_verbatim": "| 1 | ABC | HO | ABC123101 | HOSEQ | 7 | HOINDC | Indication | STROKE | CRF | |", "score": 0.4397, "match_basis": "verbatim_token+domain_route:HO"}, {"md_atom_id": "md_dmHO_ex_a044", "md_file": "knowledge_base/domains/HO/examples.md", "md_atom_type": "TABLE_ROW", "md_parent_section": "§HO.2 [Example 2]", "md_verbatim": "| 5 | ABC | HO | ABC123101 | 5 | OUTPATIENT PHYSICAL THERAPY | FOLLOW-UP CARE | 2011-06-27 | 2011-06-27 | | |", "score": 0.4275, "match_basis": "verbatim_token+domain_route:HO"}, {"md_atom_id": "md_dmHO_ex_a045", "md_file": "knowledge_base/domains/HO/examples.md", "md_atom_type": "TABLE_ROW", "md_parent_section": "§HO.2 [Example 2]", "md_verbatim": "| 6 | ABC | HO | ABC123101 | 6 | OUTPATIENT PHYSICAL THERAPY | FOLLOW-UP CARE | 2011-07-12 | 2011-07-12 | | |", "score": 0.4275, "match_basis": "verbatim_token+domain_route:HO"}], "candidate_count": 5, "zero_candidate": false}
{"pdf_atom_id": "ig34_p0168_a0011", "pdf_atom_type": "TABLE_ROW", "pdf_source": "SDTMIG_v3.4", "pdf_page": 168, "pdf_parent_section": "§6.2.5 Healthcare Encounters (HO)", "pdf_verbatim": "| HIOOCCUR | Healthcare Encounter Occurrence | Char | (NY) | Record Qualifier | Used when the occurrence of specific healthcare encounters is solicited, to indicate whether the encounter did or did not occur. Values are null for supplementary reported events. | Perm |", "figure_ref": null, "candidates": [{"md_atom_id": "md_dmHO_ex_a018", "md_file": "knowledge_base/domains/HO/examples.md", "md_atom_type": "TABLE_ROW", "md_parent_section": "§HO.1 [Example 1]", "md_verbatim": "| 8 | ABC | HO | ABC123104 | 1 | CARDIAC CATHETERIZATION LABORATORY | TREATMENT | 2011-10-10 | 2011-10-10 | |", "score": 0.4323, "match_basis": "verbatim_token+domain_route:HO"}, {"md_atom_id": "md_dmHO_ex_a019", "md_file": "knowledge_base/domains/HO/examples.md", "md_atom_type": "TABLE_ROW", "md_parent_section": "§HO.1 [Example 1]", "md_verbatim": "| 9 | ABC | HO | ABC123105 | 1 | CARDIAC CATHETERIZATION LABORATORY | TREATMENT | 2011-10-11 | 2011-10-11 | |", "score": 0.4323, "match_basis": "verbatim_token+domain_route:HO"}, {"md_atom_id": "md_dmHO_ex_a044", "md_file": "knowledge_base/domains/HO/examples.md", "md_atom_type": "TABLE_ROW", "md_parent_section": "§HO.2 [Example 2]", "md_verbatim": "| 5 | ABC | HO | ABC123101 | 5 | OUTPATIENT PHYSICAL THERAPY | FOLLOW-UP CARE | 2011-06-27 | 2011-06-27 | | |", "score": 0.4293, "match_basis": "verbatim_token+domain_route:HO"}, {"md_atom_id": "md_dmHO_ex_a045", "md_file": "knowledge_base/domains/HO/examples.md", "md_atom_type": "TABLE_ROW", "md_parent_section": "§HO.2 [Example 2]", "md_verbatim": "| 6 | ABC | HO | ABC123101 | 6 | OUTPATIENT PHYSICAL THERAPY | FOLLOW-UP CARE | 2011-07-12 | 2011-07-12 | | |", "score": 0.4293, "match_basis": "verbatim_token+domain_route:HO"}, {"md_atom_id": "md_dmHO_ex_a030", "md_file": "knowledge_base/domains/HO/examples.md", "md_atom_type": "TABLE_ROW", "md_parent_section": "§HO.1 [Example 1]", "md_verbatim": "| 1 | ABC | HO | ABC123101 | HOSEQ | 1 | HOINDC | Indication | CONGESTIVE HEART FAILURE | CRF | |", "score": 0.4283, "match_basis": "verbatim_token+domain_route:HO"}], "candidate_count": 5, "zero_candidate": false}
{"pdf_atom_id": "ig34_p0168_a0012", "pdf_atom_type": "TABLE_ROW", "pdf_source": "SDTMIG_v3.4", "pdf_page": 168, "pdf_parent_section": "§6.2.5 Healthcare Encounters (HO)", "pdf_verbatim": "| HOSTAT | Completion Status | Char | (ND) | Record Qualifier | The status indicates that the prespecified question was not answered. | Perm |", "figure_ref": null, "candidates": [{"md_atom_id": "md_dmHO_ex_a030", "md_file": "knowledge_base/domains/HO/examples.md", "md_atom_type": "TABLE_ROW", "md_parent_section": "§HO.1 [Example 1]", "md_verbatim": "| 1 | ABC | HO | ABC123101 | HOSEQ | 1 | HOINDC | Indication | CONGESTIVE HEART FAILURE | CRF | |", "score": 0.469, "match_basis": "verbatim_token+domain_route:HO"}, {"md_atom_id": "md_dmHO_ex_a054", "md_file": "knowledge_base/domains/HO/examples.md", "md_atom_type": "TABLE_ROW", "md_parent_section": "§HO.2 [Example 2]", "md_verbatim": "| 1 | ABC | HO | ABC123101 | HOSEQ | 7 | HOINDC | Indication | STROKE | CRF | |", "score": 0.4623, "match_basis": "verbatim_token+domain_route:HO"}, {"md_atom_id": "md_dmHO_ex_a034", "md_file": "knowledge_base/domains/HO/examples.md", "md_atom_type": "TABLE_ROW", "md_parent_section": "§HO.1 [Example 1]", "md_verbatim": "| 5 | ABC | HO | ABC123105 | HOSEQ | 1 | HOINDC | Indication | ATRIAL FIBRILLATION | CRF | |", "score": 0.4571, "match_basis": "verbatim_token+domain_route:HO"}, {"md_atom_id": "md_dmHO_ex_a046", "md_file": "knowledge_base/domains/HO/examples.md", "md_atom_type": "TABLE_ROW", "md_parent_section": "§HO.2 [Example 2]", "md_verbatim": "| 7 | ABC | HO | ABC123101 | 7 | HOSPITAL | REPEAT HOSPITALIZATION | 2011-07-23 | 2011-07-24 | | |", "score": 0.4296, "match_basis": "verbatim_token+domain_route:HO"}, {"md_atom_id": "md_dmHO_ex_a040", "md_file": "knowledge_base/domains/HO/examples.md", "md_atom_type": "TABLE_ROW", "md_parent_section": "§HO.2 [Example 2]", "md_verbatim": "| 1 | ABC | HO | ABC123101 | 1 | HOSPITAL | INITIAL HOSPITALIZATION | 2011-06-08 | 2011-06-12 | | |", "score": 0.4293, "match_basis": "verbatim_token+domain_route:HO"}], "candidate_count": 5, "zero_candidate": false}
{"pdf_atom_id": "ig34_p0168_a0013", "pdf_atom_type": "TABLE_ROW", "pdf_source": "SDTMIG_v3.4", "pdf_page": 168, "pdf_parent_section": "§6.2.5 Healthcare Encounters (HO)", "pdf_verbatim": "| HOREASND | Reason Healthcare Encounter Not Done | Char | | Record Qualifier | Describes the reason data for a prespecified event were not collected. Used in conjunction with HOSTAT when value is \"NOT DONE\". | Perm |", "figure_ref": null, "candidates": [{"md_atom_id": "md_dmHO_ex_a031", "md_file": "knowledge_base/domains/HO/examples.md", "md_atom_type": "TABLE_ROW", "md_parent_section": "§HO.1 [Example 1]", "md_verbatim": "| 2 | ABC | HO | ABC123101 | HOSEQ | 2 | HOREAS | Reason | REHABILITATION | CRF | |", "score": 0.4531, "match_basis": "verbatim_token+domain_route:HO"}, {"md_atom_id": "md_dmHO_ex_a018", "md_file": "knowledge_base/domains/HO/examples.md", "md_atom_type": "TABLE_ROW", "md_parent_section": "§HO.1 [Example 1]", "md_verbatim": "| 8 | ABC | HO | ABC123104 | 1 | CARDIAC CATHETERIZATION LABORATORY | TREATMENT | 2011-10-10 | 2011-10-10 | |", "score": 0.4326, "match_basis": "verbatim_token+domain_route:HO"}, {"md_atom_id": "md_dmHO_ex_a019", "md_file": "knowledge_base/domains/HO/examples.md", "md_atom_type": "TABLE_ROW", "md_parent_section": "§HO.1 [Example 1]", "md_verbatim": "| 9 | ABC | HO | ABC123105 | 1 | CARDIAC CATHETERIZATION LABORATORY | TREATMENT | 2011-10-11 | 2011-10-11 | |", "score": 0.4326, "match_basis": "verbatim_token+domain_route:HO"}, {"md_atom_id": "md_dmHO_ex_a042", "md_file": "knowledge_base/domains/HO/examples.md", "md_atom_type": "TABLE_ROW", "md_parent_section": "§HO.2 [Example 2]", "md_verbatim": "| 3 | ABC | HO | ABC123101 | 3 | REHABILITATION FACILITY | FOLLOW-UP CARE | 2011-06-12 | 2011-06-22 | | |", "score": 0.4303, "match_basis": "verbatim_token+domain_route:HO"}, {"md_atom_id": "md_dmHO_ex_a021", "md_file": "knowledge_base/domains/HO/examples.md", "md_atom_type": "TABLE_ROW", "md_parent_section": "§HO.1 [Example 1]", "md_verbatim": "| 11 | ABC | HO | ABC123106 | 1 | CARDIAC CATHETERIZATION LABORATORY | FOLLOW-UP | 2011-11-07 | 2011-11-07 | |", "score": 0.4283, "match_basis": "verbatim_token+domain_route:HO"}], "candidate_count": 5, "zero_candidate": false}
{"pdf_atom_id": "ig34_p0168_a0014", "pdf_atom_type": "TABLE_ROW", "pdf_source": "SDTMIG_v3.4", "pdf_page": 168, "pdf_parent_section": "§6.2.5 Healthcare Encounters (HO)", "pdf_verbatim": "| TAETORD | Planned Order of Element Within Arm | Num | | Timing | Number that gives the planned order of the element within the arm. | Perm |", "figure_ref": null, "candidates": [{"md_atom_id": "md_dmHO_ex_a012", "md_file": "knowledge_base/domains/HO/examples.md", "md_atom_type": "TABLE_ROW", "md_parent_section": "§HO.1 [Example 1]", "md_verbatim": "| 2 | ABC | HO | ABC123101 | 2 | NURSING HOME | TREATMENT | | | P6D |", "score": 0.4316, "match_basis": "verbatim_token+domain_route:HO"}, {"md_atom_id": "md_dmHO_ex_a018", "md_file": "knowledge_base/domains/HO/examples.md", "md_atom_type": "TABLE_ROW", "md_parent_section": "§HO.1 [Example 1]", "md_verbatim": "| 8 | ABC | HO | ABC123104 | 1 | CARDIAC CATHETERIZATION LABORATORY | TREATMENT | 2011-10-10 | 2011-10-10 | |", "score": 0.4316, "match_basis": "verbatim_token+domain_route:HO"}, {"md_atom_id": "md_dmHO_ex_a019", "md_file": "knowledge_base/domains/HO/examples.md", "md_atom_type": "TABLE_ROW", "md_parent_section": "§HO.1 [Example 1]", "md_verbatim": "| 9 | ABC | HO | ABC123105 | 1 | CARDIAC CATHETERIZATION LABORATORY | TREATMENT | 2011-10-11 | 2011-10-11 | |", "score": 0.4316, "match_basis": "verbatim_token+domain_route:HO"}, {"md_atom_id": "md_dmHO_ex_a014", "md_file": "knowledge_base/domains/HO/examples.md", "md_atom_type": "TABLE_ROW", "md_parent_section": "§HO.1 [Example 1]", "md_verbatim": "| 4 | ABC | HO | ABC123102 | 2 | INTENSIVE CARE | TREATMENT | 2011-08-08 | 2011-08-15 | |", "score": 0.43, "match_basis": "verbatim_token+domain_route:HO"}, {"md_atom_id": "md_dmHO_ex_a011", "md_file": "knowledge_base/domains/HO/examples.md", "md_atom_type": "TABLE_ROW", "md_parent_section": "§HO.1 [Example 1]", "md_verbatim": "| 1 | ABC | HO | ABC123101 | 1 | HOSPITAL | TREATMENT | 2011-06-08 | 2011-06-13 | |", "score": 0.4207, "match_basis": "verbatim_token+domain_route:HO"}], "candidate_count": 5, "zero_candidate": false}
{"pdf_atom_id": "ig34_p0168_a0015", "pdf_atom_type": "TABLE_ROW", "pdf_source": "SDTMIG_v3.4", "pdf_page": 168, "pdf_parent_section": "§6.2.5 Healthcare Encounters (HO)", "pdf_verbatim": "| EPOCH | Epoch | Char | (EPOCH) | Timing | Epoch associated with the start date/time of the healthcare encounter. Examples: \"SCREENING\", \"TREATMENT\", \"FOLLOW-UP\" | Perm |", "figure_ref": null, "candidates": [{"md_atom_id": "md_dmHO_ex_a014", "md_file": "knowledge_base/domains/HO/examples.md", "md_atom_type": "TABLE_ROW", "md_parent_section": "§HO.1 [Example 1]", "md_verbatim": "| 4 | ABC | HO | ABC123102 | 2 | INTENSIVE CARE | TREATMENT | 2011-08-08 | 2011-08-15 | |", "score": 0.475, "match_basis": "verbatim_token+domain_route:HO"}, {"md_atom_id": "md_dmHO_ex_a018", "md_file": "knowledge_base/domains/HO/examples.md", "md_atom_type": "TABLE_ROW", "md_parent_section": "§HO.1 [Example 1]", "md_verbatim": "| 8 | ABC | HO | ABC123104 | 1 | CARDIAC CATHETERIZATION LABORATORY | TREATMENT | 2011-10-10 | 2011-10-10 | |", "score": 0.4619, "match_basis": "verbatim_token+domain_route:HO"}, {"md_atom_id": "md_dmHO_ex_a019", "md_file": "knowledge_base/domains/HO/examples.md", "md_atom_type": "TABLE_ROW", "md_parent_section": "§HO.1 [Example 1]", "md_verbatim": "| 9 | ABC | HO | ABC123105 | 1 | CARDIAC CATHETERIZATION LABORATORY | TREATMENT | 2011-10-11 | 2011-10-11 | |", "score": 0.4619, "match_basis": "verbatim_token+domain_route:HO"}, {"md_atom_id": "md_dmHO_ex_a012", "md_file": "knowledge_base/domains/HO/examples.md", "md_atom_type": "TABLE_ROW", "md_parent_section": "§HO.1 [Example 1]", "md_verbatim": "| 2 | ABC | HO | ABC123101 | 2 | NURSING HOME | TREATMENT | | | P6D |", "score": 0.4608, "match_basis": "verbatim_token+domain_route:HO"}, {"md_atom_id": "md_dmHO_ex_a044", "md_file": "knowledge_base/domains/HO/examples.md", "md_atom_type": "TABLE_ROW", "md_parent_section": "§HO.2 [Example 2]", "md_verbatim": "| 5 | ABC | HO | ABC123101 | 5 | OUTPATIENT PHYSICAL THERAPY | FOLLOW-UP CARE | 2011-06-27 | 2011-06-27 | | |", "score": 0.4527, "match_basis": "verbatim_token+domain_route:HO"}], "candidate_count": 5, "zero_candidate": false}
{"pdf_atom_id": "ig34_p0168_a0016", "pdf_atom_type": "TABLE_ROW", "pdf_source": "SDTMIG_v3.4", "pdf_page": 168, "pdf_parent_section": "§6.2.5 Healthcare Encounters (HO)", "pdf_verbatim": "| HOCTC | Collection Date and Event Collection | Char | (collected as datetime interval | Timing | Collection date and time of the healthcare encounter. | Perm |", "figure_ref": null, "candidates": [{"md_atom_id": "md_dmHO_ex_a021", "md_file": "knowledge_base/domains/HO/examples.md", "md_atom_type": "TABLE_ROW", "md_parent_section": "§HO.1 [Example 1]", "md_verbatim": "| 11 | ABC | HO | ABC123106 | 1 | CARDIAC CATHETERIZATION LABORATORY | FOLLOW-UP | 2011-11-07 | 2011-11-07 | |", "score": 0.4434, "match_basis": "verbatim_token+domain_route:HO"}, {"md_atom_id": "md_dmHO_ex_a014", "md_file": "knowledge_base/domains/HO/examples.md", "md_atom_type": "TABLE_ROW", "md_parent_section": "§HO.1 [Example 1]", "md_verbatim": "| 4 | ABC | HO | ABC123102 | 2 | INTENSIVE CARE | TREATMENT | 2011-08-08 | 2011-08-15 | |", "score": 0.4429, "match_basis": "verbatim_token+domain_route:HO"}, {"md_atom_id": "md_dmHO_ex_a018", "md_file": "knowledge_base/domains/HO/examples.md", "md_atom_type": "TABLE_ROW", "md_parent_section": "§HO.1 [Example 1]", "md_verbatim": "| 8 | ABC | HO | ABC123104 | 1 | CARDIAC CATHETERIZATION LABORATORY | TREATMENT | 2011-10-10 | 2011-10-10 | |", "score": 0.4419, "match_basis": "verbatim_token+domain_route:HO"}, {"md_atom_id": "md_dmHO_ex_a019", "md_file": "knowledge_base/domains/HO/examples.md", "md_atom_type": "TABLE_ROW", "md_parent_section": "§HO.1 [Example 1]", "md_verbatim": "| 9 | ABC | HO | ABC123105 | 1 | CARDIAC CATHETERIZATION LABORATORY | TREATMENT | 2011-10-11 | 2011-10-11 | |", "score": 0.4419, "match_basis": "verbatim_token+domain_route:HO"}, {"md_atom_id": "md_dmHO_ex_a042", "md_file": "knowledge_base/domains/HO/examples.md", "md_atom_type": "TABLE_ROW", "md_parent_section": "§HO.2 [Example 2]", "md_verbatim": "| 3 | ABC | HO | ABC123101 | 3 | REHABILITATION FACILITY | FOLLOW-UP CARE | 2011-06-12 | 2011-06-22 | | |", "score": 0.4395, "match_basis": "verbatim_token+domain_route:HO"}], "candidate_count": 5, "zero_candidate": false}
{"pdf_atom_id": "ig34_p0168_a0017", "pdf_atom_type": "TABLE_ROW", "pdf_source": "SDTMIG_v3.4", "pdf_page": 168, "pdf_parent_section": "§6.2.5 Healthcare Encounters (HO)", "pdf_verbatim": "| HOSTDTC | Start Date/Time of Healthcare Encounter | Char | ISO 8601 datetime or interval | Timing | Start date/time of the healthcare encounter (e.g., date of admission) | Exp |", "figure_ref": null, "candidates": [{"md_atom_id": "md_dmHO_ex_a014", "md_file": "knowledge_base/domains/HO/examples.md", "md_atom_type": "TABLE_ROW", "md_parent_section": "§HO.1 [Example 1]", "md_verbatim": "| 4 | ABC | HO | ABC123102 | 2 | INTENSIVE CARE | TREATMENT | 2011-08-08 | 2011-08-15 | |", "score": 0.4338, "match_basis": "verbatim_token+domain_route:HO"}, {"md_atom_id": "md_dmHO_ex_a030", "md_file": "knowledge_base/domains/HO/examples.md", "md_atom_type": "TABLE_ROW", "md_parent_section": "§HO.1 [Example 1]", "md_verbatim": "| 1 | ABC | HO | ABC123101 | HOSEQ | 1 | HOINDC | Indication | CONGESTIVE HEART FAILURE | CRF | |", "score": 0.4286, "match_basis": "verbatim_token+domain_route:HO"}, {"md_atom_id": "md_dmHO_ex_a021", "md_file": "knowledge_base/domains/HO/examples.md", "md_atom_type": "TABLE_ROW", "md_parent_section": "§HO.1 [Example 1]", "md_verbatim": "| 11 | ABC | HO | ABC123106 | 1 | CARDIAC CATHETERIZATION LABORATORY | FOLLOW-UP | 2011-11-07 | 2011-11-07 | |", "score": 0.4282, "match_basis": "verbatim_token+domain_route:HO"}, {"md_atom_id": "md_dmHO_ex_a018", "md_file": "knowledge_base/domains/HO/examples.md", "md_atom_type": "TABLE_ROW", "md_parent_section": "§HO.1 [Example 1]", "md_verbatim": "| 8 | ABC | HO | ABC123104 | 1 | CARDIAC CATHETERIZATION LABORATORY | TREATMENT | 2011-10-10 | 2011-10-10 | |", "score": 0.4273, "match_basis": "verbatim_token+domain_route:HO"}, {"md_atom_id": "md_dmHO_ex_a019", "md_file": "knowledge_base/domains/HO/examples.md", "md_atom_type": "TABLE_ROW", "md_parent_section": "§HO.1 [Example 1]", "md_verbatim": "| 9 | ABC | HO | ABC123105 | 1 | CARDIAC CATHETERIZATION LABORATORY | TREATMENT | 2011-10-11 | 2011-10-11 | |", "score": 0.4273, "match_basis": "verbatim_token+domain_route:HO"}], "candidate_count": 5, "zero_candidate": false}
{"pdf_atom_id": "ig34_p0168_a0018", "pdf_atom_type": "TABLE_ROW", "pdf_source": "SDTMIG_v3.4", "pdf_page": 168, "pdf_parent_section": "§6.2.5 Healthcare Encounters (HO)", "pdf_verbatim": "| HOENDTC | End Date/Time of Healthcare Encounter | Char | ISO 8601 datetime or interval | Timing | End date/time of the healthcare encounter (e.g., date of discharge). | Perm |", "figure_ref": null, "candidates": [{"md_atom_id": "md_dmHO_ex_a014", "md_file": "knowledge_base/domains/HO/examples.md", "md_atom_type": "TABLE_ROW", "md_parent_section": "§HO.1 [Example 1]", "md_verbatim": "| 4 | ABC | HO | ABC123102 | 2 | INTENSIVE CARE | TREATMENT | 2011-08-08 | 2011-08-15 | |", "score": 0.4358, "match_basis": "verbatim_token+domain_route:HO"}, {"md_atom_id": "md_dmHO_ex_a050", "md_file": "knowledge_base/domains/HO/examples.md", "md_atom_type": "TABLE_ROW", "md_parent_section": "§HO.2 [Example 2]", "md_verbatim": "| 11 | ABC | HO | ABC123102 | 4 | SKILLED NURSING FACILITY | FOLLOW-UP CARE | 2011-07-02 | | ONGOING | END OF STUDY |", "score": 0.4296, "match_basis": "verbatim_token+domain_route:HO"}, {"md_atom_id": "md_dmHO_ex_a044", "md_file": "knowledge_base/domains/HO/examples.md", "md_atom_type": "TABLE_ROW", "md_parent_section": "§HO.2 [Example 2]", "md_verbatim": "| 5 | ABC | HO | ABC123101 | 5 | OUTPATIENT PHYSICAL THERAPY | FOLLOW-UP CARE | 2011-06-27 | 2011-06-27 | | |", "score": 0.4234, "match_basis": "verbatim_token+domain_route:HO"}, {"md_atom_id": "md_dmHO_ex_a045", "md_file": "knowledge_base/domains/HO/examples.md", "md_atom_type": "TABLE_ROW", "md_parent_section": "§HO.2 [Example 2]", "md_verbatim": "| 6 | ABC | HO | ABC123101 | 6 | OUTPATIENT PHYSICAL THERAPY | FOLLOW-UP CARE | 2011-07-12 | 2011-07-12 | | |", "score": 0.4234, "match_basis": "verbatim_token+domain_route:HO"}, {"md_atom_id": "md_dmHO_ex_a021", "md_file": "knowledge_base/domains/HO/examples.md", "md_atom_type": "TABLE_ROW", "md_parent_section": "§HO.1 [Example 1]", "md_verbatim": "| 11 | ABC | HO | ABC123106 | 1 | CARDIAC CATHETERIZATION LABORATORY | FOLLOW-UP | 2011-11-07 | 2011-11-07 | |", "score": 0.422, "match_basis": "verbatim_token+domain_route:HO"}], "candidate_count": 5, "zero_candidate": false}
{"pdf_atom_id": "ig34_p0168_a0019", "pdf_atom_type": "TABLE_ROW", "pdf_source": "SDTMIG_v3.4", "pdf_page": 168, "pdf_parent_section": "§6.2.5 Healthcare Encounters (HO)", "pdf_verbatim": "| HODY | Study Day of Event | Num | | Timing | Study day of event collection relative to the sponsor-defined RFSTDTC. | Perm |", "figure_ref": null, "candidates": [{"md_atom_id": "md_dmHO_ex_a050", "md_file": "knowledge_base/domains/HO/examples.md", "md_atom_type": "TABLE_ROW", "md_parent_section": "§HO.2 [Example 2]", "md_verbatim": "| 11 | ABC | HO | ABC123102 | 4 | SKILLED NURSING FACILITY | FOLLOW-UP CARE | 2011-07-02 | | ONGOING | END OF STUDY |", "score": 0.4456, "match_basis": "verbatim_token+domain_route:HO"}, {"md_atom_id": "md_dmHO_ex_a030", "md_file": "knowledge_base/domains/HO/examples.md", "md_atom_type": "TABLE_ROW", "md_parent_section": "§HO.1 [Example 1]", "md_verbatim": "| 1 | ABC | HO | ABC123101 | HOSEQ | 1 | HOINDC | Indication | CONGESTIVE HEART FAILURE | CRF | |", "score": 0.438, "match_basis": "verbatim_token+domain_route:HO"}, {"md_atom_id": "md_dmHO_ex_a021", "md_file": "knowledge_base/domains/HO/examples.md", "md_atom_type": "TABLE_ROW", "md_parent_section": "§HO.1 [Example 1]", "md_verbatim": "| 11 | ABC | HO | ABC123106 | 1 | CARDIAC CATHETERIZATION LABORATORY | FOLLOW-UP | 2011-11-07 | 2011-11-07 | |", "score": 0.4375, "match_basis": "verbatim_token+domain_route:HO"}, {"md_atom_id": "md_dmHO_ex_a018", "md_file": "knowledge_base/domains/HO/examples.md", "md_atom_type": "TABLE_ROW", "md_parent_section": "§HO.1 [Example 1]", "md_verbatim": "| 8 | ABC | HO | ABC123104 | 1 | CARDIAC CATHETERIZATION LABORATORY | TREATMENT | 2011-10-10 | 2011-10-10 | |", "score": 0.4361, "match_basis": "verbatim_token+domain_route:HO"}, {"md_atom_id": "md_dmHO_ex_a019", "md_file": "knowledge_base/domains/HO/examples.md", "md_atom_type": "TABLE_ROW", "md_parent_section": "§HO.1 [Example 1]", "md_verbatim": "| 9 | ABC | HO | ABC123105 | 1 | CARDIAC CATHETERIZATION LABORATORY | TREATMENT | 2011-10-11 | 2011-10-11 | |", "score": 0.4361, "match_basis": "verbatim_token+domain_route:HO"}], "candidate_count": 5, "zero_candidate": false}
{"pdf_atom_id": "ig34_p0168_a0020", "pdf_atom_type": "TABLE_ROW", "pdf_source": "SDTMIG_v3.4", "pdf_page": 168, "pdf_parent_section": "§6.2.5 Healthcare Encounters (HO)", "pdf_verbatim": "| HOSTDBY | Study Day of Start of Healthcare Encounter | Num | | Timing | Study day of the start of the healthcare encounter relative to the sponsor-defined RFSTDTC. | Perm |", "figure_ref": null, "candidates": [{"md_atom_id": "md_dmHO_ex_a030", "md_file": "knowledge_base/domains/HO/examples.md", "md_atom_type": "TABLE_ROW", "md_parent_section": "§HO.1 [Example 1]", "md_verbatim": "| 1 | ABC | HO | ABC123101 | HOSEQ | 1 | HOINDC | Indication | CONGESTIVE HEART FAILURE | CRF | |", "score": 0.4414, "match_basis": "verbatim_token+domain_route:HO"}, {"md_atom_id": "md_dmHO_ex_a050", "md_file": "knowledge_base/domains/HO/examples.md", "md_atom_type": "TABLE_ROW", "md_parent_section": "§HO.2 [Example 2]", "md_verbatim": "| 11 | ABC | HO | ABC123102 | 4 | SKILLED NURSING FACILITY | FOLLOW-UP CARE | 2011-07-02 | | ONGOING | END OF STUDY |", "score": 0.4409, "match_basis": "verbatim_token+domain_route:HO"}, {"md_atom_id": "md_dmHO_ex_a014", "md_file": "knowledge_base/domains/HO/examples.md", "md_atom_type": "TABLE_ROW", "md_parent_section": "§HO.1 [Example 1]", "md_verbatim": "| 4 | ABC | HO | ABC123102 | 2 | INTENSIVE CARE | TREATMENT | 2011-08-08 | 2011-08-15 | |", "score": 0.4316, "match_basis": "verbatim_token+domain_route:HO"}, {"md_atom_id": "md_dmHO_ex_a044", "md_file": "knowledge_base/domains/HO/examples.md", "md_atom_type": "TABLE_ROW", "md_parent_section": "§HO.2 [Example 2]", "md_verbatim": "| 5 | ABC | HO | ABC123101 | 5 | OUTPATIENT PHYSICAL THERAPY | FOLLOW-UP CARE | 2011-06-27 | 2011-06-27 | | |", "score": 0.4282, "match_basis": "verbatim_token+domain_route:HO"}, {"md_atom_id": "md_dmHO_ex_a045", "md_file": "knowledge_base/domains/HO/examples.md", "md_atom_type": "TABLE_ROW", "md_parent_section": "§HO.2 [Example 2]", "md_verbatim": "| 6 | ABC | HO | ABC123101 | 6 | OUTPATIENT PHYSICAL THERAPY | FOLLOW-UP CARE | 2011-07-12 | 2011-07-12 | | |", "score": 0.4282, "match_basis": "verbatim_token+domain_route:HO"}], "candidate_count": 5, "zero_candidate": false}
{"pdf_atom_id": "ig34_p0168_a0021", "pdf_atom_type": "TABLE_ROW", "pdf_source": "SDTMIG_v3.4", "pdf_page": 168, "pdf_parent_section": "§6.2.5 Healthcare Encounters (HO)", "pdf_verbatim": "| HOENDY | Study Day of End of Healthcare Encounter | Num | | Timing | Study day of the end of the healthcare encounter relative to the sponsor-defined RFSTDTC. | Perm |", "figure_ref": null, "candidates": [{"md_atom_id": "md_dmHO_ex_a050", "md_file": "knowledge_base/domains/HO/examples.md", "md_atom_type": "TABLE_ROW", "md_parent_section": "§HO.2 [Example 2]", "md_verbatim": "| 11 | ABC | HO | ABC123102 | 4 | SKILLED NURSING FACILITY | FOLLOW-UP CARE | 2011-07-02 | | ONGOING | END OF STUDY |", "score": 0.45, "match_basis": "verbatim_token+domain_route:HO"}, {"md_atom_id": "md_dmHO_ex_a014", "md_file": "knowledge_base/domains/HO/examples.md", "md_atom_type": "TABLE_ROW", "md_parent_section": "§HO.1 [Example 1]", "md_verbatim": "| 4 | ABC | HO | ABC123102 | 2 | INTENSIVE CARE | TREATMENT | 2011-08-08 | 2011-08-15 | |", "score": 0.4329, "match_basis": "verbatim_token+domain_route:HO"}, {"md_atom_id": "md_dmHO_ex_a044", "md_file": "knowledge_base/domains/HO/examples.md", "md_atom_type": "TABLE_ROW", "md_parent_section": "§HO.2 [Example 2]", "md_verbatim": "| 5 | ABC | HO | ABC123101 | 5 | OUTPATIENT PHYSICAL THERAPY | FOLLOW-UP CARE | 2011-06-27 | 2011-06-27 | | |", "score": 0.4293, "match_basis": "verbatim_token+domain_route:HO"}, {"md_atom_id": "md_dmHO_ex_a045", "md_file": "knowledge_base/domains/HO/examples.md", "md_atom_type": "TABLE_ROW", "md_parent_section": "§HO.2 [Example 2]", "md_verbatim": "| 6 | ABC | HO | ABC123101 | 6 | OUTPATIENT PHYSICAL THERAPY | FOLLOW-UP CARE | 2011-07-12 | 2011-07-12 | | |", "score": 0.4293, "match_basis": "verbatim_token+domain_route:HO"}, {"md_atom_id": "md_dmHO_ex_a030", "md_file": "knowledge_base/domains/HO/examples.md", "md_atom_type": "TABLE_ROW", "md_parent_section": "§HO.1 [Example 1]", "md_verbatim": "| 1 | ABC | HO | ABC123101 | HOSEQ | 1 | HOINDC | Indication | CONGESTIVE HEART FAILURE | CRF | |", "score": 0.4279, "match_basis": "verbatim_token+domain_route:HO"}], "candidate_count": 5, "zero_candidate": false}
{"pdf_atom_id": "ig34_p0168_a0022", "pdf_atom_type": "TABLE_ROW", "pdf_source": "SDTMIG_v3.4", "pdf_page": 168, "pdf_parent_section": "§6.2.5 Healthcare Encounters (HO)", "pdf_verbatim": "| HODUR | Duration of Healthcare Encounter | Char | ISO 8601 duration | Timing | Collected duration of the healthcare encounter. Used only if collected on the CRF and not derived from the start and end datetimes. Example: \"PT 2 days 2 hours\". | Perm |", "figure_ref": null, "candidates": [{"md_atom_id": "md_dmHO_ex_a021", "md_file": "knowledge_base/domains/HO/examples.md", "md_atom_type": "TABLE_ROW", "md_parent_section": "§HO.1 [Example 1]", "md_verbatim": "| 11 | ABC | HO | ABC123106 | 1 | CARDIAC CATHETERIZATION LABORATORY | FOLLOW-UP | 2011-11-07 | 2011-11-07 | |", "score": 0.4509, "match_basis": "verbatim_token+domain_route:HO"}, {"md_atom_id": "md_dmHO_ex_a018", "md_file": "knowledge_base/domains/HO/examples.md", "md_atom_type": "TABLE_ROW", "md_parent_section": "§HO.1 [Example 1]", "md_verbatim": "| 8 | ABC | HO | ABC123104 | 1 | CARDIAC CATHETERIZATION LABORATORY | TREATMENT | 2011-10-10 | 2011-10-10 | |", "score": 0.4436, "match_basis": "verbatim_token+domain_route:HO"}, {"md_atom_id": "md_dmHO_ex_a019", "md_file": "knowledge_base/domains/HO/examples.md", "md_atom_type": "TABLE_ROW", "md_parent_section": "§HO.1 [Example 1]", "md_verbatim": "| 9 | ABC | HO | ABC123105 | 1 | CARDIAC CATHETERIZATION LABORATORY | TREATMENT | 2011-10-11 | 2011-10-11 | |", "score": 0.4436, "match_basis": "verbatim_token+domain_route:HO"}, {"md_atom_id": "md_dmHO_ex_a030", "md_file": "knowledge_base/domains/HO/examples.md", "md_atom_type": "TABLE_ROW", "md_parent_section": "§HO.1 [Example 1]", "md_verbatim": "| 1 | ABC | HO | ABC123101 | HOSEQ | 1 | HOINDC | Indication | CONGESTIVE HEART FAILURE | CRF | |", "score": 0.4393, "match_basis": "verbatim_token+domain_route:HO"}, {"md_atom_id": "md_dmHO_ex_a050", "md_file": "knowledge_base/domains/HO/examples.md", "md_atom_type": "TABLE_ROW", "md_parent_section": "§HO.2 [Example 2]", "md_verbatim": "| 11 | ABC | HO | ABC123102 | 4 | SKILLED NURSING FACILITY | FOLLOW-UP CARE | 2011-07-02 | | ONGOING | END OF STUDY |", "score": 0.4389, "match_basis": "verbatim_token+domain_route:HO"}], "candidate_count": 5, "zero_candidate": false}
{"pdf_atom_id": "ig34_p0168_a0023", "pdf_atom_type": "TABLE_ROW", "pdf_source": "SDTMIG_v3.4", "pdf_page": 168, "pdf_parent_section": "§6.2.5 Healthcare Encounters (HO)", "pdf_verbatim": "| HOSTRTPT | Start Relative to Reference Time Point | Char | (STERPT) | Timing | Identifies the start of the observation as being before or after the sponsor-defined reference time point defined by variable =STRTPT. Timing Variables. | Perm |", "figure_ref": null, "candidates": [{"md_atom_id": "md_dmHO_ex_a030", "md_file": "knowledge_base/domains/HO/examples.md", "md_atom_type": "TABLE_ROW", "md_parent_section": "§HO.1 [Example 1]", "md_verbatim": "| 1 | ABC | HO | ABC123101 | HOSEQ | 1 | HOINDC | Indication | CONGESTIVE HEART FAILURE | CRF | |", "score": 0.4436, "match_basis": "verbatim_token+domain_route:HO"}, {"md_atom_id": "md_dmHO_ex_a034", "md_file": "knowledge_base/domains/HO/examples.md", "md_atom_type": "TABLE_ROW", "md_parent_section": "§HO.1 [Example 1]", "md_verbatim": "| 5 | ABC | HO | ABC123105 | HOSEQ | 1 | HOINDC | Indication | ATRIAL FIBRILLATION | CRF | |", "score": 0.4396, "match_basis": "verbatim_token+domain_route:HO"}, {"md_atom_id": "md_dmHO_ex_a054", "md_file": "knowledge_base/domains/HO/examples.md", "md_atom_type": "TABLE_ROW", "md_parent_section": "§HO.2 [Example 2]", "md_verbatim": "| 1 | ABC | HO | ABC123101 | HOSEQ | 7 | HOINDC | Indication | STROKE | CRF | |", "score": 0.436, "match_basis": "verbatim_token+domain_route:HO"}, {"md_atom_id": "md_dmHO_ex_a018", "md_file": "knowledge_base/domains/HO/examples.md", "md_atom_type": "TABLE_ROW", "md_parent_section": "§HO.1 [Example 1]", "md_verbatim": "| 8 | ABC | HO | ABC123104 | 1 | CARDIAC CATHETERIZATION LABORATORY | TREATMENT | 2011-10-10 | 2011-10-10 | |", "score": 0.431, "match_basis": "verbatim_token+domain_route:HO"}, {"md_atom_id": "md_dmHO_ex_a019", "md_file": "knowledge_base/domains/HO/examples.md", "md_atom_type": "TABLE_ROW", "md_parent_section": "§HO.1 [Example 1]", "md_verbatim": "| 9 | ABC | HO | ABC123105 | 1 | CARDIAC CATHETERIZATION LABORATORY | TREATMENT | 2011-10-11 | 2011-10-11 | |", "score": 0.431, "match_basis": "verbatim_token+domain_route:HO"}], "candidate_count": 5, "zero_candidate": false}
{"pdf_atom_id": "ig34_p0168_a0024", "pdf_atom_type": "TABLE_ROW", "pdf_source": "SDTMIG_v3.4", "pdf_page": 168, "pdf_parent_section": "§6.2.5 Healthcare Encounters (HO)", "pdf_verbatim": "| HOSTIPT | Start Reference Time Point | Char | | Timing | Description or date/time in ISO 8601 character format of the sponsor-defined reference point referred to by STRTPT. Examples: \"2003-12-15\", \"VISIT 1\". | Perm |", "figure_ref": null, "candidates": [{"md_atom_id": "md_dmHO_ex_a030", "md_file": "knowledge_base/domains/HO/examples.md", "md_atom_type": "TABLE_ROW", "md_parent_section": "§HO.1 [Example 1]", "md_verbatim": "| 1 | ABC | HO | ABC123101 | HOSEQ | 1 | HOINDC | Indication | CONGESTIVE HEART FAILURE | CRF | |", "score": 0.4327, "match_basis": "verbatim_token+domain_route:HO"}, {"md_atom_id": "md_dmHO_ex_a054", "md_file": "knowledge_base/domains/HO/examples.md", "md_atom_type": "TABLE_ROW", "md_parent_section": "§HO.2 [Example 2]", "md_verbatim": "| 1 | ABC | HO | ABC123101 | HOSEQ | 7 | HOINDC | Indication | STROKE | CRF | |", "score": 0.4303, "match_basis": "verbatim_token+domain_route:HO"}, {"md_atom_id": "md_dmHO_ex_a034", "md_file": "knowledge_base/domains/HO/examples.md", "md_atom_type": "TABLE_ROW", "md_parent_section": "§HO.1 [Example 1]", "md_verbatim": "| 5 | ABC | HO | ABC123105 | HOSEQ | 1 | HOINDC | Indication | ATRIAL FIBRILLATION | CRF | |", "score": 0.4224, "match_basis": "verbatim_token+domain_route:HO"}, {"md_atom_id": "md_dmHO_ex_a021", "md_file": "knowledge_base/domains/HO/examples.md", "md_atom_type": "TABLE_ROW", "md_parent_section": "§HO.1 [Example 1]", "md_verbatim": "| 11 | ABC | HO | ABC123106 | 1 | CARDIAC CATHETERIZATION LABORATORY | FOLLOW-UP | 2011-11-07 | 2011-11-07 | |", "score": 0.4212, "match_basis": "verbatim_token+domain_route:HO"}, {"md_atom_id": "md_dmHO_ex_a018", "md_file": "knowledge_base/domains/HO/examples.md", "md_atom_type": "TABLE_ROW", "md_parent_section": "§HO.1 [Example 1]", "md_verbatim": "| 8 | ABC | HO | ABC123104 | 1 | CARDIAC CATHETERIZATION LABORATORY | TREATMENT | 2011-10-10 | 2011-10-10 | |", "score": 0.4207, "match_basis": "verbatim_token+domain_route:HO"}], "candidate_count": 5, "zero_candidate": false}
{"pdf_atom_id": "ig34_p0169_a0001", "pdf_atom_type": "TABLE_ROW", "pdf_source": "SDTMIG_v3.4", "pdf_page": 169, "pdf_parent_section": "§6.2.5 Healthcare Encounters (HO)", "pdf_verbatim": "| HOENRTPT | End Relative to Reference Time Point | Char | (STERPT) | Timing | Identifies the end of the event as being before or after the reference time point defined by variable HOENTPT. Not all values of the codelist are allowable for this variable. See Section 4.4.7, Use of Relative Timing Variables. | Perm |", "figure_ref": null, "candidates": [{"md_atom_id": "md_dmHO_ex_a021", "md_file": "knowledge_base/domains/HO/examples.md", "md_atom_type": "TABLE_ROW", "md_parent_section": "§HO.1 [Example 1]", "md_verbatim": "| 11 | ABC | HO | ABC123106 | 1 | CARDIAC CATHETERIZATION LABORATORY | FOLLOW-UP | 2011-11-07 | 2011-11-07 | |", "score": 0.4333, "match_basis": "verbatim_token+domain_route:HO"}, {"md_atom_id": "md_dmHO_ex_a042", "md_file": "knowledge_base/domains/HO/examples.md", "md_atom_type": "TABLE_ROW", "md_parent_section": "§HO.2 [Example 2]", "md_verbatim": "| 3 | ABC | HO | ABC123101 | 3 | REHABILITATION FACILITY | FOLLOW-UP CARE | 2011-06-12 | 2011-06-22 | | |", "score": 0.4303, "match_basis": "verbatim_token+domain_route:HO"}, {"md_atom_id": "md_dmHO_ex_a034", "md_file": "knowledge_base/domains/HO/examples.md", "md_atom_type": "TABLE_ROW", "md_parent_section": "§HO.1 [Example 1]", "md_verbatim": "| 5 | ABC | HO | ABC123105 | HOSEQ | 1 | HOINDC | Indication | ATRIAL FIBRILLATION | CRF | |", "score": 0.4298, "match_basis": "verbatim_token+domain_route:HO"}, {"md_atom_id": "md_dmHO_ex_a044", "md_file": "knowledge_base/domains/HO/examples.md", "md_atom_type": "TABLE_ROW", "md_parent_section": "§HO.2 [Example 2]", "md_verbatim": "| 5 | ABC | HO | ABC123101 | 5 | OUTPATIENT PHYSICAL THERAPY | FOLLOW-UP CARE | 2011-06-27 | 2011-06-27 | | |", "score": 0.4295, "match_basis": "verbatim_token+domain_route:HO"}, {"md_atom_id": "md_dmHO_ex_a045", "md_file": "knowledge_base/domains/HO/examples.md", "md_atom_type": "TABLE_ROW", "md_parent_section": "§HO.2 [Example 2]", "md_verbatim": "| 6 | ABC | HO | ABC123101 | 6 | OUTPATIENT PHYSICAL THERAPY | FOLLOW-UP CARE | 2011-07-12 | 2011-07-12 | | |", "score": 0.4295, "match_basis": "verbatim_token+domain_route:HO"}], "candidate_count": 5, "zero_candidate": false}
{"pdf_atom_id": "ig34_p0169_a0002", "pdf_atom_type": "TABLE_ROW", "pdf_source": "SDTMIG_v3.4", "pdf_page": 169, "pdf_parent_section": "§6.2.5 Healthcare Encounters (HO)", "pdf_verbatim": "| HOENTPT | End Reference Time Point | Char | | Timing | Description or date/time in ISO 8601 character format of the reference point referred to by HOENTPT. Examples: \"2003-12-25\", \"VISIT 2\". | Perm |", "figure_ref": null, "candidates": [{"md_atom_id": "md_dmHO_ex_a018", "md_file": "knowledge_base/domains/HO/examples.md", "md_atom_type": "TABLE_ROW", "md_parent_section": "§HO.1 [Example 1]", "md_verbatim": "| 8 | ABC | HO | ABC123104 | 1 | CARDIAC CATHETERIZATION LABORATORY | TREATMENT | 2011-10-10 | 2011-10-10 | |", "score": 0.43, "match_basis": "verbatim_token+domain_route:HO"}, {"md_atom_id": "md_dmHO_ex_a019", "md_file": "knowledge_base/domains/HO/examples.md", "md_atom_type": "TABLE_ROW", "md_parent_section": "§HO.1 [Example 1]", "md_verbatim": "| 9 | ABC | HO | ABC123105 | 1 | CARDIAC CATHETERIZATION LABORATORY | TREATMENT | 2011-10-11 | 2011-10-11 | |", "score": 0.43, "match_basis": "verbatim_token+domain_route:HO"}, {"md_atom_id": "md_dmHO_ex_a021", "md_file": "knowledge_base/domains/HO/examples.md", "md_atom_type": "TABLE_ROW", "md_parent_section": "§HO.1 [Example 1]", "md_verbatim": "| 11 | ABC | HO | ABC123106 | 1 | CARDIAC CATHETERIZATION LABORATORY | FOLLOW-UP | 2011-11-07 | 2011-11-07 | |", "score": 0.4245, "match_basis": "verbatim_token+domain_route:HO"}, {"md_atom_id": "md_dmHO_ex_a054", "md_file": "knowledge_base/domains/HO/examples.md", "md_atom_type": "TABLE_ROW", "md_parent_section": "§HO.2 [Example 2]", "md_verbatim": "| 1 | ABC | HO | ABC123101 | HOSEQ | 7 | HOINDC | Indication | STROKE | CRF | |", "score": 0.4209, "match_basis": "verbatim_token+domain_route:HO"}, {"md_atom_id": "md_dmHO_ex_a015", "md_file": "knowledge_base/domains/HO/examples.md", "md_atom_type": "TABLE_ROW", "md_parent_section": "§HO.1 [Example 1]", "md_verbatim": "| 5 | ABC | HO | ABC123102 | 3 | REHABILITATION FACILITY | TREATMENT | 2011-08-15 | 2011-08-20 | |", "score": 0.4196, "match_basis": "verbatim_token+domain_route:HO"}], "candidate_count": 5, "zero_candidate": false}
{"pdf_atom_id": "ig34_p0169_a0003", "pdf_atom_type": "SENTENCE", "pdf_source": "SDTMIG_v3.4", "pdf_page": 169, "pdf_parent_section": "§6.2.5 Healthcare Encounters (HO)", "pdf_verbatim": "¹In this column, an asterisk (*) indicates that the variable may be subject to controlled terminology.", "figure_ref": null, "candidates": [{"md_atom_id": "md_dmHO_ex_a023", "md_file": "knowledge_base/domains/HO/examples.md", "md_atom_type": "SENTENCE", "md_parent_section": "§HO.1 [Example 1]", "md_verbatim": "**Row 1:** For the first encounter recorded for subject ABC123101, the indication/medical condition for hospitalization was recorded.", "score": 0.483, "match_basis": "verbatim_token+domain_route:HO"}, {"md_atom_id": "md_dmHO_ex_a026", "md_file": "knowledge_base/domains/HO/examples.md", "md_atom_type": "SENTENCE", "md_parent_section": "§HO.1 [Example 1]", "md_verbatim": "**Row 5:** For the first encounter recorded for subject ABC123105, the indication/medical condition for the hospitalization was recorded.", "score": 0.483, "match_basis": "verbatim_token+domain_route:HO"}, {"md_atom_id": "md_dmHO_ex_a051", "md_file": "knowledge_base/domains/HO/examples.md", "md_atom_type": "SENTENCE", "md_parent_section": "§HO.2 [Example 2]", "md_verbatim": "The indication/medical condition for subject ABC123101's repeat hospitalization was represented as a supplemental qualifier.", "score": 0.4692, "match_basis": "verbatim_token+domain_route:HO"}, {"md_atom_id": "md_dmHO_ex_a007", "md_file": "knowledge_base/domains/HO/examples.md", "md_atom_type": "SENTENCE", "md_parent_section": "§HO.1 [Example 1]", "md_verbatim": "**Row 8:** Subject ABC123104 was seen in the cardiac catheterization laboratory.", "score": 0.4651, "match_basis": "verbatim_token+domain_route:HO"}, {"md_atom_id": "md_dmHO_ex_a027", "md_file": "knowledge_base/domains/HO/examples.md", "md_atom_type": "SENTENCE", "md_parent_section": "§HO.1 [Example 1]", "md_verbatim": "**Row 6:** For the second encounter recorded for subject ABC123105, the name of the hospital was recorded.", "score": 0.4585, "match_basis": "verbatim_token+domain_route:HO"}], "candidate_count": 5, "zero_candidate": false}
{"pdf_atom_id": "ig34_p0169_a0004", "pdf_atom_type": "HEADING", "pdf_source": "SDTMIG_v3.4", "pdf_page": 169, "pdf_parent_section": "§6.2.5 Healthcare Encounters (HO)", "pdf_verbatim": "HO – Assumptions", "figure_ref": null, "candidates": [{"md_atom_id": "md_dmHO_assn_a001", "md_file": "knowledge_base/domains/HO/assumptions.md", "md_atom_type": "HEADING", "md_parent_section": "§HO [HO — Assumptions]", "md_verbatim": "# HO — Assumptions", "score": 1.0, "match_basis": "verbatim_token+domain_route:HO"}, {"md_atom_id": "md_dmHO_ex_a001", "md_file": "knowledge_base/domains/HO/examples.md", "md_atom_type": "HEADING", "md_parent_section": "§HO [HO — Examples]", "md_verbatim": "# HO — Examples", "score": 0.4, "match_basis": "verbatim_token+domain_route:HO"}, {"md_atom_id": "md_dmHO_ex_a002", "md_file": "knowledge_base/domains/HO/examples.md", "md_atom_type": "HEADING", "md_parent_section": "§HO [HO — Examples]", "md_verbatim": "## Example 1", "score": 0.4, "match_basis": "verbatim_token+domain_route:HO"}, {"md_atom_id": "md_dmHO_ex_a036", "md_file": "knowledge_base/domains/HO/examples.md", "md_atom_type": "HEADING", "md_parent_section": "§HO [HO — Examples]", "md_verbatim": "## Example 2", "score": 0.4, "match_basis": "verbatim_token+domain_route:HO"}], "candidate_count": 4, "zero_candidate": false}
{"pdf_atom_id": "ig34_p0169_a0005", "pdf_atom_type": "LIST_ITEM", "pdf_source": "SDTMIG_v3.4", "pdf_page": 169, "pdf_parent_section": "§6.2.5 Healthcare Encounters (HO)", "pdf_verbatim": "The Healthcare Encounters (HO) dataset includes inpatient and outpatient healthcare events (e.g., hospitalizations, nursing home stays, rehabilitation facility stays, ambulatory surgery).", "figure_ref": null, "candidates": [{"md_atom_id": "md_dmHO_assn_a002", "md_file": "knowledge_base/domains/HO/assumptions.md", "md_atom_type": "LIST_ITEM", "md_parent_section": "§HO [HO — Assumptions]", "md_verbatim": "1. The Healthcare Encounters (HO) dataset includes inpatient and outpatient healthcare events (e.g., hospitalizations, nursing home stays, rehabilitation facility stays, ambulatory surgery).", "score": 1.0, "match_basis": "verbatim_token+domain_route:HO"}, {"md_atom_id": "md_dmHO_assn_a003", "md_file": "knowledge_base/domains/HO/assumptions.md", "md_atom_type": "LIST_ITEM", "md_parent_section": "§HO [HO — Assumptions]", "md_verbatim": "2. Values of HOTERM typically describe the location or place of the healthcare encounter (e.g., \"HOSPITAL\" rather than \"HOSPITALIZATION\"). HOSTDTC should represent the start or admission date and HOENDTC the end or discharge date.", "score": 0.5373, "match_basis": "verbatim_token+domain_route:HO"}, {"md_atom_id": "md_dmHO_assn_a004", "md_file": "knowledge_base/domains/HO/assumptions.md", "md_atom_type": "LIST_ITEM", "md_parent_section": "§HO [HO — Assumptions]", "md_verbatim": "3. Data collected about healthcare encounters may include the reason for the encounter. The following supplemental qualifiers may be appropriate for representing such data:", "score": 0.5217, "match_basis": "verbatim_token+domain_route:HO"}, {"md_atom_id": "md_dmHO_ex_a037", "md_file": "knowledge_base/domains/HO/examples.md", "md_atom_type": "SENTENCE", "md_parent_section": "§HO.2 [Example 2]", "md_verbatim": "In this example, the dates of an initial hospitalization are collected as well as the date/time of ICU stay. Subsequent to discharge from the initial hospitalization, follow-up healthcare encounters, including admission to a rehabilitation facility, visits with healthcare providers, and home nursing visits were collected. Repeat hospitalizations are categorized separately.", "score": 0.5157, "match_basis": "verbatim_token+domain_route:HO"}, {"md_atom_id": "md_dmHO_assn_a007", "md_file": "knowledge_base/domains/HO/assumptions.md", "md_atom_type": "LIST_ITEM", "md_parent_section": "§HO [HO — Assumptions]", "md_verbatim": "4. If collected data includes the name of the provider or the facility where the encounter took place, this may be represented using the supplemental qualifier with QNAM = \"HONAM\". Note that --NAM is a Findings class variable, so is not a standard variable for HO, which is an Events class domain.", "score": 0.5116, "match_basis": "verbatim_token+domain_route:HO"}], "candidate_count": 5, "zero_candidate": false}
{"pdf_atom_id": "ig34_p0169_a0006", "pdf_atom_type": "LIST_ITEM", "pdf_source": "SDTMIG_v3.4", "pdf_page": 169, "pdf_parent_section": "§6.2.5 Healthcare Encounters (HO)", "pdf_verbatim": "Values of HOTERM typically describe the location or place of the healthcare encounter (e.g., \"HOSPITAL\" rather than \"HOSPITALIZATION\"). HOSTDTC should represent the start or admission date and HOENDTC the end or discharge date.", "figure_ref": null, "candidates": [{"md_atom_id": "md_dmHO_assn_a003", "md_file": "knowledge_base/domains/HO/assumptions.md", "md_atom_type": "LIST_ITEM", "md_parent_section": "§HO [HO — Assumptions]", "md_verbatim": "2. Values of HOTERM typically describe the location or place of the healthcare encounter (e.g., \"HOSPITAL\" rather than \"HOSPITALIZATION\"). HOSTDTC should represent the start or admission date and HOENDTC the end or discharge date.", "score": 1.0, "match_basis": "verbatim_token+domain_route:HO"}, {"md_atom_id": "md_dmHO_assn_a002", "md_file": "knowledge_base/domains/HO/assumptions.md", "md_atom_type": "LIST_ITEM", "md_parent_section": "§HO [HO — Assumptions]", "md_verbatim": "1. The Healthcare Encounters (HO) dataset includes inpatient and outpatient healthcare events (e.g., hospitalizations, nursing home stays, rehabilitation facility stays, ambulatory surgery).", "score": 0.5373, "match_basis": "verbatim_token+domain_route:HO"}, {"md_atom_id": "md_dmHO_assn_a006", "md_file": "knowledge_base/domains/HO/assumptions.md", "md_atom_type": "LIST_ITEM", "md_parent_section": "§HO [HO — Assumptions]", "md_verbatim": "   b. The supplemental qualifier with QNAM = \"HOREAS\" would be used to represent a reason for the encounter other than a medical condition (e.g., annual checkup).", "score": 0.5091, "match_basis": "verbatim_token+domain_route:HO"}, {"md_atom_id": "md_dmHO_assn_a004", "md_file": "knowledge_base/domains/HO/assumptions.md", "md_atom_type": "LIST_ITEM", "md_parent_section": "§HO [HO — Assumptions]", "md_verbatim": "3. Data collected about healthcare encounters may include the reason for the encounter. The following supplemental qualifiers may be appropriate for representing such data:", "score": 0.5059, "match_basis": "verbatim_token+domain_route:HO"}, {"md_atom_id": "md_dmHO_assn_a005", "md_file": "knowledge_base/domains/HO/assumptions.md", "md_atom_type": "LIST_ITEM", "md_parent_section": "§HO [HO — Assumptions]", "md_verbatim": "   a. The supplemental qualifier with QNAM = \"HOINDC\" would be used to represent the indication/medical condition for the encounter (e.g., stroke). Note that --INDC is an Interventions class variable, so is not a standard variable for HO, which is an Events class domain.", "score": 0.5048, "match_basis": "verbatim_token+domain_route:HO"}], "candidate_count": 5, "zero_candidate": false}
{"pdf_atom_id": "ig34_p0169_a0007", "pdf_atom_type": "LIST_ITEM", "pdf_source": "SDTMIG_v3.4", "pdf_page": 169, "pdf_parent_section": "§6.2.5 Healthcare Encounters (HO)", "pdf_verbatim": "Data collected about healthcare encounters may include the reason for the encounter. The following supplemental qualifiers may be appropriate for representing such data:", "figure_ref": null, "candidates": [{"md_atom_id": "md_dmHO_assn_a004", "md_file": "knowledge_base/domains/HO/assumptions.md", "md_atom_type": "LIST_ITEM", "md_parent_section": "§HO [HO — Assumptions]", "md_verbatim": "3. Data collected about healthcare encounters may include the reason for the encounter. The following supplemental qualifiers may be appropriate for representing such data:", "score": 1.0, "match_basis": "verbatim_token+domain_route:HO"}, {"md_atom_id": "md_dmHO_assn_a007", "md_file": "knowledge_base/domains/HO/assumptions.md", "md_atom_type": "LIST_ITEM", "md_parent_section": "§HO [HO — Assumptions]", "md_verbatim": "4. If collected data includes the name of the provider or the facility where the encounter took place, this may be represented using the supplemental qualifier with QNAM = \"HONAM\". Note that --NAM is a Findings class variable, so is not a standard variable for HO, which is an Events class domain.", "score": 0.6055, "match_basis": "verbatim_token+domain_route:HO"}, {"md_atom_id": "md_dmHO_assn_a006", "md_file": "knowledge_base/domains/HO/assumptions.md", "md_atom_type": "LIST_ITEM", "md_parent_section": "§HO [HO — Assumptions]", "md_verbatim": "   b. The supplemental qualifier with QNAM = \"HOREAS\" would be used to represent a reason for the encounter other than a medical condition (e.g., annual checkup).", "score": 0.5846, "match_basis": "verbatim_token+domain_route:HO"}, {"md_atom_id": "md_dmHO_assn_a005", "md_file": "knowledge_base/domains/HO/assumptions.md", "md_atom_type": "LIST_ITEM", "md_parent_section": "§HO [HO — Assumptions]", "md_verbatim": "   a. The supplemental qualifier with QNAM = \"HOINDC\" would be used to represent the indication/medical condition for the encounter (e.g., stroke). Note that --INDC is an Interventions class variable, so is not a standard variable for HO, which is an Events class domain.", "score": 0.5407, "match_basis": "verbatim_token+domain_route:HO"}, {"md_atom_id": "md_dmHO_assn_a002", "md_file": "knowledge_base/domains/HO/assumptions.md", "md_atom_type": "LIST_ITEM", "md_parent_section": "§HO [HO — Assumptions]", "md_verbatim": "1. The Healthcare Encounters (HO) dataset includes inpatient and outpatient healthcare events (e.g., hospitalizations, nursing home stays, rehabilitation facility stays, ambulatory surgery).", "score": 0.5217, "match_basis": "verbatim_token+domain_route:HO"}], "candidate_count": 5, "zero_candidate": false}
{"pdf_atom_id": "ig34_p0169_a0008", "pdf_atom_type": "LIST_ITEM", "pdf_source": "SDTMIG_v3.4", "pdf_page": 169, "pdf_parent_section": "§6.2.5 Healthcare Encounters (HO)", "pdf_verbatim": "a. The supplemental qualifier with QNAM = \"HOINDC\" would be used to represent the indication/medical condition for the encounter (e.g., stroke). Note that --INDC is an Interventions class variable, so is not a standard variable for HO, which is an Events class domain.", "figure_ref": null, "candidates": [{"md_atom_id": "md_dmHO_assn_a005", "md_file": "knowledge_base/domains/HO/assumptions.md", "md_atom_type": "LIST_ITEM", "md_parent_section": "§HO [HO — Assumptions]", "md_verbatim": "   a. The supplemental qualifier with QNAM = \"HOINDC\" would be used to represent the indication/medical condition for the encounter (e.g., stroke). Note that --INDC is an Interventions class variable, so is not a standard variable for HO, which is an Events class domain.", "score": 1.0, "match_basis": "verbatim_token+domain_route:HO"}, {"md_atom_id": "md_dmHO_assn_a006", "md_file": "knowledge_base/domains/HO/assumptions.md", "md_atom_type": "LIST_ITEM", "md_parent_section": "§HO [HO — Assumptions]", "md_verbatim": "   b. The supplemental qualifier with QNAM = \"HOREAS\" would be used to represent a reason for the encounter other than a medical condition (e.g., annual checkup).", "score": 0.6842, "match_basis": "verbatim_token+domain_route:HO"}, {"md_atom_id": "md_dmHO_assn_a007", "md_file": "knowledge_base/domains/HO/assumptions.md", "md_atom_type": "LIST_ITEM", "md_parent_section": "§HO [HO — Assumptions]", "md_verbatim": "4. If collected data includes the name of the provider or the facility where the encounter took place, this may be represented using the supplemental qualifier with QNAM = \"HONAM\". Note that --NAM is a Findings class variable, so is not a standard variable for HO, which is an Events class domain.", "score": 0.6792, "match_basis": "verbatim_token+domain_route:HO"}, {"md_atom_id": "md_dmHO_assn_a004", "md_file": "knowledge_base/domains/HO/assumptions.md", "md_atom_type": "LIST_ITEM", "md_parent_section": "§HO [HO — Assumptions]", "md_verbatim": "3. Data collected about healthcare encounters may include the reason for the encounter. The following supplemental qualifiers may be appropriate for representing such data:", "score": 0.5407, "match_basis": "verbatim_token+domain_route:HO"}, {"md_atom_id": "md_dmHO_assn_a008", "md_file": "knowledge_base/domains/HO/assumptions.md", "md_atom_type": "LIST_ITEM", "md_parent_section": "§HO [HO — Assumptions]", "md_verbatim": "5. Any identifier variables, timing variables, or Events general observation-class qualifiers may be added to the HO domain, but the following Qualifiers would generally not be used: --SER, --ACN, --ACNOTH, --REL, --RELNST, --SCAN, --SCONG, --SDISAB, --SDTH, --SHOSP, --SLIFE, --SOD, --SMIE, --BODSYS, --LOC, --SEV, --TOX, --TOXGR, --PATT, --CONTRT.", "score": 0.5314, "match_basis": "verbatim_token+domain_route:HO"}], "candidate_count": 5, "zero_candidate": false}
{"pdf_atom_id": "ig34_p0169_a0009", "pdf_atom_type": "LIST_ITEM", "pdf_source": "SDTMIG_v3.4", "pdf_page": 169, "pdf_parent_section": "§6.2.5 Healthcare Encounters (HO)", "pdf_verbatim": "b. The supplemental qualifier with QNAM = \"HOREAS\" would be used to represent a reason for the encounter other than a medical condition (e.g., annual checkup).", "figure_ref": null, "candidates": [{"md_atom_id": "md_dmHO_assn_a006", "md_file": "knowledge_base/domains/HO/assumptions.md", "md_atom_type": "LIST_ITEM", "md_parent_section": "§HO [HO — Assumptions]", "md_verbatim": "   b. The supplemental qualifier with QNAM = \"HOREAS\" would be used to represent a reason for the encounter other than a medical condition (e.g., annual checkup).", "score": 1.0, "match_basis": "verbatim_token+domain_route:HO"}, {"md_atom_id": "md_dmHO_assn_a005", "md_file": "knowledge_base/domains/HO/assumptions.md", "md_atom_type": "LIST_ITEM", "md_parent_section": "§HO [HO — Assumptions]", "md_verbatim": "   a. The supplemental qualifier with QNAM = \"HOINDC\" would be used to represent the indication/medical condition for the encounter (e.g., stroke). Note that --INDC is an Interventions class variable, so is not a standard variable for HO, which is an Events class domain.", "score": 0.6842, "match_basis": "verbatim_token+domain_route:HO"}, {"md_atom_id": "md_dmHO_assn_a004", "md_file": "knowledge_base/domains/HO/assumptions.md", "md_atom_type": "LIST_ITEM", "md_parent_section": "§HO [HO — Assumptions]", "md_verbatim": "3. Data collected about healthcare encounters may include the reason for the encounter. The following supplemental qualifiers may be appropriate for representing such data:", "score": 0.5846, "match_basis": "verbatim_token+domain_route:HO"}, {"md_atom_id": "md_dmHO_assn_a007", "md_file": "knowledge_base/domains/HO/assumptions.md", "md_atom_type": "LIST_ITEM", "md_parent_section": "§HO [HO — Assumptions]", "md_verbatim": "4. If collected data includes the name of the provider or the facility where the encounter took place, this may be represented using the supplemental qualifier with QNAM = \"HONAM\". Note that --NAM is a Findings class variable, so is not a standard variable for HO, which is an Events class domain.", "score": 0.5603, "match_basis": "verbatim_token+domain_route:HO"}, {"md_atom_id": "md_dmHO_ex_a051", "md_file": "knowledge_base/domains/HO/examples.md", "md_atom_type": "SENTENCE", "md_parent_section": "§HO.2 [Example 2]", "md_verbatim": "The indication/medical condition for subject ABC123101's repeat hospitalization was represented as a supplemental qualifier.", "score": 0.5403, "match_basis": "verbatim_token+domain_route:HO"}], "candidate_count": 5, "zero_candidate": false}
{"pdf_atom_id": "ig34_p0169_a0010", "pdf_atom_type": "LIST_ITEM", "pdf_source": "SDTMIG_v3.4", "pdf_page": 169, "pdf_parent_section": "§6.2.5 Healthcare Encounters (HO)", "pdf_verbatim": "4. If collected data includes the name of the provider or the facility where the encounter took place, this may be represented using the supplemental qualifier with QNAM = \"HONAM\". Note that --NAM is a Findings class variable, so is not a standard variable for HO, which is an Events class domain.", "figure_ref": null, "candidates": [{"md_atom_id": "md_dmHO_assn_a007", "md_file": "knowledge_base/domains/HO/assumptions.md", "md_atom_type": "LIST_ITEM", "md_parent_section": "§HO [HO — Assumptions]", "md_verbatim": "4. If collected data includes the name of the provider or the facility where the encounter took place, this may be represented using the supplemental qualifier with QNAM = \"HONAM\". Note that --NAM is a Findings class variable, so is not a standard variable for HO, which is an Events class domain.", "score": 1.0, "match_basis": "verbatim_token+domain_route:HO"}, {"md_atom_id": "md_dmHO_assn_a005", "md_file": "knowledge_base/domains/HO/assumptions.md", "md_atom_type": "LIST_ITEM", "md_parent_section": "§HO [HO — Assumptions]", "md_verbatim": "   a. The supplemental qualifier with QNAM = \"HOINDC\" would be used to represent the indication/medical condition for the encounter (e.g., stroke). Note that --INDC is an Interventions class variable, so is not a standard variable for HO, which is an Events class domain.", "score": 0.6792, "match_basis": "verbatim_token+domain_route:HO"}, {"md_atom_id": "md_dmHO_assn_a004", "md_file": "knowledge_base/domains/HO/assumptions.md", "md_atom_type": "LIST_ITEM", "md_parent_section": "§HO [HO — Assumptions]", "md_verbatim": "3. Data collected about healthcare encounters may include the reason for the encounter. The following supplemental qualifiers may be appropriate for representing such data:", "score": 0.6055, "match_basis": "verbatim_token+domain_route:HO"}, {"md_atom_id": "md_dmHO_assn_a006", "md_file": "knowledge_base/domains/HO/assumptions.md", "md_atom_type": "LIST_ITEM", "md_parent_section": "§HO [HO — Assumptions]", "md_verbatim": "   b. The supplemental qualifier with QNAM = \"HOREAS\" would be used to represent a reason for the encounter other than a medical condition (e.g., annual checkup).", "score": 0.5603, "match_basis": "verbatim_token+domain_route:HO"}, {"md_atom_id": "md_dmHO_assn_a002", "md_file": "knowledge_base/domains/HO/assumptions.md", "md_atom_type": "LIST_ITEM", "md_parent_section": "§HO [HO — Assumptions]", "md_verbatim": "1. The Healthcare Encounters (HO) dataset includes inpatient and outpatient healthcare events (e.g., hospitalizations, nursing home stays, rehabilitation facility stays, ambulatory surgery).", "score": 0.5116, "match_basis": "verbatim_token+domain_route:HO"}], "candidate_count": 5, "zero_candidate": false}
{"pdf_atom_id": "ig34_p0169_a0011", "pdf_atom_type": "LIST_ITEM", "pdf_source": "SDTMIG_v3.4", "pdf_page": 169, "pdf_parent_section": "§6.2.5 Healthcare Encounters (HO)", "pdf_verbatim": "5. Any identifier variables, timing variables, or Events general observation-class qualifiers may be added to the HO domain, but the following Qualifiers would generally not be used: --SER, --ACN, --ACNOTH, --REL, --RELNST, --SCAN, --SCONG, --SDISAB, --SDTH, --SHOSP, --SLIFE, --SOD, --SMIE, --BODYS, --LOC, --SEV, --TOX, --TOXGR, --PATT, --CONTRT.", "figure_ref": null, "candidates": [{"md_atom_id": "md_dmHO_assn_a008", "md_file": "knowledge_base/domains/HO/assumptions.md", "md_atom_type": "LIST_ITEM", "md_parent_section": "§HO [HO — Assumptions]", "md_verbatim": "5. Any identifier variables, timing variables, or Events general observation-class qualifiers may be added to the HO domain, but the following Qualifiers would generally not be used: --SER, --ACN, --ACNOTH, --REL, --RELNST, --SCAN, --SCONG, --SDISAB, --SDTH, --SHOSP, --SLIFE, --SOD, --SMIE, --BODSYS, --LOC, --SEV, --TOX, --TOXGR, --PATT, --CONTRT.", "score": 0.973, "match_basis": "verbatim_token+domain_route:HO"}, {"md_atom_id": "md_dmHO_assn_a005", "md_file": "knowledge_base/domains/HO/assumptions.md", "md_atom_type": "LIST_ITEM", "md_parent_section": "§HO [HO — Assumptions]", "md_verbatim": "   a. The supplemental qualifier with QNAM = \"HOINDC\" would be used to represent the indication/medical condition for the encounter (e.g., stroke). Note that --INDC is an Interventions class variable, so is not a standard variable for HO, which is an Events class domain.", "score": 0.5321, "match_basis": "verbatim_token+domain_route:HO"}, {"md_atom_id": "md_dmHO_assn_a007", "md_file": "knowledge_base/domains/HO/assumptions.md", "md_atom_type": "LIST_ITEM", "md_parent_section": "§HO [HO — Assumptions]", "md_verbatim": "4. If collected data includes the name of the provider or the facility where the encounter took place, this may be represented using the supplemental qualifier with QNAM = \"HONAM\". Note that --NAM is a Findings class variable, so is not a standard variable for HO, which is an Events class domain.", "score": 0.4938, "match_basis": "verbatim_token+domain_route:HO"}, {"md_atom_id": "md_dmHO_assn_a004", "md_file": "knowledge_base/domains/HO/assumptions.md", "md_atom_type": "LIST_ITEM", "md_parent_section": "§HO [HO — Assumptions]", "md_verbatim": "3. Data collected about healthcare encounters may include the reason for the encounter. The following supplemental qualifiers may be appropriate for representing such data:", "score": 0.4706, "match_basis": "verbatim_token+domain_route:HO"}, {"md_atom_id": "md_dmHO_assn_a006", "md_file": "knowledge_base/domains/HO/assumptions.md", "md_atom_type": "LIST_ITEM", "md_parent_section": "§HO [HO — Assumptions]", "md_verbatim": "   b. The supplemental qualifier with QNAM = \"HOREAS\" would be used to represent a reason for the encounter other than a medical condition (e.g., annual checkup).", "score": 0.4671, "match_basis": "verbatim_token+domain_route:HO"}], "candidate_count": 5, "zero_candidate": false}
{"pdf_atom_id": "ig34_p0169_a0012", "pdf_atom_type": "HEADING", "pdf_source": "SDTMIG_v3.4", "pdf_page": 169, "pdf_parent_section": "§6.2.5 Healthcare Encounters (HO)", "pdf_verbatim": "HO – Examples", "figure_ref": null, "candidates": [{"md_atom_id": "md_dmHO_ex_a001", "md_file": "knowledge_base/domains/HO/examples.md", "md_atom_type": "HEADING", "md_parent_section": "§HO [HO — Examples]", "md_verbatim": "# HO — Examples", "score": 1.0, "match_basis": "verbatim_token+domain_route:HO"}, {"md_atom_id": "md_dmHO_ex_a002", "md_file": "knowledge_base/domains/HO/examples.md", "md_atom_type": "HEADING", "md_parent_section": "§HO [HO — Examples]", "md_verbatim": "## Example 1", "score": 0.9, "match_basis": "verbatim_token+domain_route:HO"}, {"md_atom_id": "md_dmHO_ex_a036", "md_file": "knowledge_base/domains/HO/examples.md", "md_atom_type": "HEADING", "md_parent_section": "§HO [HO — Examples]", "md_verbatim": "## Example 2", "score": 0.9, "match_basis": "verbatim_token+domain_route:HO"}, {"md_atom_id": "md_dmHO_assn_a001", "md_file": "knowledge_base/domains/HO/assumptions.md", "md_atom_type": "HEADING", "md_parent_section": "§HO [HO — Assumptions]", "md_verbatim": "# HO — Assumptions", "score": 0.4, "match_basis": "verbatim_token+domain_route:HO"}], "candidate_count": 4, "zero_candidate": false}
{"pdf_atom_id": "ig34_p0169_a0013", "pdf_atom_type": "HEADING", "pdf_source": "SDTMIG_v3.4", "pdf_page": 169, "pdf_parent_section": "§6.2.5 Healthcare Encounters (HO)", "pdf_verbatim": "Example 1", "figure_ref": null, "candidates": [{"md_atom_id": "md_dmHO_ex_a002", "md_file": "knowledge_base/domains/HO/examples.md", "md_atom_type": "HEADING", "md_parent_section": "§HO [HO — Examples]", "md_verbatim": "## Example 1", "score": 1.0, "match_basis": "verbatim_token+domain_route:HO"}, {"md_atom_id": "md_dmHO_ex_a036", "md_file": "knowledge_base/domains/HO/examples.md", "md_atom_type": "HEADING", "md_parent_section": "§HO [HO — Examples]", "md_verbatim": "## Example 2", "score": 1.0, "match_basis": "verbatim_token+domain_route:HO"}, {"md_atom_id": "md_dmHO_ex_a001", "md_file": "knowledge_base/domains/HO/examples.md", "md_atom_type": "HEADING", "md_parent_section": "§HO [HO — Examples]", "md_verbatim": "# HO — Examples", "score": 0.9, "match_basis": "verbatim_token+domain_route:HO"}, {"md_atom_id": "md_dmHO_assn_a001", "md_file": "knowledge_base/domains/HO/assumptions.md", "md_atom_type": "HEADING", "md_parent_section": "§HO [HO — Assumptions]", "md_verbatim": "# HO — Assumptions", "score": 0.4, "match_basis": "verbatim_token+domain_route:HO"}], "candidate_count": 4, "zero_candidate": false}
{"pdf_atom_id": "ig34_p0169_a0014", "pdf_atom_type": "SENTENCE", "pdf_source": "SDTMIG_v3.4", "pdf_page": 169, "pdf_parent_section": "§6.2.5 Healthcare Encounters (HO)", "pdf_verbatim": "In this example, a healthcare encounter CRF collects verbatim descriptions of the encounter.", "figure_ref": null, "candidates": [{"md_atom_id": "md_dmHO_ex_a003", "md_file": "knowledge_base/domains/HO/examples.md", "md_atom_type": "SENTENCE", "md_parent_section": "§HO.1 [Example 1]", "md_verbatim": "In this example, a healthcare encounter CRF collects verbatim descriptions of the encounter.", "score": 1.0, "match_basis": "verbatim_token+domain_route:HO"}, {"md_atom_id": "md_dmHO_ex_a037", "md_file": "knowledge_base/domains/HO/examples.md", "md_atom_type": "SENTENCE", "md_parent_section": "§HO.2 [Example 2]", "md_verbatim": "In this example, the dates of an initial hospitalization are collected as well as the date/time of ICU stay. Subsequent to discharge from the initial hospitalization, follow-up healthcare encounters, including admission to a rehabilitation facility, visits with healthcare providers, and home nursing visits were collected. Repeat hospitalizations are categorized separately.", "score": 0.5253, "match_basis": "verbatim_token+domain_route:HO"}, {"md_atom_id": "md_dmHO_ex_a023", "md_file": "knowledge_base/domains/HO/examples.md", "md_atom_type": "SENTENCE", "md_parent_section": "§HO.1 [Example 1]", "md_verbatim": "**Row 1:** For the first encounter recorded for subject ABC123101, the indication/medical condition for hospitalization was recorded.", "score": 0.4791, "match_basis": "verbatim_token+domain_route:HO"}, {"md_atom_id": "md_dmHO_ex_a026", "md_file": "knowledge_base/domains/HO/examples.md", "md_atom_type": "SENTENCE", "md_parent_section": "§HO.1 [Example 1]", "md_verbatim": "**Row 5:** For the first encounter recorded for subject ABC123105, the indication/medical condition for the hospitalization was recorded.", "score": 0.4791, "match_basis": "verbatim_token+domain_route:HO"}, {"md_atom_id": "md_dmHO_ex_a024", "md_file": "knowledge_base/domains/HO/examples.md", "md_atom_type": "SENTENCE", "md_parent_section": "§HO.1 [Example 1]", "md_verbatim": "**Row 2:** For the second encounter recorded for subject ABC123101, the reason for admission to a nursing home was for rehabilitation.", "score": 0.4758, "match_basis": "verbatim_token+domain_route:HO"}], "candidate_count": 5, "zero_candidate": false}
{"pdf_atom_id": "ig34_p0169_a0015", "pdf_atom_type": "LIST_ITEM", "pdf_source": "SDTMIG_v3.4", "pdf_page": 169, "pdf_parent_section": "§6.2.5 Healthcare Encounters (HO)", "pdf_verbatim": "Rows 1-2: Subject ABC123101 was hospitalized and then moved to a nursing home.", "figure_ref": null, "candidates": [{"md_atom_id": "md_dmHO_ex_a004", "md_file": "knowledge_base/domains/HO/examples.md", "md_atom_type": "SENTENCE", "md_parent_section": "§HO.1 [Example 1]", "md_verbatim": "**Rows 1-2:** Subject ABC123101 was hospitalized and then moved to a nursing home.", "score": 0.91, "match_basis": "verbatim_token+domain_route:HO"}, {"md_atom_id": "md_dmHO_ex_a006", "md_file": "knowledge_base/domains/HO/examples.md", "md_atom_type": "SENTENCE", "md_parent_section": "§HO.1 [Example 1]", "md_verbatim": "**Rows 6-7:** Subject ABC123103 has 2 hospitalization records.", "score": 0.562, "match_basis": "verbatim_token+domain_route:HO"}, {"md_atom_id": "md_dmHO_ex_a027", "md_file": "knowledge_base/domains/HO/examples.md", "md_atom_type": "SENTENCE", "md_parent_section": "§HO.1 [Example 1]", "md_verbatim": "**Row 6:** For the second encounter recorded for subject ABC123105, the name of the hospital was recorded.", "score": 0.5169, "match_basis": "verbatim_token+domain_route:HO"}, {"md_atom_id": "md_dmHO_ex_a023", "md_file": "knowledge_base/domains/HO/examples.md", "md_atom_type": "SENTENCE", "md_parent_section": "§HO.1 [Example 1]", "md_verbatim": "**Row 1:** For the first encounter recorded for subject ABC123101, the indication/medical condition for hospitalization was recorded.", "score": 0.5017, "match_basis": "verbatim_token+domain_route:HO"}, {"md_atom_id": "md_dmHO_assn_a002", "md_file": "knowledge_base/domains/HO/assumptions.md", "md_atom_type": "LIST_ITEM", "md_parent_section": "§HO [HO — Assumptions]", "md_verbatim": "1. The Healthcare Encounters (HO) dataset includes inpatient and outpatient healthcare events (e.g., hospitalizations, nursing home stays, rehabilitation facility stays, ambulatory surgery).", "score": 0.4919, "match_basis": "verbatim_token+domain_route:HO"}], "candidate_count": 5, "zero_candidate": false}
{"pdf_atom_id": "ig34_p0169_a0016", "pdf_atom_type": "LIST_ITEM", "pdf_source": "SDTMIG_v3.4", "pdf_page": 169, "pdf_parent_section": "§6.2.5 Healthcare Encounters (HO)", "pdf_verbatim": "Rows 3-5: Subject ABC123102 was in a hospital in the general ward and then in the intensive care unit. This same subject was transferred to a rehabilitation facility.", "figure_ref": null, "candidates": [{"md_atom_id": "md_dmHO_ex_a005", "md_file": "knowledge_base/domains/HO/examples.md", "md_atom_type": "SENTENCE", "md_parent_section": "§HO.1 [Example 1]", "md_verbatim": "**Rows 3-5:** Subject ABC123102 was in a hospital in the general ward and then in the intensive care unit. This same subject was transferred to a rehabilitation facility.", "score": 0.91, "match_basis": "verbatim_token+domain_route:HO"}, {"md_atom_id": "md_dmHO_ex_a008", "md_file": "knowledge_base/domains/HO/examples.md", "md_atom_type": "SENTENCE", "md_parent_section": "§HO.1 [Example 1]", "md_verbatim": "**Rows 9-12:** Subject ABC123105 and subject ABC123106 were each seen in the cardiac catheterization laboratory and then transferred to another hospital.", "score": 0.5218, "match_basis": "verbatim_token+domain_route:HO"}, {"md_atom_id": "md_dmHO_assn_a002", "md_file": "knowledge_base/domains/HO/assumptions.md", "md_atom_type": "LIST_ITEM", "md_parent_section": "§HO [HO — Assumptions]", "md_verbatim": "1. The Healthcare Encounters (HO) dataset includes inpatient and outpatient healthcare events (e.g., hospitalizations, nursing home stays, rehabilitation facility stays, ambulatory surgery).", "score": 0.5164, "match_basis": "verbatim_token+domain_route:HO"}, {"md_atom_id": "md_dmHO_ex_a006", "md_file": "knowledge_base/domains/HO/examples.md", "md_atom_type": "SENTENCE", "md_parent_section": "§HO.1 [Example 1]", "md_verbatim": "**Rows 6-7:** Subject ABC123103 has 2 hospitalization records.", "score": 0.473, "match_basis": "verbatim_token+domain_route:HO"}, {"md_atom_id": "md_dmHO_ex_a004", "md_file": "knowledge_base/domains/HO/examples.md", "md_atom_type": "SENTENCE", "md_parent_section": "§HO.1 [Example 1]", "md_verbatim": "**Rows 1-2:** Subject ABC123101 was hospitalized and then moved to a nursing home.", "score": 0.4724, "match_basis": "verbatim_token+domain_route:HO"}], "candidate_count": 5, "zero_candidate": false}
{"pdf_atom_id": "ig34_p0169_a0017", "pdf_atom_type": "LIST_ITEM", "pdf_source": "SDTMIG_v3.4", "pdf_page": 169, "pdf_parent_section": "§6.2.5 Healthcare Encounters (HO)", "pdf_verbatim": "Rows 6-7: Subject ABC123103 has 2 hospitalization records.", "figure_ref": null, "candidates": [{"md_atom_id": "md_dmHO_ex_a006", "md_file": "knowledge_base/domains/HO/examples.md", "md_atom_type": "SENTENCE", "md_parent_section": "§HO.1 [Example 1]", "md_verbatim": "**Rows 6-7:** Subject ABC123103 has 2 hospitalization records.", "score": 0.91, "match_basis": "verbatim_token+domain_route:HO"}, {"md_atom_id": "md_dmHO_ex_a023", "md_file": "knowledge_base/domains/HO/examples.md", "md_atom_type": "SENTENCE", "md_parent_section": "§HO.1 [Example 1]", "md_verbatim": "**Row 1:** For the first encounter recorded for subject ABC123101, the indication/medical condition for hospitalization was recorded.", "score": 0.5952, "match_basis": "verbatim_token+domain_route:HO"}, {"md_atom_id": "md_dmHO_ex_a026", "md_file": "knowledge_base/domains/HO/examples.md", "md_atom_type": "SENTENCE", "md_parent_section": "§HO.1 [Example 1]", "md_verbatim": "**Row 5:** For the first encounter recorded for subject ABC123105, the indication/medical condition for the hospitalization was recorded.", "score": 0.5952, "match_basis": "verbatim_token+domain_route:HO"}, {"md_atom_id": "md_dmHO_ex_a027", "md_file": "knowledge_base/domains/HO/examples.md", "md_atom_type": "SENTENCE", "md_parent_section": "§HO.1 [Example 1]", "md_verbatim": "**Row 6:** For the second encounter recorded for subject ABC123105, the name of the hospital was recorded.", "score": 0.5688, "match_basis": "verbatim_token+domain_route:HO"}, {"md_atom_id": "md_dmHO_ex_a004", "md_file": "knowledge_base/domains/HO/examples.md", "md_atom_type": "SENTENCE", "md_parent_section": "§HO.1 [Example 1]", "md_verbatim": "**Rows 1-2:** Subject ABC123101 was hospitalized and then moved to a nursing home.", "score": 0.562, "match_basis": "verbatim_token+domain_route:HO"}], "candidate_count": 5, "zero_candidate": false}
{"pdf_atom_id": "ig34_p0169_a0018", "pdf_atom_type": "LIST_ITEM", "pdf_source": "SDTMIG_v3.4", "pdf_page": 169, "pdf_parent_section": "§6.2.5 Healthcare Encounters (HO)", "pdf_verbatim": "Row 8: Subject ABC123104 was seen in the cardiac catheterization laboratory.", "figure_ref": null, "candidates": [{"md_atom_id": "md_dmHO_ex_a007", "md_file": "knowledge_base/domains/HO/examples.md", "md_atom_type": "SENTENCE", "md_parent_section": "§HO.1 [Example 1]", "md_verbatim": "**Row 8:** Subject ABC123104 was seen in the cardiac catheterization laboratory.", "score": 0.91, "match_basis": "verbatim_token+domain_route:HO"}, {"md_atom_id": "md_dmHO_ex_a008", "md_file": "knowledge_base/domains/HO/examples.md", "md_atom_type": "SENTENCE", "md_parent_section": "§HO.1 [Example 1]", "md_verbatim": "**Rows 9-12:** Subject ABC123105 and subject ABC123106 were each seen in the cardiac catheterization laboratory and then transferred to another hospital.", "score": 0.6529, "match_basis": "verbatim_token+domain_route:HO"}, {"md_atom_id": "md_dmHO_ex_a021", "md_file": "knowledge_base/domains/HO/examples.md", "md_atom_type": "TABLE_ROW", "md_parent_section": "§HO.1 [Example 1]", "md_verbatim": "| 11 | ABC | HO | ABC123106 | 1 | CARDIAC CATHETERIZATION LABORATORY | FOLLOW-UP | 2011-11-07 | 2011-11-07 | |", "score": 0.6418, "match_basis": "verbatim_token+domain_route:HO"}, {"md_atom_id": "md_dmHO_ex_a018", "md_file": "knowledge_base/domains/HO/examples.md", "md_atom_type": "TABLE_ROW", "md_parent_section": "§HO.1 [Example 1]", "md_verbatim": "| 8 | ABC | HO | ABC123104 | 1 | CARDIAC CATHETERIZATION LABORATORY | TREATMENT | 2011-10-10 | 2011-10-10 | |", "score": 0.6382, "match_basis": "verbatim_token+domain_route:HO"}, {"md_atom_id": "md_dmHO_ex_a019", "md_file": "knowledge_base/domains/HO/examples.md", "md_atom_type": "TABLE_ROW", "md_parent_section": "§HO.1 [Example 1]", "md_verbatim": "| 9 | ABC | HO | ABC123105 | 1 | CARDIAC CATHETERIZATION LABORATORY | TREATMENT | 2011-10-11 | 2011-10-11 | |", "score": 0.6192, "match_basis": "verbatim_token+domain_route:HO"}], "candidate_count": 5, "zero_candidate": false}
{"pdf_atom_id": "ig34_p0169_a0019", "pdf_atom_type": "TABLE_HEADER", "pdf_source": "SDTMIG_v3.4", "pdf_page": 169, "pdf_parent_section": "§6.2.5 Healthcare Encounters (HO)", "pdf_verbatim": "| Row | STUDYID | DOMAIN | USUBJID | HOSEQ | HOTERM | | EPOCH | HOSTDTC | HOENDTC | HODUR |", "figure_ref": null, "candidates": [{"md_atom_id": "md_dmHO_ex_a010", "md_file": "knowledge_base/domains/HO/examples.md", "md_atom_type": "TABLE_HEADER", "md_parent_section": "§HO.1 [Example 1]", "md_verbatim": "| Row | STUDYID | DOMAIN | USUBJID | HOSEQ | HOTERM | EPOCH | HOSTDTC | HOENDTC | HODUR |\n|-----|---------|--------|---------|-------|--------|-------|---------|---------|-------|", "score": 1.0, "match_basis": "verbatim_token+domain_route:HO"}, {"md_atom_id": "md_dmHO_ex_a039", "md_file": "knowledge_base/domains/HO/examples.md", "md_atom_type": "TABLE_HEADER", "md_parent_section": "§HO.2 [Example 2]", "md_verbatim": "| Row | STUDYID | DOMAIN | USUBJID | HOSEQ | HOTERM | HOCAT | HOSTDTC | HOENDTC | HOENRTPT | HOENTPT |\n|-----|---------|--------|---------|-------|--------|-------|---------|---------|----------|---------|", "score": 0.8, "match_basis": "verbatim_token+domain_route:HO"}, {"md_atom_id": "md_dmHO_ex_a029", "md_file": "knowledge_base/domains/HO/examples.md", "md_atom_type": "TABLE_HEADER", "md_parent_section": "§HO.1 [Example 1]", "md_verbatim": "| Row | STUDYID | RDOMAIN | USUBJID | IDVAR | IDVARVAL | QNAM | QLABEL | QVAL | QORIG | QEVAL |\n|-----|---------|---------|---------|-------|----------|------|--------|------|-------|-------|", "score": 0.5636, "match_basis": "verbatim_token+domain_route:HO"}, {"md_atom_id": "md_dmHO_ex_a053", "md_file": "knowledge_base/domains/HO/examples.md", "md_atom_type": "TABLE_HEADER", "md_parent_section": "§HO.2 [Example 2]", "md_verbatim": "| Row | STUDYID | RDOMAIN | USUBJID | IDVAR | IDVARVAL | QNAM | QLABEL | QVAL | QORIG | QEVAL |\n|-----|---------|---------|---------|-------|----------|------|--------|------|-------|-------|", "score": 0.5636, "match_basis": "verbatim_token+domain_route:HO"}, {"md_atom_id": "md_dmHO_ex_a050", "md_file": "knowledge_base/domains/HO/examples.md", "md_atom_type": "TABLE_ROW", "md_parent_section": "§HO.2 [Example 2]", "md_verbatim": "| 11 | ABC | HO | ABC123102 | 4 | SKILLED NURSING FACILITY | FOLLOW-UP CARE | 2011-07-02 | | ONGOING | END OF STUDY |", "score": 0.3738, "match_basis": "verbatim_token+domain_route:HO"}], "candidate_count": 5, "zero_candidate": false}
{"pdf_atom_id": "ig34_p0169_a0020", "pdf_atom_type": "TABLE_ROW", "pdf_source": "SDTMIG_v3.4", "pdf_page": 169, "pdf_parent_section": "§6.2.5 Healthcare Encounters (HO)", "pdf_verbatim": "| 1 | ABC | HO | ABC123101 | 1 | HOSPITAL | | TREATMENT | 2011-06-08 | | |", "figure_ref": null, "candidates": [{"md_atom_id": "md_dmHO_ex_a011", "md_file": "knowledge_base/domains/HO/examples.md", "md_atom_type": "TABLE_ROW", "md_parent_section": "§HO.1 [Example 1]", "md_verbatim": "| 1 | ABC | HO | ABC123101 | 1 | HOSPITAL | TREATMENT | 2011-06-08 | 2011-06-13 | |", "score": 1.0, "match_basis": "verbatim_token+domain_route:HO"}, {"md_atom_id": "md_dmHO_ex_a016", "md_file": "knowledge_base/domains/HO/examples.md", "md_atom_type": "TABLE_ROW", "md_parent_section": "§HO.1 [Example 1]", "md_verbatim": "| 6 | ABC | HO | ABC123103 | 1 | HOSPITAL | TREATMENT | 2011-09-09 | 2011-09-11 | |", "score": 0.9478, "match_basis": "verbatim_token+domain_route:HO"}, {"md_atom_id": "md_dmHO_ex_a017", "md_file": "knowledge_base/domains/HO/examples.md", "md_atom_type": "TABLE_ROW", "md_parent_section": "§HO.1 [Example 1]", "md_verbatim": "| 7 | ABC | HO | ABC123103 | 2 | HOSPITAL | TREATMENT | 2011-09-11 | 2011-09-15 | |", "score": 0.9478, "match_basis": "verbatim_token+domain_route:HO"}, {"md_atom_id": "md_dmHO_ex_a020", "md_file": "knowledge_base/domains/HO/examples.md", "md_atom_type": "TABLE_ROW", "md_parent_section": "§HO.1 [Example 1]", "md_verbatim": "| 10 | ABC | HO | ABC123105 | 2 | HOSPITAL | TREATMENT | 2011-10-11 | 2011-10-15 | |", "score": 0.9478, "match_basis": "verbatim_token+domain_route:HO"}, {"md_atom_id": "md_dmHO_ex_a022", "md_file": "knowledge_base/domains/HO/examples.md", "md_atom_type": "TABLE_ROW", "md_parent_section": "§HO.1 [Example 1]", "md_verbatim": "| 12 | ABC | HO | ABC123106 | 2 | HOSPITAL | FOLLOW-UP | 2011-11-07 | 2011-11-09 | |", "score": 0.7111, "match_basis": "verbatim_token+domain_route:HO"}], "candidate_count": 5, "zero_candidate": false}
{"pdf_atom_id": "ig34_p0169_a0021", "pdf_atom_type": "TABLE_ROW", "pdf_source": "SDTMIG_v3.4", "pdf_page": 169, "pdf_parent_section": "§6.2.5 Healthcare Encounters (HO)", "pdf_verbatim": "| 2 | ABC | HO | ABC123101 | 2 | NURSING HOME | | TREATMENT | 2011-08-06 | 2011-08-08 | P6D |", "figure_ref": null, "candidates": [{"md_atom_id": "md_dmHO_ex_a012", "md_file": "knowledge_base/domains/HO/examples.md", "md_atom_type": "TABLE_ROW", "md_parent_section": "§HO.1 [Example 1]", "md_verbatim": "| 2 | ABC | HO | ABC123101 | 2 | NURSING HOME | TREATMENT | | | P6D |", "score": 0.95, "match_basis": "verbatim_token+domain_route:HO"}, {"md_atom_id": "md_dmHO_ex_a011", "md_file": "knowledge_base/domains/HO/examples.md", "md_atom_type": "TABLE_ROW", "md_parent_section": "§HO.1 [Example 1]", "md_verbatim": "| 1 | ABC | HO | ABC123101 | 1 | HOSPITAL | TREATMENT | 2011-06-08 | 2011-06-13 | |", "score": 0.72, "match_basis": "verbatim_token+domain_route:HO"}, {"md_atom_id": "md_dmHO_ex_a016", "md_file": "knowledge_base/domains/HO/examples.md", "md_atom_type": "TABLE_ROW", "md_parent_section": "§HO.1 [Example 1]", "md_verbatim": "| 6 | ABC | HO | ABC123103 | 1 | HOSPITAL | TREATMENT | 2011-09-09 | 2011-09-11 | |", "score": 0.6903, "match_basis": "verbatim_token+domain_route:HO"}, {"md_atom_id": "md_dmHO_ex_a017", "md_file": "knowledge_base/domains/HO/examples.md", "md_atom_type": "TABLE_ROW", "md_parent_section": "§HO.1 [Example 1]", "md_verbatim": "| 7 | ABC | HO | ABC123103 | 2 | HOSPITAL | TREATMENT | 2011-09-11 | 2011-09-15 | |", "score": 0.6903, "match_basis": "verbatim_token+domain_route:HO"}, {"md_atom_id": "md_dmHO_ex_a020", "md_file": "knowledge_base/domains/HO/examples.md", "md_atom_type": "TABLE_ROW", "md_parent_section": "§HO.1 [Example 1]", "md_verbatim": "| 10 | ABC | HO | ABC123105 | 2 | HOSPITAL | TREATMENT | 2011-10-11 | 2011-10-15 | |", "score": 0.6903, "match_basis": "verbatim_token+domain_route:HO"}], "candidate_count": 5, "zero_candidate": false}
{"pdf_atom_id": "ig34_p0169_a0022", "pdf_atom_type": "TABLE_ROW", "pdf_source": "SDTMIG_v3.4", "pdf_page": 169, "pdf_parent_section": "§6.2.5 Healthcare Encounters (HO)", "pdf_verbatim": "| 3 | ABC | HO | ABC123103 | 1 | GENERAL WARD | | TREATMENT | 2011-08-02 | | |", "figure_ref": null, "candidates": [{"md_atom_id": "md_dmHO_ex_a013", "md_file": "knowledge_base/domains/HO/examples.md", "md_atom_type": "TABLE_ROW", "md_parent_section": "§HO.1 [Example 1]", "md_verbatim": "| 3 | ABC | HO | ABC123102 | 1 | GENERAL WARD | TREATMENT | 2011-08-06 | 2011-08-08 | |", "score": 0.95, "match_basis": "verbatim_token+domain_route:HO"}, {"md_atom_id": "md_dmHO_ex_a016", "md_file": "knowledge_base/domains/HO/examples.md", "md_atom_type": "TABLE_ROW", "md_parent_section": "§HO.1 [Example 1]", "md_verbatim": "| 6 | ABC | HO | ABC123103 | 1 | HOSPITAL | TREATMENT | 2011-09-09 | 2011-09-11 | |", "score": 0.731, "match_basis": "verbatim_token+domain_route:HO"}, {"md_atom_id": "md_dmHO_ex_a017", "md_file": "knowledge_base/domains/HO/examples.md", "md_atom_type": "TABLE_ROW", "md_parent_section": "§HO.1 [Example 1]", "md_verbatim": "| 7 | ABC | HO | ABC123103 | 2 | HOSPITAL | TREATMENT | 2011-09-11 | 2011-09-15 | |", "score": 0.731, "match_basis": "verbatim_token+domain_route:HO"}, {"md_atom_id": "md_dmHO_ex_a011", "md_file": "knowledge_base/domains/HO/examples.md", "md_atom_type": "TABLE_ROW", "md_parent_section": "§HO.1 [Example 1]", "md_verbatim": "| 1 | ABC | HO | ABC123101 | 1 | HOSPITAL | TREATMENT | 2011-06-08 | 2011-06-13 | |", "score": 0.7, "match_basis": "verbatim_token+domain_route:HO"}, {"md_atom_id": "md_dmHO_ex_a020", "md_file": "knowledge_base/domains/HO/examples.md", "md_atom_type": "TABLE_ROW", "md_parent_section": "§HO.1 [Example 1]", "md_verbatim": "| 10 | ABC | HO | ABC123105 | 2 | HOSPITAL | TREATMENT | 2011-10-11 | 2011-10-15 | |", "score": 0.7, "match_basis": "verbatim_token+domain_route:HO"}], "candidate_count": 5, "zero_candidate": false}
{"pdf_atom_id": "ig34_p0169_a0023", "pdf_atom_type": "TABLE_ROW", "pdf_source": "SDTMIG_v3.4", "pdf_page": 169, "pdf_parent_section": "§6.2.5 Healthcare Encounters (HO)", "pdf_verbatim": "| 4 | ABC | HO | ABC123103 | 2 | GENERAL WARD | | TREATMENT | 2011-08-15 | 2011-08-20 | P6D |", "figure_ref": null, "candidates": [{"md_atom_id": "md_dmHO_ex_a013", "md_file": "knowledge_base/domains/HO/examples.md", "md_atom_type": "TABLE_ROW", "md_parent_section": "§HO.1 [Example 1]", "md_verbatim": "| 3 | ABC | HO | ABC123102 | 1 | GENERAL WARD | TREATMENT | 2011-08-06 | 2011-08-08 | |", "score": 0.928, "match_basis": "verbatim_token+domain_route:HO"}, {"md_atom_id": "md_dmHO_ex_a016", "md_file": "knowledge_base/domains/HO/examples.md", "md_atom_type": "TABLE_ROW", "md_parent_section": "§HO.1 [Example 1]", "md_verbatim": "| 6 | ABC | HO | ABC123103 | 1 | HOSPITAL | TREATMENT | 2011-09-09 | 2011-09-11 | |", "score": 0.72, "match_basis": "verbatim_token+domain_route:HO"}, {"md_atom_id": "md_dmHO_ex_a017", "md_file": "knowledge_base/domains/HO/examples.md", "md_atom_type": "TABLE_ROW", "md_parent_section": "§HO.1 [Example 1]", "md_verbatim": "| 7 | ABC | HO | ABC123103 | 2 | HOSPITAL | TREATMENT | 2011-09-11 | 2011-09-15 | |", "score": 0.72, "match_basis": "verbatim_token+domain_route:HO"}, {"md_atom_id": "md_dmHO_ex_a011", "md_file": "knowledge_base/domains/HO/examples.md", "md_atom_type": "TABLE_ROW", "md_parent_section": "§HO.1 [Example 1]", "md_verbatim": "| 1 | ABC | HO | ABC123101 | 1 | HOSPITAL | TREATMENT | 2011-06-08 | 2011-06-13 | |", "score": 0.6903, "match_basis": "verbatim_token+domain_route:HO"}, {"md_atom_id": "md_dmHO_ex_a020", "md_file": "knowledge_base/domains/HO/examples.md", "md_atom_type": "TABLE_ROW", "md_parent_section": "§HO.1 [Example 1]", "md_verbatim": "| 10 | ABC | HO | ABC123105 | 2 | HOSPITAL | TREATMENT | 2011-10-11 | 2011-10-15 | |", "score": 0.6903, "match_basis": "verbatim_token+domain_route:HO"}], "candidate_count": 5, "zero_candidate": false}
{"pdf_atom_id": "ig34_p0169_a0024", "pdf_atom_type": "TABLE_ROW", "pdf_source": "SDTMIG_v3.4", "pdf_page": 169, "pdf_parent_section": "§6.2.5 Healthcare Encounters (HO)", "pdf_verbatim": "| 5 | ABC | HO | ABC123105 | 1 | GENERAL WARD | | TREATMENT | 2011-09-09 | 2011-09-11 | |", "figure_ref": null, "candidates": [{"md_atom_id": "md_dmHO_ex_a013", "md_file": "knowledge_base/domains/HO/examples.md", "md_atom_type": "TABLE_ROW", "md_parent_section": "§HO.1 [Example 1]", "md_verbatim": "| 3 | ABC | HO | ABC123102 | 1 | GENERAL WARD | TREATMENT | 2011-08-06 | 2011-08-08 | |", "score": 0.95, "match_basis": "verbatim_token+domain_route:HO"}, {"md_atom_id": "md_dmHO_ex_a020", "md_file": "knowledge_base/domains/HO/examples.md", "md_atom_type": "TABLE_ROW", "md_parent_section": "§HO.1 [Example 1]", "md_verbatim": "| 10 | ABC | HO | ABC123105 | 2 | HOSPITAL | TREATMENT | 2011-10-11 | 2011-10-15 | |", "score": 0.731, "match_basis": "verbatim_token+domain_route:HO"}, {"md_atom_id": "md_dmHO_ex_a011", "md_file": "knowledge_base/domains/HO/examples.md", "md_atom_type": "TABLE_ROW", "md_parent_section": "§HO.1 [Example 1]", "md_verbatim": "| 1 | ABC | HO | ABC123101 | 1 | HOSPITAL | TREATMENT | 2011-06-08 | 2011-06-13 | |", "score": 0.7, "match_basis": "verbatim_token+domain_route:HO"}, {"md_atom_id": "md_dmHO_ex_a016", "md_file": "knowledge_base/domains/HO/examples.md", "md_atom_type": "TABLE_ROW", "md_parent_section": "§HO.1 [Example 1]", "md_verbatim": "| 6 | ABC | HO | ABC123103 | 1 | HOSPITAL | TREATMENT | 2011-09-09 | 2011-09-11 | |", "score": 0.7, "match_basis": "verbatim_token+domain_route:HO"}, {"md_atom_id": "md_dmHO_ex_a017", "md_file": "knowledge_base/domains/HO/examples.md", "md_atom_type": "TABLE_ROW", "md_parent_section": "§HO.1 [Example 1]", "md_verbatim": "| 7 | ABC | HO | ABC123103 | 2 | HOSPITAL | TREATMENT | 2011-09-11 | 2011-09-15 | |", "score": 0.7, "match_basis": "verbatim_token+domain_route:HO"}], "candidate_count": 5, "zero_candidate": false}
{"pdf_atom_id": "ig34_p0169_a0025", "pdf_atom_type": "TABLE_ROW", "pdf_source": "SDTMIG_v3.4", "pdf_page": 169, "pdf_parent_section": "§6.2.5 Healthcare Encounters (HO)", "pdf_verbatim": "| 6 | ABC | HO | ABC123105 | 1 | REHABILITATION FACILITY | | TREATMENT | 2011-08-15 | 2011-08-20 | |", "figure_ref": null, "candidates": [{"md_atom_id": "md_dmHO_ex_a015", "md_file": "knowledge_base/domains/HO/examples.md", "md_atom_type": "TABLE_ROW", "md_parent_section": "§HO.1 [Example 1]", "md_verbatim": "| 5 | ABC | HO | ABC123102 | 3 | REHABILITATION FACILITY | TREATMENT | 2011-08-15 | 2011-08-20 | |", "score": 0.9636, "match_basis": "verbatim_token+domain_route:HO"}, {"md_atom_id": "md_dmHO_ex_a042", "md_file": "knowledge_base/domains/HO/examples.md", "md_atom_type": "TABLE_ROW", "md_parent_section": "§HO.2 [Example 2]", "md_verbatim": "| 3 | ABC | HO | ABC123101 | 3 | REHABILITATION FACILITY | FOLLOW-UP CARE | 2011-06-12 | 2011-06-22 | | |", "score": 0.7692, "match_basis": "verbatim_token+domain_route:HO"}, {"md_atom_id": "md_dmHO_ex_a020", "md_file": "knowledge_base/domains/HO/examples.md", "md_atom_type": "TABLE_ROW", "md_parent_section": "§HO.1 [Example 1]", "md_verbatim": "| 10 | ABC | HO | ABC123105 | 2 | HOSPITAL | TREATMENT | 2011-10-11 | 2011-10-15 | |", "score": 0.6757, "match_basis": "verbatim_token+domain_route:HO"}, {"md_atom_id": "md_dmHO_ex_a031", "md_file": "knowledge_base/domains/HO/examples.md", "md_atom_type": "TABLE_ROW", "md_parent_section": "§HO.1 [Example 1]", "md_verbatim": "| 2 | ABC | HO | ABC123101 | HOSEQ | 2 | HOREAS | Reason | REHABILITATION | CRF | |", "score": 0.6714, "match_basis": "verbatim_token+domain_route:HO"}, {"md_atom_id": "md_dmHO_ex_a011", "md_file": "knowledge_base/domains/HO/examples.md", "md_atom_type": "TABLE_ROW", "md_parent_section": "§HO.1 [Example 1]", "md_verbatim": "| 1 | ABC | HO | ABC123101 | 1 | HOSPITAL | TREATMENT | 2011-06-08 | 2011-06-13 | |", "score": 0.6526, "match_basis": "verbatim_token+domain_route:HO"}], "candidate_count": 5, "zero_candidate": false}
{"pdf_atom_id": "ig34_p0169_a0026", "pdf_atom_type": "TABLE_ROW", "pdf_source": "SDTMIG_v3.4", "pdf_page": 169, "pdf_parent_section": "§6.2.5 Healthcare Encounters (HO)", "pdf_verbatim": "| 7 | ABC | HO | ABC123103 | 2 | HOSPITAL | | TREATMENT | 2011-09-11 | 2011-09-15 | |", "figure_ref": null, "candidates": [{"md_atom_id": "md_dmHO_ex_a016", "md_file": "knowledge_base/domains/HO/examples.md", "md_atom_type": "TABLE_ROW", "md_parent_section": "§HO.1 [Example 1]", "md_verbatim": "| 6 | ABC | HO | ABC123103 | 1 | HOSPITAL | TREATMENT | 2011-09-09 | 2011-09-11 | |", "score": 1.0, "match_basis": "verbatim_token+domain_route:HO"}, {"md_atom_id": "md_dmHO_ex_a017", "md_file": "knowledge_base/domains/HO/examples.md", "md_atom_type": "TABLE_ROW", "md_parent_section": "§HO.1 [Example 1]", "md_verbatim": "| 7 | ABC | HO | ABC123103 | 2 | HOSPITAL | TREATMENT | 2011-09-11 | 2011-09-15 | |", "score": 1.0, "match_basis": "verbatim_token+domain_route:HO"}, {"md_atom_id": "md_dmHO_ex_a011", "md_file": "knowledge_base/domains/HO/examples.md", "md_atom_type": "TABLE_ROW", "md_parent_section": "§HO.1 [Example 1]", "md_verbatim": "| 1 | ABC | HO | ABC123101 | 1 | HOSPITAL | TREATMENT | 2011-06-08 | 2011-06-13 | |", "score": 0.9478, "match_basis": "verbatim_token+domain_route:HO"}, {"md_atom_id": "md_dmHO_ex_a020", "md_file": "knowledge_base/domains/HO/examples.md", "md_atom_type": "TABLE_ROW", "md_parent_section": "§HO.1 [Example 1]", "md_verbatim": "| 10 | ABC | HO | ABC123105 | 2 | HOSPITAL | TREATMENT | 2011-10-11 | 2011-10-15 | |", "score": 0.9478, "match_basis": "verbatim_token+domain_route:HO"}, {"md_atom_id": "md_dmHO_ex_a022", "md_file": "knowledge_base/domains/HO/examples.md", "md_atom_type": "TABLE_ROW", "md_parent_section": "§HO.1 [Example 1]", "md_verbatim": "| 12 | ABC | HO | ABC123106 | 2 | HOSPITAL | FOLLOW-UP | 2011-11-07 | 2011-11-09 | |", "score": 0.7111, "match_basis": "verbatim_token+domain_route:HO"}], "candidate_count": 5, "zero_candidate": false}
{"pdf_atom_id": "ig34_p0169_a0027", "pdf_atom_type": "TABLE_ROW", "pdf_source": "SDTMIG_v3.4", "pdf_page": 169, "pdf_parent_section": "§6.2.5 Healthcare Encounters (HO)", "pdf_verbatim": "| 8 | ABC | HO | ABC123104 | 1 | CARDIAC CATHETERIZATION LABORATORY | | TREATMENT | 2011-10-10 | 2011-10-10 | |", "figure_ref": null, "candidates": [{"md_atom_id": "md_dmHO_ex_a018", "md_file": "knowledge_base/domains/HO/examples.md", "md_atom_type": "TABLE_ROW", "md_parent_section": "§HO.1 [Example 1]", "md_verbatim": "| 8 | ABC | HO | ABC123104 | 1 | CARDIAC CATHETERIZATION LABORATORY | TREATMENT | 2011-10-10 | 2011-10-10 | |", "score": 1.0, "match_basis": "verbatim_token+domain_route:HO"}, {"md_atom_id": "md_dmHO_ex_a019", "md_file": "knowledge_base/domains/HO/examples.md", "md_atom_type": "TABLE_ROW", "md_parent_section": "§HO.1 [Example 1]", "md_verbatim": "| 9 | ABC | HO | ABC123105 | 1 | CARDIAC CATHETERIZATION LABORATORY | TREATMENT | 2011-10-11 | 2011-10-11 | |", "score": 0.9721, "match_basis": "verbatim_token+domain_route:HO"}, {"md_atom_id": "md_dmHO_ex_a021", "md_file": "knowledge_base/domains/HO/examples.md", "md_atom_type": "TABLE_ROW", "md_parent_section": "§HO.1 [Example 1]", "md_verbatim": "| 11 | ABC | HO | ABC123106 | 1 | CARDIAC CATHETERIZATION LABORATORY | FOLLOW-UP | 2011-11-07 | 2011-11-07 | |", "score": 0.834, "match_basis": "verbatim_token+domain_route:HO"}, {"md_atom_id": "md_dmHO_ex_a007", "md_file": "knowledge_base/domains/HO/examples.md", "md_atom_type": "SENTENCE", "md_parent_section": "§HO.1 [Example 1]", "md_verbatim": "**Row 8:** Subject ABC123104 was seen in the cardiac catheterization laboratory.", "score": 0.6082, "match_basis": "verbatim_token+domain_route:HO"}, {"md_atom_id": "md_dmHO_ex_a013", "md_file": "knowledge_base/domains/HO/examples.md", "md_atom_type": "TABLE_ROW", "md_parent_section": "§HO.1 [Example 1]", "md_verbatim": "| 3 | ABC | HO | ABC123102 | 1 | GENERAL WARD | TREATMENT | 2011-08-06 | 2011-08-08 | |", "score": 0.5959, "match_basis": "verbatim_token+domain_route:HO"}], "candidate_count": 5, "zero_candidate": false}
{"pdf_atom_id": "ig34_p0169_a0028", "pdf_atom_type": "TABLE_ROW", "pdf_source": "SDTMIG_v3.4", "pdf_page": 169, "pdf_parent_section": "§6.2.5 Healthcare Encounters (HO)", "pdf_verbatim": "| 9 | ABC | HO | ABC123105 | 1 | CARDIAC CATHETERIZATION LABORATORY | | TREATMENT | 2011-10-11 | 2011-10-11 | |", "figure_ref": null, "candidates": [{"md_atom_id": "md_dmHO_ex_a019", "md_file": "knowledge_base/domains/HO/examples.md", "md_atom_type": "TABLE_ROW", "md_parent_section": "§HO.1 [Example 1]", "md_verbatim": "| 9 | ABC | HO | ABC123105 | 1 | CARDIAC CATHETERIZATION LABORATORY | TREATMENT | 2011-10-11 | 2011-10-11 | |", "score": 1.0, "match_basis": "verbatim_token+domain_route:HO"}, {"md_atom_id": "md_dmHO_ex_a018", "md_file": "knowledge_base/domains/HO/examples.md", "md_atom_type": "TABLE_ROW", "md_parent_section": "§HO.1 [Example 1]", "md_verbatim": "| 8 | ABC | HO | ABC123104 | 1 | CARDIAC CATHETERIZATION LABORATORY | TREATMENT | 2011-10-10 | 2011-10-10 | |", "score": 0.9721, "match_basis": "verbatim_token+domain_route:HO"}, {"md_atom_id": "md_dmHO_ex_a021", "md_file": "knowledge_base/domains/HO/examples.md", "md_atom_type": "TABLE_ROW", "md_parent_section": "§HO.1 [Example 1]", "md_verbatim": "| 11 | ABC | HO | ABC123106 | 1 | CARDIAC CATHETERIZATION LABORATORY | FOLLOW-UP | 2011-11-07 | 2011-11-07 | |", "score": 0.834, "match_basis": "verbatim_token+domain_route:HO"}, {"md_atom_id": "md_dmHO_ex_a020", "md_file": "knowledge_base/domains/HO/examples.md", "md_atom_type": "TABLE_ROW", "md_parent_section": "§HO.1 [Example 1]", "md_verbatim": "| 10 | ABC | HO | ABC123105 | 2 | HOSPITAL | TREATMENT | 2011-10-11 | 2011-10-15 | |", "score": 0.6, "match_basis": "verbatim_token+domain_route:HO"}, {"md_atom_id": "md_dmHO_ex_a013", "md_file": "knowledge_base/domains/HO/examples.md", "md_atom_type": "TABLE_ROW", "md_parent_section": "§HO.1 [Example 1]", "md_verbatim": "| 3 | ABC | HO | ABC123102 | 1 | GENERAL WARD | TREATMENT | 2011-08-06 | 2011-08-08 | |", "score": 0.5959, "match_basis": "verbatim_token+domain_route:HO"}], "candidate_count": 5, "zero_candidate": false}
{"pdf_atom_id": "ig34_p0169_a0029", "pdf_atom_type": "TABLE_ROW", "pdf_source": "SDTMIG_v3.4", "pdf_page": 169, "pdf_parent_section": "§6.2.5 Healthcare Encounters (HO)", "pdf_verbatim": "| 10 | ABC | HO | ABC123105 | 2 | HOSPITAL | | TREATMENT | 2011-10-11 | 2011-10-16 | |", "figure_ref": null, "candidates": [{"md_atom_id": "md_dmHO_ex_a020", "md_file": "knowledge_base/domains/HO/examples.md", "md_atom_type": "TABLE_ROW", "md_parent_section": "§HO.1 [Example 1]", "md_verbatim": "| 10 | ABC | HO | ABC123105 | 2 | HOSPITAL | TREATMENT | 2011-10-11 | 2011-10-15 | |", "score": 1.0, "match_basis": "verbatim_token+domain_route:HO"}, {"md_atom_id": "md_dmHO_ex_a011", "md_file": "knowledge_base/domains/HO/examples.md", "md_atom_type": "TABLE_ROW", "md_parent_section": "§HO.1 [Example 1]", "md_verbatim": "| 1 | ABC | HO | ABC123101 | 1 | HOSPITAL | TREATMENT | 2011-06-08 | 2011-06-13 | |", "score": 0.9478, "match_basis": "verbatim_token+domain_route:HO"}, {"md_atom_id": "md_dmHO_ex_a016", "md_file": "knowledge_base/domains/HO/examples.md", "md_atom_type": "TABLE_ROW", "md_parent_section": "§HO.1 [Example 1]", "md_verbatim": "| 6 | ABC | HO | ABC123103 | 1 | HOSPITAL | TREATMENT | 2011-09-09 | 2011-09-11 | |", "score": 0.9478, "match_basis": "verbatim_token+domain_route:HO"}, {"md_atom_id": "md_dmHO_ex_a017", "md_file": "knowledge_base/domains/HO/examples.md", "md_atom_type": "TABLE_ROW", "md_parent_section": "§HO.1 [Example 1]", "md_verbatim": "| 7 | ABC | HO | ABC123103 | 2 | HOSPITAL | TREATMENT | 2011-09-11 | 2011-09-15 | |", "score": 0.9478, "match_basis": "verbatim_token+domain_route:HO"}, {"md_atom_id": "md_dmHO_ex_a022", "md_file": "knowledge_base/domains/HO/examples.md", "md_atom_type": "TABLE_ROW", "md_parent_section": "§HO.1 [Example 1]", "md_verbatim": "| 12 | ABC | HO | ABC123106 | 2 | HOSPITAL | FOLLOW-UP | 2011-11-07 | 2011-11-09 | |", "score": 0.7111, "match_basis": "verbatim_token+domain_route:HO"}], "candidate_count": 5, "zero_candidate": false}
{"pdf_atom_id": "ig34_p0169_a0030", "pdf_atom_type": "TABLE_ROW", "pdf_source": "SDTMIG_v3.4", "pdf_page": 169, "pdf_parent_section": "§6.2.5 Healthcare Encounters (HO)", "pdf_verbatim": "| 11 | ABC | HO | ABC123106 | 2 | HOSPITAL | | FOLLOW-UP | 2011-11-07 | 2011-11-09 | |", "figure_ref": null, "candidates": [{"md_atom_id": "md_dmHO_ex_a022", "md_file": "knowledge_base/domains/HO/examples.md", "md_atom_type": "TABLE_ROW", "md_parent_section": "§HO.1 [Example 1]", "md_verbatim": "| 12 | ABC | HO | ABC123106 | 2 | HOSPITAL | FOLLOW-UP | 2011-11-07 | 2011-11-09 | |", "score": 1.0, "match_basis": "verbatim_token+domain_route:HO"}, {"md_atom_id": "md_dmHO_ex_a011", "md_file": "knowledge_base/domains/HO/examples.md", "md_atom_type": "TABLE_ROW", "md_parent_section": "§HO.1 [Example 1]", "md_verbatim": "| 1 | ABC | HO | ABC123101 | 1 | HOSPITAL | TREATMENT | 2011-06-08 | 2011-06-13 | |", "score": 0.7111, "match_basis": "verbatim_token+domain_route:HO"}, {"md_atom_id": "md_dmHO_ex_a016", "md_file": "knowledge_base/domains/HO/examples.md", "md_atom_type": "TABLE_ROW", "md_parent_section": "§HO.1 [Example 1]", "md_verbatim": "| 6 | ABC | HO | ABC123103 | 1 | HOSPITAL | TREATMENT | 2011-09-09 | 2011-09-11 | |", "score": 0.7111, "match_basis": "verbatim_token+domain_route:HO"}, {"md_atom_id": "md_dmHO_ex_a017", "md_file": "knowledge_base/domains/HO/examples.md", "md_atom_type": "TABLE_ROW", "md_parent_section": "§HO.1 [Example 1]", "md_verbatim": "| 7 | ABC | HO | ABC123103 | 2 | HOSPITAL | TREATMENT | 2011-09-11 | 2011-09-15 | |", "score": 0.7111, "match_basis": "verbatim_token+domain_route:HO"}, {"md_atom_id": "md_dmHO_ex_a020", "md_file": "knowledge_base/domains/HO/examples.md", "md_atom_type": "TABLE_ROW", "md_parent_section": "§HO.1 [Example 1]", "md_verbatim": "| 10 | ABC | HO | ABC123105 | 2 | HOSPITAL | TREATMENT | 2011-10-11 | 2011-10-15 | |", "score": 0.7111, "match_basis": "verbatim_token+domain_route:HO"}], "candidate_count": 5, "zero_candidate": false}
{"pdf_atom_id": "ig34_p0169_a0031", "pdf_atom_type": "LIST_ITEM", "pdf_source": "SDTMIG_v3.4", "pdf_page": 169, "pdf_parent_section": "§6.2.5 Healthcare Encounters (HO)", "pdf_verbatim": "Row 1: For the first encounter recorded for subject ABC123101, the indication/medical condition for hospitalization was recorded.", "figure_ref": null, "candidates": [{"md_atom_id": "md_dmHO_ex_a023", "md_file": "knowledge_base/domains/HO/examples.md", "md_atom_type": "SENTENCE", "md_parent_section": "§HO.1 [Example 1]", "md_verbatim": "**Row 1:** For the first encounter recorded for subject ABC123101, the indication/medical condition for hospitalization was recorded.", "score": 0.91, "match_basis": "verbatim_token+domain_route:HO"}, {"md_atom_id": "md_dmHO_ex_a026", "md_file": "knowledge_base/domains/HO/examples.md", "md_atom_type": "SENTENCE", "md_parent_section": "§HO.1 [Example 1]", "md_verbatim": "**Row 5:** For the first encounter recorded for subject ABC123105, the indication/medical condition for the hospitalization was recorded.", "score": 0.8893, "match_basis": "verbatim_token+domain_route:HO"}, {"md_atom_id": "md_dmHO_ex_a027", "md_file": "knowledge_base/domains/HO/examples.md", "md_atom_type": "SENTENCE", "md_parent_section": "§HO.1 [Example 1]", "md_verbatim": "**Row 6:** For the second encounter recorded for subject ABC123105, the name of the hospital was recorded.", "score": 0.6641, "match_basis": "verbatim_token+domain_route:HO"}, {"md_atom_id": "md_dmHO_ex_a051", "md_file": "knowledge_base/domains/HO/examples.md", "md_atom_type": "SENTENCE", "md_parent_section": "§HO.2 [Example 2]", "md_verbatim": "The indication/medical condition for subject ABC123101's repeat hospitalization was represented as a supplemental qualifier.", "score": 0.61, "match_basis": "verbatim_token+domain_route:HO"}, {"md_atom_id": "md_dmHO_ex_a006", "md_file": "knowledge_base/domains/HO/examples.md", "md_atom_type": "SENTENCE", "md_parent_section": "§HO.1 [Example 1]", "md_verbatim": "**Rows 6-7:** Subject ABC123103 has 2 hospitalization records.", "score": 0.5952, "match_basis": "verbatim_token+domain_route:HO"}], "candidate_count": 5, "zero_candidate": false}
{"pdf_atom_id": "ig34_p0169_a0032", "pdf_atom_type": "LIST_ITEM", "pdf_source": "SDTMIG_v3.4", "pdf_page": 169, "pdf_parent_section": "§6.2.5 Healthcare Encounters (HO)", "pdf_verbatim": "Row 2: For the second encounter recorded for subject ABC123101, the reason for admission to a nursing home was for rehabilitation.", "figure_ref": null, "candidates": [{"md_atom_id": "md_dmHO_ex_a024", "md_file": "knowledge_base/domains/HO/examples.md", "md_atom_type": "SENTENCE", "md_parent_section": "§HO.1 [Example 1]", "md_verbatim": "**Row 2:** For the second encounter recorded for subject ABC123101, the reason for admission to a nursing home was for rehabilitation.", "score": 0.91, "match_basis": "verbatim_token+domain_route:HO"}, {"md_atom_id": "md_dmHO_ex_a027", "md_file": "knowledge_base/domains/HO/examples.md", "md_atom_type": "SENTENCE", "md_parent_section": "§HO.1 [Example 1]", "md_verbatim": "**Row 6:** For the second encounter recorded for subject ABC123105, the name of the hospital was recorded.", "score": 0.5883, "match_basis": "verbatim_token+domain_route:HO"}, {"md_atom_id": "md_dmHO_ex_a023", "md_file": "knowledge_base/domains/HO/examples.md", "md_atom_type": "SENTENCE", "md_parent_section": "§HO.1 [Example 1]", "md_verbatim": "**Row 1:** For the first encounter recorded for subject ABC123101, the indication/medical condition for hospitalization was recorded.", "score": 0.563, "match_basis": "verbatim_token+domain_route:HO"}, {"md_atom_id": "md_dmHO_ex_a026", "md_file": "knowledge_base/domains/HO/examples.md", "md_atom_type": "SENTENCE", "md_parent_section": "§HO.1 [Example 1]", "md_verbatim": "**Row 5:** For the first encounter recorded for subject ABC123105, the indication/medical condition for the hospitalization was recorded.", "score": 0.5529, "match_basis": "verbatim_token+domain_route:HO"}, {"md_atom_id": "md_dmHO_ex_a025", "md_file": "knowledge_base/domains/HO/examples.md", "md_atom_type": "SENTENCE", "md_parent_section": "§HO.1 [Example 1]", "md_verbatim": "**Rows 3-4:** For the 2 encounters recorded for subject ABC123103, the names of the facilities were recorded.", "score": 0.542, "match_basis": "verbatim_token+domain_route:HO"}], "candidate_count": 5, "zero_candidate": false}
{"pdf_atom_id": "ig34_p0169_a0033", "pdf_atom_type": "LIST_ITEM", "pdf_source": "SDTMIG_v3.4", "pdf_page": 169, "pdf_parent_section": "§6.2.5 Healthcare Encounters (HO)", "pdf_verbatim": "Rows 3-4: For the 2 encounters recorded for subject ABC123103, the names of the facilities were recorded.", "figure_ref": null, "candidates": [{"md_atom_id": "md_dmHO_ex_a025", "md_file": "knowledge_base/domains/HO/examples.md", "md_atom_type": "SENTENCE", "md_parent_section": "§HO.1 [Example 1]", "md_verbatim": "**Rows 3-4:** For the 2 encounters recorded for subject ABC123103, the names of the facilities were recorded.", "score": 0.91, "match_basis": "verbatim_token+domain_route:HO"}, {"md_atom_id": "md_dmHO_ex_a027", "md_file": "knowledge_base/domains/HO/examples.md", "md_atom_type": "SENTENCE", "md_parent_section": "§HO.1 [Example 1]", "md_verbatim": "**Row 6:** For the second encounter recorded for subject ABC123105, the name of the hospital was recorded.", "score": 0.6322, "match_basis": "verbatim_token+domain_route:HO"}, {"md_atom_id": "md_dmHO_ex_a023", "md_file": "knowledge_base/domains/HO/examples.md", "md_atom_type": "SENTENCE", "md_parent_section": "§HO.1 [Example 1]", "md_verbatim": "**Row 1:** For the first encounter recorded for subject ABC123101, the indication/medical condition for hospitalization was recorded.", "score": 0.5433, "match_basis": "verbatim_token+domain_route:HO"}, {"md_atom_id": "md_dmHO_ex_a026", "md_file": "knowledge_base/domains/HO/examples.md", "md_atom_type": "SENTENCE", "md_parent_section": "§HO.1 [Example 1]", "md_verbatim": "**Row 5:** For the first encounter recorded for subject ABC123105, the indication/medical condition for the hospitalization was recorded.", "score": 0.5433, "match_basis": "verbatim_token+domain_route:HO"}, {"md_atom_id": "md_dmHO_ex_a024", "md_file": "knowledge_base/domains/HO/examples.md", "md_atom_type": "SENTENCE", "md_parent_section": "§HO.1 [Example 1]", "md_verbatim": "**Row 2:** For the second encounter recorded for subject ABC123101, the reason for admission to a nursing home was for rehabilitation.", "score": 0.542, "match_basis": "verbatim_token+domain_route:HO"}], "candidate_count": 5, "zero_candidate": false}
{"pdf_atom_id": "ig34_p0169_a0034", "pdf_atom_type": "LIST_ITEM", "pdf_source": "SDTMIG_v3.4", "pdf_page": 169, "pdf_parent_section": "§6.2.5 Healthcare Encounters (HO)", "pdf_verbatim": "Row 5: For the first encounter for subject ABC123105, the indication/medical condition for the hospitalization was recorded.", "figure_ref": null, "candidates": [{"md_atom_id": "md_dmHO_ex_a026", "md_file": "knowledge_base/domains/HO/examples.md", "md_atom_type": "SENTENCE", "md_parent_section": "§HO.1 [Example 1]", "md_verbatim": "**Row 5:** For the first encounter recorded for subject ABC123105, the indication/medical condition for the hospitalization was recorded.", "score": 0.91, "match_basis": "verbatim_token+domain_route:HO"}, {"md_atom_id": "md_dmHO_ex_a023", "md_file": "knowledge_base/domains/HO/examples.md", "md_atom_type": "SENTENCE", "md_parent_section": "§HO.1 [Example 1]", "md_verbatim": "**Row 1:** For the first encounter recorded for subject ABC123101, the indication/medical condition for hospitalization was recorded.", "score": 0.8893, "match_basis": "verbatim_token+domain_route:HO"}, {"md_atom_id": "md_dmHO_ex_a027", "md_file": "knowledge_base/domains/HO/examples.md", "md_atom_type": "SENTENCE", "md_parent_section": "§HO.1 [Example 1]", "md_verbatim": "**Row 6:** For the second encounter recorded for subject ABC123105, the name of the hospital was recorded.", "score": 0.68, "match_basis": "verbatim_token+domain_route:HO"}, {"md_atom_id": "md_dmHO_ex_a051", "md_file": "knowledge_base/domains/HO/examples.md", "md_atom_type": "SENTENCE", "md_parent_section": "§HO.2 [Example 2]", "md_verbatim": "The indication/medical condition for subject ABC123101's repeat hospitalization was represented as a supplemental qualifier.", "score": 0.5992, "match_basis": "verbatim_token+domain_route:HO"}, {"md_atom_id": "md_dmHO_ex_a006", "md_file": "knowledge_base/domains/HO/examples.md", "md_atom_type": "SENTENCE", "md_parent_section": "§HO.1 [Example 1]", "md_verbatim": "**Rows 6-7:** Subject ABC123103 has 2 hospitalization records.", "score": 0.5952, "match_basis": "verbatim_token+domain_route:HO"}], "candidate_count": 5, "zero_candidate": false}
{"pdf_atom_id": "ig34_p0169_a0035", "pdf_atom_type": "LIST_ITEM", "pdf_source": "SDTMIG_v3.4", "pdf_page": 169, "pdf_parent_section": "§6.2.5 Healthcare Encounters (HO)", "pdf_verbatim": "Row 6: For the second encounter for subject ABC123105, the name of the hospital was recorded.", "figure_ref": null, "candidates": [{"md_atom_id": "md_dmHO_ex_a027", "md_file": "knowledge_base/domains/HO/examples.md", "md_atom_type": "SENTENCE", "md_parent_section": "§HO.1 [Example 1]", "md_verbatim": "**Row 6:** For the second encounter recorded for subject ABC123105, the name of the hospital was recorded.", "score": 0.91, "match_basis": "verbatim_token+domain_route:HO"}, {"md_atom_id": "md_dmHO_ex_a026", "md_file": "knowledge_base/domains/HO/examples.md", "md_atom_type": "SENTENCE", "md_parent_section": "§HO.1 [Example 1]", "md_verbatim": "**Row 5:** For the first encounter recorded for subject ABC123105, the indication/medical condition for the hospitalization was recorded.", "score": 0.68, "match_basis": "verbatim_token+domain_route:HO"}, {"md_atom_id": "md_dmHO_ex_a023", "md_file": "knowledge_base/domains/HO/examples.md", "md_atom_type": "SENTENCE", "md_parent_section": "§HO.1 [Example 1]", "md_verbatim": "**Row 1:** For the first encounter recorded for subject ABC123101, the indication/medical condition for hospitalization was recorded.", "score": 0.6641, "match_basis": "verbatim_token+domain_route:HO"}, {"md_atom_id": "md_dmHO_ex_a025", "md_file": "knowledge_base/domains/HO/examples.md", "md_atom_type": "SENTENCE", "md_parent_section": "§HO.1 [Example 1]", "md_verbatim": "**Rows 3-4:** For the 2 encounters recorded for subject ABC123103, the names of the facilities were recorded.", "score": 0.6322, "match_basis": "verbatim_token+domain_route:HO"}, {"md_atom_id": "md_dmHO_ex_a024", "md_file": "knowledge_base/domains/HO/examples.md", "md_atom_type": "SENTENCE", "md_parent_section": "§HO.1 [Example 1]", "md_verbatim": "**Row 2:** For the second encounter recorded for subject ABC123101, the reason for admission to a nursing home was for rehabilitation.", "score": 0.5883, "match_basis": "verbatim_token+domain_route:HO"}], "candidate_count": 5, "zero_candidate": false}
{"pdf_atom_id": "ig34_p0169_a0036", "pdf_atom_type": "HEADING", "pdf_source": "SDTMIG_v3.4", "pdf_page": 169, "pdf_parent_section": "§6.2.5 Healthcare Encounters (HO)", "pdf_verbatim": "Example 2", "figure_ref": null, "candidates": [{"md_atom_id": "md_dmHO_ex_a002", "md_file": "knowledge_base/domains/HO/examples.md", "md_atom_type": "HEADING", "md_parent_section": "§HO [HO — Examples]", "md_verbatim": "## Example 1", "score": 1.0, "match_basis": "verbatim_token+domain_route:HO"}, {"md_atom_id": "md_dmHO_ex_a036", "md_file": "knowledge_base/domains/HO/examples.md", "md_atom_type": "HEADING", "md_parent_section": "§HO [HO — Examples]", "md_verbatim": "## Example 2", "score": 1.0, "match_basis": "verbatim_token+domain_route:HO"}, {"md_atom_id": "md_dmHO_ex_a001", "md_file": "knowledge_base/domains/HO/examples.md", "md_atom_type": "HEADING", "md_parent_section": "§HO [HO — Examples]", "md_verbatim": "# HO — Examples", "score": 0.9, "match_basis": "verbatim_token+domain_route:HO"}, {"md_atom_id": "md_dmHO_assn_a001", "md_file": "knowledge_base/domains/HO/assumptions.md", "md_atom_type": "HEADING", "md_parent_section": "§HO [HO — Assumptions]", "md_verbatim": "# HO — Assumptions", "score": 0.4, "match_basis": "verbatim_token+domain_route:HO"}], "candidate_count": 4, "zero_candidate": false}
{"pdf_atom_id": "ig34_p0170_a0001", "pdf_atom_type": "SENTENCE", "pdf_source": "SDTMIG_v3.4", "pdf_page": 170, "pdf_parent_section": "§6.2.5 Healthcare Encounters (HO)", "pdf_verbatim": "In this example, the dates of an initial hospitalization are collected as well as the date/time of ICU stay.", "figure_ref": null, "candidates": [{"md_atom_id": "md_dmHO_ex_a037", "md_file": "knowledge_base/domains/HO/examples.md", "md_atom_type": "SENTENCE", "md_parent_section": "§HO.2 [Example 2]", "md_verbatim": "In this example, the dates of an initial hospitalization are collected as well as the date/time of ICU stay. Subsequent to discharge from the initial hospitalization, follow-up healthcare encounters, including admission to a rehabilitation facility, visits with healthcare providers, and home nursing visits were collected. Repeat hospitalizations are categorized separately.", "score": 0.5821, "match_basis": "verbatim_token+domain_route:HO"}, {"md_atom_id": "md_dmHO_ex_a003", "md_file": "knowledge_base/domains/HO/examples.md", "md_atom_type": "SENTENCE", "md_parent_section": "§HO.1 [Example 1]", "md_verbatim": "In this example, a healthcare encounter CRF collects verbatim descriptions of the encounter.", "score": 0.55, "match_basis": "verbatim_token+domain_route:HO"}, {"md_atom_id": "md_dmHO_ex_a006", "md_file": "knowledge_base/domains/HO/examples.md", "md_atom_type": "SENTENCE", "md_parent_section": "§HO.1 [Example 1]", "md_verbatim": "**Rows 6-7:** Subject ABC123103 has 2 hospitalization records.", "score": 0.5333, "match_basis": "verbatim_token+domain_route:HO"}, {"md_atom_id": "md_dmHO_ex_a051", "md_file": "knowledge_base/domains/HO/examples.md", "md_atom_type": "SENTENCE", "md_parent_section": "§HO.2 [Example 2]", "md_verbatim": "The indication/medical condition for subject ABC123101's repeat hospitalization was represented as a supplemental qualifier.", "score": 0.5174, "match_basis": "verbatim_token+domain_route:HO"}, {"md_atom_id": "md_dmHO_ex_a023", "md_file": "knowledge_base/domains/HO/examples.md", "md_atom_type": "SENTENCE", "md_parent_section": "§HO.1 [Example 1]", "md_verbatim": "**Row 1:** For the first encounter recorded for subject ABC123101, the indication/medical condition for hospitalization was recorded.", "score": 0.5129, "match_basis": "verbatim_token+domain_route:HO"}], "candidate_count": 5, "zero_candidate": false}
{"pdf_atom_id": "ig34_p0170_a0002", "pdf_atom_type": "SENTENCE", "pdf_source": "SDTMIG_v3.4", "pdf_page": 170, "pdf_parent_section": "§6.2.5 Healthcare Encounters (HO)", "pdf_verbatim": "Subsequent to discharge from the initial hospitalization, follow-up healthcare encounters, including admission to a rehabilitation facility, visits with healthcare providers, and home nursing visits were collected.", "figure_ref": null, "candidates": [{"md_atom_id": "md_dmHO_ex_a037", "md_file": "knowledge_base/domains/HO/examples.md", "md_atom_type": "SENTENCE", "md_parent_section": "§HO.2 [Example 2]", "md_verbatim": "In this example, the dates of an initial hospitalization are collected as well as the date/time of ICU stay. Subsequent to discharge from the initial hospitalization, follow-up healthcare encounters, including admission to a rehabilitation facility, visits with healthcare providers, and home nursing visits were collected. Repeat hospitalizations are categorized separately.", "score": 0.8469, "match_basis": "verbatim_token+domain_route:HO"}, {"md_atom_id": "md_dmHO_ex_a024", "md_file": "knowledge_base/domains/HO/examples.md", "md_atom_type": "SENTENCE", "md_parent_section": "§HO.1 [Example 1]", "md_verbatim": "**Row 2:** For the second encounter recorded for subject ABC123101, the reason for admission to a nursing home was for rehabilitation.", "score": 0.5567, "match_basis": "verbatim_token+domain_route:HO"}, {"md_atom_id": "md_dmHO_assn_a002", "md_file": "knowledge_base/domains/HO/assumptions.md", "md_atom_type": "LIST_ITEM", "md_parent_section": "§HO [HO — Assumptions]", "md_verbatim": "1. The Healthcare Encounters (HO) dataset includes inpatient and outpatient healthcare events (e.g., hospitalizations, nursing home stays, rehabilitation facility stays, ambulatory surgery).", "score": 0.5466, "match_basis": "verbatim_token+domain_route:HO"}, {"md_atom_id": "md_dmHO_ex_a005", "md_file": "knowledge_base/domains/HO/examples.md", "md_atom_type": "SENTENCE", "md_parent_section": "§HO.1 [Example 1]", "md_verbatim": "**Rows 3-5:** Subject ABC123102 was in a hospital in the general ward and then in the intensive care unit. This same subject was transferred to a rehabilitation facility.", "score": 0.5168, "match_basis": "verbatim_token+domain_route:HO"}, {"md_atom_id": "md_dmHO_ex_a003", "md_file": "knowledge_base/domains/HO/examples.md", "md_atom_type": "SENTENCE", "md_parent_section": "§HO.1 [Example 1]", "md_verbatim": "In this example, a healthcare encounter CRF collects verbatim descriptions of the encounter.", "score": 0.5108, "match_basis": "verbatim_token+domain_route:HO"}], "candidate_count": 5, "zero_candidate": false}
{"pdf_atom_id": "ig34_p0170_a0003", "pdf_atom_type": "SENTENCE", "pdf_source": "SDTMIG_v3.4", "pdf_page": 170, "pdf_parent_section": "§6.2.5 Healthcare Encounters (HO)", "pdf_verbatim": "Repeat hospitalizations are categorized separately.", "figure_ref": null, "candidates": [{"md_atom_id": "md_dmHO_ex_a037", "md_file": "knowledge_base/domains/HO/examples.md", "md_atom_type": "SENTENCE", "md_parent_section": "§HO.2 [Example 2]", "md_verbatim": "In this example, the dates of an initial hospitalization are collected as well as the date/time of ICU stay. Subsequent to discharge from the initial hospitalization, follow-up healthcare encounters, including admission to a rehabilitation facility, visits with healthcare providers, and home nursing visits were collected. Repeat hospitalizations are categorized separately.", "score": 0.5448, "match_basis": "verbatim_token+domain_route:HO"}, {"md_atom_id": "md_dmHO_ex_a006", "md_file": "knowledge_base/domains/HO/examples.md", "md_atom_type": "SENTENCE", "md_parent_section": "§HO.1 [Example 1]", "md_verbatim": "**Rows 6-7:** Subject ABC123103 has 2 hospitalization records.", "score": 0.5418, "match_basis": "verbatim_token+domain_route:HO"}, {"md_atom_id": "md_dmHO_ex_a051", "md_file": "knowledge_base/domains/HO/examples.md", "md_atom_type": "SENTENCE", "md_parent_section": "§HO.2 [Example 2]", "md_verbatim": "The indication/medical condition for subject ABC123101's repeat hospitalization was represented as a supplemental qualifier.", "score": 0.5301, "match_basis": "verbatim_token+domain_route:HO"}, {"md_atom_id": "md_dmHO_ex_a023", "md_file": "knowledge_base/domains/HO/examples.md", "md_atom_type": "SENTENCE", "md_parent_section": "§HO.1 [Example 1]", "md_verbatim": "**Row 1:** For the first encounter recorded for subject ABC123101, the indication/medical condition for hospitalization was recorded.", "score": 0.5077, "match_basis": "verbatim_token+domain_route:HO"}, {"md_atom_id": "md_dmHO_ex_a026", "md_file": "knowledge_base/domains/HO/examples.md", "md_atom_type": "SENTENCE", "md_parent_section": "§HO.1 [Example 1]", "md_verbatim": "**Row 5:** For the first encounter recorded for subject ABC123105, the indication/medical condition for the hospitalization was recorded.", "score": 0.5077, "match_basis": "verbatim_token+domain_route:HO"}], "candidate_count": 5, "zero_candidate": false}
{"pdf_atom_id": "ig34_p0170_a0004", "pdf_atom_type": "TABLE_HEADER", "pdf_source": "SDTMIG_v3.4", "pdf_page": 170, "pdf_parent_section": "§6.2.5 Healthcare Encounters (HO)", "pdf_verbatim": "| Row | STUDYID | DOMAIN | USUBJID | HOSEQ | HOTERM | | HOCAT | HOSTDTC | HOENDTC | HOSTRTPT | HOENTPT |", "figure_ref": null, "candidates": [{"md_atom_id": "md_dmHO_ex_a039", "md_file": "knowledge_base/domains/HO/examples.md", "md_atom_type": "TABLE_HEADER", "md_parent_section": "§HO.2 [Example 2]", "md_verbatim": "| Row | STUDYID | DOMAIN | USUBJID | HOSEQ | HOTERM | HOCAT | HOSTDTC | HOENDTC | HOENRTPT | HOENTPT |\n|-----|---------|--------|---------|-------|--------|-------|---------|---------|----------|---------|", "score": 0.9415, "match_basis": "verbatim_token+domain_route:HO"}, {"md_atom_id": "md_dmHO_ex_a010", "md_file": "knowledge_base/domains/HO/examples.md", "md_atom_type": "TABLE_HEADER", "md_parent_section": "§HO.1 [Example 1]", "md_verbatim": "| Row | STUDYID | DOMAIN | USUBJID | HOSEQ | HOTERM | EPOCH | HOSTDTC | HOENDTC | HODUR |\n|-----|---------|--------|---------|-------|--------|-------|---------|---------|-------|", "score": 0.8, "match_basis": "verbatim_token+domain_route:HO"}, {"md_atom_id": "md_dmHO_ex_a029", "md_file": "knowledge_base/domains/HO/examples.md", "md_atom_type": "TABLE_HEADER", "md_parent_section": "§HO.1 [Example 1]", "md_verbatim": "| Row | STUDYID | RDOMAIN | USUBJID | IDVAR | IDVARVAL | QNAM | QLABEL | QVAL | QORIG | QEVAL |\n|-----|---------|---------|---------|-------|----------|------|--------|------|-------|-------|", "score": 0.5552, "match_basis": "verbatim_token+domain_route:HO"}, {"md_atom_id": "md_dmHO_ex_a053", "md_file": "knowledge_base/domains/HO/examples.md", "md_atom_type": "TABLE_HEADER", "md_parent_section": "§HO.2 [Example 2]", "md_verbatim": "| Row | STUDYID | RDOMAIN | USUBJID | IDVAR | IDVARVAL | QNAM | QLABEL | QVAL | QORIG | QEVAL |\n|-----|---------|---------|---------|-------|----------|------|--------|------|-------|-------|", "score": 0.5552, "match_basis": "verbatim_token+domain_route:HO"}, {"md_atom_id": "md_dmHO_ex_a054", "md_file": "knowledge_base/domains/HO/examples.md", "md_atom_type": "TABLE_ROW", "md_parent_section": "§HO.2 [Example 2]", "md_verbatim": "| 1 | ABC | HO | ABC123101 | HOSEQ | 7 | HOINDC | Indication | STROKE | CRF | |", "score": 0.39, "match_basis": "verbatim_token+domain_route:HO"}], "candidate_count": 5, "zero_candidate": false}
{"pdf_atom_id": "ig34_p0170_a0005", "pdf_atom_type": "TABLE_ROW", "pdf_source": "SDTMIG_v3.4", "pdf_page": 170, "pdf_parent_section": "§6.2.5 Healthcare Encounters (HO)", "pdf_verbatim": "| 1 | ABC | HO | ABC123101 | 1 | HOSPITAL | | INITIAL HOSPITALIZATION | 2011-06-08 | | | |", "figure_ref": null, "candidates": [{"md_atom_id": "md_dmHO_ex_a040", "md_file": "knowledge_base/domains/HO/examples.md", "md_atom_type": "TABLE_ROW", "md_parent_section": "§HO.2 [Example 2]", "md_verbatim": "| 1 | ABC | HO | ABC123101 | 1 | HOSPITAL | INITIAL HOSPITALIZATION | 2011-06-08 | 2011-06-12 | | |", "score": 1.0, "match_basis": "verbatim_token+domain_route:HO"}, {"md_atom_id": "md_dmHO_ex_a047", "md_file": "knowledge_base/domains/HO/examples.md", "md_atom_type": "TABLE_ROW", "md_parent_section": "§HO.2 [Example 2]", "md_verbatim": "| 8 | ABC | HO | ABC123102 | 1 | HOSPITAL | INITIAL HOSPITALIZATION | 2011-06-19 | 2011-07-02 | | |", "score": 0.9571, "match_basis": "verbatim_token+domain_route:HO"}, {"md_atom_id": "md_dmHO_ex_a041", "md_file": "knowledge_base/domains/HO/examples.md", "md_atom_type": "TABLE_ROW", "md_parent_section": "§HO.2 [Example 2]", "md_verbatim": "| 2 | ABC | HO | ABC123101 | 2 | ICU | INITIAL HOSPITALIZATION | 2011-06-08T11:00 | 2011-06-09T14:30 | | |", "score": 0.8765, "match_basis": "verbatim_token+domain_route:HO"}, {"md_atom_id": "md_dmHO_ex_a048", "md_file": "knowledge_base/domains/HO/examples.md", "md_atom_type": "TABLE_ROW", "md_parent_section": "§HO.2 [Example 2]", "md_verbatim": "| 9 | ABC | HO | ABC123102 | 2 | ICU | INITIAL HOSPITALIZATION | 2011-06-19T22:00 | 2011-06-23T09:30 | | |", "score": 0.8457, "match_basis": "verbatim_token+domain_route:HO"}, {"md_atom_id": "md_dmHO_ex_a049", "md_file": "knowledge_base/domains/HO/examples.md", "md_atom_type": "TABLE_ROW", "md_parent_section": "§HO.2 [Example 2]", "md_verbatim": "| 10 | ABC | HO | ABC123102 | 3 | ICU | INITIAL HOSPITALIZATION | 2011-06-25T17:00 | 2011-06-29T19:30 | | |", "score": 0.8457, "match_basis": "verbatim_token+domain_route:HO"}], "candidate_count": 5, "zero_candidate": false}
{"pdf_atom_id": "ig34_p0170_a0006", "pdf_atom_type": "TABLE_ROW", "pdf_source": "SDTMIG_v3.4", "pdf_page": 170, "pdf_parent_section": "§6.2.5 Healthcare Encounters (HO)", "pdf_verbatim": "| 2 | ABC | HO | ABC123101 | 2 | INTENSIVE CARE UNIT | | INITIAL HOSPITALIZATION | 2011-06-10 T 10:00 | 2011-06-10 | | |", "figure_ref": null, "candidates": [{"md_atom_id": "md_dmHO_ex_a040", "md_file": "knowledge_base/domains/HO/examples.md", "md_atom_type": "TABLE_ROW", "md_parent_section": "§HO.2 [Example 2]", "md_verbatim": "| 1 | ABC | HO | ABC123101 | 1 | HOSPITAL | INITIAL HOSPITALIZATION | 2011-06-08 | 2011-06-12 | | |", "score": 0.8378, "match_basis": "verbatim_token+domain_route:HO"}, {"md_atom_id": "md_dmHO_ex_a047", "md_file": "knowledge_base/domains/HO/examples.md", "md_atom_type": "TABLE_ROW", "md_parent_section": "§HO.2 [Example 2]", "md_verbatim": "| 8 | ABC | HO | ABC123102 | 1 | HOSPITAL | INITIAL HOSPITALIZATION | 2011-06-19 | 2011-07-02 | | |", "score": 0.8105, "match_basis": "verbatim_token+domain_route:HO"}, {"md_atom_id": "md_dmHO_ex_a041", "md_file": "knowledge_base/domains/HO/examples.md", "md_atom_type": "TABLE_ROW", "md_parent_section": "§HO.2 [Example 2]", "md_verbatim": "| 2 | ABC | HO | ABC123101 | 2 | ICU | INITIAL HOSPITALIZATION | 2011-06-08T11:00 | 2011-06-09T14:30 | | |", "score": 0.7682, "match_basis": "verbatim_token+domain_route:HO"}, {"md_atom_id": "md_dmHO_ex_a048", "md_file": "knowledge_base/domains/HO/examples.md", "md_atom_type": "TABLE_ROW", "md_parent_section": "§HO.2 [Example 2]", "md_verbatim": "| 9 | ABC | HO | ABC123102 | 2 | ICU | INITIAL HOSPITALIZATION | 2011-06-19T22:00 | 2011-06-23T09:30 | | |", "score": 0.7467, "match_basis": "verbatim_token+domain_route:HO"}, {"md_atom_id": "md_dmHO_ex_a049", "md_file": "knowledge_base/domains/HO/examples.md", "md_atom_type": "TABLE_ROW", "md_parent_section": "§HO.2 [Example 2]", "md_verbatim": "| 10 | ABC | HO | ABC123102 | 3 | ICU | INITIAL HOSPITALIZATION | 2011-06-25T17:00 | 2011-06-29T19:30 | | |", "score": 0.7467, "match_basis": "verbatim_token+domain_route:HO"}], "candidate_count": 5, "zero_candidate": false}
{"pdf_atom_id": "ig34_p0170_a0007", "pdf_atom_type": "TABLE_ROW", "pdf_source": "SDTMIG_v3.4", "pdf_page": 170, "pdf_parent_section": "§6.2.5 Healthcare Encounters (HO)", "pdf_verbatim": "| 3 | ABC | HO | ABC123101 | 3 | REHABILITATION FACILITY | | FOLLOW-UP CARE | 2011-06-12 | 2011-06-22 | | |", "figure_ref": null, "candidates": [{"md_atom_id": "md_dmHO_ex_a042", "md_file": "knowledge_base/domains/HO/examples.md", "md_atom_type": "TABLE_ROW", "md_parent_section": "§HO.2 [Example 2]", "md_verbatim": "| 3 | ABC | HO | ABC123101 | 3 | REHABILITATION FACILITY | FOLLOW-UP CARE | 2011-06-12 | 2011-06-22 | | |", "score": 1.0, "match_basis": "verbatim_token+domain_route:HO"}, {"md_atom_id": "md_dmHO_ex_a015", "md_file": "knowledge_base/domains/HO/examples.md", "md_atom_type": "TABLE_ROW", "md_parent_section": "§HO.1 [Example 1]", "md_verbatim": "| 5 | ABC | HO | ABC123102 | 3 | REHABILITATION FACILITY | TREATMENT | 2011-08-15 | 2011-08-20 | |", "score": 0.7692, "match_basis": "verbatim_token+domain_route:HO"}, {"md_atom_id": "md_dmHO_ex_a031", "md_file": "knowledge_base/domains/HO/examples.md", "md_atom_type": "TABLE_ROW", "md_parent_section": "§HO.1 [Example 1]", "md_verbatim": "| 2 | ABC | HO | ABC123101 | HOSEQ | 2 | HOREAS | Reason | REHABILITATION | CRF | |", "score": 0.678, "match_basis": "verbatim_token+domain_route:HO"}, {"md_atom_id": "md_dmHO_ex_a050", "md_file": "knowledge_base/domains/HO/examples.md", "md_atom_type": "TABLE_ROW", "md_parent_section": "§HO.2 [Example 2]", "md_verbatim": "| 11 | ABC | HO | ABC123102 | 4 | SKILLED NURSING FACILITY | FOLLOW-UP CARE | 2011-07-02 | | ONGOING | END OF STUDY |", "score": 0.64, "match_basis": "verbatim_token+domain_route:HO"}, {"md_atom_id": "md_dmHO_ex_a043", "md_file": "knowledge_base/domains/HO/examples.md", "md_atom_type": "TABLE_ROW", "md_parent_section": "§HO.2 [Example 2]", "md_verbatim": "| 4 | ABC | HO | ABC123101 | 4 | CARDIOLOGY UNIT | FOLLOW-UP CARE | 2011-06-25 | 2011-06-25 | | |", "score": 0.625, "match_basis": "verbatim_token+domain_route:HO"}], "candidate_count": 5, "zero_candidate": false}
{"pdf_atom_id": "ig34_p0170_a0008", "pdf_atom_type": "TABLE_ROW", "pdf_source": "SDTMIG_v3.4", "pdf_page": 170, "pdf_parent_section": "§6.2.5 Healthcare Encounters (HO)", "pdf_verbatim": "| 4 | ABC | HO | ABC123101 | 4 | CARDIOLOGY UNIT | | FOLLOW-UP CARE | 2011-06-25 | 2011-06-25 | | |", "figure_ref": null, "candidates": [{"md_atom_id": "md_dmHO_ex_a043", "md_file": "knowledge_base/domains/HO/examples.md", "md_atom_type": "TABLE_ROW", "md_parent_section": "§HO.2 [Example 2]", "md_verbatim": "| 4 | ABC | HO | ABC123101 | 4 | CARDIOLOGY UNIT | FOLLOW-UP CARE | 2011-06-25 | 2011-06-25 | | |", "score": 1.0, "match_basis": "verbatim_token+domain_route:HO"}, {"md_atom_id": "md_dmHO_ex_a022", "md_file": "knowledge_base/domains/HO/examples.md", "md_atom_type": "TABLE_ROW", "md_parent_section": "§HO.1 [Example 1]", "md_verbatim": "| 12 | ABC | HO | ABC123106 | 2 | HOSPITAL | FOLLOW-UP | 2011-11-07 | 2011-11-09 | |", "score": 0.6323, "match_basis": "verbatim_token+domain_route:HO"}, {"md_atom_id": "md_dmHO_ex_a042", "md_file": "knowledge_base/domains/HO/examples.md", "md_atom_type": "TABLE_ROW", "md_parent_section": "§HO.2 [Example 2]", "md_verbatim": "| 3 | ABC | HO | ABC123101 | 3 | REHABILITATION FACILITY | FOLLOW-UP CARE | 2011-06-12 | 2011-06-22 | | |", "score": 0.625, "match_basis": "verbatim_token+domain_route:HO"}, {"md_atom_id": "md_dmHO_ex_a044", "md_file": "knowledge_base/domains/HO/examples.md", "md_atom_type": "TABLE_ROW", "md_parent_section": "§HO.2 [Example 2]", "md_verbatim": "| 5 | ABC | HO | ABC123101 | 5 | OUTPATIENT PHYSICAL THERAPY | FOLLOW-UP CARE | 2011-06-27 | 2011-06-27 | | |", "score": 0.6093, "match_basis": "verbatim_token+domain_route:HO"}, {"md_atom_id": "md_dmHO_ex_a045", "md_file": "knowledge_base/domains/HO/examples.md", "md_atom_type": "TABLE_ROW", "md_parent_section": "§HO.2 [Example 2]", "md_verbatim": "| 6 | ABC | HO | ABC123101 | 6 | OUTPATIENT PHYSICAL THERAPY | FOLLOW-UP CARE | 2011-07-12 | 2011-07-12 | | |", "score": 0.6093, "match_basis": "verbatim_token+domain_route:HO"}], "candidate_count": 5, "zero_candidate": false}
{"pdf_atom_id": "ig34_p0170_a0009", "pdf_atom_type": "TABLE_ROW", "pdf_source": "SDTMIG_v3.4", "pdf_page": 170, "pdf_parent_section": "§6.2.5 Healthcare Encounters (HO)", "pdf_verbatim": "| 5 | ABC | HO | ABC123101 | 5 | OUTPATIENT PHYSICAL THERAPY | | FOLLOW-UP CARE | 2011-06-27 | 2011-06-27 | | |", "figure_ref": null, "candidates": [{"md_atom_id": "md_dmHO_ex_a044", "md_file": "knowledge_base/domains/HO/examples.md", "md_atom_type": "TABLE_ROW", "md_parent_section": "§HO.2 [Example 2]", "md_verbatim": "| 5 | ABC | HO | ABC123101 | 5 | OUTPATIENT PHYSICAL THERAPY | FOLLOW-UP CARE | 2011-06-27 | 2011-06-27 | | |", "score": 1.0, "match_basis": "verbatim_token+domain_route:HO"}, {"md_atom_id": "md_dmHO_ex_a045", "md_file": "knowledge_base/domains/HO/examples.md", "md_atom_type": "TABLE_ROW", "md_parent_section": "§HO.2 [Example 2]", "md_verbatim": "| 6 | ABC | HO | ABC123101 | 6 | OUTPATIENT PHYSICAL THERAPY | FOLLOW-UP CARE | 2011-07-12 | 2011-07-12 | | |", "score": 1.0, "match_basis": "verbatim_token+domain_route:HO"}, {"md_atom_id": "md_dmHO_ex_a043", "md_file": "knowledge_base/domains/HO/examples.md", "md_atom_type": "TABLE_ROW", "md_parent_section": "§HO.2 [Example 2]", "md_verbatim": "| 4 | ABC | HO | ABC123101 | 4 | CARDIOLOGY UNIT | FOLLOW-UP CARE | 2011-06-25 | 2011-06-25 | | |", "score": 0.6093, "match_basis": "verbatim_token+domain_route:HO"}, {"md_atom_id": "md_dmHO_ex_a042", "md_file": "knowledge_base/domains/HO/examples.md", "md_atom_type": "TABLE_ROW", "md_parent_section": "§HO.2 [Example 2]", "md_verbatim": "| 3 | ABC | HO | ABC123101 | 3 | REHABILITATION FACILITY | FOLLOW-UP CARE | 2011-06-12 | 2011-06-22 | | |", "score": 0.5959, "match_basis": "verbatim_token+domain_route:HO"}, {"md_atom_id": "md_dmHO_ex_a022", "md_file": "knowledge_base/domains/HO/examples.md", "md_atom_type": "TABLE_ROW", "md_parent_section": "§HO.1 [Example 1]", "md_verbatim": "| 12 | ABC | HO | ABC123106 | 2 | HOSPITAL | FOLLOW-UP | 2011-11-07 | 2011-11-09 | |", "score": 0.5756, "match_basis": "verbatim_token+domain_route:HO"}], "candidate_count": 5, "zero_candidate": false}
{"pdf_atom_id": "ig34_p0170_a0010", "pdf_atom_type": "TABLE_ROW", "pdf_source": "SDTMIG_v3.4", "pdf_page": 170, "pdf_parent_section": "§6.2.5 Healthcare Encounters (HO)", "pdf_verbatim": "| 6 | ABC | HO | ABC123101 | 6 | OUTPATIENT PHYSICAL THERAPY | | FOLLOW-UP CARE | 2011-07-12 | 2011-07-12 | | |", "figure_ref": null, "candidates": [{"md_atom_id": "md_dmHO_ex_a044", "md_file": "knowledge_base/domains/HO/examples.md", "md_atom_type": "TABLE_ROW", "md_parent_section": "§HO.2 [Example 2]", "md_verbatim": "| 5 | ABC | HO | ABC123101 | 5 | OUTPATIENT PHYSICAL THERAPY | FOLLOW-UP CARE | 2011-06-27 | 2011-06-27 | | |", "score": 1.0, "match_basis": "verbatim_token+domain_route:HO"}, {"md_atom_id": "md_dmHO_ex_a045", "md_file": "knowledge_base/domains/HO/examples.md", "md_atom_type": "TABLE_ROW", "md_parent_section": "§HO.2 [Example 2]", "md_verbatim": "| 6 | ABC | HO | ABC123101 | 6 | OUTPATIENT PHYSICAL THERAPY | FOLLOW-UP CARE | 2011-07-12 | 2011-07-12 | | |", "score": 1.0, "match_basis": "verbatim_token+domain_route:HO"}, {"md_atom_id": "md_dmHO_ex_a043", "md_file": "knowledge_base/domains/HO/examples.md", "md_atom_type": "TABLE_ROW", "md_parent_section": "§HO.2 [Example 2]", "md_verbatim": "| 4 | ABC | HO | ABC123101 | 4 | CARDIOLOGY UNIT | FOLLOW-UP CARE | 2011-06-25 | 2011-06-25 | | |", "score": 0.6093, "match_basis": "verbatim_token+domain_route:HO"}, {"md_atom_id": "md_dmHO_ex_a042", "md_file": "knowledge_base/domains/HO/examples.md", "md_atom_type": "TABLE_ROW", "md_parent_section": "§HO.2 [Example 2]", "md_verbatim": "| 3 | ABC | HO | ABC123101 | 3 | REHABILITATION FACILITY | FOLLOW-UP CARE | 2011-06-12 | 2011-06-22 | | |", "score": 0.5959, "match_basis": "verbatim_token+domain_route:HO"}, {"md_atom_id": "md_dmHO_ex_a022", "md_file": "knowledge_base/domains/HO/examples.md", "md_atom_type": "TABLE_ROW", "md_parent_section": "§HO.1 [Example 1]", "md_verbatim": "| 12 | ABC | HO | ABC123106 | 2 | HOSPITAL | FOLLOW-UP | 2011-11-07 | 2011-11-09 | |", "score": 0.5756, "match_basis": "verbatim_token+domain_route:HO"}], "candidate_count": 5, "zero_candidate": false}
{"pdf_atom_id": "ig34_p0170_a0011", "pdf_atom_type": "TABLE_ROW", "pdf_source": "SDTMIG_v3.4", "pdf_page": 170, "pdf_parent_section": "§6.2.5 Healthcare Encounters (HO)", "pdf_verbatim": "| 7 | ABC | HO | ABC123101 | 7 | HOSPITAL | | REPEAT HOSPITALIZATION | 2011-07-23 | 2011-07-24 | | |", "figure_ref": null, "candidates": [{"md_atom_id": "md_dmHO_ex_a046", "md_file": "knowledge_base/domains/HO/examples.md", "md_atom_type": "TABLE_ROW", "md_parent_section": "§HO.2 [Example 2]", "md_verbatim": "| 7 | ABC | HO | ABC123101 | 7 | HOSPITAL | REPEAT HOSPITALIZATION | 2011-07-23 | 2011-07-24 | | |", "score": 1.0, "match_basis": "verbatim_token+domain_route:HO"}, {"md_atom_id": "md_dmHO_ex_a040", "md_file": "knowledge_base/domains/HO/examples.md", "md_atom_type": "TABLE_ROW", "md_parent_section": "§HO.2 [Example 2]", "md_verbatim": "| 1 | ABC | HO | ABC123101 | 1 | HOSPITAL | INITIAL HOSPITALIZATION | 2011-06-08 | 2011-06-12 | | |", "score": 0.8258, "match_basis": "verbatim_token+domain_route:HO"}, {"md_atom_id": "md_dmHO_ex_a047", "md_file": "knowledge_base/domains/HO/examples.md", "md_atom_type": "TABLE_ROW", "md_parent_section": "§HO.2 [Example 2]", "md_verbatim": "| 8 | ABC | HO | ABC123102 | 1 | HOSPITAL | INITIAL HOSPITALIZATION | 2011-06-19 | 2011-07-02 | | |", "score": 0.7937, "match_basis": "verbatim_token+domain_route:HO"}, {"md_atom_id": "md_dmHO_ex_a041", "md_file": "knowledge_base/domains/HO/examples.md", "md_atom_type": "TABLE_ROW", "md_parent_section": "§HO.2 [Example 2]", "md_verbatim": "| 2 | ABC | HO | ABC123101 | 2 | ICU | INITIAL HOSPITALIZATION | 2011-06-08T11:00 | 2011-06-09T14:30 | | |", "score": 0.7474, "match_basis": "verbatim_token+domain_route:HO"}, {"md_atom_id": "md_dmHO_ex_a048", "md_file": "knowledge_base/domains/HO/examples.md", "md_atom_type": "TABLE_ROW", "md_parent_section": "§HO.2 [Example 2]", "md_verbatim": "| 9 | ABC | HO | ABC123102 | 2 | ICU | INITIAL HOSPITALIZATION | 2011-06-19T22:00 | 2011-06-23T09:30 | | |", "score": 0.7231, "match_basis": "verbatim_token+domain_route:HO"}], "candidate_count": 5, "zero_candidate": false}
{"pdf_atom_id": "ig34_p0170_a0012", "pdf_atom_type": "TABLE_ROW", "pdf_source": "SDTMIG_v3.4", "pdf_page": 170, "pdf_parent_section": "§6.2.5 Healthcare Encounters (HO)", "pdf_verbatim": "| 8 | ABC | HO | ABC123102 | 1 | HOSPITAL | | INITIAL HOSPITALIZATION | 2011-06-19 | | | |", "figure_ref": null, "candidates": [{"md_atom_id": "md_dmHO_ex_a047", "md_file": "knowledge_base/domains/HO/examples.md", "md_atom_type": "TABLE_ROW", "md_parent_section": "§HO.2 [Example 2]", "md_verbatim": "| 8 | ABC | HO | ABC123102 | 1 | HOSPITAL | INITIAL HOSPITALIZATION | 2011-06-19 | 2011-07-02 | | |", "score": 1.0, "match_basis": "verbatim_token+domain_route:HO"}, {"md_atom_id": "md_dmHO_ex_a040", "md_file": "knowledge_base/domains/HO/examples.md", "md_atom_type": "TABLE_ROW", "md_parent_section": "§HO.2 [Example 2]", "md_verbatim": "| 1 | ABC | HO | ABC123101 | 1 | HOSPITAL | INITIAL HOSPITALIZATION | 2011-06-08 | 2011-06-12 | | |", "score": 0.9571, "match_basis": "verbatim_token+domain_route:HO"}, {"md_atom_id": "md_dmHO_ex_a048", "md_file": "knowledge_base/domains/HO/examples.md", "md_atom_type": "TABLE_ROW", "md_parent_section": "§HO.2 [Example 2]", "md_verbatim": "| 9 | ABC | HO | ABC123102 | 2 | ICU | INITIAL HOSPITALIZATION | 2011-06-19T22:00 | 2011-06-23T09:30 | | |", "score": 0.8765, "match_basis": "verbatim_token+domain_route:HO"}, {"md_atom_id": "md_dmHO_ex_a049", "md_file": "knowledge_base/domains/HO/examples.md", "md_atom_type": "TABLE_ROW", "md_parent_section": "§HO.2 [Example 2]", "md_verbatim": "| 10 | ABC | HO | ABC123102 | 3 | ICU | INITIAL HOSPITALIZATION | 2011-06-25T17:00 | 2011-06-29T19:30 | | |", "score": 0.8765, "match_basis": "verbatim_token+domain_route:HO"}, {"md_atom_id": "md_dmHO_ex_a041", "md_file": "knowledge_base/domains/HO/examples.md", "md_atom_type": "TABLE_ROW", "md_parent_section": "§HO.2 [Example 2]", "md_verbatim": "| 2 | ABC | HO | ABC123101 | 2 | ICU | INITIAL HOSPITALIZATION | 2011-06-08T11:00 | 2011-06-09T14:30 | | |", "score": 0.8457, "match_basis": "verbatim_token+domain_route:HO"}], "candidate_count": 5, "zero_candidate": false}
{"pdf_atom_id": "ig34_p0171_a0001", "pdf_atom_type": "TABLE_ROW", "pdf_source": "SDTMIG_v3.4", "pdf_page": 171, "pdf_parent_section": "§6.2.5 Healthcare Encounters (HO)", "pdf_verbatim": "| 9 | ABC | HO | ABC123102 | 2 | ICU | | INITIAL HOSPITALIZATION | 2011-06-19T22:00 | 2011-06-23T09:30 | | |", "figure_ref": null, "candidates": [{"md_atom_id": "md_dmHO_ex_a048", "md_file": "knowledge_base/domains/HO/examples.md", "md_atom_type": "TABLE_ROW", "md_parent_section": "§HO.2 [Example 2]", "md_verbatim": "| 9 | ABC | HO | ABC123102 | 2 | ICU | INITIAL HOSPITALIZATION | 2011-06-19T22:00 | 2011-06-23T09:30 | | |", "score": 1.0, "match_basis": "verbatim_token+domain_route:HO"}, {"md_atom_id": "md_dmHO_ex_a047", "md_file": "knowledge_base/domains/HO/examples.md", "md_atom_type": "TABLE_ROW", "md_parent_section": "§HO.2 [Example 2]", "md_verbatim": "| 8 | ABC | HO | ABC123102 | 1 | HOSPITAL | INITIAL HOSPITALIZATION | 2011-06-19 | 2011-07-02 | | |", "score": 0.8765, "match_basis": "verbatim_token+domain_route:HO"}, {"md_atom_id": "md_dmHO_ex_a040", "md_file": "knowledge_base/domains/HO/examples.md", "md_atom_type": "TABLE_ROW", "md_parent_section": "§HO.2 [Example 2]", "md_verbatim": "| 1 | ABC | HO | ABC123101 | 1 | HOSPITAL | INITIAL HOSPITALIZATION | 2011-06-08 | 2011-06-12 | | |", "score": 0.8457, "match_basis": "verbatim_token+domain_route:HO"}, {"md_atom_id": "md_dmHO_ex_a049", "md_file": "knowledge_base/domains/HO/examples.md", "md_atom_type": "TABLE_ROW", "md_parent_section": "§HO.2 [Example 2]", "md_verbatim": "| 10 | ABC | HO | ABC123102 | 3 | ICU | INITIAL HOSPITALIZATION | 2011-06-25T17:00 | 2011-06-29T19:30 | | |", "score": 0.82, "match_basis": "verbatim_token+domain_route:HO"}, {"md_atom_id": "md_dmHO_ex_a041", "md_file": "knowledge_base/domains/HO/examples.md", "md_atom_type": "TABLE_ROW", "md_parent_section": "§HO.2 [Example 2]", "md_verbatim": "| 2 | ABC | HO | ABC123101 | 2 | ICU | INITIAL HOSPITALIZATION | 2011-06-08T11:00 | 2011-06-09T14:30 | | |", "score": 0.7951, "match_basis": "verbatim_token+domain_route:HO"}], "candidate_count": 5, "zero_candidate": false}
{"pdf_atom_id": "ig34_p0171_a0002", "pdf_atom_type": "TABLE_ROW", "pdf_source": "SDTMIG_v3.4", "pdf_page": 171, "pdf_parent_section": "§6.2.5 Healthcare Encounters (HO)", "pdf_verbatim": "| 10 | ABC | HO | ABC123102 | 3 | ICU | | INITIAL HOSPITALIZATION | 2011-06-25T10:00 | 2011-06-29T19:30 | | |", "figure_ref": null, "candidates": [{"md_atom_id": "md_dmHO_ex_a049", "md_file": "knowledge_base/domains/HO/examples.md", "md_atom_type": "TABLE_ROW", "md_parent_section": "§HO.2 [Example 2]", "md_verbatim": "| 10 | ABC | HO | ABC123102 | 3 | ICU | INITIAL HOSPITALIZATION | 2011-06-25T17:00 | 2011-06-29T19:30 | | |", "score": 0.9657, "match_basis": "verbatim_token+domain_route:HO"}, {"md_atom_id": "md_dmHO_ex_a047", "md_file": "knowledge_base/domains/HO/examples.md", "md_atom_type": "TABLE_ROW", "md_parent_section": "§HO.2 [Example 2]", "md_verbatim": "| 8 | ABC | HO | ABC123102 | 1 | HOSPITAL | INITIAL HOSPITALIZATION | 2011-06-19 | 2011-07-02 | | |", "score": 0.8765, "match_basis": "verbatim_token+domain_route:HO"}, {"md_atom_id": "md_dmHO_ex_a040", "md_file": "knowledge_base/domains/HO/examples.md", "md_atom_type": "TABLE_ROW", "md_parent_section": "§HO.2 [Example 2]", "md_verbatim": "| 1 | ABC | HO | ABC123101 | 1 | HOSPITAL | INITIAL HOSPITALIZATION | 2011-06-08 | 2011-06-12 | | |", "score": 0.8457, "match_basis": "verbatim_token+domain_route:HO"}, {"md_atom_id": "md_dmHO_ex_a041", "md_file": "knowledge_base/domains/HO/examples.md", "md_atom_type": "TABLE_ROW", "md_parent_section": "§HO.2 [Example 2]", "md_verbatim": "| 2 | ABC | HO | ABC123101 | 2 | ICU | INITIAL HOSPITALIZATION | 2011-06-08T11:00 | 2011-06-09T14:30 | | |", "score": 0.82, "match_basis": "verbatim_token+domain_route:HO"}, {"md_atom_id": "md_dmHO_ex_a048", "md_file": "knowledge_base/domains/HO/examples.md", "md_atom_type": "TABLE_ROW", "md_parent_section": "§HO.2 [Example 2]", "md_verbatim": "| 9 | ABC | HO | ABC123102 | 2 | ICU | INITIAL HOSPITALIZATION | 2011-06-19T22:00 | 2011-06-23T09:30 | | |", "score": 0.82, "match_basis": "verbatim_token+domain_route:HO"}], "candidate_count": 5, "zero_candidate": false}
{"pdf_atom_id": "ig34_p0171_a0003", "pdf_atom_type": "TABLE_ROW", "pdf_source": "SDTMIG_v3.4", "pdf_page": 171, "pdf_parent_section": "§6.2.5 Healthcare Encounters (HO)", "pdf_verbatim": "| 11 | ABC | HO | ABC123102 | 4 | SKILLED NURSING FACILITY | | FOLLOW-UP CARE | 2011-07-02 | | ONGOING | END OF STUDY |", "figure_ref": null, "candidates": [{"md_atom_id": "md_dmHO_ex_a050", "md_file": "knowledge_base/domains/HO/examples.md", "md_atom_type": "TABLE_ROW", "md_parent_section": "§HO.2 [Example 2]", "md_verbatim": "| 11 | ABC | HO | ABC123102 | 4 | SKILLED NURSING FACILITY | FOLLOW-UP CARE | 2011-07-02 | | ONGOING | END OF STUDY |", "score": 1.0, "match_basis": "verbatim_token+domain_route:HO"}, {"md_atom_id": "md_dmHO_ex_a042", "md_file": "knowledge_base/domains/HO/examples.md", "md_atom_type": "TABLE_ROW", "md_parent_section": "§HO.2 [Example 2]", "md_verbatim": "| 3 | ABC | HO | ABC123101 | 3 | REHABILITATION FACILITY | FOLLOW-UP CARE | 2011-06-12 | 2011-06-22 | | |", "score": 0.64, "match_basis": "verbatim_token+domain_route:HO"}, {"md_atom_id": "md_dmHO_ex_a043", "md_file": "knowledge_base/domains/HO/examples.md", "md_atom_type": "TABLE_ROW", "md_parent_section": "§HO.2 [Example 2]", "md_verbatim": "| 4 | ABC | HO | ABC123101 | 4 | CARDIOLOGY UNIT | FOLLOW-UP CARE | 2011-06-25 | 2011-06-25 | | |", "score": 0.5714, "match_basis": "verbatim_token+domain_route:HO"}, {"md_atom_id": "md_dmHO_ex_a015", "md_file": "knowledge_base/domains/HO/examples.md", "md_atom_type": "TABLE_ROW", "md_parent_section": "§HO.1 [Example 1]", "md_verbatim": "| 5 | ABC | HO | ABC123102 | 3 | REHABILITATION FACILITY | TREATMENT | 2011-08-15 | 2011-08-20 | |", "score": 0.5607, "match_basis": "verbatim_token+domain_route:HO"}, {"md_atom_id": "md_dmHO_ex_a022", "md_file": "knowledge_base/domains/HO/examples.md", "md_atom_type": "TABLE_ROW", "md_parent_section": "§HO.1 [Example 1]", "md_verbatim": "| 12 | ABC | HO | ABC123106 | 2 | HOSPITAL | FOLLOW-UP | 2011-11-07 | 2011-11-09 | |", "score": 0.5565, "match_basis": "verbatim_token+domain_route:HO"}], "candidate_count": 5, "zero_candidate": false}
{"pdf_atom_id": "ig34_p0171_a0004", "pdf_atom_type": "SENTENCE", "pdf_source": "SDTMIG_v3.4", "pdf_page": 171, "pdf_parent_section": "§6.2.5 Healthcare Encounters (HO)", "pdf_verbatim": "The indication/medical condition for subject ABC123101's repeat hospitalization was represented as a supplemental qualifier.", "figure_ref": null, "candidates": [{"md_atom_id": "md_dmHO_ex_a051", "md_file": "knowledge_base/domains/HO/examples.md", "md_atom_type": "SENTENCE", "md_parent_section": "§HO.2 [Example 2]", "md_verbatim": "The indication/medical condition for subject ABC123101's repeat hospitalization was represented as a supplemental qualifier.", "score": 1.0, "match_basis": "verbatim_token+domain_route:HO"}, {"md_atom_id": "md_dmHO_ex_a023", "md_file": "knowledge_base/domains/HO/examples.md", "md_atom_type": "SENTENCE", "md_parent_section": "§HO.1 [Example 1]", "md_verbatim": "**Row 1:** For the first encounter recorded for subject ABC123101, the indication/medical condition for hospitalization was recorded.", "score": 0.7, "match_basis": "verbatim_token+domain_route:HO"}, {"md_atom_id": "md_dmHO_ex_a026", "md_file": "knowledge_base/domains/HO/examples.md", "md_atom_type": "SENTENCE", "md_parent_section": "§HO.1 [Example 1]", "md_verbatim": "**Row 5:** For the first encounter recorded for subject ABC123105, the indication/medical condition for the hospitalization was recorded.", "score": 0.6892, "match_basis": "verbatim_token+domain_route:HO"}, {"md_atom_id": "md_dmHO_ex_a006", "md_file": "knowledge_base/domains/HO/examples.md", "md_atom_type": "SENTENCE", "md_parent_section": "§HO.1 [Example 1]", "md_verbatim": "**Rows 6-7:** Subject ABC123103 has 2 hospitalization records.", "score": 0.592, "match_basis": "verbatim_token+domain_route:HO"}, {"md_atom_id": "md_dmHO_ex_a027", "md_file": "knowledge_base/domains/HO/examples.md", "md_atom_type": "SENTENCE", "md_parent_section": "§HO.1 [Example 1]", "md_verbatim": "**Row 6:** For the second encounter recorded for subject ABC123105, the name of the hospital was recorded.", "score": 0.5663, "match_basis": "verbatim_token+domain_route:HO"}], "candidate_count": 5, "zero_candidate": false}
{"pdf_atom_id": "ig34_p0171_a0005", "pdf_atom_type": "CODE_LITERAL", "pdf_source": "SDTMIG_v3.4", "pdf_page": 171, "pdf_parent_section": "§6.2.5 Healthcare Encounters (HO)", "pdf_verbatim": "suppho.xpt", "figure_ref": null, "candidates": [{"md_atom_id": "md_dmHO_ex_a028", "md_file": "knowledge_base/domains/HO/examples.md", "md_atom_type": "SENTENCE", "md_parent_section": "§HO.1 [Example 1]", "md_verbatim": "**suppho.xpt**", "score": 0.79, "match_basis": "verbatim_token+domain_route:HO"}, {"md_atom_id": "md_dmHO_ex_a052", "md_file": "knowledge_base/domains/HO/examples.md", "md_atom_type": "SENTENCE", "md_parent_section": "§HO.2 [Example 2]", "md_verbatim": "**suppho.xpt**", "score": 0.79, "match_basis": "verbatim_token+domain_route:HO"}, {"md_atom_id": "md_dmHO_ex_a009", "md_file": "knowledge_base/domains/HO/examples.md", "md_atom_type": "SENTENCE", "md_parent_section": "§HO.1 [Example 1]", "md_verbatim": "**ho.xpt**", "score": 0.31, "match_basis": "verbatim_token+domain_route:HO"}, {"md_atom_id": "md_dmHO_ex_a038", "md_file": "knowledge_base/domains/HO/examples.md", "md_atom_type": "SENTENCE", "md_parent_section": "§HO.2 [Example 2]", "md_verbatim": "**ho.xpt**", "score": 0.31, "match_basis": "verbatim_token+domain_route:HO"}, {"md_atom_id": "md_dmHO_ex_a051", "md_file": "knowledge_base/domains/HO/examples.md", "md_atom_type": "SENTENCE", "md_parent_section": "§HO.2 [Example 2]", "md_verbatim": "The indication/medical condition for subject ABC123101's repeat hospitalization was represented as a supplemental qualifier.", "score": 0.2074, "match_basis": "verbatim_token+domain_route:HO"}, {"md_atom_id": "md_dmHO_assn_a006", "md_file": "knowledge_base/domains/HO/assumptions.md", "md_atom_type": "LIST_ITEM", "md_parent_section": "§HO [HO — Assumptions]", "md_verbatim": "   b. The supplemental qualifier with QNAM = \"HOREAS\" would be used to represent a reason for the encounter other than a medical condition (e.g., annual checkup).", "score": 0.2062, "match_basis": "verbatim_token+domain_route:HO"}, {"md_atom_id": "md_dmHO_assn_a004", "md_file": "knowledge_base/domains/HO/assumptions.md", "md_atom_type": "LIST_ITEM", "md_parent_section": "§HO [HO — Assumptions]", "md_verbatim": "3. Data collected about healthcare encounters may include the reason for the encounter. The following supplemental qualifiers may be appropriate for representing such data:", "score": 0.2041, "match_basis": "verbatim_token+domain_route:HO"}, {"md_atom_id": "md_dmHO_assn_a005", "md_file": "knowledge_base/domains/HO/assumptions.md", "md_atom_type": "LIST_ITEM", "md_parent_section": "§HO [HO — Assumptions]", "md_verbatim": "   a. The supplemental qualifier with QNAM = \"HOINDC\" would be used to represent the indication/medical condition for the encounter (e.g., stroke). Note that --INDC is an Interventions class variable, so is not a standard variable for HO, which is an Events class domain.", "score": 0.202, "match_basis": "verbatim_token+domain_route:HO"}, {"md_atom_id": "md_dmHO_assn_a007", "md_file": "knowledge_base/domains/HO/assumptions.md", "md_atom_type": "LIST_ITEM", "md_parent_section": "§HO [HO — Assumptions]", "md_verbatim": "4. If collected data includes the name of the provider or the facility where the encounter took place, this may be represented using the supplemental qualifier with QNAM = \"HONAM\". Note that --NAM is a Findings class variable, so is not a standard variable for HO, which is an Events class domain.", "score": 0.2003, "match_basis": "verbatim_token+domain_route:HO"}, {"md_atom_id": "md_dmHO_assn_a001", "md_file": "knowledge_base/domains/HO/assumptions.md", "md_atom_type": "HEADING", "md_parent_section": "§HO [HO — Assumptions]", "md_verbatim": "# HO — Assumptions", "score": 0.19, "match_basis": "verbatim_token+domain_route:HO"}], "candidate_count": 10, "zero_candidate": false}
{"pdf_atom_id": "ig34_p0171_a0006", "pdf_atom_type": "TABLE_HEADER", "pdf_source": "SDTMIG_v3.4", "pdf_page": 171, "pdf_parent_section": "§6.2.5 Healthcare Encounters (HO)", "pdf_verbatim": "| Row | STUDYID | RDOMAIN | USUBJID | IDVAR | IDVARVAL | QNAM | QLABEL | QVAL | QORIG | QEVAL |", "figure_ref": null, "candidates": [{"md_atom_id": "md_dmHO_ex_a029", "md_file": "knowledge_base/domains/HO/examples.md", "md_atom_type": "TABLE_HEADER", "md_parent_section": "§HO.1 [Example 1]", "md_verbatim": "| Row | STUDYID | RDOMAIN | USUBJID | IDVAR | IDVARVAL | QNAM | QLABEL | QVAL | QORIG | QEVAL |\n|-----|---------|---------|---------|-------|----------|------|--------|------|-------|-------|", "score": 1.0, "match_basis": "verbatim_token+domain_route:HO"}, {"md_atom_id": "md_dmHO_ex_a053", "md_file": "knowledge_base/domains/HO/examples.md", "md_atom_type": "TABLE_HEADER", "md_parent_section": "§HO.2 [Example 2]", "md_verbatim": "| Row | STUDYID | RDOMAIN | USUBJID | IDVAR | IDVARVAL | QNAM | QLABEL | QVAL | QORIG | QEVAL |\n|-----|---------|---------|---------|-------|----------|------|--------|------|-------|-------|", "score": 1.0, "match_basis": "verbatim_token+domain_route:HO"}, {"md_atom_id": "md_dmHO_ex_a010", "md_file": "knowledge_base/domains/HO/examples.md", "md_atom_type": "TABLE_HEADER", "md_parent_section": "§HO.1 [Example 1]", "md_verbatim": "| Row | STUDYID | DOMAIN | USUBJID | HOSEQ | HOTERM | EPOCH | HOSTDTC | HOENDTC | HODUR |\n|-----|---------|--------|---------|-------|--------|-------|---------|---------|-------|", "score": 0.5636, "match_basis": "verbatim_token+domain_route:HO"}, {"md_atom_id": "md_dmHO_ex_a039", "md_file": "knowledge_base/domains/HO/examples.md", "md_atom_type": "TABLE_HEADER", "md_parent_section": "§HO.2 [Example 2]", "md_verbatim": "| Row | STUDYID | DOMAIN | USUBJID | HOSEQ | HOTERM | HOCAT | HOSTDTC | HOENDTC | HOENRTPT | HOENTPT |\n|-----|---------|--------|---------|-------|--------|-------|---------|---------|----------|---------|", "score": 0.5552, "match_basis": "verbatim_token+domain_route:HO"}, {"md_atom_id": "md_dmHO_ex_a050", "md_file": "knowledge_base/domains/HO/examples.md", "md_atom_type": "TABLE_ROW", "md_parent_section": "§HO.2 [Example 2]", "md_verbatim": "| 11 | ABC | HO | ABC123102 | 4 | SKILLED NURSING FACILITY | FOLLOW-UP CARE | 2011-07-02 | | ONGOING | END OF STUDY |", "score": 0.3657, "match_basis": "verbatim_token+domain_route:HO"}], "candidate_count": 5, "zero_candidate": false}
{"pdf_atom_id": "ig34_p0171_a0007", "pdf_atom_type": "TABLE_ROW", "pdf_source": "SDTMIG_v3.4", "pdf_page": 171, "pdf_parent_section": "§6.2.5 Healthcare Encounters (HO)", "pdf_verbatim": "| 1 | ABC | HO | ABC123101 | HOSEQ | 7 | HOINDC | Indication | STROKE | CRF | |", "figure_ref": null, "candidates": [{"md_atom_id": "md_dmHO_ex_a054", "md_file": "knowledge_base/domains/HO/examples.md", "md_atom_type": "TABLE_ROW", "md_parent_section": "§HO.2 [Example 2]", "md_verbatim": "| 1 | ABC | HO | ABC123101 | HOSEQ | 7 | HOINDC | Indication | STROKE | CRF | |", "score": 1.0, "match_basis": "verbatim_token+domain_route:HO"}, {"md_atom_id": "md_dmHO_ex_a034", "md_file": "knowledge_base/domains/HO/examples.md", "md_atom_type": "TABLE_ROW", "md_parent_section": "§HO.1 [Example 1]", "md_verbatim": "| 5 | ABC | HO | ABC123105 | HOSEQ | 1 | HOINDC | Indication | ATRIAL FIBRILLATION | CRF | |", "score": 0.7316, "match_basis": "verbatim_token+domain_route:HO"}, {"md_atom_id": "md_dmHO_ex_a030", "md_file": "knowledge_base/domains/HO/examples.md", "md_atom_type": "TABLE_ROW", "md_parent_section": "§HO.1 [Example 1]", "md_verbatim": "| 1 | ABC | HO | ABC123101 | HOSEQ | 1 | HOINDC | Indication | CONGESTIVE HEART FAILURE | CRF | |", "score": 0.7143, "match_basis": "verbatim_token+domain_route:HO"}, {"md_atom_id": "md_dmHO_ex_a031", "md_file": "knowledge_base/domains/HO/examples.md", "md_atom_type": "TABLE_ROW", "md_parent_section": "§HO.1 [Example 1]", "md_verbatim": "| 2 | ABC | HO | ABC123101 | HOSEQ | 2 | HOREAS | Reason | REHABILITATION | CRF | |", "score": 0.6049, "match_basis": "verbatim_token+domain_route:HO"}, {"md_atom_id": "md_dmHO_ex_a046", "md_file": "knowledge_base/domains/HO/examples.md", "md_atom_type": "TABLE_ROW", "md_parent_section": "§HO.2 [Example 2]", "md_verbatim": "| 7 | ABC | HO | ABC123101 | 7 | HOSPITAL | REPEAT HOSPITALIZATION | 2011-07-23 | 2011-07-24 | | |", "score": 0.561, "match_basis": "verbatim_token+domain_route:HO"}], "candidate_count": 5, "zero_candidate": false}
{"pdf_atom_id": "ig34_p0171_a0008", "pdf_atom_type": "HEADING", "pdf_source": "SDTMIG_v3.4", "pdf_page": 171, "pdf_parent_section": "§6.2 [MODELS FOR EVENTS DOMAINS]", "pdf_verbatim": "6.2.6 Medical History (MH)", "figure_ref": null, "candidates": [{"md_atom_id": "md_varindex_a830", "md_file": "knowledge_base/VARIABLE_INDEX.md", "md_atom_type": "HEADING", "md_parent_section": "§ 二、领域专属变量（仅 1 个域，共 1499 个），按域分组", "md_verbatim": "### MH — Medical History (Events)", "score": 0.7286, "match_basis": "verbatim_token+global_search"}, {"md_atom_id": "md_ch10_a136", "md_file": "knowledge_base/chapters/ch10_appendices.md", "md_atom_type": "HEADING", "md_parent_section": "§10 [Appendices]", "md_verbatim": "## Appendix E: Revision History", "score": 0.4364, "match_basis": "verbatim_token+global_search"}, {"md_atom_id": "md_varindex_a207", "md_file": "knowledge_base/VARIABLE_INDEX.md", "md_atom_type": "HEADING", "md_parent_section": "§ 二、领域专属变量（仅 1 个域，共 1499 个），按域分组", "md_verbatim": "### CM — Concomitant/Prior Medications (Interventions)", "score": 0.3686, "match_basis": "verbatim_token+global_search"}, {"md_atom_id": "md_varindex_a178", "md_file": "knowledge_base/VARIABLE_INDEX.md", "md_atom_type": "HEADING", "md_parent_section": "§ 二、领域专属变量（仅 1 个域，共 1499 个），按域分组", "md_verbatim": "### CE — Clinical Events (Events)", "score": 0.3667, "match_basis": "verbatim_token+global_search"}, {"md_atom_id": "md_ch04_a605", "md_file": "knowledge_base/chapters/ch04_general_assumptions.md", "md_atom_type": "HEADING", "md_parent_section": "§4.4 [Actual and Relative Time Assumptions]", "md_verbatim": "### 4.4.5 Clinical Encounters and Visits", "score": 0.3444, "match_basis": "verbatim_token+global_search"}], "candidate_count": 5, "zero_candidate": false}
{"pdf_atom_id": "ig34_p0171_a0009", "pdf_atom_type": "HEADING", "pdf_source": "SDTMIG_v3.4", "pdf_page": 171, "pdf_parent_section": "§6.2.6 Medical History (MH)", "pdf_verbatim": "MH – Description/Overview", "figure_ref": null, "candidates": [{"md_atom_id": "md_dmMH_assn_a001", "md_file": "knowledge_base/domains/MH/assumptions.md", "md_atom_type": "HEADING", "md_parent_section": "§MH [MH — Assumptions]", "md_verbatim": "# MH — Assumptions", "score": 0.4857, "match_basis": "verbatim_token+domain_route:MH"}, {"md_atom_id": "md_dmMH_ex_a001", "md_file": "knowledge_base/domains/MH/examples.md", "md_atom_type": "HEADING", "md_parent_section": "§MH [MH — Examples]", "md_verbatim": "# MH — Examples", "score": 0.4, "match_basis": "verbatim_token+domain_route:MH"}, {"md_atom_id": "md_dmMH_ex_a002", "md_file": "knowledge_base/domains/MH/examples.md", "md_atom_type": "HEADING", "md_parent_section": "§MH [MH — Examples]", "md_verbatim": "## Example 1", "score": 0.4, "match_basis": "verbatim_token+domain_route:MH"}, {"md_atom_id": "md_dmMH_ex_a024", "md_file": "knowledge_base/domains/MH/examples.md", "md_atom_type": "HEADING", "md_parent_section": "§MH [MH — Examples]", "md_verbatim": "## Example 2", "score": 0.4, "match_basis": "verbatim_token+domain_route:MH"}, {"md_atom_id": "md_dmMH_ex_a053", "md_file": "knowledge_base/domains/MH/examples.md", "md_atom_type": "HEADING", "md_parent_section": "§MH [MH — Examples]", "md_verbatim": "## Example 3", "score": 0.4, "match_basis": "verbatim_token+domain_route:MH"}], "candidate_count": 5, "zero_candidate": false}
{"pdf_atom_id": "ig34_p0171_a0010", "pdf_atom_type": "SENTENCE", "pdf_source": "SDTMIG_v3.4", "pdf_page": 171, "pdf_parent_section": "§6.2.6 Medical History (MH)", "pdf_verbatim": "An events domain that contains data that includes the subject's prior medical history at the start of the trial.", "figure_ref": null, "candidates": [{"md_atom_id": "md_dmMH_ex_a013", "md_file": "knowledge_base/domains/MH/examples.md", "md_atom_type": "SENTENCE", "md_parent_section": "§MH.1 [Example 1]", "md_verbatim": "**Rows 4-5:** MHCAT indicates that these data were collected on the Cardiac Medical History CRF.", "score": 0.5315, "match_basis": "verbatim_token+domain_route:MH"}, {"md_atom_id": "md_dmMH_ex_a025", "md_file": "knowledge_base/domains/MH/examples.md", "md_atom_type": "SENTENCE", "md_parent_section": "§MH.2 [Example 2]", "md_verbatim": "In this example, data from 3 CRF modules related to medical history were collected:", "score": 0.5054, "match_basis": "verbatim_token+domain_route:MH"}, {"md_atom_id": "md_dmMH_ex_a076", "md_file": "knowledge_base/domains/MH/examples.md", "md_atom_type": "SENTENCE", "md_parent_section": "§MH.4 [Example 4]", "md_verbatim": "Data collection included which kind of diabetes the subject had and the date of diagnosis of the condition.", "score": 0.505, "match_basis": "verbatim_token+domain_route:MH"}, {"md_atom_id": "md_dmMH_ex_a003", "md_file": "knowledge_base/domains/MH/examples.md", "md_atom_type": "SENTENCE", "md_parent_section": "§MH.1 [Example 1]", "md_verbatim": "In this example, a General Medical History CRF collected verbatim descriptions of conditions and events by body system (e.g., endocrine, metabolic), did not collect start date, but asked whether or not the condition was ongoing at the time of the visit.", "score": 0.5048, "match_basis": "verbatim_token+domain_route:MH"}, {"md_atom_id": "md_dmMH_ex_a031", "md_file": "knowledge_base/domains/MH/examples.md", "md_atom_type": "SENTENCE", "md_parent_section": "§MH.2 [Example 2]", "md_verbatim": "**Rows 1-3:** Show records from the General Medical History CRF.", "score": 0.5015, "match_basis": "verbatim_token+domain_route:MH"}], "candidate_count": 5, "zero_candidate": false}
{"pdf_atom_id": "ig34_p0171_a0011", "pdf_atom_type": "HEADING", "pdf_source": "SDTMIG_v3.4", "pdf_page": 171, "pdf_parent_section": "§6.2.6 Medical History (MH)", "pdf_verbatim": "MH – Specification", "figure_ref": null, "candidates": [{"md_atom_id": "md_dmMH_assn_a001", "md_file": "knowledge_base/domains/MH/assumptions.md", "md_atom_type": "HEADING", "md_parent_section": "§MH [MH — Assumptions]", "md_verbatim": "# MH — Assumptions", "score": 0.4667, "match_basis": "verbatim_token+domain_route:MH"}, {"md_atom_id": "md_dmMH_ex_a001", "md_file": "knowledge_base/domains/MH/examples.md", "md_atom_type": "HEADING", "md_parent_section": "§MH [MH — Examples]", "md_verbatim": "# MH — Examples", "score": 0.4, "match_basis": "verbatim_token+domain_route:MH"}, {"md_atom_id": "md_dmMH_ex_a002", "md_file": "knowledge_base/domains/MH/examples.md", "md_atom_type": "HEADING", "md_parent_section": "§MH [MH — Examples]", "md_verbatim": "## Example 1", "score": 0.4, "match_basis": "verbatim_token+domain_route:MH"}, {"md_atom_id": "md_dmMH_ex_a024", "md_file": "knowledge_base/domains/MH/examples.md", "md_atom_type": "HEADING", "md_parent_section": "§MH [MH — Examples]", "md_verbatim": "## Example 2", "score": 0.4, "match_basis": "verbatim_token+domain_route:MH"}, {"md_atom_id": "md_dmMH_ex_a053", "md_file": "knowledge_base/domains/MH/examples.md", "md_atom_type": "HEADING", "md_parent_section": "§MH [MH — Examples]", "md_verbatim": "## Example 3", "score": 0.4, "match_basis": "verbatim_token+domain_route:MH"}], "candidate_count": 5, "zero_candidate": false}
{"pdf_atom_id": "ig34_p0171_a0012", "pdf_atom_type": "CODE_LITERAL", "pdf_source": "SDTMIG_v3.4", "pdf_page": 171, "pdf_parent_section": "§6.2.6 Medical History (MH)", "pdf_verbatim": "mh.xpt, Medical History — Events. One record per medical history event per subject, Tabulation.", "figure_ref": null, "candidates": [{"md_atom_id": "md_dmMH_ex_a031", "md_file": "knowledge_base/domains/MH/examples.md", "md_atom_type": "SENTENCE", "md_parent_section": "§MH.2 [Example 2]", "md_verbatim": "**Rows 1-3:** Show records from the General Medical History CRF.", "score": 0.365, "match_basis": "verbatim_token+domain_route:MH"}, {"md_atom_id": "md_dmMH_ex_a025", "md_file": "knowledge_base/domains/MH/examples.md", "md_atom_type": "SENTENCE", "md_parent_section": "§MH.2 [Example 2]", "md_verbatim": "In this example, data from 3 CRF modules related to medical history were collected:", "score": 0.308, "match_basis": "verbatim_token+domain_route:MH"}, {"md_atom_id": "md_dmMH_ex_a037", "md_file": "knowledge_base/domains/MH/examples.md", "md_atom_type": "SENTENCE", "md_parent_section": "§MH.2 [Example 2]", "md_verbatim": "**Row 4:** Shows the record from the Stroke History CRF.", "score": 0.3074, "match_basis": "verbatim_token+domain_route:MH"}, {"md_atom_id": "md_dmMH_ex_a029", "md_file": "knowledge_base/domains/MH/examples.md", "md_atom_type": "SENTENCE", "md_parent_section": "§MH.2 [Example 2]", "md_verbatim": "In all of the records shown below, MHCAT is populated with the CRF module (general medical history, stroke history, or risk factors) through which the data were collected.", "score": 0.3033, "match_basis": "verbatim_token+domain_route:MH"}, {"md_atom_id": "md_dmMH_ex_a009", "md_file": "knowledge_base/domains/MH/examples.md", "md_atom_type": "SENTENCE", "md_parent_section": "§MH.1 [Example 1]", "md_verbatim": "MHENRTPT was populated based on the response to the \"Ongoing at Study Start\" question on the General Medical History CRF.", "score": 0.2991, "match_basis": "verbatim_token+domain_route:MH"}], "candidate_count": 5, "zero_candidate": false}
{"pdf_atom_id": "ig34_p0171_a0013", "pdf_atom_type": "TABLE_HEADER", "pdf_source": "SDTMIG_v3.4", "pdf_page": 171, "pdf_parent_section": "§6.2.6 Medical History (MH)", "pdf_verbatim": "| Variable Name | Variable Label | Type | Controlled Terms, Codelist or Format1 | Role | CDISC Notes | Core |", "figure_ref": null, "candidates": [{"md_atom_id": "md_dmMH_ex_a083", "md_file": "knowledge_base/domains/MH/examples.md", "md_atom_type": "TABLE_HEADER", "md_parent_section": "§MH.4 [Example 4]", "md_verbatim": "| Row | STUDYID | DOMAIN | USUBJID | MHSEQ | MHTERM | MHDECOD | MHEVDTYP | MHCAT | MHPRESP | MHOCCUR | MHDTC | MHSTDTC |\n|-----|---------|--------|---------|-------|--------|---------|----------|-------|---------|---------|-------|---------|", "score": 0.4264, "match_basis": "verbatim_token+domain_route:MH"}, {"md_atom_id": "md_dmMH_ex_a018", "md_file": "knowledge_base/domains/MH/examples.md", "md_atom_type": "TABLE_HEADER", "md_parent_section": "§MH.1 [Example 1]", "md_verbatim": "| Row | STUDYID | DOMAIN | USUBJID | MHSEQ | MHGRPID | MHTERM | MHDECOD | MHCAT | MHSCAT | MHBODSYS | MHSTDTC | MHENRTPT | MHENTPT |\n|-----|---------|--------|---------|-------|---------|--------|---------|-------|--------|----------|---------|----------|---------|", "score": 0.4187, "match_basis": "verbatim_token+domain_route:MH"}, {"md_atom_id": "md_dmMH_ex_a063", "md_file": "knowledge_base/domains/MH/examples.md", "md_atom_type": "TABLE_HEADER", "md_parent_section": "§MH.3 [Example 3]", "md_verbatim": "| Row | STUDYID | DOMAIN | USUBJID | MHSEQ | MHTERM | MHDECOD | MHPRESP | MHOCCUR | MHSTAT | MHREASND | VISITNUM | VISIT | MHDTC | MHDY |\n|-----|---------|--------|---------|-------|--------|---------|---------|---------|--------|----------|----------|-------|-------|------|", "score": 0.4187, "match_basis": "verbatim_token+domain_route:MH"}, {"md_atom_id": "md_dmMH_ex_a044", "md_file": "knowledge_base/domains/MH/examples.md", "md_atom_type": "TABLE_HEADER", "md_parent_section": "§MH.2 [Example 2]", "md_verbatim": "| Row | STUDYID | DOMAIN | USUBJID | MHSEQ | MHTERM | MHDECOD | MHCAT | MHSCAT | MHBODSYS | MHPRESP | MHOCCUR | MHSTDTC | MHENRF |\n|-----|---------|--------|---------|-------|--------|---------|-------|--------|----------|---------|---------|---------|--------|", "score": 0.4186, "match_basis": "verbatim_token+domain_route:MH"}, {"md_atom_id": "md_dmMH_ex_a098", "md_file": "knowledge_base/domains/MH/examples.md", "md_atom_type": "TABLE_HEADER", "md_parent_section": "§MH.5 [Example 5]", "md_verbatim": "| Row | STUDYID | DOMAIN | USUBJID | MHSEQ | MHTERM | MHCAT | MHPRESP | MHOCCUR | MHDTC | MHENDTC | MHDY | MHEVLINT | MHENRTPT | MHENTPT |\n|-----|---------|--------|---------|-------|--------|-------|---------|---------|-------|---------|------|----------|----------|---------|", "score": 0.4125, "match_basis": "verbatim_token+domain_route:MH"}], "candidate_count": 5, "zero_candidate": false}
{"pdf_atom_id": "ig34_p0171_a0014", "pdf_atom_type": "TABLE_ROW", "pdf_source": "SDTMIG_v3.4", "pdf_page": 171, "pdf_parent_section": "§6.2.6 Medical History (MH)", "pdf_verbatim": "| STUDYID | Study Identifier | Char | | Identifier | Unique identifier for a study. | Req |", "figure_ref": null, "candidates": [{"md_atom_id": "md_dmMH_assn_a022", "md_file": "knowledge_base/domains/MH/assumptions.md", "md_atom_type": "TABLE_ROW", "md_parent_section": "§MH [MH — Assumptions]", "md_verbatim": "      | Pre-specified event did not occur | Y | N | |", "score": 0.4529, "match_basis": "verbatim_token+domain_route:MH"}, {"md_atom_id": "md_dmMH_assn_a021", "md_file": "knowledge_base/domains/MH/assumptions.md", "md_atom_type": "TABLE_ROW", "md_parent_section": "§MH [MH — Assumptions]", "md_verbatim": "      | Pre-specified event occurred | Y | Y | |", "score": 0.4514, "match_basis": "verbatim_token+domain_route:MH"}, {"md_atom_id": "md_dmMH_assn_a023", "md_file": "knowledge_base/domains/MH/assumptions.md", "md_atom_type": "TABLE_ROW", "md_parent_section": "§MH [MH — Assumptions]", "md_verbatim": "      | Pre-specified event has no response | Y | | NOT DONE |", "score": 0.4462, "match_basis": "verbatim_token+domain_route:MH"}, {"md_atom_id": "md_dmMH_ex_a052", "md_file": "knowledge_base/domains/MH/examples.md", "md_atom_type": "TABLE_ROW", "md_parent_section": "§MH.2 [Example 2]", "md_verbatim": "| 8 | ABC123 | MH | 123101 | 8 | TIA | Transient ischaemic attack | RISK FACTORS | | | Y | N | | |", "score": 0.4231, "match_basis": "verbatim_token+domain_route:MH"}, {"md_atom_id": "md_dmMH_ex_a020", "md_file": "knowledge_base/domains/MH/examples.md", "md_atom_type": "TABLE_ROW", "md_parent_section": "§MH.1 [Example 1]", "md_verbatim": "| 2 | ABC123 | MH | 123101 | 2 | | FREQUENT HEADACHES | Headache | GENERAL MEDICAL HISTORY | CNS | Central and peripheral nervous system disorders | 2004-09-18 | ONGOING | |", "score": 0.4209, "match_basis": "verbatim_token+domain_route:MH"}], "candidate_count": 5, "zero_candidate": false}
{"pdf_atom_id": "ig34_p0171_a0015", "pdf_atom_type": "TABLE_ROW", "pdf_source": "SDTMIG_v3.4", "pdf_page": 171, "pdf_parent_section": "§6.2.6 Medical History (MH)", "pdf_verbatim": "| DOMAIN | Domain Abbreviation | Char | MH | Identifier | Two-character abbreviation for the domain. | Req |", "figure_ref": null, "candidates": [{"md_atom_id": "md_dmMH_assn_a022", "md_file": "knowledge_base/domains/MH/assumptions.md", "md_atom_type": "TABLE_ROW", "md_parent_section": "§MH [MH — Assumptions]", "md_verbatim": "      | Pre-specified event did not occur | Y | N | |", "score": 0.4391, "match_basis": "verbatim_token+domain_route:MH"}, {"md_atom_id": "md_dmMH_assn_a021", "md_file": "knowledge_base/domains/MH/assumptions.md", "md_atom_type": "TABLE_ROW", "md_parent_section": "§MH [MH — Assumptions]", "md_verbatim": "      | Pre-specified event occurred | Y | Y | |", "score": 0.4383, "match_basis": "verbatim_token+domain_route:MH"}, {"md_atom_id": "md_dmMH_assn_a023", "md_file": "knowledge_base/domains/MH/assumptions.md", "md_atom_type": "TABLE_ROW", "md_parent_section": "§MH [MH — Assumptions]", "md_verbatim": "      | Pre-specified event has no response | Y | | NOT DONE |", "score": 0.4353, "match_basis": "verbatim_token+domain_route:MH"}, {"md_atom_id": "md_dmMH_ex_a052", "md_file": "knowledge_base/domains/MH/examples.md", "md_atom_type": "TABLE_ROW", "md_parent_section": "§MH.2 [Example 2]", "md_verbatim": "| 8 | ABC123 | MH | 123101 | 8 | TIA | Transient ischaemic attack | RISK FACTORS | | | Y | N | | |", "score": 0.4286, "match_basis": "verbatim_token+domain_route:MH"}, {"md_atom_id": "md_dmMH_ex_a101", "md_file": "knowledge_base/domains/MH/examples.md", "md_atom_type": "TABLE_ROW", "md_parent_section": "§MH.5 [Example 5]", "md_verbatim": "| 3 | XYZ234 | MH | 204 | 2 | COMMON COLD | RESPIRATORY INFECTIONS | | | 2019-12-08 | | -1 | -P6M | BEFORE | 2019-12-08 |", "score": 0.4277, "match_basis": "verbatim_token+domain_route:MH"}], "candidate_count": 5, "zero_candidate": false}
{"pdf_atom_id": "ig34_p0171_a0016", "pdf_atom_type": "TABLE_ROW", "pdf_source": "SDTMIG_v3.4", "pdf_page": 171, "pdf_parent_section": "§6.2.6 Medical History (MH)", "pdf_verbatim": "| USUBJID | Unique Subject Identifier | Char | | Identifier | Identifier used to uniquely identify a subject across all studies for all applications or submissions involving the product. | Req |", "figure_ref": null, "candidates": [{"md_atom_id": "md_dmMH_ex_a101", "md_file": "knowledge_base/domains/MH/examples.md", "md_atom_type": "TABLE_ROW", "md_parent_section": "§MH.5 [Example 5]", "md_verbatim": "| 3 | XYZ234 | MH | 204 | 2 | COMMON COLD | RESPIRATORY INFECTIONS | | | 2019-12-08 | | -1 | -P6M | BEFORE | 2019-12-08 |", "score": 0.4306, "match_basis": "verbatim_token+domain_route:MH"}, {"md_atom_id": "md_dmMH_ex_a102", "md_file": "knowledge_base/domains/MH/examples.md", "md_atom_type": "TABLE_ROW", "md_parent_section": "§MH.5 [Example 5]", "md_verbatim": "| 4 | XYZ234 | MH | 204 | 3 | BRONCHITIS | RESPIRATORY INFECTIONS | | | 2019-12-08 | 2019-10-20 | -1 | -P6M | BEFORE | 2019-12-08 |", "score": 0.43, "match_basis": "verbatim_token+domain_route:MH"}, {"md_atom_id": "md_dmMH_assn_a023", "md_file": "knowledge_base/domains/MH/assumptions.md", "md_atom_type": "TABLE_ROW", "md_parent_section": "§MH [MH — Assumptions]", "md_verbatim": "      | Pre-specified event has no response | Y | | NOT DONE |", "score": 0.4282, "match_basis": "verbatim_token+domain_route:MH"}, {"md_atom_id": "md_dmMH_ex_a099", "md_file": "knowledge_base/domains/MH/examples.md", "md_atom_type": "TABLE_ROW", "md_parent_section": "§MH.5 [Example 5]", "md_verbatim": "| 1 | XYZ234 | MH | 203 | 1 | RESPIRATORY INFECTIONS | RESPIRATORY INFECTIONS | Y | N | 2019-11-02 | | -2 | -P6M | | |", "score": 0.427, "match_basis": "verbatim_token+domain_route:MH"}, {"md_atom_id": "md_dmMH_ex_a100", "md_file": "knowledge_base/domains/MH/examples.md", "md_atom_type": "TABLE_ROW", "md_parent_section": "§MH.5 [Example 5]", "md_verbatim": "| 2 | XYZ234 | MH | 204 | 1 | RESPIRATORY INFECTIONS | RESPIRATORY INFECTIONS | Y | Y | 2019-12-08 | | -1 | -P6M | | |", "score": 0.427, "match_basis": "verbatim_token+domain_route:MH"}], "candidate_count": 5, "zero_candidate": false}
{"pdf_atom_id": "ig34_p0171_a0017", "pdf_atom_type": "TABLE_ROW", "pdf_source": "SDTMIG_v3.4", "pdf_page": 171, "pdf_parent_section": "§6.2.6 Medical History (MH)", "pdf_verbatim": "| MHSEQ | Sequence Number | Num | | Identifier | Sequence number given to ensure uniqueness of subject records within a domain. May be any valid number. | Req |", "figure_ref": null, "candidates": [{"md_atom_id": "md_dmMH_ex_a020", "md_file": "knowledge_base/domains/MH/examples.md", "md_atom_type": "TABLE_ROW", "md_parent_section": "§MH.1 [Example 1]", "md_verbatim": "| 2 | ABC123 | MH | 123101 | 2 | | FREQUENT HEADACHES | Headache | GENERAL MEDICAL HISTORY | CNS | Central and peripheral nervous system disorders | 2004-09-18 | ONGOING | |", "score": 0.4356, "match_basis": "verbatim_token+domain_route:MH"}, {"md_atom_id": "md_dmMH_ex_a046", "md_file": "knowledge_base/domains/MH/examples.md", "md_atom_type": "TABLE_ROW", "md_parent_section": "§MH.2 [Example 2]", "md_verbatim": "| 2 | ABC123 | MH | 123101 | 2 | FREQUENT HEADACHES | Headache | GENERAL MEDICAL HISTORY | CNS | Central and peripheral nervous system disorders | | | | DURING/AFTER |", "score": 0.4356, "match_basis": "verbatim_token+domain_route:MH"}, {"md_atom_id": "md_dmMH_assn_a022", "md_file": "knowledge_base/domains/MH/assumptions.md", "md_atom_type": "TABLE_ROW", "md_parent_section": "§MH [MH — Assumptions]", "md_verbatim": "      | Pre-specified event did not occur | Y | N | |", "score": 0.4348, "match_basis": "verbatim_token+domain_route:MH"}, {"md_atom_id": "md_dmMH_assn_a021", "md_file": "knowledge_base/domains/MH/assumptions.md", "md_atom_type": "TABLE_ROW", "md_parent_section": "§MH [MH — Assumptions]", "md_verbatim": "      | Pre-specified event occurred | Y | Y | |", "score": 0.4343, "match_basis": "verbatim_token+domain_route:MH"}, {"md_atom_id": "md_dmMH_assn_a023", "md_file": "knowledge_base/domains/MH/assumptions.md", "md_atom_type": "TABLE_ROW", "md_parent_section": "§MH [MH — Assumptions]", "md_verbatim": "      | Pre-specified event has no response | Y | | NOT DONE |", "score": 0.4324, "match_basis": "verbatim_token+domain_route:MH"}], "candidate_count": 5, "zero_candidate": false}
{"pdf_atom_id": "ig34_p0171_a0018", "pdf_atom_type": "TABLE_ROW", "pdf_source": "SDTMIG_v3.4", "pdf_page": 171, "pdf_parent_section": "§6.2.6 Medical History (MH)", "pdf_verbatim": "| MHGRPID | Group ID | Char | | Identifier | Used to tie together a block of related records in a single domain for a subject. | Perm |", "figure_ref": null, "candidates": [{"md_atom_id": "md_dmMH_ex_a018", "md_file": "knowledge_base/domains/MH/examples.md", "md_atom_type": "TABLE_HEADER", "md_parent_section": "§MH.1 [Example 1]", "md_verbatim": "| Row | STUDYID | DOMAIN | USUBJID | MHSEQ | MHGRPID | MHTERM | MHDECOD | MHCAT | MHSCAT | MHBODSYS | MHSTDTC | MHENRTPT | MHENTPT |\n|-----|---------|--------|---------|-------|---------|--------|---------|-------|--------|----------|---------|----------|---------|", "score": 0.4266, "match_basis": "verbatim_token+domain_route:MH"}, {"md_atom_id": "md_dmMH_assn_a022", "md_file": "knowledge_base/domains/MH/assumptions.md", "md_atom_type": "TABLE_ROW", "md_parent_section": "§MH [MH — Assumptions]", "md_verbatim": "      | Pre-specified event did not occur | Y | N | |", "score": 0.4261, "match_basis": "verbatim_token+domain_route:MH"}, {"md_atom_id": "md_dmMH_assn_a021", "md_file": "knowledge_base/domains/MH/assumptions.md", "md_atom_type": "TABLE_ROW", "md_parent_section": "§MH [MH — Assumptions]", "md_verbatim": "      | Pre-specified event occurred | Y | Y | |", "score": 0.4257, "match_basis": "verbatim_token+domain_route:MH"}, {"md_atom_id": "md_dmMH_ex_a020", "md_file": "knowledge_base/domains/MH/examples.md", "md_atom_type": "TABLE_ROW", "md_parent_section": "§MH.1 [Example 1]", "md_verbatim": "| 2 | ABC123 | MH | 123101 | 2 | | FREQUENT HEADACHES | Headache | GENERAL MEDICAL HISTORY | CNS | Central and peripheral nervous system disorders | 2004-09-18 | ONGOING | |", "score": 0.4252, "match_basis": "verbatim_token+domain_route:MH"}, {"md_atom_id": "md_dmMH_ex_a046", "md_file": "knowledge_base/domains/MH/examples.md", "md_atom_type": "TABLE_ROW", "md_parent_section": "§MH.2 [Example 2]", "md_verbatim": "| 2 | ABC123 | MH | 123101 | 2 | FREQUENT HEADACHES | Headache | GENERAL MEDICAL HISTORY | CNS | Central and peripheral nervous system disorders | | | | DURING/AFTER |", "score": 0.4252, "match_basis": "verbatim_token+domain_route:MH"}], "candidate_count": 5, "zero_candidate": false}
{"pdf_atom_id": "ig34_p0171_a0019", "pdf_atom_type": "TABLE_ROW", "pdf_source": "SDTMIG_v3.4", "pdf_page": 171, "pdf_parent_section": "§6.2.6 Medical History (MH)", "pdf_verbatim": "| MHREFID | Reference ID | Char | | Identifier | Internal or external medical history identifier. | Perm |", "figure_ref": null, "candidates": [{"md_atom_id": "md_dmMH_ex_a045", "md_file": "knowledge_base/domains/MH/examples.md", "md_atom_type": "TABLE_ROW", "md_parent_section": "§MH.2 [Example 2]", "md_verbatim": "| 1 | ABC123 | MH | 123101 | 1 | ASTHMA | Asthma | GENERAL MEDICAL HISTORY | RESPIRATORY | Respiratory system disorders | | | | DURING/AFTER |", "score": 0.4815, "match_basis": "verbatim_token+domain_route:MH"}, {"md_atom_id": "md_dmMH_ex_a046", "md_file": "knowledge_base/domains/MH/examples.md", "md_atom_type": "TABLE_ROW", "md_parent_section": "§MH.2 [Example 2]", "md_verbatim": "| 2 | ABC123 | MH | 123101 | 2 | FREQUENT HEADACHES | Headache | GENERAL MEDICAL HISTORY | CNS | Central and peripheral nervous system disorders | | | | DURING/AFTER |", "score": 0.4812, "match_basis": "verbatim_token+domain_route:MH"}, {"md_atom_id": "md_dmMH_ex_a022", "md_file": "knowledge_base/domains/MH/examples.md", "md_atom_type": "TABLE_ROW", "md_parent_section": "§MH.1 [Example 1]", "md_verbatim": "| 4 | ABC123 | MH | 123101 | 4 | CHF | CONGESTIVE HEART FAILURE | Cardiac failure congestive | CARDIAC MEDICAL HISTORY | | Cardiac disorders | 2004-09-17 | | |", "score": 0.4759, "match_basis": "verbatim_token+domain_route:MH"}, {"md_atom_id": "md_dmMH_ex_a023", "md_file": "knowledge_base/domains/MH/examples.md", "md_atom_type": "TABLE_ROW", "md_parent_section": "§MH.1 [Example 1]", "md_verbatim": "| 5 | ABC123 | MH | 123101 | 5 | CHF | CONGESTIVE HEART FAILURE | Cardiac failure congestive | CARDIAC MEDICAL HISTORY | | Cardiac disorders | 2004-09-19 | | |", "score": 0.4759, "match_basis": "verbatim_token+domain_route:MH"}, {"md_atom_id": "md_dmMH_ex_a020", "md_file": "knowledge_base/domains/MH/examples.md", "md_atom_type": "TABLE_ROW", "md_parent_section": "§MH.1 [Example 1]", "md_verbatim": "| 2 | ABC123 | MH | 123101 | 2 | | FREQUENT HEADACHES | Headache | GENERAL MEDICAL HISTORY | CNS | Central and peripheral nervous system disorders | 2004-09-18 | ONGOING | |", "score": 0.4742, "match_basis": "verbatim_token+domain_route:MH"}], "candidate_count": 5, "zero_candidate": false}
{"pdf_atom_id": "ig34_p0171_a0020", "pdf_atom_type": "TABLE_ROW", "pdf_source": "SDTMIG_v3.4", "pdf_page": 171, "pdf_parent_section": "§6.2.6 Medical History (MH)", "pdf_verbatim": "| MHSPID | Sponsor-Defined Identifier | Char | | Identifier | Sponsor-defined reference number. May be preprinted on the CRF as an explicit line identifier or defined in the sponsor's operational database. Example: Line number on a Medical History CRF page. | Perm |", "figure_ref": null, "candidates": [{"md_atom_id": "md_dmMH_ex_a045", "md_file": "knowledge_base/domains/MH/examples.md", "md_atom_type": "TABLE_ROW", "md_parent_section": "§MH.2 [Example 2]", "md_verbatim": "| 1 | ABC123 | MH | 123101 | 1 | ASTHMA | Asthma | GENERAL MEDICAL HISTORY | RESPIRATORY | Respiratory system disorders | | | | DURING/AFTER |", "score": 0.4738, "match_basis": "verbatim_token+domain_route:MH"}, {"md_atom_id": "md_dmMH_ex_a019", "md_file": "knowledge_base/domains/MH/examples.md", "md_atom_type": "TABLE_ROW", "md_parent_section": "§MH.1 [Example 1]", "md_verbatim": "| 1 | ABC123 | MH | 123101 | 1 | | ASTHMA | Asthma | GENERAL MEDICAL HISTORY | RESPIRATORY | Respiratory system disorders | 2004-09-18 | ONGOING | |", "score": 0.4683, "match_basis": "verbatim_token+domain_route:MH"}, {"md_atom_id": "md_dmMH_ex_a046", "md_file": "knowledge_base/domains/MH/examples.md", "md_atom_type": "TABLE_ROW", "md_parent_section": "§MH.2 [Example 2]", "md_verbatim": "| 2 | ABC123 | MH | 123101 | 2 | FREQUENT HEADACHES | Headache | GENERAL MEDICAL HISTORY | CNS | Central and peripheral nervous system disorders | | | | DURING/AFTER |", "score": 0.4647, "match_basis": "verbatim_token+domain_route:MH"}, {"md_atom_id": "md_dmMH_ex_a020", "md_file": "knowledge_base/domains/MH/examples.md", "md_atom_type": "TABLE_ROW", "md_parent_section": "§MH.1 [Example 1]", "md_verbatim": "| 2 | ABC123 | MH | 123101 | 2 | | FREQUENT HEADACHES | Headache | GENERAL MEDICAL HISTORY | CNS | Central and peripheral nervous system disorders | 2004-09-18 | ONGOING | |", "score": 0.46, "match_basis": "verbatim_token+domain_route:MH"}, {"md_atom_id": "md_dmMH_ex_a047", "md_file": "knowledge_base/domains/MH/examples.md", "md_atom_type": "TABLE_ROW", "md_parent_section": "§MH.2 [Example 2]", "md_verbatim": "| 3 | ABC123 | MH | 123101 | 3 | BROKEN LEG | Bone fracture | GENERAL MEDICAL HISTORY | OTHER | Musculoskeletal system disorders | | | | BEFORE |", "score": 0.4561, "match_basis": "verbatim_token+domain_route:MH"}], "candidate_count": 5, "zero_candidate": false}
{"pdf_atom_id": "ig34_p0171_a0021", "pdf_atom_type": "TABLE_ROW", "pdf_source": "SDTMIG_v3.4", "pdf_page": 171, "pdf_parent_section": "§6.2.6 Medical History (MH)", "pdf_verbatim": "| MHTERM | Reported Term for the Medical History | Char | | Topic | Verbatim or preprinted CRF term for the medical condition or event. | Req |", "figure_ref": null, "candidates": [{"md_atom_id": "md_dmMH_ex_a045", "md_file": "knowledge_base/domains/MH/examples.md", "md_atom_type": "TABLE_ROW", "md_parent_section": "§MH.2 [Example 2]", "md_verbatim": "| 1 | ABC123 | MH | 123101 | 1 | ASTHMA | Asthma | GENERAL MEDICAL HISTORY | RESPIRATORY | Respiratory system disorders | | | | DURING/AFTER |", "score": 0.48, "match_basis": "verbatim_token+domain_route:MH"}, {"md_atom_id": "md_dmMH_ex_a046", "md_file": "knowledge_base/domains/MH/examples.md", "md_atom_type": "TABLE_ROW", "md_parent_section": "§MH.2 [Example 2]", "md_verbatim": "| 2 | ABC123 | MH | 123101 | 2 | FREQUENT HEADACHES | Headache | GENERAL MEDICAL HISTORY | CNS | Central and peripheral nervous system disorders | | | | DURING/AFTER |", "score": 0.48, "match_basis": "verbatim_token+domain_route:MH"}, {"md_atom_id": "md_dmMH_assn_a020", "md_file": "knowledge_base/domains/MH/assumptions.md", "md_atom_type": "TABLE_ROW", "md_parent_section": "§MH [MH — Assumptions]", "md_verbatim": "      | Spontaneously reported event occurred | | | |", "score": 0.4794, "match_basis": "verbatim_token+domain_route:MH"}, {"md_atom_id": "md_dmMH_ex_a022", "md_file": "knowledge_base/domains/MH/examples.md", "md_atom_type": "TABLE_ROW", "md_parent_section": "§MH.1 [Example 1]", "md_verbatim": "| 4 | ABC123 | MH | 123101 | 4 | CHF | CONGESTIVE HEART FAILURE | Cardiac failure congestive | CARDIAC MEDICAL HISTORY | | Cardiac disorders | 2004-09-17 | | |", "score": 0.475, "match_basis": "verbatim_token+domain_route:MH"}, {"md_atom_id": "md_dmMH_ex_a023", "md_file": "knowledge_base/domains/MH/examples.md", "md_atom_type": "TABLE_ROW", "md_parent_section": "§MH.1 [Example 1]", "md_verbatim": "| 5 | ABC123 | MH | 123101 | 5 | CHF | CONGESTIVE HEART FAILURE | Cardiac failure congestive | CARDIAC MEDICAL HISTORY | | Cardiac disorders | 2004-09-19 | | |", "score": 0.475, "match_basis": "verbatim_token+domain_route:MH"}], "candidate_count": 5, "zero_candidate": false}
{"pdf_atom_id": "ig34_p0171_a0022", "pdf_atom_type": "TABLE_ROW", "pdf_source": "SDTMIG_v3.4", "pdf_page": 171, "pdf_parent_section": "§6.2.6 Medical History (MH)", "pdf_verbatim": "| MHMODIFY | Modified Reported Term | Char | | Synonym Qualifier | If MHTERM is modified to facilitate coding, then MHMODIFY will contain the modified text. | Perm |", "figure_ref": null, "candidates": [{"md_atom_id": "md_dmMH_assn_a020", "md_file": "knowledge_base/domains/MH/assumptions.md", "md_atom_type": "TABLE_ROW", "md_parent_section": "§MH [MH — Assumptions]", "md_verbatim": "      | Spontaneously reported event occurred | | | |", "score": 0.4667, "match_basis": "verbatim_token+domain_route:MH"}, {"md_atom_id": "md_dmMH_assn_a022", "md_file": "knowledge_base/domains/MH/assumptions.md", "md_atom_type": "TABLE_ROW", "md_parent_section": "§MH [MH — Assumptions]", "md_verbatim": "      | Pre-specified event did not occur | Y | N | |", "score": 0.4269, "match_basis": "verbatim_token+domain_route:MH"}, {"md_atom_id": "md_dmMH_assn_a021", "md_file": "knowledge_base/domains/MH/assumptions.md", "md_atom_type": "TABLE_ROW", "md_parent_section": "§MH [MH — Assumptions]", "md_verbatim": "      | Pre-specified event occurred | Y | Y | |", "score": 0.4265, "match_basis": "verbatim_token+domain_route:MH"}, {"md_atom_id": "md_dmMH_assn_a023", "md_file": "knowledge_base/domains/MH/assumptions.md", "md_atom_type": "TABLE_ROW", "md_parent_section": "§MH [MH — Assumptions]", "md_verbatim": "      | Pre-specified event has no response | Y | | NOT DONE |", "score": 0.425, "match_basis": "verbatim_token+domain_route:MH"}, {"md_atom_id": "md_dmMH_ex_a051", "md_file": "knowledge_base/domains/MH/examples.md", "md_atom_type": "TABLE_ROW", "md_parent_section": "§MH.2 [Example 2]", "md_verbatim": "| 7 | ABC123 | MH | 123101 | 7 | HYPERTENSION | Hypertension | RISK FACTORS | | | Y | Y | | |", "score": 0.424, "match_basis": "verbatim_token+domain_route:MH"}], "candidate_count": 5, "zero_candidate": false}
{"pdf_atom_id": "ig34_p0171_a0023", "pdf_atom_type": "TABLE_ROW", "pdf_source": "SDTMIG_v3.4", "pdf_page": 171, "pdf_parent_section": "§6.2.6 Medical History (MH)", "pdf_verbatim": "| MHDECOD | Dictionary-Derived Term | Char | * | Synonym Qualifier | Dictionary-derived text description of MHTERM or MHMODIFY. Equivalent to the Preferred Term (PT in MedDRA). The sponsor is expected to provide the dictionary name and version used to map the terms utilizing the external codelist element in the Define-XML document. | Perm |", "figure_ref": null, "candidates": [{"md_atom_id": "md_dmMH_assn_a006", "md_file": "knowledge_base/domains/MH/assumptions.md", "md_atom_type": "LIST_ITEM", "md_parent_section": "§MH [MH — Assumptions]", "md_verbatim": "   c. If the sponsor codes the reported term (MHTERM) using a standard dictionary, then MHDECOD will be populated with the preferred term derived from the dictionary. The sponsor is expected to provide the dictionary name and version used to map the terms utilizing the external codelist element in the Define-XML document.", "score": 0.569, "match_basis": "verbatim_token+domain_route:MH"}, {"md_atom_id": "md_dmMH_ex_a046", "md_file": "knowledge_base/domains/MH/examples.md", "md_atom_type": "TABLE_ROW", "md_parent_section": "§MH.2 [Example 2]", "md_verbatim": "| 2 | ABC123 | MH | 123101 | 2 | FREQUENT HEADACHES | Headache | GENERAL MEDICAL HISTORY | CNS | Central and peripheral nervous system disorders | | | | DURING/AFTER |", "score": 0.4462, "match_basis": "verbatim_token+domain_route:MH"}, {"md_atom_id": "md_dmMH_ex_a020", "md_file": "knowledge_base/domains/MH/examples.md", "md_atom_type": "TABLE_ROW", "md_parent_section": "§MH.1 [Example 1]", "md_verbatim": "| 2 | ABC123 | MH | 123101 | 2 | | FREQUENT HEADACHES | Headache | GENERAL MEDICAL HISTORY | CNS | Central and peripheral nervous system disorders | 2004-09-18 | ONGOING | |", "score": 0.4426, "match_basis": "verbatim_token+domain_route:MH"}, {"md_atom_id": "md_dmMH_assn_a023", "md_file": "knowledge_base/domains/MH/assumptions.md", "md_atom_type": "TABLE_ROW", "md_parent_section": "§MH [MH — Assumptions]", "md_verbatim": "      | Pre-specified event has no response | Y | | NOT DONE |", "score": 0.434, "match_basis": "verbatim_token+domain_route:MH"}, {"md_atom_id": "md_dmMH_assn_a021", "md_file": "knowledge_base/domains/MH/assumptions.md", "md_atom_type": "TABLE_ROW", "md_parent_section": "§MH [MH — Assumptions]", "md_verbatim": "      | Pre-specified event occurred | Y | Y | |", "score": 0.4304, "match_basis": "verbatim_token+domain_route:MH"}], "candidate_count": 5, "zero_candidate": false}
{"pdf_atom_id": "ig34_p0171_a0024", "pdf_atom_type": "TABLE_ROW", "pdf_source": "SDTMIG_v3.4", "pdf_page": 171, "pdf_parent_section": "§6.2.6 Medical History (MH)", "pdf_verbatim": "| MHEVDTYP | Medical History Event Date Type | Char | (MHEDTTYP) | Variable Qualifier | Specifies the aspect of the medical condition or event by which MHSTDTC and/or the MHENDTC is defined. Examples: \"DIAGNOSIS\", \"SYMPTOMS\", \"RELAPSE\", \"INFECTION\". | Perm |", "figure_ref": null, "candidates": [{"md_atom_id": "md_dmMH_ex_a022", "md_file": "knowledge_base/domains/MH/examples.md", "md_atom_type": "TABLE_ROW", "md_parent_section": "§MH.1 [Example 1]", "md_verbatim": "| 4 | ABC123 | MH | 123101 | 4 | CHF | CONGESTIVE HEART FAILURE | Cardiac failure congestive | CARDIAC MEDICAL HISTORY | | Cardiac disorders | 2004-09-17 | | |", "score": 0.4518, "match_basis": "verbatim_token+domain_route:MH"}, {"md_atom_id": "md_dmMH_ex_a023", "md_file": "knowledge_base/domains/MH/examples.md", "md_atom_type": "TABLE_ROW", "md_parent_section": "§MH.1 [Example 1]", "md_verbatim": "| 5 | ABC123 | MH | 123101 | 5 | CHF | CONGESTIVE HEART FAILURE | Cardiac failure congestive | CARDIAC MEDICAL HISTORY | | Cardiac disorders | 2004-09-19 | | |", "score": 0.4518, "match_basis": "verbatim_token+domain_route:MH"}, {"md_atom_id": "md_dmMH_ex_a084", "md_file": "knowledge_base/domains/MH/examples.md", "md_atom_type": "TABLE_ROW", "md_parent_section": "§MH.4 [Example 4]", "md_verbatim": "| 1 | XYZ | MH | XYZ-001-001 | 1 | TYPE 1 DIABETES MELLITUS | Type 1 diabetes mellitus | DIAGNOSIS | DIABETES | Y | | 2010-09-26 | 2010-03-25 |", "score": 0.4513, "match_basis": "verbatim_token+domain_route:MH"}, {"md_atom_id": "md_dmMH_ex_a087", "md_file": "knowledge_base/domains/MH/examples.md", "md_atom_type": "TABLE_ROW", "md_parent_section": "§MH.4 [Example 4]", "md_verbatim": "| 4 | XYZ | MH | XYZ-001-002 | 2 | TYPE 2 DIABETES MELLITUS | Type 2 diabetes mellitus | DIAGNOSIS | DIABETES | Y | | 2010-10-26 | 2010-04-25 |", "score": 0.4508, "match_basis": "verbatim_token+domain_route:MH"}, {"md_atom_id": "md_dmMH_ex_a020", "md_file": "knowledge_base/domains/MH/examples.md", "md_atom_type": "TABLE_ROW", "md_parent_section": "§MH.1 [Example 1]", "md_verbatim": "| 2 | ABC123 | MH | 123101 | 2 | | FREQUENT HEADACHES | Headache | GENERAL MEDICAL HISTORY | CNS | Central and peripheral nervous system disorders | 2004-09-18 | ONGOING | |", "score": 0.4494, "match_basis": "verbatim_token+domain_route:MH"}], "candidate_count": 5, "zero_candidate": false}
{"pdf_atom_id": "ig34_p0171_a0025", "pdf_atom_type": "TABLE_ROW", "pdf_source": "SDTMIG_v3.4", "pdf_page": 171, "pdf_parent_section": "§6.2.6 Medical History (MH)", "pdf_verbatim": "| MHCAT | Category for Medical History | Char | * | Grouping Qualifier | Used to define a category of related records. Examples: \"CARDIAC\", \"GENERAL\". | Perm |", "figure_ref": null, "candidates": [{"md_atom_id": "md_dmMH_ex_a019", "md_file": "knowledge_base/domains/MH/examples.md", "md_atom_type": "TABLE_ROW", "md_parent_section": "§MH.1 [Example 1]", "md_verbatim": "| 1 | ABC123 | MH | 123101 | 1 | | ASTHMA | Asthma | GENERAL MEDICAL HISTORY | RESPIRATORY | Respiratory system disorders | 2004-09-18 | ONGOING | |", "score": 0.502, "match_basis": "verbatim_token+domain_route:MH"}, {"md_atom_id": "md_dmMH_ex_a045", "md_file": "knowledge_base/domains/MH/examples.md", "md_atom_type": "TABLE_ROW", "md_parent_section": "§MH.2 [Example 2]", "md_verbatim": "| 1 | ABC123 | MH | 123101 | 1 | ASTHMA | Asthma | GENERAL MEDICAL HISTORY | RESPIRATORY | Respiratory system disorders | | | | DURING/AFTER |", "score": 0.502, "match_basis": "verbatim_token+domain_route:MH"}, {"md_atom_id": "md_dmMH_ex_a022", "md_file": "knowledge_base/domains/MH/examples.md", "md_atom_type": "TABLE_ROW", "md_parent_section": "§MH.1 [Example 1]", "md_verbatim": "| 4 | ABC123 | MH | 123101 | 4 | CHF | CONGESTIVE HEART FAILURE | Cardiac failure congestive | CARDIAC MEDICAL HISTORY | | Cardiac disorders | 2004-09-17 | | |", "score": 0.498, "match_basis": "verbatim_token+domain_route:MH"}, {"md_atom_id": "md_dmMH_ex_a023", "md_file": "knowledge_base/domains/MH/examples.md", "md_atom_type": "TABLE_ROW", "md_parent_section": "§MH.1 [Example 1]", "md_verbatim": "| 5 | ABC123 | MH | 123101 | 5 | CHF | CONGESTIVE HEART FAILURE | Cardiac failure congestive | CARDIAC MEDICAL HISTORY | | Cardiac disorders | 2004-09-19 | | |", "score": 0.498, "match_basis": "verbatim_token+domain_route:MH"}, {"md_atom_id": "md_dmMH_ex_a020", "md_file": "knowledge_base/domains/MH/examples.md", "md_atom_type": "TABLE_ROW", "md_parent_section": "§MH.1 [Example 1]", "md_verbatim": "| 2 | ABC123 | MH | 123101 | 2 | | FREQUENT HEADACHES | Headache | GENERAL MEDICAL HISTORY | CNS | Central and peripheral nervous system disorders | 2004-09-18 | ONGOING | |", "score": 0.4931, "match_basis": "verbatim_token+domain_route:MH"}], "candidate_count": 5, "zero_candidate": false}
{"pdf_atom_id": "ig34_p0171_a0026", "pdf_atom_type": "TABLE_ROW", "pdf_source": "SDTMIG_v3.4", "pdf_page": 171, "pdf_parent_section": "§6.2.6 Medical History (MH)", "pdf_verbatim": "| MHSCAT | Subcategory for Medical History | Char | * | Grouping Qualifier | A further categorization of the condition or event. | Perm |", "figure_ref": null, "candidates": [{"md_atom_id": "md_dmMH_ex_a020", "md_file": "knowledge_base/domains/MH/examples.md", "md_atom_type": "TABLE_ROW", "md_parent_section": "§MH.1 [Example 1]", "md_verbatim": "| 2 | ABC123 | MH | 123101 | 2 | | FREQUENT HEADACHES | Headache | GENERAL MEDICAL HISTORY | CNS | Central and peripheral nervous system disorders | 2004-09-18 | ONGOING | |", "score": 0.4743, "match_basis": "verbatim_token+domain_route:MH"}, {"md_atom_id": "md_dmMH_ex_a046", "md_file": "knowledge_base/domains/MH/examples.md", "md_atom_type": "TABLE_ROW", "md_parent_section": "§MH.2 [Example 2]", "md_verbatim": "| 2 | ABC123 | MH | 123101 | 2 | FREQUENT HEADACHES | Headache | GENERAL MEDICAL HISTORY | CNS | Central and peripheral nervous system disorders | | | | DURING/AFTER |", "score": 0.4743, "match_basis": "verbatim_token+domain_route:MH"}, {"md_atom_id": "md_dmMH_ex_a047", "md_file": "knowledge_base/domains/MH/examples.md", "md_atom_type": "TABLE_ROW", "md_parent_section": "§MH.2 [Example 2]", "md_verbatim": "| 3 | ABC123 | MH | 123101 | 3 | BROKEN LEG | Bone fracture | GENERAL MEDICAL HISTORY | OTHER | Musculoskeletal system disorders | | | | BEFORE |", "score": 0.4696, "match_basis": "verbatim_token+domain_route:MH"}, {"md_atom_id": "md_dmMH_ex_a022", "md_file": "knowledge_base/domains/MH/examples.md", "md_atom_type": "TABLE_ROW", "md_parent_section": "§MH.1 [Example 1]", "md_verbatim": "| 4 | ABC123 | MH | 123101 | 4 | CHF | CONGESTIVE HEART FAILURE | Cardiac failure congestive | CARDIAC MEDICAL HISTORY | | Cardiac disorders | 2004-09-17 | | |", "score": 0.4688, "match_basis": "verbatim_token+domain_route:MH"}, {"md_atom_id": "md_dmMH_ex_a023", "md_file": "knowledge_base/domains/MH/examples.md", "md_atom_type": "TABLE_ROW", "md_parent_section": "§MH.1 [Example 1]", "md_verbatim": "| 5 | ABC123 | MH | 123101 | 5 | CHF | CONGESTIVE HEART FAILURE | Cardiac failure congestive | CARDIAC MEDICAL HISTORY | | Cardiac disorders | 2004-09-19 | | |", "score": 0.4688, "match_basis": "verbatim_token+domain_route:MH"}], "candidate_count": 5, "zero_candidate": false}
{"pdf_atom_id": "ig34_p0171_a0027", "pdf_atom_type": "TABLE_ROW", "pdf_source": "SDTMIG_v3.4", "pdf_page": 171, "pdf_parent_section": "§6.2.6 Medical History (MH)", "pdf_verbatim": "| MHPRESP | Medical History Event Pre-Specified | Char | (NY) | Variable Qualifier | A value of \"Y\" indicates that this medical history event was prespecified on the CRF. Values are null for spontaneously reported events (i.e., those collected as free-text verbatim terms). | Perm |", "figure_ref": null, "candidates": [{"md_atom_id": "md_dmMH_assn_a020", "md_file": "knowledge_base/domains/MH/assumptions.md", "md_atom_type": "TABLE_ROW", "md_parent_section": "§MH [MH — Assumptions]", "md_verbatim": "      | Spontaneously reported event occurred | | | |", "score": 0.5154, "match_basis": "verbatim_token+domain_route:MH"}, {"md_atom_id": "md_dmMH_assn_a023", "md_file": "knowledge_base/domains/MH/assumptions.md", "md_atom_type": "TABLE_ROW", "md_parent_section": "§MH [MH — Assumptions]", "md_verbatim": "      | Pre-specified event has no response | Y | | NOT DONE |", "score": 0.4865, "match_basis": "verbatim_token+domain_route:MH"}, {"md_atom_id": "md_dmMH_assn_a022", "md_file": "knowledge_base/domains/MH/assumptions.md", "md_atom_type": "TABLE_ROW", "md_parent_section": "§MH [MH — Assumptions]", "md_verbatim": "      | Pre-specified event did not occur | Y | N | |", "score": 0.4641, "match_basis": "verbatim_token+domain_route:MH"}, {"md_atom_id": "md_dmMH_assn_a021", "md_file": "knowledge_base/domains/MH/assumptions.md", "md_atom_type": "TABLE_ROW", "md_parent_section": "§MH [MH — Assumptions]", "md_verbatim": "      | Pre-specified event occurred | Y | Y | |", "score": 0.4635, "match_basis": "verbatim_token+domain_route:MH"}, {"md_atom_id": "md_dmMH_ex_a046", "md_file": "knowledge_base/domains/MH/examples.md", "md_atom_type": "TABLE_ROW", "md_parent_section": "§MH.2 [Example 2]", "md_verbatim": "| 2 | ABC123 | MH | 123101 | 2 | FREQUENT HEADACHES | Headache | GENERAL MEDICAL HISTORY | CNS | Central and peripheral nervous system disorders | | | | DURING/AFTER |", "score": 0.4596, "match_basis": "verbatim_token+domain_route:MH"}], "candidate_count": 5, "zero_candidate": false}
