{"pdf_atom_id": "ig34_p0427_a010", "pdf_atom_type": "LIST_ITEM", "pdf_source": "SDTMIG_v3.4", "pdf_page": 427, "pdf_parent_section": "§8 [REPRESENTING RELATIONSHIPS AND DATA]", "pdf_verbatim": "Section 8.6, How to Determine Where Data Belong in SDTM-Compliant Data Tabulations, discusses the concept of related datasets and whether to place additional data in a separate domain or a supplemental qualifier special-purpose dataset, and the concept of modeling findings data that refer to data in another general observation class domain.", "figure_ref": null, "candidates": [{"md_atom_id": "md_ch08_a012", "md_file": "knowledge_base/chapters/ch08_relationships.md", "md_atom_type": "LIST_ITEM", "md_parent_section": "§8 [Representing Relationships and Data]", "md_verbatim": "- **Section 8.6**, How to Determine Where Data Belong in SDTM-Compliant Data Tabulations — the concept of related datasets and where to place additional data", "score": 0.5657, "match_basis": "verbatim_token+chapter_route:ch08"}, {"md_atom_id": "md_ch08_a204", "md_file": "knowledge_base/chapters/ch08_relationships.md", "md_atom_type": "LIST_ITEM", "md_parent_section": "§8.4.4 [When Not to Use Supplemental Qualifiers]", "md_verbatim": "- Data not directly related to records in a parent domain. Such records should instead be captured in either a separate general observation class domain or special-purpose domain", "score": 0.4694, "match_basis": "verbatim_token+chapter_route:ch08"}, {"md_atom_id": "md_ch08_a173", "md_file": "knowledge_base/chapters/ch08_relationships.md", "md_atom_type": "LIST_ITEM", "md_parent_section": "§8.4 [Relating Non-standard Variable Values to a Parent Domain]", "md_verbatim": "- See Appendix C1, Supplemental Qualifiers Name Codes, for controlled terminology for QNAM and QLABEL for some of the most common supplemental qualifiers. Additional QNAM values may be created as needed, following the guidelines provided in the CDISC Notes for QVAL", "score": 0.4353, "match_basis": "verbatim_token+chapter_route:ch08"}, {"md_atom_id": "md_ch08_a273", "md_file": "knowledge_base/chapters/ch08_relationships.md", "md_atom_type": "LIST_ITEM", "md_parent_section": "§8.6.3 [Guidelines for Differentiating Between Interventions, Events, Findings, and Findings About Events or Interventions]", "md_verbatim": "- If the data consist of a finding or intervention that is associated with the event, it is likely that it can be stored in a relevant Findings or Intervention general observation class dataset, with the connection to the Event record being captured using RELREC. For example, if a subject had a fever of 102°F that was treated with aspirin, the fever would be stored in an AE record, the temperature could be stored in a Vital Signs record, and the aspirin could be stored in a Concomitant Medication record; RELREC might be used to link those records.", "score": 0.428, "match_basis": "verbatim_token+chapter_route:ch08"}, {"md_atom_id": "md_ch08_a020", "md_file": "knowledge_base/chapters/ch08_relationships.md", "md_atom_type": "LIST_ITEM", "md_parent_section": "§8 [Representing Relationships and Data]", "md_verbatim": "- The reference identifier (--REFID) variable can be used to capture a sponsor-defined or external identifier, such as lab-specimen identifiers and ECG identifiers. --REFID is permissible in all general observation-class domains, but is never required. Values are sponsor-defined.", "score": 0.4277, "match_basis": "verbatim_token+chapter_route:ch08"}], "candidate_count": 5, "zero_candidate": false}
{"pdf_atom_id": "ig34_p0427_a011", "pdf_atom_type": "LIST_ITEM", "pdf_source": "SDTMIG_v3.4", "pdf_page": 427, "pdf_parent_section": "§8 [REPRESENTING RELATIONSHIPS AND DATA]", "pdf_verbatim": "Section 8.7, Relating Subjects, describes representing collected relationships between persons, both of whom are study subjects. For example: \"MOTHER, BIOLOGICAL\"; \"CHILD, BIOLOGICAL\"; \"TWIN, DIZOGOTIC\".", "figure_ref": null, "candidates": [{"md_atom_id": "md_ch08_a013", "md_file": "knowledge_base/chapters/ch08_relationships.md", "md_atom_type": "LIST_ITEM", "md_parent_section": "§8 [Representing Relationships and Data]", "md_verbatim": "- **Section 8.7**, Relating Subjects — representing collected relationships between persons, both of whom are study subjects (e.g., \"MOTHER, BIOLOGICAL\"; \"CHILD, BIOLOGICAL\"; \"TWIN, DIZYGOTIC\")", "score": 0.7747, "match_basis": "verbatim_token+chapter_route:ch08"}, {"md_atom_id": "md_ch08_a290", "md_file": "knowledge_base/chapters/ch08_relationships.md", "md_atom_type": "LIST_ITEM", "md_parent_section": "§8.7 [Related Subjects (RELSUB)]", "md_verbatim": "7. Every relationship between 2 study subjects is represented in RELSUB as 2 directional representations: (1) with the first subject's identifier in USUBJID and the second subject's identifier in RSUBJID, and (2) with the second subject's identifier in USUBJID and the first subject's identifier in RSUBJID. The SREL values in the 2 records will describe the same relationship, but from the viewpoint of each subject (e.g., \"MOTHER, BIOLOGICAL\"; \"CHILD, BIOLOGICAL\").", "score": 0.5333, "match_basis": "verbatim_token+chapter_route:ch08"}, {"md_atom_id": "md_ch08_a284", "md_file": "knowledge_base/chapters/ch08_relationships.md", "md_atom_type": "LIST_ITEM", "md_parent_section": "§8.7 [Related Subjects (RELSUB)]", "md_verbatim": "1. RELSUB is used to represent relationships between persons, both of whom are study subjects. A relationship between a study subject and a person who is not a study subject may not be represented in RELSUB; this may only be reported in APRELSUB. The existence of the RELSUB dataset should not affect whether relationships are collected; that should remain a decision based on the needs of the particular study.", "score": 0.5013, "match_basis": "verbatim_token+chapter_route:ch08"}, {"md_atom_id": "md_ch08_a009", "md_file": "knowledge_base/chapters/ch08_relationships.md", "md_atom_type": "LIST_ITEM", "md_parent_section": "§8 [Representing Relationships and Data]", "md_verbatim": "- **Section 8.3**, Relating Datasets — representing a relationship between 2 (or more) datasets where records of 1 (or more) dataset(s) are related to record(s) in another dataset (or datasets)", "score": 0.4868, "match_basis": "verbatim_token+chapter_route:ch08"}, {"md_atom_id": "md_ch08_a011", "md_file": "knowledge_base/chapters/ch08_relationships.md", "md_atom_type": "LIST_ITEM", "md_parent_section": "§8 [Representing Relationships and Data]", "md_verbatim": "- **Section 8.5**, Relating Comments to a Parent Domain — representing a dependent relationship between a comment in the CO domain and a parent record in other domains", "score": 0.473, "match_basis": "verbatim_token+chapter_route:ch08"}], "candidate_count": 5, "zero_candidate": false}
{"pdf_atom_id": "ig34_p0427_a012", "pdf_atom_type": "LIST_ITEM", "pdf_source": "SDTMIG_v3.4", "pdf_page": 427, "pdf_parent_section": "§8 [REPRESENTING RELATIONSHIPS AND DATA]", "pdf_verbatim": "Section 8.8, Related Specimens, is a dataset used to represent relationships between specimens.", "figure_ref": null, "candidates": [{"md_atom_id": "md_ch08_a014", "md_file": "knowledge_base/chapters/ch08_relationships.md", "md_atom_type": "LIST_ITEM", "md_parent_section": "§8 [Representing Relationships and Data]", "md_verbatim": "- **Section 8.8**, Related Specimens — a dataset used to represent relationships between specimens", "score": 0.9, "match_basis": "verbatim_token+chapter_route:ch08"}, {"md_atom_id": "md_ch08_a317", "md_file": "knowledge_base/chapters/ch08_relationships.md", "md_atom_type": "SENTENCE", "md_parent_section": "§8.8 [Related Specimens (RELSPEC)]", "md_verbatim": "A dataset used to represent relationships between specimens.", "score": 0.7386, "match_basis": "verbatim_token+chapter_route:ch08"}, {"md_atom_id": "md_ch08_a009", "md_file": "knowledge_base/chapters/ch08_relationships.md", "md_atom_type": "LIST_ITEM", "md_parent_section": "§8 [Representing Relationships and Data]", "md_verbatim": "- **Section 8.3**, Relating Datasets — representing a relationship between 2 (or more) datasets where records of 1 (or more) dataset(s) are related to record(s) in another dataset (or datasets)", "score": 0.6148, "match_basis": "verbatim_token+chapter_route:ch08"}, {"md_atom_id": "md_ch08_a328", "md_file": "knowledge_base/chapters/ch08_relationships.md", "md_atom_type": "LIST_ITEM", "md_parent_section": "§8.8 [Related Specimens (RELSPEC)]", "md_verbatim": "1. The RELSPEC dataset is not used to manage relationships between any other datasets or domains.", "score": 0.5542, "match_basis": "verbatim_token+chapter_route:ch08"}, {"md_atom_id": "md_ch08_a011", "md_file": "knowledge_base/chapters/ch08_relationships.md", "md_atom_type": "LIST_ITEM", "md_parent_section": "§8 [Representing Relationships and Data]", "md_verbatim": "- **Section 8.5**, Relating Comments to a Parent Domain — representing a dependent relationship between a comment in the CO domain and a parent record in other domains", "score": 0.5197, "match_basis": "verbatim_token+chapter_route:ch08"}], "candidate_count": 5, "zero_candidate": false}
{"pdf_atom_id": "ig34_p0427_a013", "pdf_atom_type": "SENTENCE", "pdf_source": "SDTMIG_v3.4", "pdf_page": 427, "pdf_parent_section": "§8 [REPRESENTING RELATIONSHIPS AND DATA]", "pdf_verbatim": "All relationships make use of the standard domain identifiers STUDYID, DOMAIN, and USUBJID.", "figure_ref": null, "candidates": [{"md_atom_id": "md_ch08_a015", "md_file": "knowledge_base/chapters/ch08_relationships.md", "md_atom_type": "SENTENCE", "md_parent_section": "§8 [Representing Relationships and Data]", "md_verbatim": "All relationships make use of the standard domain identifiers STUDYID, DOMAIN, and USUBJID.", "score": 0.9, "match_basis": "verbatim_token+chapter_route:ch08"}, {"md_atom_id": "md_ch08_a059", "md_file": "knowledge_base/chapters/ch08_relationships.md", "md_atom_type": "SENTENCE", "md_parent_section": "§8.2 [Relating Peer Records]", "md_verbatim": "Records expressing a relationship are specified using the key variables STUDYID, RDOMAIN (the domain code of the record in the relationship), and USUBJID, along with IDVAR and IDVARVAL.", "score": 0.4953, "match_basis": "verbatim_token+chapter_route:ch08"}, {"md_atom_id": "md_ch08_a319", "md_file": "knowledge_base/chapters/ch08_relationships.md", "md_atom_type": "SENTENCE", "md_parent_section": "§8.8 [Related Specimens (RELSPEC)]", "md_verbatim": "relspec.xpt, Related Specimens — Relationship. One record per specimen identifier per subject, Tabulation.", "score": 0.4714, "match_basis": "verbatim_token+chapter_route:ch08"}, {"md_atom_id": "md_ch08_a211", "md_file": "knowledge_base/chapters/ch08_relationships.md", "md_atom_type": "SENTENCE", "md_parent_section": "§8.5 [Relating Comments to a Parent Domain]", "md_verbatim": "STUDYID, USUBJID, and DOMAIN (with the value CO) must always be populated.", "score": 0.4645, "match_basis": "verbatim_token+chapter_route:ch08"}, {"md_atom_id": "md_ch08_a024", "md_file": "knowledge_base/chapters/ch08_relationships.md", "md_atom_type": "SENTENCE", "md_parent_section": "§8.1 [Relating Groups of Records Within a Domain Using --GRPID]", "md_verbatim": "It is used to identify relationships between records within a USUBJID within a single domain (e.g., intervention records for a combination therapy where treatments in the combination varies from subject to subject).", "score": 0.462, "match_basis": "verbatim_token+chapter_route:ch08"}], "candidate_count": 5, "zero_candidate": false}
{"pdf_atom_id": "ig34_p0427_a014", "pdf_atom_type": "SENTENCE", "pdf_source": "SDTMIG_v3.4", "pdf_page": 427, "pdf_parent_section": "§8 [REPRESENTING RELATIONSHIPS AND DATA]", "pdf_verbatim": "In addition, the variables IDVAR and IDVARVAL are used for identifying the record-level merge/join keys.", "figure_ref": null, "candidates": [{"md_atom_id": "md_ch08_a016", "md_file": "knowledge_base/chapters/ch08_relationships.md", "md_atom_type": "SENTENCE", "md_parent_section": "§8 [Representing Relationships and Data]", "md_verbatim": "In addition, the variables IDVAR and IDVARVAL are used for identifying the record-level merge/join keys.", "score": 0.9, "match_basis": "verbatim_token+chapter_route:ch08"}, {"md_atom_id": "md_ch08_a132", "md_file": "knowledge_base/chapters/ch08_relationships.md", "md_atom_type": "SENTENCE", "md_parent_section": "§8.3.1 [RELREC Dataset Relationship Example]", "md_verbatim": "Because IDVAR identifies the keys that can be used to merge/join records between the datasets, --SEQ cannot be used.", "score": 0.4808, "match_basis": "verbatim_token+chapter_route:ch08"}, {"md_atom_id": "md_ch08_a122", "md_file": "knowledge_base/chapters/ch08_relationships.md", "md_atom_type": "SENTENCE", "md_parent_section": "§8.3.1 [RELREC Dataset Relationship Example]", "md_verbatim": "In this example, the --LNKID variable is used as the key to identify the related observations.", "score": 0.4652, "match_basis": "verbatim_token+chapter_route:ch08"}, {"md_atom_id": "md_ch08_a060", "md_file": "knowledge_base/chapters/ch08_relationships.md", "md_atom_type": "SENTENCE", "md_parent_section": "§8.2 [Relating Peer Records]", "md_verbatim": "Single records can be related by using a unique-record-identifier variable such as --SEQ in IDVAR.", "score": 0.4588, "match_basis": "verbatim_token+chapter_route:ch08"}, {"md_atom_id": "md_ch08_a216", "md_file": "knowledge_base/chapters/ch08_relationships.md", "md_atom_type": "SENTENCE", "md_parent_section": "§8.5 [Relating Comments to a Parent Domain]", "md_verbatim": "For additional information collected further describing the comment relationship to a parent record(s) that cannot be represented using the relationship variables RDOMAIN, IDVAR and IDVARVAL:", "score": 0.4585, "match_basis": "verbatim_token+chapter_route:ch08"}], "candidate_count": 5, "zero_candidate": false}
{"pdf_atom_id": "ig34_p0427_a015", "pdf_atom_type": "SENTENCE", "pdf_source": "SDTMIG_v3.4", "pdf_page": 427, "pdf_parent_section": "§8 [REPRESENTING RELATIONSHIPS AND DATA]", "pdf_verbatim": "These keys are used to tie information together by linking records.", "figure_ref": null, "candidates": [{"md_atom_id": "md_ch08_a017", "md_file": "knowledge_base/chapters/ch08_relationships.md", "md_atom_type": "SENTENCE", "md_parent_section": "§8 [Representing Relationships and Data]", "md_verbatim": "These keys are used to tie information together by linking records.", "score": 0.9, "match_basis": "verbatim_token+chapter_route:ch08"}, {"md_atom_id": "md_ch08_a016", "md_file": "knowledge_base/chapters/ch08_relationships.md", "md_atom_type": "SENTENCE", "md_parent_section": "§8 [Representing Relationships and Data]", "md_verbatim": "In addition, the variables IDVAR and IDVARVAL are used for identifying the record-level merge/join keys.", "score": 0.4273, "match_basis": "verbatim_token+chapter_route:ch08"}, {"md_atom_id": "md_ch08_a185", "md_file": "knowledge_base/chapters/ch08_relationships.md", "md_atom_type": "SENTENCE", "md_parent_section": "§8.4.3 [Examples]", "md_verbatim": "These examples illustrate how a set of SUPP-- datasets could be used to relate non-standard information to a parent domain.", "score": 0.4184, "match_basis": "verbatim_token+chapter_route:ch08"}, {"md_atom_id": "md_ch08_a153", "md_file": "knowledge_base/chapters/ch08_relationships.md", "md_atom_type": "SENTENCE", "md_parent_section": "§8.4 [Relating Non-standard Variable Values to a Parent Domain]", "md_verbatim": "This is necessary to ensure that reviewers can join/merge/transpose the information back with the records in the original domain without risk of losing information.", "score": 0.4067, "match_basis": "verbatim_token+chapter_route:ch08"}, {"md_atom_id": "md_ch08_a216", "md_file": "knowledge_base/chapters/ch08_relationships.md", "md_atom_type": "SENTENCE", "md_parent_section": "§8.5 [Relating Comments to a Parent Domain]", "md_verbatim": "For additional information collected further describing the comment relationship to a parent record(s) that cannot be represented using the relationship variables RDOMAIN, IDVAR and IDVARVAL:", "score": 0.4059, "match_basis": "verbatim_token+chapter_route:ch08"}], "candidate_count": 5, "zero_candidate": false}
{"pdf_atom_id": "ig34_p0427_a016", "pdf_atom_type": "SENTENCE", "pdf_source": "SDTMIG_v3.4", "pdf_page": 427, "pdf_parent_section": "§8 [REPRESENTING RELATIONSHIPS AND DATA]", "pdf_verbatim": "The specific set of identifiers necessary to properly identify each type of relationship is described in detail in the following sections.", "figure_ref": null, "candidates": [{"md_atom_id": "md_ch08_a006", "md_file": "knowledge_base/chapters/ch08_relationships.md", "md_atom_type": "SENTENCE", "md_parent_section": "§8 [Representing Relationships and Data]", "md_verbatim": "As a result, the SDTM has methods to represent distinct types of relationships, all of which are described in more detail in subsequent sections:", "score": 0.4615, "match_basis": "verbatim_token+chapter_route:ch08"}, {"md_atom_id": "md_ch08_a319", "md_file": "knowledge_base/chapters/ch08_relationships.md", "md_atom_type": "SENTENCE", "md_parent_section": "§8.8 [Related Specimens (RELSPEC)]", "md_verbatim": "relspec.xpt, Related Specimens — Relationship. One record per specimen identifier per subject, Tabulation.", "score": 0.4586, "match_basis": "verbatim_token+chapter_route:ch08"}, {"md_atom_id": "md_ch08_a111", "md_file": "knowledge_base/chapters/ch08_relationships.md", "md_atom_type": "SENTENCE", "md_parent_section": "§8.3 [Relating Datasets Using RELREC]", "md_verbatim": "The relationship is defined by including a single record for each related dataset that identifies the key(s) of the dataset that can be used to relate the respective records.", "score": 0.4529, "match_basis": "verbatim_token+chapter_route:ch08"}, {"md_atom_id": "md_ch08_a053", "md_file": "knowledge_base/chapters/ch08_relationships.md", "md_atom_type": "SENTENCE", "md_parent_section": "§8.2 [Relating Peer Records]", "md_verbatim": "The Related Records (RELREC) special-purpose dataset is used to describe relationships between records for a subject (as described in this section), and relationships between datasets (as described in Section 8.3, Relating Datasets).", "score": 0.4515, "match_basis": "verbatim_token+chapter_route:ch08"}, {"md_atom_id": "md_ch08_a125", "md_file": "knowledge_base/chapters/ch08_relationships.md", "md_atom_type": "SENTENCE", "md_parent_section": "§8.3.1 [RELREC Dataset Relationship Example]", "md_verbatim": "The variable RELTYPE identifies the type of relationship between the datasets.", "score": 0.45, "match_basis": "verbatim_token+chapter_route:ch08"}], "candidate_count": 5, "zero_candidate": false}
{"pdf_atom_id": "ig34_p0427_a017", "pdf_atom_type": "SENTENCE", "pdf_source": "SDTMIG_v3.4", "pdf_page": 427, "pdf_parent_section": "§8 [REPRESENTING RELATIONSHIPS AND DATA]", "pdf_verbatim": "The following are examples of variables that could be used in IDVAR:", "figure_ref": null, "candidates": [{"md_atom_id": "md_ch08_a018", "md_file": "knowledge_base/chapters/ch08_relationships.md", "md_atom_type": "SENTENCE", "md_parent_section": "§8 [Representing Relationships and Data]", "md_verbatim": "The following are examples of variables that could be used in IDVAR:", "score": 0.9, "match_basis": "verbatim_token+chapter_route:ch08"}, {"md_atom_id": "md_ch08_a200", "md_file": "knowledge_base/chapters/ch08_relationships.md", "md_atom_type": "SENTENCE", "md_parent_section": "§8.4.4 [When Not to Use Supplemental Qualifiers]", "md_verbatim": "The following are examples of data that should **not** be submitted as supplemental qualifiers:", "score": 0.4932, "match_basis": "verbatim_token+chapter_route:ch08"}, {"md_atom_id": "md_ch08_a122", "md_file": "knowledge_base/chapters/ch08_relationships.md", "md_atom_type": "SENTENCE", "md_parent_section": "§8.3.1 [RELREC Dataset Relationship Example]", "md_verbatim": "In this example, the --LNKID variable is used as the key to identify the related observations.", "score": 0.4474, "match_basis": "verbatim_token+chapter_route:ch08"}, {"md_atom_id": "md_ch08_a135", "md_file": "knowledge_base/chapters/ch08_relationships.md", "md_atom_type": "SENTENCE", "md_parent_section": "§8.4 [Relating Non-standard Variable Values to a Parent Domain]", "md_verbatim": "The SDTM does not allow the addition of new variables.", "score": 0.4395, "match_basis": "verbatim_token+chapter_route:ch08"}, {"md_atom_id": "md_ch08_a294", "md_file": "knowledge_base/chapters/ch08_relationships.md", "md_atom_type": "SENTENCE", "md_parent_section": "§8.7 [Related Subjects (RELSUB)]", "md_verbatim": "Some expected and required variables not needed to illustrate the example are not shown.", "score": 0.4377, "match_basis": "verbatim_token+chapter_route:ch08"}], "candidate_count": 5, "zero_candidate": false}
{"pdf_atom_id": "ig34_p0427_a018", "pdf_atom_type": "LIST_ITEM", "pdf_source": "SDTMIG_v3.4", "pdf_page": 427, "pdf_parent_section": "§8 [REPRESENTING RELATIONSHIPS AND DATA]", "pdf_verbatim": "The sequence number (--SEQ) variable uniquely identifies a record for a given USUBJID within a domain. The variable --SEQ is required in all domains except DM. For example, if a subject has 25 adverse events in the Adverse Event (AE) domain, then 25 unique AESEQ values should be established for this subject. Conventions for establishing and maintaining --SEQ values are sponsor-defined. Values may or may not be sequential depending on data processes and sources.", "figure_ref": null, "candidates": [{"md_atom_id": "md_ch08_a019", "md_file": "knowledge_base/chapters/ch08_relationships.md", "md_atom_type": "LIST_ITEM", "md_parent_section": "§8 [Representing Relationships and Data]", "md_verbatim": "- The sequence number (--SEQ) variable uniquely identifies a record for a given USUBJID within a domain. --SEQ is required in all domains except DM. Conventions for establishing and maintaining --SEQ values are sponsor-defined. Values may or may not be sequential depending on data processes and sources.", "score": 0.7924, "match_basis": "verbatim_token+chapter_route:ch08"}, {"md_atom_id": "md_ch08_a020", "md_file": "knowledge_base/chapters/ch08_relationships.md", "md_atom_type": "LIST_ITEM", "md_parent_section": "§8 [Representing Relationships and Data]", "md_verbatim": "- The reference identifier (--REFID) variable can be used to capture a sponsor-defined or external identifier, such as lab-specimen identifiers and ECG identifiers. --REFID is permissible in all general observation-class domains, but is never required. Values are sponsor-defined.", "score": 0.4463, "match_basis": "verbatim_token+chapter_route:ch08"}, {"md_atom_id": "md_ch08_a010", "md_file": "knowledge_base/chapters/ch08_relationships.md", "md_atom_type": "LIST_ITEM", "md_parent_section": "§8 [Representing Relationships and Data]", "md_verbatim": "- **Section 8.4**, Relating Non-standard Variable Values to a Parent Domain — the method for representing the dependent relationship where data that cannot be represented by a standard variable within DM or a GOC domain record can be related back to that record", "score": 0.4427, "match_basis": "verbatim_token+chapter_route:ch08"}, {"md_atom_id": "md_ch08_a021", "md_file": "knowledge_base/chapters/ch08_relationships.md", "md_atom_type": "LIST_ITEM", "md_parent_section": "§8 [Representing Relationships and Data]", "md_verbatim": "- The grouping identifier (--GRPID) variable, used to link related records for a subject within a domain, is explained in Section 8.1.", "score": 0.4306, "match_basis": "verbatim_token+chapter_route:ch08"}, {"md_atom_id": "md_ch08_a215", "md_file": "knowledge_base/chapters/ch08_relationships.md", "md_atom_type": "LIST_ITEM", "md_parent_section": "§8.5 [Relating Comments to a Parent Domain]", "md_verbatim": "3. Comments related to specific domain record(s) for a subject would populate the RDOMAIN, IDVAR, and IDVARVAL variables with values that identify the specific parent record(s).", "score": 0.4303, "match_basis": "verbatim_token+chapter_route:ch08"}], "candidate_count": 5, "zero_candidate": false}
{"pdf_atom_id": "ig34_p0427_a019", "pdf_atom_type": "LIST_ITEM", "pdf_source": "SDTMIG_v3.4", "pdf_page": 427, "pdf_parent_section": "§8 [REPRESENTING RELATIONSHIPS AND DATA]", "pdf_verbatim": "The reference identifier (--REFID) variable can be used to capture a sponsor-defined or external identifier, such as an identifier provided in an electronic data transfer. Some examples are lab-specimen identifiers and ECG identifiers. --REFID is permissible in all general observation-class domains, but is never required. Values for --REFID are sponsor-defined and can be any alphanumeric strings the sponsor chooses, consistent with their internal practices.", "figure_ref": null, "candidates": [{"md_atom_id": "md_ch08_a020", "md_file": "knowledge_base/chapters/ch08_relationships.md", "md_atom_type": "LIST_ITEM", "md_parent_section": "§8 [Representing Relationships and Data]", "md_verbatim": "- The reference identifier (--REFID) variable can be used to capture a sponsor-defined or external identifier, such as lab-specimen identifiers and ECG identifiers. --REFID is permissible in all general observation-class domains, but is never required. Values are sponsor-defined.", "score": 0.6621, "match_basis": "verbatim_token+chapter_route:ch08"}, {"md_atom_id": "md_ch08_a019", "md_file": "knowledge_base/chapters/ch08_relationships.md", "md_atom_type": "LIST_ITEM", "md_parent_section": "§8 [Representing Relationships and Data]", "md_verbatim": "- The sequence number (--SEQ) variable uniquely identifies a record for a given USUBJID within a domain. --SEQ is required in all domains except DM. Conventions for establishing and maintaining --SEQ values are sponsor-defined. Values may or may not be sequential depending on data processes and sources.", "score": 0.4481, "match_basis": "verbatim_token+chapter_route:ch08"}, {"md_atom_id": "md_ch08_a172", "md_file": "knowledge_base/chapters/ch08_relationships.md", "md_atom_type": "LIST_ITEM", "md_parent_section": "§8.4 [Relating Non-standard Variable Values to a Parent Domain]", "md_verbatim": "- See Section 4.5.3, Text Strings that Exceed the Maximum Length for General Observation-class Domain Variables, for information on representing data values greater than 200 characters in length", "score": 0.4437, "match_basis": "verbatim_token+chapter_route:ch08"}, {"md_atom_id": "md_ch08_a273", "md_file": "knowledge_base/chapters/ch08_relationships.md", "md_atom_type": "LIST_ITEM", "md_parent_section": "§8.6.3 [Guidelines for Differentiating Between Interventions, Events, Findings, and Findings About Events or Interventions]", "md_verbatim": "- If the data consist of a finding or intervention that is associated with the event, it is likely that it can be stored in a relevant Findings or Intervention general observation class dataset, with the connection to the Event record being captured using RELREC. For example, if a subject had a fever of 102°F that was treated with aspirin, the fever would be stored in an AE record, the temperature could be stored in a Vital Signs record, and the aspirin could be stored in a Concomitant Medication record; RELREC might be used to link those records.", "score": 0.4336, "match_basis": "verbatim_token+chapter_route:ch08"}, {"md_atom_id": "md_ch08_a204", "md_file": "knowledge_base/chapters/ch08_relationships.md", "md_atom_type": "LIST_ITEM", "md_parent_section": "§8.4.4 [When Not to Use Supplemental Qualifiers]", "md_verbatim": "- Data not directly related to records in a parent domain. Such records should instead be captured in either a separate general observation class domain or special-purpose domain", "score": 0.4269, "match_basis": "verbatim_token+chapter_route:ch08"}], "candidate_count": 5, "zero_candidate": false}
{"pdf_atom_id": "ig34_p0427_a020", "pdf_atom_type": "LIST_ITEM", "pdf_source": "SDTMIG_v3.4", "pdf_page": 427, "pdf_parent_section": "§8 [REPRESENTING RELATIONSHIPS AND DATA]", "pdf_verbatim": "The grouping identifier (--GRPID) variable, used to link related records for a subject within a domain, is explained in Section 8.1, Relating Groups of Records Within a Domain Using the --GRPID Variable.", "figure_ref": null, "candidates": [{"md_atom_id": "md_ch08_a021", "md_file": "knowledge_base/chapters/ch08_relationships.md", "md_atom_type": "LIST_ITEM", "md_parent_section": "§8 [Representing Relationships and Data]", "md_verbatim": "- The grouping identifier (--GRPID) variable, used to link related records for a subject within a domain, is explained in Section 8.1.", "score": 0.8552, "match_basis": "verbatim_token+chapter_route:ch08"}, {"md_atom_id": "md_ch08_a007", "md_file": "knowledge_base/chapters/ch08_relationships.md", "md_atom_type": "LIST_ITEM", "md_parent_section": "§8 [Representing Relationships and Data]", "md_verbatim": "- **Section 8.1**, Relating Groups of Records Within a Domain Using the --GRPID Variable — representing a relationship between a group of records for a given subject within the same domain", "score": 0.6241, "match_basis": "verbatim_token+chapter_route:ch08"}, {"md_atom_id": "md_ch08_a215", "md_file": "knowledge_base/chapters/ch08_relationships.md", "md_atom_type": "LIST_ITEM", "md_parent_section": "§8.5 [Relating Comments to a Parent Domain]", "md_verbatim": "3. Comments related to specific domain record(s) for a subject would populate the RDOMAIN, IDVAR, and IDVARVAL variables with values that identify the specific parent record(s).", "score": 0.502, "match_basis": "verbatim_token+chapter_route:ch08"}, {"md_atom_id": "md_ch08_a010", "md_file": "knowledge_base/chapters/ch08_relationships.md", "md_atom_type": "LIST_ITEM", "md_parent_section": "§8 [Representing Relationships and Data]", "md_verbatim": "- **Section 8.4**, Relating Non-standard Variable Values to a Parent Domain — the method for representing the dependent relationship where data that cannot be represented by a standard variable within DM or a GOC domain record can be related back to that record", "score": 0.4878, "match_basis": "verbatim_token+chapter_route:ch08"}, {"md_atom_id": "md_ch08_a219", "md_file": "knowledge_base/chapters/ch08_relationships.md", "md_atom_type": "SENTENCE", "md_parent_section": "§8.5 [Relating Comments to a Parent Domain]", "md_verbatim": "As with Supplemental Qualifiers (SUPP--) and Related Records (RELREC), --GRPID and other grouping variables can be used as the value in IDVAR to identify comments with relationships to multiple domain records.", "score": 0.46, "match_basis": "verbatim_token+chapter_route:ch08"}], "candidate_count": 5, "zero_candidate": false}
{"pdf_atom_id": "ig34_p0427_a021", "pdf_atom_type": "HEADING", "pdf_source": "SDTMIG_v3.4", "pdf_page": 427, "pdf_parent_section": "§8 [REPRESENTING RELATIONSHIPS AND DATA]", "pdf_verbatim": "8.1 Relating Groups of Records Within a Domain Using the --GRPID Variable", "figure_ref": null, "candidates": [{"md_atom_id": "md_ch08_a022", "md_file": "knowledge_base/chapters/ch08_relationships.md", "md_atom_type": "HEADING", "md_parent_section": "§8 [Representing Relationships and Data]", "md_verbatim": "## 8.1 Relating Groups of Records Within a Domain Using --GRPID", "score": 0.78, "match_basis": "verbatim_token+chapter_route:ch08"}, {"md_atom_id": "md_ch08_a134", "md_file": "knowledge_base/chapters/ch08_relationships.md", "md_atom_type": "HEADING", "md_parent_section": "§8 [Representing Relationships and Data]", "md_verbatim": "## 8.4 Relating Non-standard Variable Values to a Parent Domain", "score": 0.492, "match_basis": "verbatim_token+chapter_route:ch08"}, {"md_atom_id": "md_ch08_a052", "md_file": "knowledge_base/chapters/ch08_relationships.md", "md_atom_type": "HEADING", "md_parent_section": "§8 [Representing Relationships and Data]", "md_verbatim": "## 8.2 Relating Peer Records", "score": 0.4784, "match_basis": "verbatim_token+chapter_route:ch08"}, {"md_atom_id": "md_ch08_a205", "md_file": "knowledge_base/chapters/ch08_relationships.md", "md_atom_type": "HEADING", "md_parent_section": "§8 [Representing Relationships and Data]", "md_verbatim": "## 8.5 Relating Comments to a Parent Domain", "score": 0.4364, "match_basis": "verbatim_token+chapter_route:ch08"}, {"md_atom_id": "md_ch08_a109", "md_file": "knowledge_base/chapters/ch08_relationships.md", "md_atom_type": "HEADING", "md_parent_section": "§8 [Representing Relationships and Data]", "md_verbatim": "## 8.3 Relating Datasets Using RELREC", "score": 0.4256, "match_basis": "verbatim_token+chapter_route:ch08"}], "candidate_count": 5, "zero_candidate": false}
{"pdf_atom_id": "ig34_p0427_a022", "pdf_atom_type": "SENTENCE", "pdf_source": "SDTMIG_v3.4", "pdf_page": 427, "pdf_parent_section": "§8.1 [RELATING GROUPS OF RECORDS WITHIN A DOMAIN USING THE --GRPID VARIABLE]", "pdf_verbatim": "The optional grouping identifier variable --GRPID is Permissible in all domains that are based on the general observation classes.", "figure_ref": null, "candidates": [{"md_atom_id": "md_ch08_a023", "md_file": "knowledge_base/chapters/ch08_relationships.md", "md_atom_type": "SENTENCE", "md_parent_section": "§8.1 [Relating Groups of Records Within a Domain Using --GRPID]", "md_verbatim": "The optional grouping identifier variable --GRPID is Permissible in all domains that are based on the general observation classes.", "score": 0.9, "match_basis": "verbatim_token+chapter_route:ch08"}, {"md_atom_id": "md_ch08_a154", "md_file": "knowledge_base/chapters/ch08_relationships.md", "md_atom_type": "SENTENCE", "md_parent_section": "§8.4 [Relating Non-standard Variable Values to a Parent Domain]", "md_verbatim": "Just as use of the optional grouping identifier variable (--GRPID) can be a more efficient method of representing relationships in RELREC, it can also be used in a SUPP-- dataset to identify individual qualifier values (SUPP-- records) related to multiple general-observation class domain records that could be grouped, such as relating an attribution to a group of ECG measurements.", "score": 0.4975, "match_basis": "verbatim_token+chapter_route:ch08"}, {"md_atom_id": "md_ch08_a113", "md_file": "knowledge_base/chapters/ch08_relationships.md", "md_atom_type": "SENTENCE", "md_parent_section": "§8.3 [Relating Datasets Using RELREC]", "md_verbatim": "Note that it is not necessary to use the RELREC dataset to identify associations from data in the SUPP-- datasets or the Comments (CO) dataset to their parent general-observation class dataset records or special-purpose domain records, as both these datasets include the key variable identifiers of the parent record(s) that are necessary to make the association.", "score": 0.4818, "match_basis": "verbatim_token+chapter_route:ch08"}, {"md_atom_id": "md_ch08_a183", "md_file": "knowledge_base/chapters/ch08_relationships.md", "md_atom_type": "SENTENCE", "md_parent_section": "§8.4.2 [Submitting Supplemental Qualifiers in Separate Datasets]", "md_verbatim": "See Section 4.5.3, Text Strings that Exceed the Maximum Length for General Observation-class Domain Variables, for information on representing data values greater than 200 characters in length.", "score": 0.4597, "match_basis": "verbatim_token+chapter_route:ch08"}, {"md_atom_id": "md_ch08_a219", "md_file": "knowledge_base/chapters/ch08_relationships.md", "md_atom_type": "SENTENCE", "md_parent_section": "§8.5 [Relating Comments to a Parent Domain]", "md_verbatim": "As with Supplemental Qualifiers (SUPP--) and Related Records (RELREC), --GRPID and other grouping variables can be used as the value in IDVAR to identify comments with relationships to multiple domain records.", "score": 0.4587, "match_basis": "verbatim_token+chapter_route:ch08"}], "candidate_count": 5, "zero_candidate": false}
{"pdf_atom_id": "ig34_p0427_a023", "pdf_atom_type": "SENTENCE", "pdf_source": "SDTMIG_v3.4", "pdf_page": 427, "pdf_parent_section": "§8.1 [RELATING GROUPS OF RECORDS WITHIN A DOMAIN USING THE --GRPID VARIABLE]", "pdf_verbatim": "It is used to identify relationships between records within a USUBJID within a single domain (e.g., intervention records for a combination therapy where treatments in the combination varies from subject to subject).", "figure_ref": null, "candidates": [{"md_atom_id": "md_ch08_a024", "md_file": "knowledge_base/chapters/ch08_relationships.md", "md_atom_type": "SENTENCE", "md_parent_section": "§8.1 [Relating Groups of Records Within a Domain Using --GRPID]", "md_verbatim": "It is used to identify relationships between records within a USUBJID within a single domain (e.g., intervention records for a combination therapy where treatments in the combination varies from subject to subject).", "score": 0.9, "match_basis": "verbatim_token+chapter_route:ch08"}, {"md_atom_id": "md_ch08_a069", "md_file": "knowledge_base/chapters/ch08_relationships.md", "md_atom_type": "SENTENCE", "md_parent_section": "§8.2.1 [Related Records (RELREC)]", "md_verbatim": "A dataset used to describe relationships between records for a subject within or across domains, and relationships of records across datasets.", "score": 0.522, "match_basis": "verbatim_token+chapter_route:ch08"}, {"md_atom_id": "md_ch08_a219", "md_file": "knowledge_base/chapters/ch08_relationships.md", "md_atom_type": "SENTENCE", "md_parent_section": "§8.5 [Relating Comments to a Parent Domain]", "md_verbatim": "As with Supplemental Qualifiers (SUPP--) and Related Records (RELREC), --GRPID and other grouping variables can be used as the value in IDVAR to identify comments with relationships to multiple domain records.", "score": 0.4754, "match_basis": "verbatim_token+chapter_route:ch08"}, {"md_atom_id": "md_ch08_a053", "md_file": "knowledge_base/chapters/ch08_relationships.md", "md_atom_type": "SENTENCE", "md_parent_section": "§8.2 [Relating Peer Records]", "md_verbatim": "The Related Records (RELREC) special-purpose dataset is used to describe relationships between records for a subject (as described in this section), and relationships between datasets (as described in Section 8.3, Relating Datasets).", "score": 0.4684, "match_basis": "verbatim_token+chapter_route:ch08"}, {"md_atom_id": "md_ch08_a082", "md_file": "knowledge_base/chapters/ch08_relationships.md", "md_atom_type": "SENTENCE", "md_parent_section": "§8.2.2 [RELREC Dataset Examples]", "md_verbatim": "**Example 1:** This example illustrates the use of the RELREC dataset to relate records stored in separate domains for USUBJID = \"123456\". This example represents a situation in which a single adverse event is part of 2 collected relationships, one with 2 concomitant medications and the other with 2 laboratory findings, but there is no collected relationship between the 2 laboratory findings and the 2 concomitant medications.", "score": 0.4649, "match_basis": "verbatim_token+chapter_route:ch08"}], "candidate_count": 5, "zero_candidate": false}
{"pdf_atom_id": "ig34_p0427_a024", "pdf_atom_type": "SENTENCE", "pdf_source": "SDTMIG_v3.4", "pdf_page": 427, "pdf_parent_section": "§8.1 [RELATING GROUPS OF RECORDS WITHIN A DOMAIN USING THE --GRPID VARIABLE]", "pdf_verbatim": "In such cases, the relationship is defined by assigning the same unique character value to the --GRPID variable.", "figure_ref": null, "candidates": [{"md_atom_id": "md_ch08_a025", "md_file": "knowledge_base/chapters/ch08_relationships.md", "md_atom_type": "SENTENCE", "md_parent_section": "§8.1 [Relating Groups of Records Within a Domain Using --GRPID]", "md_verbatim": "In such cases, the relationship is defined by assigning the same unique character value to the --GRPID variable.", "score": 0.9, "match_basis": "verbatim_token+chapter_route:ch08"}, {"md_atom_id": "md_ch08_a055", "md_file": "knowledge_base/chapters/ch08_relationships.md", "md_atom_type": "SENTENCE", "md_parent_section": "§8.2 [Relating Peer Records]", "md_verbatim": "A relationship is defined by adding a record to RELREC for each record to be related and by assigning a unique character identifier value for the relationship.", "score": 0.5921, "match_basis": "verbatim_token+chapter_route:ch08"}, {"md_atom_id": "md_ch08_a123", "md_file": "knowledge_base/chapters/ch08_relationships.md", "md_atom_type": "SENTENCE", "md_parent_section": "§8.3.1 [RELREC Dataset Relationship Example]", "md_verbatim": "The values for the --LNKID variable in the 2 datasets are sponsor-defined.", "score": 0.45, "match_basis": "verbatim_token+chapter_route:ch08"}, {"md_atom_id": "md_ch08_a125", "md_file": "knowledge_base/chapters/ch08_relationships.md", "md_atom_type": "SENTENCE", "md_parent_section": "§8.3.1 [RELREC Dataset Relationship Example]", "md_verbatim": "The variable RELTYPE identifies the type of relationship between the datasets.", "score": 0.444, "match_basis": "verbatim_token+chapter_route:ch08"}, {"md_atom_id": "md_ch08_a005", "md_file": "knowledge_base/chapters/ch08_relationships.md", "md_atom_type": "SENTENCE", "md_parent_section": "§8 [Representing Relationships and Data]", "md_verbatim": "Collected data that may not entirely fit includes relationships between records within a domain, records in separate domains, and sponsor-defined \"variables.\"", "score": 0.4278, "match_basis": "verbatim_token+chapter_route:ch08"}], "candidate_count": 5, "zero_candidate": false}
{"pdf_atom_id": "ig34_p0427_a025", "pdf_atom_type": "SENTENCE", "pdf_source": "SDTMIG_v3.4", "pdf_page": 427, "pdf_parent_section": "§8.1 [RELATING GROUPS OF RECORDS WITHIN A DOMAIN USING THE --GRPID VARIABLE]", "pdf_verbatim": "The values used for --GRPID can be any values the sponsor chooses; however, if the sponsor uses values with some embedded meaning (rather than arbitrary numbers), those values should be consistent across the submission to avoid confusion.", "figure_ref": null, "candidates": [{"md_atom_id": "md_ch08_a026", "md_file": "knowledge_base/chapters/ch08_relationships.md", "md_atom_type": "SENTENCE", "md_parent_section": "§8.1 [Relating Groups of Records Within a Domain Using --GRPID]", "md_verbatim": "The values used for --GRPID can be any values the sponsor chooses; however, if the sponsor uses values with some embedded meaning (rather than arbitrary numbers), those values should be consistent across the submission to avoid confusion.", "score": 0.9, "match_basis": "verbatim_token+chapter_route:ch08"}, {"md_atom_id": "md_ch08_a058", "md_file": "knowledge_base/chapters/ch08_relationships.md", "md_atom_type": "SENTENCE", "md_parent_section": "§8.2 [Relating Peer Records]", "md_verbatim": "It is recommended that the sponsor use a standard system or naming convention for RELID (e.g., all letters, all numbers, capitalized).", "score": 0.3896, "match_basis": "verbatim_token+chapter_route:ch08"}, {"md_atom_id": "md_ch08_a028", "md_file": "knowledge_base/chapters/ch08_relationships.md", "md_atom_type": "SENTENCE", "md_parent_section": "§8.1 [Relating Groups of Records Within a Domain Using --GRPID]", "md_verbatim": "Using --GRPID in the general-observation class domains can reduce the number of records in the RELREC, SUPP--, and CO datasets, when those datasets are submitted to describe relationships/associations for records or values to a \"group\" of general observation class records.", "score": 0.3894, "match_basis": "verbatim_token+chapter_route:ch08"}, {"md_atom_id": "md_ch08_a258", "md_file": "knowledge_base/chapters/ch08_relationships.md", "md_atom_type": "SENTENCE", "md_parent_section": "§8.6.3 [Guidelines for Differentiating Between Interventions, Events, Findings, and Findings About Events or Interventions]", "md_verbatim": "The following table presents questions that may assist sponsors in deciding where data should be placed in SDTM.", "score": 0.3891, "match_basis": "verbatim_token+chapter_route:ch08"}, {"md_atom_id": "md_ch08_a149", "md_file": "knowledge_base/chapters/ch08_relationships.md", "md_atom_type": "SENTENCE", "md_parent_section": "§8.4 [Relating Non-standard Variable Values to a Parent Domain]", "md_verbatim": "For subjective data, the value in QEVAL should reflect the role of the person or institution assigning the value (e.g., \"SPONSOR\", \"ADJUDICATION COMMITTEE\").", "score": 0.387, "match_basis": "verbatim_token+chapter_route:ch08"}], "candidate_count": 5, "zero_candidate": false}
{"pdf_atom_id": "ig34_p0427_a026", "pdf_atom_type": "SENTENCE", "pdf_source": "SDTMIG_v3.4", "pdf_page": 427, "pdf_parent_section": "§8.1 [RELATING GROUPS OF RECORDS WITHIN A DOMAIN USING THE --GRPID VARIABLE]", "pdf_verbatim": "It is important to note that --GRPID has no inherent meaning across subjects or across domains.", "figure_ref": null, "candidates": [{"md_atom_id": "md_ch08_a027", "md_file": "knowledge_base/chapters/ch08_relationships.md", "md_atom_type": "SENTENCE", "md_parent_section": "§8.1 [Relating Groups of Records Within a Domain Using --GRPID]", "md_verbatim": "It is important to note that --GRPID has no inherent meaning across subjects or across domains.", "score": 0.9, "match_basis": "verbatim_token+chapter_route:ch08"}, {"md_atom_id": "md_ch08_a133", "md_file": "knowledge_base/chapters/ch08_relationships.md", "md_atom_type": "SENTENCE", "md_parent_section": "§8.3.1 [RELREC Dataset Relationship Example]", "md_verbatim": "--SEQ only has meaning within a subject within a dataset, not across datasets.", "score": 0.4778, "match_basis": "verbatim_token+chapter_route:ch08"}, {"md_atom_id": "md_ch08_a036", "md_file": "knowledge_base/chapters/ch08_relationships.md", "md_atom_type": "SENTENCE", "md_parent_section": "§8.1.1 [--GRPID Example]", "md_verbatim": "**Rows 7-9:** Show 3 medications taken by subject 5678. CMGRPID=\"COMBO THPY 1\" has been used to group these medications. Note that the medications with CMGRPID \"COMBO THPY 1\" are completely different for subjects 1234 and 5678.", "score": 0.4085, "match_basis": "verbatim_token+chapter_route:ch08"}, {"md_atom_id": "md_ch08_a069", "md_file": "knowledge_base/chapters/ch08_relationships.md", "md_atom_type": "SENTENCE", "md_parent_section": "§8.2.1 [Related Records (RELREC)]", "md_verbatim": "A dataset used to describe relationships between records for a subject within or across domains, and relationships of records across datasets.", "score": 0.4024, "match_basis": "verbatim_token+chapter_route:ch08"}, {"md_atom_id": "md_ch08_a208", "md_file": "knowledge_base/chapters/ch08_relationships.md", "md_atom_type": "SENTENCE", "md_parent_section": "§8.5 [Relating Comments to a Parent Domain]", "md_verbatim": "Comments may be related to a subject, a domain for a subject, or to specific parent records in any domain.", "score": 0.3985, "match_basis": "verbatim_token+chapter_route:ch08"}], "candidate_count": 5, "zero_candidate": false}
{"pdf_atom_id": "ig34_p0427_a027", "pdf_atom_type": "SENTENCE", "pdf_source": "SDTMIG_v3.4", "pdf_page": 427, "pdf_parent_section": "§8.1 [RELATING GROUPS OF RECORDS WITHIN A DOMAIN USING THE --GRPID VARIABLE]", "pdf_verbatim": "Using --GRPID in the general-observation class domains can reduce the number of records in the RELREC, SUPP--, and CO datasets, when those datasets are submitted to describe relationships/associations for records or values to a \"group\" of general observation class records.", "figure_ref": null, "candidates": [{"md_atom_id": "md_ch08_a028", "md_file": "knowledge_base/chapters/ch08_relationships.md", "md_atom_type": "SENTENCE", "md_parent_section": "§8.1 [Relating Groups of Records Within a Domain Using --GRPID]", "md_verbatim": "Using --GRPID in the general-observation class domains can reduce the number of records in the RELREC, SUPP--, and CO datasets, when those datasets are submitted to describe relationships/associations for records or values to a \"group\" of general observation class records.", "score": 0.9, "match_basis": "verbatim_token+chapter_route:ch08"}, {"md_atom_id": "md_ch08_a154", "md_file": "knowledge_base/chapters/ch08_relationships.md", "md_atom_type": "SENTENCE", "md_parent_section": "§8.4 [Relating Non-standard Variable Values to a Parent Domain]", "md_verbatim": "Just as use of the optional grouping identifier variable (--GRPID) can be a more efficient method of representing relationships in RELREC, it can also be used in a SUPP-- dataset to identify individual qualifier values (SUPP-- records) related to multiple general-observation class domain records that could be grouped, such as relating an attribution to a group of ECG measurements.", "score": 0.4945, "match_basis": "verbatim_token+chapter_route:ch08"}, {"md_atom_id": "md_ch08_a069", "md_file": "knowledge_base/chapters/ch08_relationships.md", "md_atom_type": "SENTENCE", "md_parent_section": "§8.2.1 [Related Records (RELREC)]", "md_verbatim": "A dataset used to describe relationships between records for a subject within or across domains, and relationships of records across datasets.", "score": 0.4912, "match_basis": "verbatim_token+chapter_route:ch08"}, {"md_atom_id": "md_ch08_a053", "md_file": "knowledge_base/chapters/ch08_relationships.md", "md_atom_type": "SENTENCE", "md_parent_section": "§8.2 [Relating Peer Records]", "md_verbatim": "The Related Records (RELREC) special-purpose dataset is used to describe relationships between records for a subject (as described in this section), and relationships between datasets (as described in Section 8.3, Relating Datasets).", "score": 0.49, "match_basis": "verbatim_token+chapter_route:ch08"}, {"md_atom_id": "md_ch08_a113", "md_file": "knowledge_base/chapters/ch08_relationships.md", "md_atom_type": "SENTENCE", "md_parent_section": "§8.3 [Relating Datasets Using RELREC]", "md_verbatim": "Note that it is not necessary to use the RELREC dataset to identify associations from data in the SUPP-- datasets or the Comments (CO) dataset to their parent general-observation class dataset records or special-purpose domain records, as both these datasets include the key variable identifiers of the parent record(s) that are necessary to make the association.", "score": 0.4804, "match_basis": "verbatim_token+chapter_route:ch08"}], "candidate_count": 5, "zero_candidate": false}
{"pdf_atom_id": "ig34_p0428_a001", "pdf_atom_type": "HEADING", "pdf_source": "SDTMIG_v3.4", "pdf_page": 428, "pdf_parent_section": "§8.1 [RELATING GROUPS OF RECORDS WITHIN A DOMAIN USING THE --GRPID VARIABLE]", "pdf_verbatim": "8.1.1 --GRPID Example", "figure_ref": null, "candidates": [{"md_atom_id": "md_ch08_a029", "md_file": "knowledge_base/chapters/ch08_relationships.md", "md_atom_type": "HEADING", "md_parent_section": "§8.1 [Relating Groups of Records Within a Domain Using --GRPID]", "md_verbatim": "### 8.1.1 --GRPID Example", "score": 0.9, "match_basis": "verbatim_token+chapter_route:ch08"}, {"md_atom_id": "md_ch08_a292", "md_file": "knowledge_base/chapters/ch08_relationships.md", "md_atom_type": "HEADING", "md_parent_section": "§8.7 [Related Subjects (RELSUB)]", "md_verbatim": "### Example", "score": 0.675, "match_basis": "verbatim_token+chapter_route:ch08"}, {"md_atom_id": "md_ch08_a331", "md_file": "knowledge_base/chapters/ch08_relationships.md", "md_atom_type": "HEADING", "md_parent_section": "§8.8 [Related Specimens (RELSPEC)]", "md_verbatim": "### Example", "score": 0.675, "match_basis": "verbatim_token+chapter_route:ch08"}, {"md_atom_id": "md_ch08_a184", "md_file": "knowledge_base/chapters/ch08_relationships.md", "md_atom_type": "HEADING", "md_parent_section": "§8.4 [Relating Non-standard Variable Values to a Parent Domain]", "md_verbatim": "### 8.4.3 Examples", "score": 0.6333, "match_basis": "verbatim_token+chapter_route:ch08"}, {"md_atom_id": "md_ch08_a081", "md_file": "knowledge_base/chapters/ch08_relationships.md", "md_atom_type": "HEADING", "md_parent_section": "§8.2 [Relating Peer Records]", "md_verbatim": "### 8.2.2 RELREC Dataset Examples", "score": 0.4667, "match_basis": "verbatim_token+chapter_route:ch08"}], "candidate_count": 5, "zero_candidate": false}
{"pdf_atom_id": "ig34_p0428_a002", "pdf_atom_type": "SENTENCE", "pdf_source": "SDTMIG_v3.4", "pdf_page": 428, "pdf_parent_section": "§8.1.1 --GRPID Example", "pdf_verbatim": "The following table illustrates --GRPID used in the Concomitant Medications (CM) domain to identify a combination therapy.", "figure_ref": null, "candidates": [{"md_atom_id": "md_ch08_a030", "md_file": "knowledge_base/chapters/ch08_relationships.md", "md_atom_type": "SENTENCE", "md_parent_section": "§8.1.1 [--GRPID Example]", "md_verbatim": "The following table illustrates --GRPID used in the Concomitant Medications (CM) domain to identify a combination therapy.", "score": 0.9, "match_basis": "verbatim_token+chapter_route:ch08"}, {"md_atom_id": "md_ch08_a101", "md_file": "knowledge_base/chapters/ch08_relationships.md", "md_atom_type": "SENTENCE", "md_parent_section": "§8.2.2 [RELREC Dataset Examples]", "md_verbatim": "**Example 3:** Same scenario as Example 2, but the sponsor grouped the 2 concomitant medications in the CM domain using CMGRPID = \"COMBO 1\", allowing the relationship among these 5 records to be represented with 4, rather than 5, records in the RELREC dataset.", "score": 0.4667, "match_basis": "verbatim_token+chapter_route:ch08"}, {"md_atom_id": "md_ch08_a024", "md_file": "knowledge_base/chapters/ch08_relationships.md", "md_atom_type": "SENTENCE", "md_parent_section": "§8.1 [Relating Groups of Records Within a Domain Using --GRPID]", "md_verbatim": "It is used to identify relationships between records within a USUBJID within a single domain (e.g., intervention records for a combination therapy where treatments in the combination varies from subject to subject).", "score": 0.4448, "match_basis": "verbatim_token+chapter_route:ch08"}, {"md_atom_id": "md_ch08_a082", "md_file": "knowledge_base/chapters/ch08_relationships.md", "md_atom_type": "SENTENCE", "md_parent_section": "§8.2.2 [RELREC Dataset Examples]", "md_verbatim": "**Example 1:** This example illustrates the use of the RELREC dataset to relate records stored in separate domains for USUBJID = \"123456\". This example represents a situation in which a single adverse event is part of 2 collected relationships, one with 2 concomitant medications and the other with 2 laboratory findings, but there is no collected relationship between the 2 laboratory findings and the 2 concomitant medications.", "score": 0.4379, "match_basis": "verbatim_token+chapter_route:ch08"}, {"md_atom_id": "md_ch08_a031", "md_file": "knowledge_base/chapters/ch08_relationships.md", "md_atom_type": "SENTENCE", "md_parent_section": "§8.1.1 [--GRPID Example]", "md_verbatim": "In this example, both subjects 1234 and 5678 have reported 2 combination therapies, each consisting of 3 separate medications.", "score": 0.4327, "match_basis": "verbatim_token+chapter_route:ch08"}], "candidate_count": 5, "zero_candidate": false}
{"pdf_atom_id": "ig34_p0428_a003", "pdf_atom_type": "SENTENCE", "pdf_source": "SDTMIG_v3.4", "pdf_page": 428, "pdf_parent_section": "§8.1.1 --GRPID Example", "pdf_verbatim": "In this example, both subjects 1234 and 5678 have reported 2 combination therapies, each consisting of 3 separate medications.", "figure_ref": null, "candidates": [{"md_atom_id": "md_ch08_a031", "md_file": "knowledge_base/chapters/ch08_relationships.md", "md_atom_type": "SENTENCE", "md_parent_section": "§8.1.1 [--GRPID Example]", "md_verbatim": "In this example, both subjects 1234 and 5678 have reported 2 combination therapies, each consisting of 3 separate medications.", "score": 0.9, "match_basis": "verbatim_token+chapter_route:ch08"}, {"md_atom_id": "md_ch08_a037", "md_file": "knowledge_base/chapters/ch08_relationships.md", "md_atom_type": "SENTENCE", "md_parent_section": "§8.1.1 [--GRPID Example]", "md_verbatim": "**Rows 10-12:** Show 3 different medications taken by subject 5678, with CMGRPID=\"COMBO THPY 2\". Again, the medications with \"COMBO THPY 2\" are completely different for subjects 1234 and 5678.", "score": 0.4515, "match_basis": "verbatim_token+chapter_route:ch08"}, {"md_atom_id": "md_ch08_a093", "md_file": "knowledge_base/chapters/ch08_relationships.md", "md_atom_type": "SENTENCE", "md_parent_section": "§8.2.2 [RELREC Dataset Examples]", "md_verbatim": "**Example 2:** Same scenario as Example 1, but in this case the way the data were collected indicated that the concomitant medications and laboratory findings were all in a single relationship to each other and the adverse event.", "score": 0.4392, "match_basis": "verbatim_token+chapter_route:ch08"}, {"md_atom_id": "md_ch08_a036", "md_file": "knowledge_base/chapters/ch08_relationships.md", "md_atom_type": "SENTENCE", "md_parent_section": "§8.1.1 [--GRPID Example]", "md_verbatim": "**Rows 7-9:** Show 3 medications taken by subject 5678. CMGRPID=\"COMBO THPY 1\" has been used to group these medications. Note that the medications with CMGRPID \"COMBO THPY 1\" are completely different for subjects 1234 and 5678.", "score": 0.4364, "match_basis": "verbatim_token+chapter_route:ch08"}, {"md_atom_id": "md_ch08_a030", "md_file": "knowledge_base/chapters/ch08_relationships.md", "md_atom_type": "SENTENCE", "md_parent_section": "§8.1.1 [--GRPID Example]", "md_verbatim": "The following table illustrates --GRPID used in the Concomitant Medications (CM) domain to identify a combination therapy.", "score": 0.4327, "match_basis": "verbatim_token+chapter_route:ch08"}], "candidate_count": 5, "zero_candidate": false}
{"pdf_atom_id": "ig34_p0428_a004", "pdf_atom_type": "SENTENCE", "pdf_source": "SDTMIG_v3.4", "pdf_page": 428, "pdf_parent_section": "§8.1.1 --GRPID Example", "pdf_verbatim": "The components of a combination all have the same value for CMGRPID.", "figure_ref": null, "candidates": [{"md_atom_id": "md_ch08_a032", "md_file": "knowledge_base/chapters/ch08_relationships.md", "md_atom_type": "SENTENCE", "md_parent_section": "§8.1.1 [--GRPID Example]", "md_verbatim": "The components of a combination all have the same value for CMGRPID.", "score": 0.9, "match_basis": "verbatim_token+chapter_route:ch08"}, {"md_atom_id": "md_ch08_a138", "md_file": "knowledge_base/chapters/ch08_relationships.md", "md_atom_type": "SENTENCE", "md_parent_section": "§8.4 [Relating Non-standard Variable Values to a Parent Domain]", "md_verbatim": "SUPP-- represents the metadata and data for each NSV/value combination.", "score": 0.4959, "match_basis": "verbatim_token+chapter_route:ch08"}, {"md_atom_id": "md_ch08_a128", "md_file": "knowledge_base/chapters/ch08_relationships.md", "md_atom_type": "SENTENCE", "md_parent_section": "§8.3.1 [RELREC Dataset Relationship Example]", "md_verbatim": "The possible combinations are:", "score": 0.4538, "match_basis": "verbatim_token+chapter_route:ch08"}, {"md_atom_id": "md_ch08_a037", "md_file": "knowledge_base/chapters/ch08_relationships.md", "md_atom_type": "SENTENCE", "md_parent_section": "§8.1.1 [--GRPID Example]", "md_verbatim": "**Rows 10-12:** Show 3 different medications taken by subject 5678, with CMGRPID=\"COMBO THPY 2\". Again, the medications with \"COMBO THPY 2\" are completely different for subjects 1234 and 5678.", "score": 0.4105, "match_basis": "verbatim_token+chapter_route:ch08"}, {"md_atom_id": "md_ch08_a035", "md_file": "knowledge_base/chapters/ch08_relationships.md", "md_atom_type": "SENTENCE", "md_parent_section": "§8.1.1 [--GRPID Example]", "md_verbatim": "**Rows 4-6:** Show 3 different medications taken by subject 1234, with CMGRPID=\"COMBO THPY 2\".", "score": 0.4065, "match_basis": "verbatim_token+chapter_route:ch08"}], "candidate_count": 5, "zero_candidate": false}
{"pdf_atom_id": "ig34_p0428_a005", "pdf_atom_type": "SENTENCE", "pdf_source": "SDTMIG_v3.4", "pdf_page": 428, "pdf_parent_section": "§8.1.1 --GRPID Example", "pdf_verbatim": "This example illustrates how CMGRPID groups information only within a subject within a domain.", "figure_ref": null, "candidates": [{"md_atom_id": "md_ch08_a033", "md_file": "knowledge_base/chapters/ch08_relationships.md", "md_atom_type": "SENTENCE", "md_parent_section": "§8.1.1 [--GRPID Example]", "md_verbatim": "This example illustrates how CMGRPID groups information only within a subject within a domain.", "score": 0.9, "match_basis": "verbatim_token+chapter_route:ch08"}, {"md_atom_id": "md_ch08_a185", "md_file": "knowledge_base/chapters/ch08_relationships.md", "md_atom_type": "SENTENCE", "md_parent_section": "§8.4.3 [Examples]", "md_verbatim": "These examples illustrate how a set of SUPP-- datasets could be used to relate non-standard information to a parent domain.", "score": 0.5025, "match_basis": "verbatim_token+chapter_route:ch08"}, {"md_atom_id": "md_ch08_a037", "md_file": "knowledge_base/chapters/ch08_relationships.md", "md_atom_type": "SENTENCE", "md_parent_section": "§8.1.1 [--GRPID Example]", "md_verbatim": "**Rows 10-12:** Show 3 different medications taken by subject 5678, with CMGRPID=\"COMBO THPY 2\". Again, the medications with \"COMBO THPY 2\" are completely different for subjects 1234 and 5678.", "score": 0.4364, "match_basis": "verbatim_token+chapter_route:ch08"}, {"md_atom_id": "md_ch08_a036", "md_file": "knowledge_base/chapters/ch08_relationships.md", "md_atom_type": "SENTENCE", "md_parent_section": "§8.1.1 [--GRPID Example]", "md_verbatim": "**Rows 7-9:** Show 3 medications taken by subject 5678. CMGRPID=\"COMBO THPY 1\" has been used to group these medications. Note that the medications with CMGRPID \"COMBO THPY 1\" are completely different for subjects 1234 and 5678.", "score": 0.4361, "match_basis": "verbatim_token+chapter_route:ch08"}, {"md_atom_id": "md_ch08_a034", "md_file": "knowledge_base/chapters/ch08_relationships.md", "md_atom_type": "SENTENCE", "md_parent_section": "§8.1.1 [--GRPID Example]", "md_verbatim": "**Rows 1-3:** Show 3 medications taken by subject 1234. CMGRPID=\"COMBO THPY 1\" has been used to group these medications.", "score": 0.4342, "match_basis": "verbatim_token+chapter_route:ch08"}], "candidate_count": 5, "zero_candidate": false}
{"pdf_atom_id": "ig34_p0428_a006", "pdf_atom_type": "LIST_ITEM", "pdf_source": "SDTMIG_v3.4", "pdf_page": 428, "pdf_parent_section": "§8.1.1 --GRPID Example", "pdf_verbatim": "Rows 1-3: Show 3 medications taken by subject 1234. GMGRPID=\"COMBO THPY 1\" has been used to group these medications.", "figure_ref": null, "candidates": [{"md_atom_id": "md_ch08_a034", "md_file": "knowledge_base/chapters/ch08_relationships.md", "md_atom_type": "SENTENCE", "md_parent_section": "§8.1.1 [--GRPID Example]", "md_verbatim": "**Rows 1-3:** Show 3 medications taken by subject 1234. CMGRPID=\"COMBO THPY 1\" has been used to group these medications.", "score": 0.7833, "match_basis": "verbatim_token+chapter_route:ch08"}, {"md_atom_id": "md_ch08_a036", "md_file": "knowledge_base/chapters/ch08_relationships.md", "md_atom_type": "SENTENCE", "md_parent_section": "§8.1.1 [--GRPID Example]", "md_verbatim": "**Rows 7-9:** Show 3 medications taken by subject 5678. CMGRPID=\"COMBO THPY 1\" has been used to group these medications. Note that the medications with CMGRPID \"COMBO THPY 1\" are completely different for subjects 1234 and 5678.", "score": 0.5734, "match_basis": "verbatim_token+chapter_route:ch08"}, {"md_atom_id": "md_ch08_a035", "md_file": "knowledge_base/chapters/ch08_relationships.md", "md_atom_type": "SENTENCE", "md_parent_section": "§8.1.1 [--GRPID Example]", "md_verbatim": "**Rows 4-6:** Show 3 different medications taken by subject 1234, with CMGRPID=\"COMBO THPY 2\".", "score": 0.5656, "match_basis": "verbatim_token+chapter_route:ch08"}, {"md_atom_id": "md_ch08_a037", "md_file": "knowledge_base/chapters/ch08_relationships.md", "md_atom_type": "SENTENCE", "md_parent_section": "§8.1.1 [--GRPID Example]", "md_verbatim": "**Rows 10-12:** Show 3 different medications taken by subject 5678, with CMGRPID=\"COMBO THPY 2\". Again, the medications with \"COMBO THPY 2\" are completely different for subjects 1234 and 5678.", "score": 0.4929, "match_basis": "verbatim_token+chapter_route:ch08"}, {"md_atom_id": "md_ch08_a007", "md_file": "knowledge_base/chapters/ch08_relationships.md", "md_atom_type": "LIST_ITEM", "md_parent_section": "§8 [Representing Relationships and Data]", "md_verbatim": "- **Section 8.1**, Relating Groups of Records Within a Domain Using the --GRPID Variable — representing a relationship between a group of records for a given subject within the same domain", "score": 0.4161, "match_basis": "verbatim_token+chapter_route:ch08"}], "candidate_count": 5, "zero_candidate": false}
{"pdf_atom_id": "ig34_p0428_a007", "pdf_atom_type": "LIST_ITEM", "pdf_source": "SDTMIG_v3.4", "pdf_page": 428, "pdf_parent_section": "§8.1.1 --GRPID Example", "pdf_verbatim": "Rows 4-6: Show 3 different medications taken by subject 1234, with CMGRPID=\"COMBO THPY 2\".", "figure_ref": null, "candidates": [{"md_atom_id": "md_ch08_a035", "md_file": "knowledge_base/chapters/ch08_relationships.md", "md_atom_type": "SENTENCE", "md_parent_section": "§8.1.1 [--GRPID Example]", "md_verbatim": "**Rows 4-6:** Show 3 different medications taken by subject 1234, with CMGRPID=\"COMBO THPY 2\".", "score": 0.81, "match_basis": "verbatim_token+chapter_route:ch08"}, {"md_atom_id": "md_ch08_a037", "md_file": "knowledge_base/chapters/ch08_relationships.md", "md_atom_type": "SENTENCE", "md_parent_section": "§8.1.1 [--GRPID Example]", "md_verbatim": "**Rows 10-12:** Show 3 different medications taken by subject 5678, with CMGRPID=\"COMBO THPY 2\". Again, the medications with \"COMBO THPY 2\" are completely different for subjects 1234 and 5678.", "score": 0.6371, "match_basis": "verbatim_token+chapter_route:ch08"}, {"md_atom_id": "md_ch08_a034", "md_file": "knowledge_base/chapters/ch08_relationships.md", "md_atom_type": "SENTENCE", "md_parent_section": "§8.1.1 [--GRPID Example]", "md_verbatim": "**Rows 1-3:** Show 3 medications taken by subject 1234. CMGRPID=\"COMBO THPY 1\" has been used to group these medications.", "score": 0.5836, "match_basis": "verbatim_token+chapter_route:ch08"}, {"md_atom_id": "md_ch08_a036", "md_file": "knowledge_base/chapters/ch08_relationships.md", "md_atom_type": "SENTENCE", "md_parent_section": "§8.1.1 [--GRPID Example]", "md_verbatim": "**Rows 7-9:** Show 3 medications taken by subject 5678. CMGRPID=\"COMBO THPY 1\" has been used to group these medications. Note that the medications with CMGRPID \"COMBO THPY 1\" are completely different for subjects 1234 and 5678.", "score": 0.57, "match_basis": "verbatim_token+chapter_route:ch08"}, {"md_atom_id": "md_ch08_a065", "md_file": "knowledge_base/chapters/ch08_relationships.md", "md_atom_type": "LIST_ITEM", "md_parent_section": "§8.2 [Relating Peer Records]", "md_verbatim": "- explicit relationships, such as concomitant medications taken as a result of an adverse event; or", "score": 0.4105, "match_basis": "verbatim_token+chapter_route:ch08"}], "candidate_count": 5, "zero_candidate": false}
{"pdf_atom_id": "ig34_p0428_a008", "pdf_atom_type": "LIST_ITEM", "pdf_source": "SDTMIG_v3.4", "pdf_page": 428, "pdf_parent_section": "§8.1.1 --GRPID Example", "pdf_verbatim": "Rows 7-9: Show 3 medications taken by subject 5678. CMGRPID=\"COMBO THPY 1\" has been used to group these medications. Note that the medications with GMGRPID \"COMBO THPY 1\" are completely different for subjects 1234 and 5678.", "figure_ref": null, "candidates": [{"md_atom_id": "md_ch08_a036", "md_file": "knowledge_base/chapters/ch08_relationships.md", "md_atom_type": "SENTENCE", "md_parent_section": "§8.1.1 [--GRPID Example]", "md_verbatim": "**Rows 7-9:** Show 3 medications taken by subject 5678. CMGRPID=\"COMBO THPY 1\" has been used to group these medications. Note that the medications with CMGRPID \"COMBO THPY 1\" are completely different for subjects 1234 and 5678.", "score": 0.8015, "match_basis": "verbatim_token+chapter_route:ch08"}, {"md_atom_id": "md_ch08_a037", "md_file": "knowledge_base/chapters/ch08_relationships.md", "md_atom_type": "SENTENCE", "md_parent_section": "§8.1.1 [--GRPID Example]", "md_verbatim": "**Rows 10-12:** Show 3 different medications taken by subject 5678, with CMGRPID=\"COMBO THPY 2\". Again, the medications with \"COMBO THPY 2\" are completely different for subjects 1234 and 5678.", "score": 0.6641, "match_basis": "verbatim_token+chapter_route:ch08"}, {"md_atom_id": "md_ch08_a034", "md_file": "knowledge_base/chapters/ch08_relationships.md", "md_atom_type": "SENTENCE", "md_parent_section": "§8.1.1 [--GRPID Example]", "md_verbatim": "**Rows 1-3:** Show 3 medications taken by subject 1234. CMGRPID=\"COMBO THPY 1\" has been used to group these medications.", "score": 0.5818, "match_basis": "verbatim_token+chapter_route:ch08"}, {"md_atom_id": "md_ch08_a035", "md_file": "knowledge_base/chapters/ch08_relationships.md", "md_atom_type": "SENTENCE", "md_parent_section": "§8.1.1 [--GRPID Example]", "md_verbatim": "**Rows 4-6:** Show 3 different medications taken by subject 1234, with CMGRPID=\"COMBO THPY 2\".", "score": 0.5649, "match_basis": "verbatim_token+chapter_route:ch08"}, {"md_atom_id": "md_ch08_a007", "md_file": "knowledge_base/chapters/ch08_relationships.md", "md_atom_type": "LIST_ITEM", "md_parent_section": "§8 [Representing Relationships and Data]", "md_verbatim": "- **Section 8.1**, Relating Groups of Records Within a Domain Using the --GRPID Variable — representing a relationship between a group of records for a given subject within the same domain", "score": 0.4138, "match_basis": "verbatim_token+chapter_route:ch08"}], "candidate_count": 5, "zero_candidate": false}
{"pdf_atom_id": "ig34_p0428_a009", "pdf_atom_type": "LIST_ITEM", "pdf_source": "SDTMIG_v3.4", "pdf_page": 428, "pdf_parent_section": "§8.1.1 --GRPID Example", "pdf_verbatim": "Rows 10-12: Show 3 different medications taken by subject 5678, with CMGRPID=\"COMBO THPY 2\". Again, the medications with \"COMBO THPY 2\" are completely different for subjects 1234 and 5678.", "figure_ref": null, "candidates": [{"md_atom_id": "md_ch08_a037", "md_file": "knowledge_base/chapters/ch08_relationships.md", "md_atom_type": "SENTENCE", "md_parent_section": "§8.1.1 [--GRPID Example]", "md_verbatim": "**Rows 10-12:** Show 3 different medications taken by subject 5678, with CMGRPID=\"COMBO THPY 2\". Again, the medications with \"COMBO THPY 2\" are completely different for subjects 1234 and 5678.", "score": 0.81, "match_basis": "verbatim_token+chapter_route:ch08"}, {"md_atom_id": "md_ch08_a036", "md_file": "knowledge_base/chapters/ch08_relationships.md", "md_atom_type": "SENTENCE", "md_parent_section": "§8.1.1 [--GRPID Example]", "md_verbatim": "**Rows 7-9:** Show 3 medications taken by subject 5678. CMGRPID=\"COMBO THPY 1\" has been used to group these medications. Note that the medications with CMGRPID \"COMBO THPY 1\" are completely different for subjects 1234 and 5678.", "score": 0.6703, "match_basis": "verbatim_token+chapter_route:ch08"}, {"md_atom_id": "md_ch08_a035", "md_file": "knowledge_base/chapters/ch08_relationships.md", "md_atom_type": "SENTENCE", "md_parent_section": "§8.1.1 [--GRPID Example]", "md_verbatim": "**Rows 4-6:** Show 3 different medications taken by subject 1234, with CMGRPID=\"COMBO THPY 2\".", "score": 0.6371, "match_basis": "verbatim_token+chapter_route:ch08"}, {"md_atom_id": "md_ch08_a034", "md_file": "knowledge_base/chapters/ch08_relationships.md", "md_atom_type": "SENTENCE", "md_parent_section": "§8.1.1 [--GRPID Example]", "md_verbatim": "**Rows 1-3:** Show 3 medications taken by subject 1234. CMGRPID=\"COMBO THPY 1\" has been used to group these medications.", "score": 0.5057, "match_basis": "verbatim_token+chapter_route:ch08"}, {"md_atom_id": "md_ch08_a007", "md_file": "knowledge_base/chapters/ch08_relationships.md", "md_atom_type": "LIST_ITEM", "md_parent_section": "§8 [Representing Relationships and Data]", "md_verbatim": "- **Section 8.1**, Relating Groups of Records Within a Domain Using the --GRPID Variable — representing a relationship between a group of records for a given subject within the same domain", "score": 0.4, "match_basis": "verbatim_token+chapter_route:ch08"}], "candidate_count": 5, "zero_candidate": false}
{"pdf_atom_id": "ig34_p0428_a010", "pdf_atom_type": "CODE_LITERAL", "pdf_source": "SDTMIG_v3.4", "pdf_page": 428, "pdf_parent_section": "§8.1.1 --GRPID Example", "pdf_verbatim": "cm.xpt", "figure_ref": null, "candidates": [{"md_atom_id": "md_ch08_a038", "md_file": "knowledge_base/chapters/ch08_relationships.md", "md_atom_type": "SENTENCE", "md_parent_section": "§8.1.1 [--GRPID Example]", "md_verbatim": "cm.xpt:", "score": 0.69, "match_basis": "verbatim_token+chapter_route:ch08"}, {"md_atom_id": "md_ch08_a297", "md_file": "knowledge_base/chapters/ch08_relationships.md", "md_atom_type": "SENTENCE", "md_parent_section": "§8.7 [Related Subjects (RELSUB)]", "md_verbatim": "dm.xpt:", "score": 0.69, "match_basis": "verbatim_token+chapter_route:ch08"}, {"md_atom_id": "md_ch08_a085", "md_file": "knowledge_base/chapters/ch08_relationships.md", "md_atom_type": "SENTENCE", "md_parent_section": "§8.2.2 [RELREC Dataset Examples]", "md_verbatim": "relrec.xpt:", "score": 0.21, "match_basis": "verbatim_token+chapter_route:ch08"}, {"md_atom_id": "md_ch08_a094", "md_file": "knowledge_base/chapters/ch08_relationships.md", "md_atom_type": "SENTENCE", "md_parent_section": "§8.2.2 [RELREC Dataset Examples]", "md_verbatim": "relrec.xpt:", "score": 0.21, "match_basis": "verbatim_token+chapter_route:ch08"}, {"md_atom_id": "md_ch08_a102", "md_file": "knowledge_base/chapters/ch08_relationships.md", "md_atom_type": "SENTENCE", "md_parent_section": "§8.2.2 [RELREC Dataset Examples]", "md_verbatim": "relrec.xpt:", "score": 0.21, "match_basis": "verbatim_token+chapter_route:ch08"}, {"md_atom_id": "md_ch08_a116", "md_file": "knowledge_base/chapters/ch08_relationships.md", "md_atom_type": "SENTENCE", "md_parent_section": "§8.3.1 [RELREC Dataset Relationship Example]", "md_verbatim": "relrec.xpt:", "score": 0.21, "match_basis": "verbatim_token+chapter_route:ch08"}, {"md_atom_id": "md_ch08_a187", "md_file": "knowledge_base/chapters/ch08_relationships.md", "md_atom_type": "SENTENCE", "md_parent_section": "§8.4.3 [Examples]", "md_verbatim": "suppae.xpt:", "score": 0.21, "match_basis": "verbatim_token+chapter_route:ch08"}, {"md_atom_id": "md_ch08_a192", "md_file": "knowledge_base/chapters/ch08_relationships.md", "md_atom_type": "SENTENCE", "md_parent_section": "§8.4.3 [Examples]", "md_verbatim": "suppqs.xpt:", "score": 0.21, "match_basis": "verbatim_token+chapter_route:ch08"}, {"md_atom_id": "md_ch08_a306", "md_file": "knowledge_base/chapters/ch08_relationships.md", "md_atom_type": "SENTENCE", "md_parent_section": "§8.7 [Related Subjects (RELSUB)]", "md_verbatim": "relsub.xpt:", "score": 0.21, "match_basis": "verbatim_token+chapter_route:ch08"}, {"md_atom_id": "md_ch08_a338", "md_file": "knowledge_base/chapters/ch08_relationships.md", "md_atom_type": "SENTENCE", "md_parent_section": "§8.8 [Related Specimens (RELSPEC)]", "md_verbatim": "relspec.xpt:", "score": 0.19, "match_basis": "verbatim_token+chapter_route:ch08"}], "candidate_count": 10, "zero_candidate": false}
{"pdf_atom_id": "ig34_p0428_a011", "pdf_atom_type": "TABLE_HEADER", "pdf_source": "SDTMIG_v3.4", "pdf_page": 428, "pdf_parent_section": "§8.1.1 --GRPID Example", "pdf_verbatim": "Row STUDYID DOMAIN USUBJID CMSEQ CMGRPID CMTRT CMDECOD CMDOSE CMDOSU CMSTDTC CMENDTC", "figure_ref": null, "candidates": [{"md_atom_id": "md_ch08_a039", "md_file": "knowledge_base/chapters/ch08_relationships.md", "md_atom_type": "TABLE_HEADER", "md_parent_section": "§8.1.1 [--GRPID Example]", "md_verbatim": "| Row | STUDYID | DOMAIN | USUBJID | CMSEQ | CMGRPID | CMTRT | CMDECOD | CMDOSE | CMDOSU | CMSTDTC | CMENDTC |\n|-----|---------|--------|---------|-------|---------|-------|---------|--------|--------|---------|---------|", "score": 0.9, "match_basis": "verbatim_token+chapter_route:ch08"}, {"md_atom_id": "md_ch08_a298", "md_file": "knowledge_base/chapters/ch08_relationships.md", "md_atom_type": "TABLE_HEADER", "md_parent_section": "§8.7 [Related Subjects (RELSUB)]", "md_verbatim": "| Row | STUDYID | DOMAIN | USUBJID | BRTHDTC | AGE | AGEU | SEX |\n|-----|---------|--------|---------|---------|-----|------|-----|", "score": 0.492, "match_basis": "verbatim_token+chapter_route:ch08"}, {"md_atom_id": "md_ch08_a086", "md_file": "knowledge_base/chapters/ch08_relationships.md", "md_atom_type": "TABLE_HEADER", "md_parent_section": "§8.2.2 [RELREC Dataset Examples]", "md_verbatim": "| Row | STUDYID | RDOMAIN | USUBJID | IDVAR | IDVARVAL | RELTYPE | RELID |\n|-----|---------|---------|---------|-------|----------|---------|-------|", "score": 0.4579, "match_basis": "verbatim_token+chapter_route:ch08"}, {"md_atom_id": "md_ch08_a095", "md_file": "knowledge_base/chapters/ch08_relationships.md", "md_atom_type": "TABLE_HEADER", "md_parent_section": "§8.2.2 [RELREC Dataset Examples]", "md_verbatim": "| Row | STUDYID | RDOMAIN | USUBJID | IDVAR | IDVARVAL | RELTYPE | RELID |\n|-----|---------|---------|---------|-------|----------|---------|-------|", "score": 0.4579, "match_basis": "verbatim_token+chapter_route:ch08"}, {"md_atom_id": "md_ch08_a103", "md_file": "knowledge_base/chapters/ch08_relationships.md", "md_atom_type": "TABLE_HEADER", "md_parent_section": "§8.2.2 [RELREC Dataset Examples]", "md_verbatim": "| Row | STUDYID | RDOMAIN | USUBJID | IDVAR | IDVARVAL | RELTYPE | RELID |\n|-----|---------|---------|---------|-------|----------|---------|-------|", "score": 0.4579, "match_basis": "verbatim_token+chapter_route:ch08"}], "candidate_count": 5, "zero_candidate": false}
{"pdf_atom_id": "ig34_p0428_a012", "pdf_atom_type": "TABLE_ROW", "pdf_source": "SDTMIG_v3.4", "pdf_page": 428, "pdf_parent_section": "§8.1.1 --GRPID Example", "pdf_verbatim": "Row 1 | 1234 | CM | 1234 | 1 | COMBO THPY 1 | Verbatim Med A | Generic Med A | 100 | mg | 2004-01-17 | 2004-01-19", "figure_ref": null, "candidates": [{"md_atom_id": "md_ch08_a040", "md_file": "knowledge_base/chapters/ch08_relationships.md", "md_atom_type": "TABLE_ROW", "md_parent_section": "§8.1.1 [--GRPID Example]", "md_verbatim": "| 1 | 1234 | CM | 1234 | 1 | COMBO THPY 1 | Verbatim Med A | Generic Med | 100 | mg | 2004-01-17 | 2004-01-19 |", "score": 0.8739, "match_basis": "verbatim_token+chapter_route:ch08"}, {"md_atom_id": "md_ch08_a044", "md_file": "knowledge_base/chapters/ch08_relationships.md", "md_atom_type": "TABLE_ROW", "md_parent_section": "§8.1.1 [--GRPID Example]", "md_verbatim": "| 5 | 1234 | CM | 1234 | 5 | COMBO THPY 2 | Verbatim Med E | Generic Med | 100 | mg | 2004-01-21 | 2004-01-22 |", "score": 0.8739, "match_basis": "verbatim_token+chapter_route:ch08"}, {"md_atom_id": "md_ch08_a041", "md_file": "knowledge_base/chapters/ch08_relationships.md", "md_atom_type": "TABLE_ROW", "md_parent_section": "§8.1.1 [--GRPID Example]", "md_verbatim": "| 2 | 1234 | CM | 1234 | 2 | COMBO THPY 1 | Verbatim Med B | Generic Med | 50 | mg | 2004-01-17 | 2004-01-19 |", "score": 0.8478, "match_basis": "verbatim_token+chapter_route:ch08"}, {"md_atom_id": "md_ch08_a042", "md_file": "knowledge_base/chapters/ch08_relationships.md", "md_atom_type": "TABLE_ROW", "md_parent_section": "§8.1.1 [--GRPID Example]", "md_verbatim": "| 3 | 1234 | CM | 1234 | 3 | COMBO THPY 1 | Verbatim Med C | Generic Med | 200 | mg | 2004-01-17 | 2004-01-19 |", "score": 0.8478, "match_basis": "verbatim_token+chapter_route:ch08"}, {"md_atom_id": "md_ch08_a045", "md_file": "knowledge_base/chapters/ch08_relationships.md", "md_atom_type": "TABLE_ROW", "md_parent_section": "§8.1.1 [--GRPID Example]", "md_verbatim": "| 6 | 1234 | CM | 1234 | 6 | COMBO THPY 2 | Verbatim Med F | Generic Med | 75 | mg | 2004-01-21 | 2004-01-22 |", "score": 0.8478, "match_basis": "verbatim_token+chapter_route:ch08"}], "candidate_count": 5, "zero_candidate": false}
{"pdf_atom_id": "ig34_p0428_a013", "pdf_atom_type": "TABLE_ROW", "pdf_source": "SDTMIG_v3.4", "pdf_page": 428, "pdf_parent_section": "§8.1.1 --GRPID Example", "pdf_verbatim": "Row 2 | 1234 | CM | 1234 | 2 | COMBO THPY 1 | Verbatim Med B | Generic Med B | 50 | mg | 2004-01-17 | 2004-01-19", "figure_ref": null, "candidates": [{"md_atom_id": "md_ch08_a041", "md_file": "knowledge_base/chapters/ch08_relationships.md", "md_atom_type": "TABLE_ROW", "md_parent_section": "§8.1.1 [--GRPID Example]", "md_verbatim": "| 2 | 1234 | CM | 1234 | 2 | COMBO THPY 1 | Verbatim Med B | Generic Med | 50 | mg | 2004-01-17 | 2004-01-19 |", "score": 0.8727, "match_basis": "verbatim_token+chapter_route:ch08"}, {"md_atom_id": "md_ch08_a042", "md_file": "knowledge_base/chapters/ch08_relationships.md", "md_atom_type": "TABLE_ROW", "md_parent_section": "§8.1.1 [--GRPID Example]", "md_verbatim": "| 3 | 1234 | CM | 1234 | 3 | COMBO THPY 1 | Verbatim Med C | Generic Med | 200 | mg | 2004-01-17 | 2004-01-19 |", "score": 0.8727, "match_basis": "verbatim_token+chapter_route:ch08"}, {"md_atom_id": "md_ch08_a045", "md_file": "knowledge_base/chapters/ch08_relationships.md", "md_atom_type": "TABLE_ROW", "md_parent_section": "§8.1.1 [--GRPID Example]", "md_verbatim": "| 6 | 1234 | CM | 1234 | 6 | COMBO THPY 2 | Verbatim Med F | Generic Med | 75 | mg | 2004-01-21 | 2004-01-22 |", "score": 0.8727, "match_basis": "verbatim_token+chapter_route:ch08"}, {"md_atom_id": "md_ch08_a040", "md_file": "knowledge_base/chapters/ch08_relationships.md", "md_atom_type": "TABLE_ROW", "md_parent_section": "§8.1.1 [--GRPID Example]", "md_verbatim": "| 1 | 1234 | CM | 1234 | 1 | COMBO THPY 1 | Verbatim Med A | Generic Med | 100 | mg | 2004-01-17 | 2004-01-19 |", "score": 0.8478, "match_basis": "verbatim_token+chapter_route:ch08"}, {"md_atom_id": "md_ch08_a043", "md_file": "knowledge_base/chapters/ch08_relationships.md", "md_atom_type": "TABLE_ROW", "md_parent_section": "§8.1.1 [--GRPID Example]", "md_verbatim": "| 4 | 1234 | CM | 1234 | 4 | COMBO THPY 2 | Verbatim Med D | Generic Med | 150 | mg | 2004-01-21 | 2004-01-22 |", "score": 0.8478, "match_basis": "verbatim_token+chapter_route:ch08"}], "candidate_count": 5, "zero_candidate": false}
{"pdf_atom_id": "ig34_p0428_a014", "pdf_atom_type": "TABLE_ROW", "pdf_source": "SDTMIG_v3.4", "pdf_page": 428, "pdf_parent_section": "§8.1.1 --GRPID Example", "pdf_verbatim": "Row 3 | 1234 | CM | 1234 | 3 | COMBO THPY 1 | Verbatim Med C | Generic Med C | 200 | mg | 2004-01-17 | 2004-01-19", "figure_ref": null, "candidates": [{"md_atom_id": "md_ch08_a041", "md_file": "knowledge_base/chapters/ch08_relationships.md", "md_atom_type": "TABLE_ROW", "md_parent_section": "§8.1.1 [--GRPID Example]", "md_verbatim": "| 2 | 1234 | CM | 1234 | 2 | COMBO THPY 1 | Verbatim Med B | Generic Med | 50 | mg | 2004-01-17 | 2004-01-19 |", "score": 0.8727, "match_basis": "verbatim_token+chapter_route:ch08"}, {"md_atom_id": "md_ch08_a042", "md_file": "knowledge_base/chapters/ch08_relationships.md", "md_atom_type": "TABLE_ROW", "md_parent_section": "§8.1.1 [--GRPID Example]", "md_verbatim": "| 3 | 1234 | CM | 1234 | 3 | COMBO THPY 1 | Verbatim Med C | Generic Med | 200 | mg | 2004-01-17 | 2004-01-19 |", "score": 0.8727, "match_basis": "verbatim_token+chapter_route:ch08"}, {"md_atom_id": "md_ch08_a045", "md_file": "knowledge_base/chapters/ch08_relationships.md", "md_atom_type": "TABLE_ROW", "md_parent_section": "§8.1.1 [--GRPID Example]", "md_verbatim": "| 6 | 1234 | CM | 1234 | 6 | COMBO THPY 2 | Verbatim Med F | Generic Med | 75 | mg | 2004-01-21 | 2004-01-22 |", "score": 0.8727, "match_basis": "verbatim_token+chapter_route:ch08"}, {"md_atom_id": "md_ch08_a040", "md_file": "knowledge_base/chapters/ch08_relationships.md", "md_atom_type": "TABLE_ROW", "md_parent_section": "§8.1.1 [--GRPID Example]", "md_verbatim": "| 1 | 1234 | CM | 1234 | 1 | COMBO THPY 1 | Verbatim Med A | Generic Med | 100 | mg | 2004-01-17 | 2004-01-19 |", "score": 0.8478, "match_basis": "verbatim_token+chapter_route:ch08"}, {"md_atom_id": "md_ch08_a043", "md_file": "knowledge_base/chapters/ch08_relationships.md", "md_atom_type": "TABLE_ROW", "md_parent_section": "§8.1.1 [--GRPID Example]", "md_verbatim": "| 4 | 1234 | CM | 1234 | 4 | COMBO THPY 2 | Verbatim Med D | Generic Med | 150 | mg | 2004-01-21 | 2004-01-22 |", "score": 0.8478, "match_basis": "verbatim_token+chapter_route:ch08"}], "candidate_count": 5, "zero_candidate": false}
{"pdf_atom_id": "ig34_p0428_a015", "pdf_atom_type": "TABLE_ROW", "pdf_source": "SDTMIG_v3.4", "pdf_page": 428, "pdf_parent_section": "§8.1.1 --GRPID Example", "pdf_verbatim": "Row 4 | 1234 | CM | 1234 | 4 | COMBO THPY 2 | Verbatim Med D | Generic Med D | 150 | mg | 2004-01-21 | 2004-01-22", "figure_ref": null, "candidates": [{"md_atom_id": "md_ch08_a043", "md_file": "knowledge_base/chapters/ch08_relationships.md", "md_atom_type": "TABLE_ROW", "md_parent_section": "§8.1.1 [--GRPID Example]", "md_verbatim": "| 4 | 1234 | CM | 1234 | 4 | COMBO THPY 2 | Verbatim Med D | Generic Med | 150 | mg | 2004-01-21 | 2004-01-22 |", "score": 0.8739, "match_basis": "verbatim_token+chapter_route:ch08"}, {"md_atom_id": "md_ch08_a041", "md_file": "knowledge_base/chapters/ch08_relationships.md", "md_atom_type": "TABLE_ROW", "md_parent_section": "§8.1.1 [--GRPID Example]", "md_verbatim": "| 2 | 1234 | CM | 1234 | 2 | COMBO THPY 1 | Verbatim Med B | Generic Med | 50 | mg | 2004-01-17 | 2004-01-19 |", "score": 0.8478, "match_basis": "verbatim_token+chapter_route:ch08"}, {"md_atom_id": "md_ch08_a042", "md_file": "knowledge_base/chapters/ch08_relationships.md", "md_atom_type": "TABLE_ROW", "md_parent_section": "§8.1.1 [--GRPID Example]", "md_verbatim": "| 3 | 1234 | CM | 1234 | 3 | COMBO THPY 1 | Verbatim Med C | Generic Med | 200 | mg | 2004-01-17 | 2004-01-19 |", "score": 0.8478, "match_basis": "verbatim_token+chapter_route:ch08"}, {"md_atom_id": "md_ch08_a045", "md_file": "knowledge_base/chapters/ch08_relationships.md", "md_atom_type": "TABLE_ROW", "md_parent_section": "§8.1.1 [--GRPID Example]", "md_verbatim": "| 6 | 1234 | CM | 1234 | 6 | COMBO THPY 2 | Verbatim Med F | Generic Med | 75 | mg | 2004-01-21 | 2004-01-22 |", "score": 0.8478, "match_basis": "verbatim_token+chapter_route:ch08"}, {"md_atom_id": "md_ch08_a040", "md_file": "knowledge_base/chapters/ch08_relationships.md", "md_atom_type": "TABLE_ROW", "md_parent_section": "§8.1.1 [--GRPID Example]", "md_verbatim": "| 1 | 1234 | CM | 1234 | 1 | COMBO THPY 1 | Verbatim Med A | Generic Med | 100 | mg | 2004-01-17 | 2004-01-19 |", "score": 0.825, "match_basis": "verbatim_token+chapter_route:ch08"}], "candidate_count": 5, "zero_candidate": false}
{"pdf_atom_id": "ig34_p0428_a016", "pdf_atom_type": "TABLE_ROW", "pdf_source": "SDTMIG_v3.4", "pdf_page": 428, "pdf_parent_section": "§8.1.1 --GRPID Example", "pdf_verbatim": "Row 5 | 1234 | CM | 1234 | 5 | COMBO THPY 2 | Verbatim Med E | Generic Med E | 100 | mg | 2004-01-21 | 2004-01-22", "figure_ref": null, "candidates": [{"md_atom_id": "md_ch08_a040", "md_file": "knowledge_base/chapters/ch08_relationships.md", "md_atom_type": "TABLE_ROW", "md_parent_section": "§8.1.1 [--GRPID Example]", "md_verbatim": "| 1 | 1234 | CM | 1234 | 1 | COMBO THPY 1 | Verbatim Med A | Generic Med | 100 | mg | 2004-01-17 | 2004-01-19 |", "score": 0.8739, "match_basis": "verbatim_token+chapter_route:ch08"}, {"md_atom_id": "md_ch08_a044", "md_file": "knowledge_base/chapters/ch08_relationships.md", "md_atom_type": "TABLE_ROW", "md_parent_section": "§8.1.1 [--GRPID Example]", "md_verbatim": "| 5 | 1234 | CM | 1234 | 5 | COMBO THPY 2 | Verbatim Med E | Generic Med | 100 | mg | 2004-01-21 | 2004-01-22 |", "score": 0.8739, "match_basis": "verbatim_token+chapter_route:ch08"}, {"md_atom_id": "md_ch08_a041", "md_file": "knowledge_base/chapters/ch08_relationships.md", "md_atom_type": "TABLE_ROW", "md_parent_section": "§8.1.1 [--GRPID Example]", "md_verbatim": "| 2 | 1234 | CM | 1234 | 2 | COMBO THPY 1 | Verbatim Med B | Generic Med | 50 | mg | 2004-01-17 | 2004-01-19 |", "score": 0.8478, "match_basis": "verbatim_token+chapter_route:ch08"}, {"md_atom_id": "md_ch08_a042", "md_file": "knowledge_base/chapters/ch08_relationships.md", "md_atom_type": "TABLE_ROW", "md_parent_section": "§8.1.1 [--GRPID Example]", "md_verbatim": "| 3 | 1234 | CM | 1234 | 3 | COMBO THPY 1 | Verbatim Med C | Generic Med | 200 | mg | 2004-01-17 | 2004-01-19 |", "score": 0.8478, "match_basis": "verbatim_token+chapter_route:ch08"}, {"md_atom_id": "md_ch08_a045", "md_file": "knowledge_base/chapters/ch08_relationships.md", "md_atom_type": "TABLE_ROW", "md_parent_section": "§8.1.1 [--GRPID Example]", "md_verbatim": "| 6 | 1234 | CM | 1234 | 6 | COMBO THPY 2 | Verbatim Med F | Generic Med | 75 | mg | 2004-01-21 | 2004-01-22 |", "score": 0.8478, "match_basis": "verbatim_token+chapter_route:ch08"}], "candidate_count": 5, "zero_candidate": false}
{"pdf_atom_id": "ig34_p0428_a017", "pdf_atom_type": "TABLE_ROW", "pdf_source": "SDTMIG_v3.4", "pdf_page": 428, "pdf_parent_section": "§8.1.1 --GRPID Example", "pdf_verbatim": "Row 6 | 1234 | CM | 1234 | 6 | COMBO THPY 2 | Verbatim Med F | Generic Med F | 75 | mg | 2004-01-21 | 2004-01-22", "figure_ref": null, "candidates": [{"md_atom_id": "md_ch08_a041", "md_file": "knowledge_base/chapters/ch08_relationships.md", "md_atom_type": "TABLE_ROW", "md_parent_section": "§8.1.1 [--GRPID Example]", "md_verbatim": "| 2 | 1234 | CM | 1234 | 2 | COMBO THPY 1 | Verbatim Med B | Generic Med | 50 | mg | 2004-01-17 | 2004-01-19 |", "score": 0.8727, "match_basis": "verbatim_token+chapter_route:ch08"}, {"md_atom_id": "md_ch08_a042", "md_file": "knowledge_base/chapters/ch08_relationships.md", "md_atom_type": "TABLE_ROW", "md_parent_section": "§8.1.1 [--GRPID Example]", "md_verbatim": "| 3 | 1234 | CM | 1234 | 3 | COMBO THPY 1 | Verbatim Med C | Generic Med | 200 | mg | 2004-01-17 | 2004-01-19 |", "score": 0.8727, "match_basis": "verbatim_token+chapter_route:ch08"}, {"md_atom_id": "md_ch08_a045", "md_file": "knowledge_base/chapters/ch08_relationships.md", "md_atom_type": "TABLE_ROW", "md_parent_section": "§8.1.1 [--GRPID Example]", "md_verbatim": "| 6 | 1234 | CM | 1234 | 6 | COMBO THPY 2 | Verbatim Med F | Generic Med | 75 | mg | 2004-01-21 | 2004-01-22 |", "score": 0.8727, "match_basis": "verbatim_token+chapter_route:ch08"}, {"md_atom_id": "md_ch08_a040", "md_file": "knowledge_base/chapters/ch08_relationships.md", "md_atom_type": "TABLE_ROW", "md_parent_section": "§8.1.1 [--GRPID Example]", "md_verbatim": "| 1 | 1234 | CM | 1234 | 1 | COMBO THPY 1 | Verbatim Med A | Generic Med | 100 | mg | 2004-01-17 | 2004-01-19 |", "score": 0.8478, "match_basis": "verbatim_token+chapter_route:ch08"}, {"md_atom_id": "md_ch08_a043", "md_file": "knowledge_base/chapters/ch08_relationships.md", "md_atom_type": "TABLE_ROW", "md_parent_section": "§8.1.1 [--GRPID Example]", "md_verbatim": "| 4 | 1234 | CM | 1234 | 4 | COMBO THPY 2 | Verbatim Med D | Generic Med | 150 | mg | 2004-01-21 | 2004-01-22 |", "score": 0.8478, "match_basis": "verbatim_token+chapter_route:ch08"}], "candidate_count": 5, "zero_candidate": false}
{"pdf_atom_id": "ig34_p0428_a018", "pdf_atom_type": "TABLE_ROW", "pdf_source": "SDTMIG_v3.4", "pdf_page": 428, "pdf_parent_section": "§8.1.1 --GRPID Example", "pdf_verbatim": "Row 7 | 1234 | CM | 5678 | 1 | COMBO THPY 1 | Verbatim Med G | Generic Med G | 37.5 | mg | 2004-03-17 | 2004-03-25", "figure_ref": null, "candidates": [{"md_atom_id": "md_ch08_a046", "md_file": "knowledge_base/chapters/ch08_relationships.md", "md_atom_type": "TABLE_ROW", "md_parent_section": "§8.1.1 [--GRPID Example]", "md_verbatim": "| 7 | 1234 | CM | 5678 | 1 | COMBO THPY 1 | Verbatim Med G | Generic Med | 37.5 | mg | 2004-03-17 | 2004-03-25 |", "score": 0.875, "match_basis": "verbatim_token+chapter_route:ch08"}, {"md_atom_id": "md_ch08_a047", "md_file": "knowledge_base/chapters/ch08_relationships.md", "md_atom_type": "TABLE_ROW", "md_parent_section": "§8.1.1 [--GRPID Example]", "md_verbatim": "| 8 | 1234 | CM | 5678 | 2 | COMBO THPY 1 | Verbatim Med H | Generic Med | 60 | mg | 2004-03-17 | 2004-03-25 |", "score": 0.875, "match_basis": "verbatim_token+chapter_route:ch08"}, {"md_atom_id": "md_ch08_a048", "md_file": "knowledge_base/chapters/ch08_relationships.md", "md_atom_type": "TABLE_ROW", "md_parent_section": "§8.1.1 [--GRPID Example]", "md_verbatim": "| 9 | 1234 | CM | 5678 | 3 | COMBO THPY 1 | Verbatim Med I | Generic Med I | 20 | mg | 2004-03-17 | 2004-03-25 |", "score": 0.875, "match_basis": "verbatim_token+chapter_route:ch08"}, {"md_atom_id": "md_ch08_a050", "md_file": "knowledge_base/chapters/ch08_relationships.md", "md_atom_type": "TABLE_ROW", "md_parent_section": "§8.1.1 [--GRPID Example]", "md_verbatim": "| 11 | 1234 | CM | 5678 | 5 | COMBO THPY 2 | Verbatim Med K | Generic Med | 50 | mg | 2004-03-21 | 2004-03-22 |", "score": 0.875, "match_basis": "verbatim_token+chapter_route:ch08"}, {"md_atom_id": "md_ch08_a051", "md_file": "knowledge_base/chapters/ch08_relationships.md", "md_atom_type": "TABLE_ROW", "md_parent_section": "§8.1.1 [--GRPID Example]", "md_verbatim": "| 12 | 1234 | CM | 5678 | 6 | COMBO THPY 2 | Verbatim Med L | Generic Med | 10 | mg | 2004-03-21 | 2004-03-22 |", "score": 0.875, "match_basis": "verbatim_token+chapter_route:ch08"}], "candidate_count": 5, "zero_candidate": false}
{"pdf_atom_id": "ig34_p0428_a019", "pdf_atom_type": "TABLE_ROW", "pdf_source": "SDTMIG_v3.4", "pdf_page": 428, "pdf_parent_section": "§8.1.1 --GRPID Example", "pdf_verbatim": "Row 8 | 1234 | CM | 5678 | 2 | COMBO THPY 1 | Verbatim Med H | Generic Med H | 60 | mg | 2004-03-17 | 2004-03-25", "figure_ref": null, "candidates": [{"md_atom_id": "md_ch08_a046", "md_file": "knowledge_base/chapters/ch08_relationships.md", "md_atom_type": "TABLE_ROW", "md_parent_section": "§8.1.1 [--GRPID Example]", "md_verbatim": "| 7 | 1234 | CM | 5678 | 1 | COMBO THPY 1 | Verbatim Med G | Generic Med | 37.5 | mg | 2004-03-17 | 2004-03-25 |", "score": 0.875, "match_basis": "verbatim_token+chapter_route:ch08"}, {"md_atom_id": "md_ch08_a047", "md_file": "knowledge_base/chapters/ch08_relationships.md", "md_atom_type": "TABLE_ROW", "md_parent_section": "§8.1.1 [--GRPID Example]", "md_verbatim": "| 8 | 1234 | CM | 5678 | 2 | COMBO THPY 1 | Verbatim Med H | Generic Med | 60 | mg | 2004-03-17 | 2004-03-25 |", "score": 0.875, "match_basis": "verbatim_token+chapter_route:ch08"}, {"md_atom_id": "md_ch08_a048", "md_file": "knowledge_base/chapters/ch08_relationships.md", "md_atom_type": "TABLE_ROW", "md_parent_section": "§8.1.1 [--GRPID Example]", "md_verbatim": "| 9 | 1234 | CM | 5678 | 3 | COMBO THPY 1 | Verbatim Med I | Generic Med I | 20 | mg | 2004-03-17 | 2004-03-25 |", "score": 0.875, "match_basis": "verbatim_token+chapter_route:ch08"}, {"md_atom_id": "md_ch08_a050", "md_file": "knowledge_base/chapters/ch08_relationships.md", "md_atom_type": "TABLE_ROW", "md_parent_section": "§8.1.1 [--GRPID Example]", "md_verbatim": "| 11 | 1234 | CM | 5678 | 5 | COMBO THPY 2 | Verbatim Med K | Generic Med | 50 | mg | 2004-03-21 | 2004-03-22 |", "score": 0.875, "match_basis": "verbatim_token+chapter_route:ch08"}, {"md_atom_id": "md_ch08_a051", "md_file": "knowledge_base/chapters/ch08_relationships.md", "md_atom_type": "TABLE_ROW", "md_parent_section": "§8.1.1 [--GRPID Example]", "md_verbatim": "| 12 | 1234 | CM | 5678 | 6 | COMBO THPY 2 | Verbatim Med L | Generic Med | 10 | mg | 2004-03-21 | 2004-03-22 |", "score": 0.875, "match_basis": "verbatim_token+chapter_route:ch08"}], "candidate_count": 5, "zero_candidate": false}
{"pdf_atom_id": "ig34_p0428_a020", "pdf_atom_type": "TABLE_ROW", "pdf_source": "SDTMIG_v3.4", "pdf_page": 428, "pdf_parent_section": "§8.1.1 --GRPID Example", "pdf_verbatim": "Row 9 | 1234 | CM | 5678 | 3 | COMBO THPY 1 | Verbatim Med I | Generic Med I | 20 | mg | 2004-03-17 | 2004-03-25", "figure_ref": null, "candidates": [{"md_atom_id": "md_ch08_a046", "md_file": "knowledge_base/chapters/ch08_relationships.md", "md_atom_type": "TABLE_ROW", "md_parent_section": "§8.1.1 [--GRPID Example]", "md_verbatim": "| 7 | 1234 | CM | 5678 | 1 | COMBO THPY 1 | Verbatim Med G | Generic Med | 37.5 | mg | 2004-03-17 | 2004-03-25 |", "score": 0.875, "match_basis": "verbatim_token+chapter_route:ch08"}, {"md_atom_id": "md_ch08_a047", "md_file": "knowledge_base/chapters/ch08_relationships.md", "md_atom_type": "TABLE_ROW", "md_parent_section": "§8.1.1 [--GRPID Example]", "md_verbatim": "| 8 | 1234 | CM | 5678 | 2 | COMBO THPY 1 | Verbatim Med H | Generic Med | 60 | mg | 2004-03-17 | 2004-03-25 |", "score": 0.875, "match_basis": "verbatim_token+chapter_route:ch08"}, {"md_atom_id": "md_ch08_a048", "md_file": "knowledge_base/chapters/ch08_relationships.md", "md_atom_type": "TABLE_ROW", "md_parent_section": "§8.1.1 [--GRPID Example]", "md_verbatim": "| 9 | 1234 | CM | 5678 | 3 | COMBO THPY 1 | Verbatim Med I | Generic Med I | 20 | mg | 2004-03-17 | 2004-03-25 |", "score": 0.875, "match_basis": "verbatim_token+chapter_route:ch08"}, {"md_atom_id": "md_ch08_a050", "md_file": "knowledge_base/chapters/ch08_relationships.md", "md_atom_type": "TABLE_ROW", "md_parent_section": "§8.1.1 [--GRPID Example]", "md_verbatim": "| 11 | 1234 | CM | 5678 | 5 | COMBO THPY 2 | Verbatim Med K | Generic Med | 50 | mg | 2004-03-21 | 2004-03-22 |", "score": 0.875, "match_basis": "verbatim_token+chapter_route:ch08"}, {"md_atom_id": "md_ch08_a051", "md_file": "knowledge_base/chapters/ch08_relationships.md", "md_atom_type": "TABLE_ROW", "md_parent_section": "§8.1.1 [--GRPID Example]", "md_verbatim": "| 12 | 1234 | CM | 5678 | 6 | COMBO THPY 2 | Verbatim Med L | Generic Med | 10 | mg | 2004-03-21 | 2004-03-22 |", "score": 0.875, "match_basis": "verbatim_token+chapter_route:ch08"}], "candidate_count": 5, "zero_candidate": false}
{"pdf_atom_id": "ig34_p0428_a021", "pdf_atom_type": "TABLE_ROW", "pdf_source": "SDTMIG_v3.4", "pdf_page": 428, "pdf_parent_section": "§8.1.1 --GRPID Example", "pdf_verbatim": "Row 10 | 1234 | CM | 5678 | 4 | COMBO THPY 2 | Verbatim Med J | Generic Med J | 100 | mg | 2004-03-21 | 2004-03-22", "figure_ref": null, "candidates": [{"md_atom_id": "md_ch08_a049", "md_file": "knowledge_base/chapters/ch08_relationships.md", "md_atom_type": "TABLE_ROW", "md_parent_section": "§8.1.1 [--GRPID Example]", "md_verbatim": "| 10 | 1234 | CM | 5678 | 4 | COMBO THPY 2 | Verbatim Med J | Generic Med | 100 | mg | 2004-03-21 | 2004-03-22 |", "score": 0.876, "match_basis": "verbatim_token+chapter_route:ch08"}, {"md_atom_id": "md_ch08_a046", "md_file": "knowledge_base/chapters/ch08_relationships.md", "md_atom_type": "TABLE_ROW", "md_parent_section": "§8.1.1 [--GRPID Example]", "md_verbatim": "| 7 | 1234 | CM | 5678 | 1 | COMBO THPY 1 | Verbatim Med G | Generic Med | 37.5 | mg | 2004-03-17 | 2004-03-25 |", "score": 0.852, "match_basis": "verbatim_token+chapter_route:ch08"}, {"md_atom_id": "md_ch08_a047", "md_file": "knowledge_base/chapters/ch08_relationships.md", "md_atom_type": "TABLE_ROW", "md_parent_section": "§8.1.1 [--GRPID Example]", "md_verbatim": "| 8 | 1234 | CM | 5678 | 2 | COMBO THPY 1 | Verbatim Med H | Generic Med | 60 | mg | 2004-03-17 | 2004-03-25 |", "score": 0.852, "match_basis": "verbatim_token+chapter_route:ch08"}, {"md_atom_id": "md_ch08_a048", "md_file": "knowledge_base/chapters/ch08_relationships.md", "md_atom_type": "TABLE_ROW", "md_parent_section": "§8.1.1 [--GRPID Example]", "md_verbatim": "| 9 | 1234 | CM | 5678 | 3 | COMBO THPY 1 | Verbatim Med I | Generic Med I | 20 | mg | 2004-03-17 | 2004-03-25 |", "score": 0.852, "match_basis": "verbatim_token+chapter_route:ch08"}, {"md_atom_id": "md_ch08_a050", "md_file": "knowledge_base/chapters/ch08_relationships.md", "md_atom_type": "TABLE_ROW", "md_parent_section": "§8.1.1 [--GRPID Example]", "md_verbatim": "| 11 | 1234 | CM | 5678 | 5 | COMBO THPY 2 | Verbatim Med K | Generic Med | 50 | mg | 2004-03-21 | 2004-03-22 |", "score": 0.852, "match_basis": "verbatim_token+chapter_route:ch08"}], "candidate_count": 5, "zero_candidate": false}
{"pdf_atom_id": "ig34_p0428_a022", "pdf_atom_type": "TABLE_ROW", "pdf_source": "SDTMIG_v3.4", "pdf_page": 428, "pdf_parent_section": "§8.1.1 --GRPID Example", "pdf_verbatim": "Row 11 | 1234 | CM | 5678 | 5 | COMBO THPY 2 | Verbatim Med K | Generic Med K | 50 | mg | 2004-03-21 | 2004-03-22", "figure_ref": null, "candidates": [{"md_atom_id": "md_ch08_a046", "md_file": "knowledge_base/chapters/ch08_relationships.md", "md_atom_type": "TABLE_ROW", "md_parent_section": "§8.1.1 [--GRPID Example]", "md_verbatim": "| 7 | 1234 | CM | 5678 | 1 | COMBO THPY 1 | Verbatim Med G | Generic Med | 37.5 | mg | 2004-03-17 | 2004-03-25 |", "score": 0.875, "match_basis": "verbatim_token+chapter_route:ch08"}, {"md_atom_id": "md_ch08_a047", "md_file": "knowledge_base/chapters/ch08_relationships.md", "md_atom_type": "TABLE_ROW", "md_parent_section": "§8.1.1 [--GRPID Example]", "md_verbatim": "| 8 | 1234 | CM | 5678 | 2 | COMBO THPY 1 | Verbatim Med H | Generic Med | 60 | mg | 2004-03-17 | 2004-03-25 |", "score": 0.875, "match_basis": "verbatim_token+chapter_route:ch08"}, {"md_atom_id": "md_ch08_a048", "md_file": "knowledge_base/chapters/ch08_relationships.md", "md_atom_type": "TABLE_ROW", "md_parent_section": "§8.1.1 [--GRPID Example]", "md_verbatim": "| 9 | 1234 | CM | 5678 | 3 | COMBO THPY 1 | Verbatim Med I | Generic Med I | 20 | mg | 2004-03-17 | 2004-03-25 |", "score": 0.875, "match_basis": "verbatim_token+chapter_route:ch08"}, {"md_atom_id": "md_ch08_a050", "md_file": "knowledge_base/chapters/ch08_relationships.md", "md_atom_type": "TABLE_ROW", "md_parent_section": "§8.1.1 [--GRPID Example]", "md_verbatim": "| 11 | 1234 | CM | 5678 | 5 | COMBO THPY 2 | Verbatim Med K | Generic Med | 50 | mg | 2004-03-21 | 2004-03-22 |", "score": 0.875, "match_basis": "verbatim_token+chapter_route:ch08"}, {"md_atom_id": "md_ch08_a051", "md_file": "knowledge_base/chapters/ch08_relationships.md", "md_atom_type": "TABLE_ROW", "md_parent_section": "§8.1.1 [--GRPID Example]", "md_verbatim": "| 12 | 1234 | CM | 5678 | 6 | COMBO THPY 2 | Verbatim Med L | Generic Med | 10 | mg | 2004-03-21 | 2004-03-22 |", "score": 0.875, "match_basis": "verbatim_token+chapter_route:ch08"}], "candidate_count": 5, "zero_candidate": false}
{"pdf_atom_id": "ig34_p0428_a023", "pdf_atom_type": "TABLE_ROW", "pdf_source": "SDTMIG_v3.4", "pdf_page": 428, "pdf_parent_section": "§8.1.1 --GRPID Example", "pdf_verbatim": "Row 12 | 1234 | CM | 5678 | 6 | COMBO THPY 2 | Verbatim Med L | Generic Med L | 10 | mg | 2004-03-21 | 2004-03-22", "figure_ref": null, "candidates": [{"md_atom_id": "md_ch08_a046", "md_file": "knowledge_base/chapters/ch08_relationships.md", "md_atom_type": "TABLE_ROW", "md_parent_section": "§8.1.1 [--GRPID Example]", "md_verbatim": "| 7 | 1234 | CM | 5678 | 1 | COMBO THPY 1 | Verbatim Med G | Generic Med | 37.5 | mg | 2004-03-17 | 2004-03-25 |", "score": 0.875, "match_basis": "verbatim_token+chapter_route:ch08"}, {"md_atom_id": "md_ch08_a047", "md_file": "knowledge_base/chapters/ch08_relationships.md", "md_atom_type": "TABLE_ROW", "md_parent_section": "§8.1.1 [--GRPID Example]", "md_verbatim": "| 8 | 1234 | CM | 5678 | 2 | COMBO THPY 1 | Verbatim Med H | Generic Med | 60 | mg | 2004-03-17 | 2004-03-25 |", "score": 0.875, "match_basis": "verbatim_token+chapter_route:ch08"}, {"md_atom_id": "md_ch08_a048", "md_file": "knowledge_base/chapters/ch08_relationships.md", "md_atom_type": "TABLE_ROW", "md_parent_section": "§8.1.1 [--GRPID Example]", "md_verbatim": "| 9 | 1234 | CM | 5678 | 3 | COMBO THPY 1 | Verbatim Med I | Generic Med I | 20 | mg | 2004-03-17 | 2004-03-25 |", "score": 0.875, "match_basis": "verbatim_token+chapter_route:ch08"}, {"md_atom_id": "md_ch08_a050", "md_file": "knowledge_base/chapters/ch08_relationships.md", "md_atom_type": "TABLE_ROW", "md_parent_section": "§8.1.1 [--GRPID Example]", "md_verbatim": "| 11 | 1234 | CM | 5678 | 5 | COMBO THPY 2 | Verbatim Med K | Generic Med | 50 | mg | 2004-03-21 | 2004-03-22 |", "score": 0.875, "match_basis": "verbatim_token+chapter_route:ch08"}, {"md_atom_id": "md_ch08_a051", "md_file": "knowledge_base/chapters/ch08_relationships.md", "md_atom_type": "TABLE_ROW", "md_parent_section": "§8.1.1 [--GRPID Example]", "md_verbatim": "| 12 | 1234 | CM | 5678 | 6 | COMBO THPY 2 | Verbatim Med L | Generic Med | 10 | mg | 2004-03-21 | 2004-03-22 |", "score": 0.875, "match_basis": "verbatim_token+chapter_route:ch08"}], "candidate_count": 5, "zero_candidate": false}
{"pdf_atom_id": "ig34_p0429_a001", "pdf_atom_type": "HEADING", "pdf_source": "SDTMIG_v3.4", "pdf_page": 429, "pdf_parent_section": "§8 [REPRESENTING RELATIONSHIPS AND DATA]", "pdf_verbatim": "8.2 Relating Peer Records", "figure_ref": null, "candidates": [{"md_atom_id": "md_ch08_a052", "md_file": "knowledge_base/chapters/ch08_relationships.md", "md_atom_type": "HEADING", "md_parent_section": "§8 [Representing Relationships and Data]", "md_verbatim": "## 8.2 Relating Peer Records", "score": 0.9, "match_basis": "verbatim_token+chapter_route:ch08"}, {"md_atom_id": "md_ch08_a067", "md_file": "knowledge_base/chapters/ch08_relationships.md", "md_atom_type": "HEADING", "md_parent_section": "§8.2 [Relating Peer Records]", "md_verbatim": "### 8.2.1 Related Records (RELREC)", "score": 0.5824, "match_basis": "verbatim_token+chapter_route:ch08"}, {"md_atom_id": "md_ch08_a022", "md_file": "knowledge_base/chapters/ch08_relationships.md", "md_atom_type": "HEADING", "md_parent_section": "§8 [Representing Relationships and Data]", "md_verbatim": "## 8.1 Relating Groups of Records Within a Domain Using --GRPID", "score": 0.52, "match_basis": "verbatim_token+chapter_route:ch08"}, {"md_atom_id": "md_ch08_a109", "md_file": "knowledge_base/chapters/ch08_relationships.md", "md_atom_type": "HEADING", "md_parent_section": "§8 [Representing Relationships and Data]", "md_verbatim": "## 8.3 Relating Datasets Using RELREC", "score": 0.4826, "match_basis": "verbatim_token+chapter_route:ch08"}, {"md_atom_id": "md_ch08_a205", "md_file": "knowledge_base/chapters/ch08_relationships.md", "md_atom_type": "HEADING", "md_parent_section": "§8 [Representing Relationships and Data]", "md_verbatim": "## 8.5 Relating Comments to a Parent Domain", "score": 0.4385, "match_basis": "verbatim_token+chapter_route:ch08"}], "candidate_count": 5, "zero_candidate": false}
{"pdf_atom_id": "ig34_p0429_a002", "pdf_atom_type": "SENTENCE", "pdf_source": "SDTMIG_v3.4", "pdf_page": 429, "pdf_parent_section": "§8.2 [RELATING PEER RECORDS]", "pdf_verbatim": "The Related Records (RELREC) special-purpose dataset is used to describe relationships between records for a subject (as described in this section), and relationships between datasets (as described in Section 8.3, Relating Datasets).", "figure_ref": null, "candidates": [{"md_atom_id": "md_ch08_a053", "md_file": "knowledge_base/chapters/ch08_relationships.md", "md_atom_type": "SENTENCE", "md_parent_section": "§8.2 [Relating Peer Records]", "md_verbatim": "The Related Records (RELREC) special-purpose dataset is used to describe relationships between records for a subject (as described in this section), and relationships between datasets (as described in Section 8.3, Relating Datasets).", "score": 0.9, "match_basis": "verbatim_token+chapter_route:ch08"}, {"md_atom_id": "md_ch08_a069", "md_file": "knowledge_base/chapters/ch08_relationships.md", "md_atom_type": "SENTENCE", "md_parent_section": "§8.2.1 [Related Records (RELREC)]", "md_verbatim": "A dataset used to describe relationships between records for a subject within or across domains, and relationships of records across datasets.", "score": 0.6395, "match_basis": "verbatim_token+chapter_route:ch08"}, {"md_atom_id": "md_ch08_a110", "md_file": "knowledge_base/chapters/ch08_relationships.md", "md_atom_type": "SENTENCE", "md_parent_section": "§8.3 [Relating Datasets Using RELREC]", "md_verbatim": "The Related Records (RELREC) special-purpose dataset can also be used to identify relationships between datasets (e.g., a one-to-many or parent-child relationship).", "score": 0.622, "match_basis": "verbatim_token+chapter_route:ch08"}, {"md_atom_id": "md_ch08_a317", "md_file": "knowledge_base/chapters/ch08_relationships.md", "md_atom_type": "SENTENCE", "md_parent_section": "§8.8 [Related Specimens (RELSPEC)]", "md_verbatim": "A dataset used to represent relationships between specimens.", "score": 0.508, "match_basis": "verbatim_token+chapter_route:ch08"}, {"md_atom_id": "md_ch08_a115", "md_file": "knowledge_base/chapters/ch08_relationships.md", "md_atom_type": "SENTENCE", "md_parent_section": "§8.3.1 [RELREC Dataset Relationship Example]", "md_verbatim": "**Example 1:** This example illustrates RELREC records used to represent the relationship between records in 2 datasets that have a one-to-many relationship. Note that because this is a dataset-to-dataset relationship, USUBJID and IDVARVAL are null.", "score": 0.5037, "match_basis": "verbatim_token+chapter_route:ch08"}], "candidate_count": 5, "zero_candidate": false}
{"pdf_atom_id": "ig34_p0429_a003", "pdf_atom_type": "SENTENCE", "pdf_source": "SDTMIG_v3.4", "pdf_page": 429, "pdf_parent_section": "§8.2 [RELATING PEER RECORDS]", "pdf_verbatim": "In both cases, relationships represented in RELREC are collected relationships, either by explicit references or checkboxes on the CRF, or by design of the CRF (e.g., vital signs captured during an exercise stress test).", "figure_ref": null, "candidates": [{"md_atom_id": "md_ch08_a054", "md_file": "knowledge_base/chapters/ch08_relationships.md", "md_atom_type": "SENTENCE", "md_parent_section": "§8.2 [Relating Peer Records]", "md_verbatim": "In both cases, relationships represented in RELREC are collected relationships, either by explicit references or checkboxes on the CRF, or by design of the CRF (e.g., vital signs captured during an exercise stress test).", "score": 0.9, "match_basis": "verbatim_token+chapter_route:ch08"}, {"md_atom_id": "md_ch08_a216", "md_file": "knowledge_base/chapters/ch08_relationships.md", "md_atom_type": "SENTENCE", "md_parent_section": "§8.5 [Relating Comments to a Parent Domain]", "md_verbatim": "For additional information collected further describing the comment relationship to a parent record(s) that cannot be represented using the relationship variables RDOMAIN, IDVAR and IDVARVAL:", "score": 0.4315, "match_basis": "verbatim_token+chapter_route:ch08"}, {"md_atom_id": "md_ch08_a082", "md_file": "knowledge_base/chapters/ch08_relationships.md", "md_atom_type": "SENTENCE", "md_parent_section": "§8.2.2 [RELREC Dataset Examples]", "md_verbatim": "**Example 1:** This example illustrates the use of the RELREC dataset to relate records stored in separate domains for USUBJID = \"123456\". This example represents a situation in which a single adverse event is part of 2 collected relationships, one with 2 concomitant medications and the other with 2 laboratory findings, but there is no collected relationship between the 2 laboratory findings and the 2 concomitant medications.", "score": 0.4245, "match_basis": "verbatim_token+chapter_route:ch08"}, {"md_atom_id": "md_ch08_a063", "md_file": "knowledge_base/chapters/ch08_relationships.md", "md_atom_type": "SENTENCE", "md_parent_section": "§8.2 [Relating Peer Records]", "md_verbatim": "Using --GRPID can be a more efficient method of representing relationships in RELREC, such as when relating an adverse event (or events) to a group of concomitant medications taken to treat the adverse event(s).", "score": 0.4091, "match_basis": "verbatim_token+chapter_route:ch08"}, {"md_atom_id": "md_ch08_a180", "md_file": "knowledge_base/chapters/ch08_relationships.md", "md_atom_type": "SENTENCE", "md_parent_section": "§8.4.2 [Submitting Supplemental Qualifiers in Separate Datasets]", "md_verbatim": "In cases where data about associated persons have been collected, supplemental qualifiers for Findings About events or interventions for an associated person may need to be represented (see the SDTMIG for Associated Persons).", "score": 0.4047, "match_basis": "verbatim_token+chapter_route:ch08"}], "candidate_count": 5, "zero_candidate": false}
{"pdf_atom_id": "ig34_p0429_a004", "pdf_atom_type": "SENTENCE", "pdf_source": "SDTMIG_v3.4", "pdf_page": 429, "pdf_parent_section": "§8.2 [RELATING PEER RECORDS]", "pdf_verbatim": "A relationship is defined by adding a record to RELREC for each record to be related and by assigning a unique character identifier value for the relationship.", "figure_ref": null, "candidates": [{"md_atom_id": "md_ch08_a055", "md_file": "knowledge_base/chapters/ch08_relationships.md", "md_atom_type": "SENTENCE", "md_parent_section": "§8.2 [Relating Peer Records]", "md_verbatim": "A relationship is defined by adding a record to RELREC for each record to be related and by assigning a unique character identifier value for the relationship.", "score": 0.9, "match_basis": "verbatim_token+chapter_route:ch08"}, {"md_atom_id": "md_ch08_a025", "md_file": "knowledge_base/chapters/ch08_relationships.md", "md_atom_type": "SENTENCE", "md_parent_section": "§8.1 [Relating Groups of Records Within a Domain Using --GRPID]", "md_verbatim": "In such cases, the relationship is defined by assigning the same unique character value to the --GRPID variable.", "score": 0.5921, "match_basis": "verbatim_token+chapter_route:ch08"}, {"md_atom_id": "md_ch08_a111", "md_file": "knowledge_base/chapters/ch08_relationships.md", "md_atom_type": "SENTENCE", "md_parent_section": "§8.3 [Relating Datasets Using RELREC]", "md_verbatim": "The relationship is defined by including a single record for each related dataset that identifies the key(s) of the dataset that can be used to relate the respective records.", "score": 0.5292, "match_basis": "verbatim_token+chapter_route:ch08"}, {"md_atom_id": "md_ch08_a319", "md_file": "knowledge_base/chapters/ch08_relationships.md", "md_atom_type": "SENTENCE", "md_parent_section": "§8.8 [Related Specimens (RELSPEC)]", "md_verbatim": "relspec.xpt, Related Specimens — Relationship. One record per specimen identifier per subject, Tabulation.", "score": 0.4778, "match_basis": "verbatim_token+chapter_route:ch08"}, {"md_atom_id": "md_ch08_a060", "md_file": "knowledge_base/chapters/ch08_relationships.md", "md_atom_type": "SENTENCE", "md_parent_section": "§8.2 [Relating Peer Records]", "md_verbatim": "Single records can be related by using a unique-record-identifier variable such as --SEQ in IDVAR.", "score": 0.4714, "match_basis": "verbatim_token+chapter_route:ch08"}], "candidate_count": 5, "zero_candidate": false}
{"pdf_atom_id": "ig34_p0429_a005", "pdf_atom_type": "SENTENCE", "pdf_source": "SDTMIG_v3.4", "pdf_page": 429, "pdf_parent_section": "§8.2 [RELATING PEER RECORDS]", "pdf_verbatim": "Each record in the RELREC special-purpose dataset contains keys that identify a record (or group of records) and the relationship identifier, which is stored in the RELID variable.", "figure_ref": null, "candidates": [{"md_atom_id": "md_ch08_a056", "md_file": "knowledge_base/chapters/ch08_relationships.md", "md_atom_type": "SENTENCE", "md_parent_section": "§8.2 [Relating Peer Records]", "md_verbatim": "Each record in the RELREC special-purpose dataset contains keys that identify a record (or group of records) and the relationship identifier, which is stored in the RELID variable.", "score": 0.9, "match_basis": "verbatim_token+chapter_route:ch08"}, {"md_atom_id": "md_ch08_a110", "md_file": "knowledge_base/chapters/ch08_relationships.md", "md_atom_type": "SENTENCE", "md_parent_section": "§8.3 [Relating Datasets Using RELREC]", "md_verbatim": "The Related Records (RELREC) special-purpose dataset can also be used to identify relationships between datasets (e.g., a one-to-many or parent-child relationship).", "score": 0.5437, "match_basis": "verbatim_token+chapter_route:ch08"}, {"md_atom_id": "md_ch08_a113", "md_file": "knowledge_base/chapters/ch08_relationships.md", "md_atom_type": "SENTENCE", "md_parent_section": "§8.3 [Relating Datasets Using RELREC]", "md_verbatim": "Note that it is not necessary to use the RELREC dataset to identify associations from data in the SUPP-- datasets or the Comments (CO) dataset to their parent general-observation class dataset records or special-purpose domain records, as both these datasets include the key variable identifiers of the parent record(s) that are necessary to make the association.", "score": 0.5153, "match_basis": "verbatim_token+chapter_route:ch08"}, {"md_atom_id": "md_ch08_a111", "md_file": "knowledge_base/chapters/ch08_relationships.md", "md_atom_type": "SENTENCE", "md_parent_section": "§8.3 [Relating Datasets Using RELREC]", "md_verbatim": "The relationship is defined by including a single record for each related dataset that identifies the key(s) of the dataset that can be used to relate the respective records.", "score": 0.5079, "match_basis": "verbatim_token+chapter_route:ch08"}, {"md_atom_id": "md_ch08_a125", "md_file": "knowledge_base/chapters/ch08_relationships.md", "md_atom_type": "SENTENCE", "md_parent_section": "§8.3.1 [RELREC Dataset Relationship Example]", "md_verbatim": "The variable RELTYPE identifies the type of relationship between the datasets.", "score": 0.5071, "match_basis": "verbatim_token+chapter_route:ch08"}], "candidate_count": 5, "zero_candidate": false}
{"pdf_atom_id": "ig34_p0429_a006", "pdf_atom_type": "SENTENCE", "pdf_source": "SDTMIG_v3.4", "pdf_page": 429, "pdf_parent_section": "§8.2 [RELATING PEER RECORDS]", "pdf_verbatim": "The value of RELID is chosen by the sponsor, but must be identical for all related records within USUBJID.", "figure_ref": null, "candidates": [{"md_atom_id": "md_ch08_a057", "md_file": "knowledge_base/chapters/ch08_relationships.md", "md_atom_type": "SENTENCE", "md_parent_section": "§8.2 [Relating Peer Records]", "md_verbatim": "The value of RELID is chosen by the sponsor, but must be identical for all related records within USUBJID.", "score": 0.9, "match_basis": "verbatim_token+chapter_route:ch08"}, {"md_atom_id": "md_ch08_a211", "md_file": "knowledge_base/chapters/ch08_relationships.md", "md_atom_type": "SENTENCE", "md_parent_section": "§8.5 [Relating Comments to a Parent Domain]", "md_verbatim": "STUDYID, USUBJID, and DOMAIN (with the value CO) must always be populated.", "score": 0.45, "match_basis": "verbatim_token+chapter_route:ch08"}, {"md_atom_id": "md_ch08_a151", "md_file": "knowledge_base/chapters/ch08_relationships.md", "md_atom_type": "SENTENCE", "md_parent_section": "§8.4 [Relating Non-standard Variable Values to a Parent Domain]", "md_verbatim": "That is, there should not be multiple records in a SUPP-- dataset for the same QNAM value, as it relates to IDVAR/IDVARVAL for a USUBJID in a domain.", "score": 0.439, "match_basis": "verbatim_token+chapter_route:ch08"}, {"md_atom_id": "md_ch08_a024", "md_file": "knowledge_base/chapters/ch08_relationships.md", "md_atom_type": "SENTENCE", "md_parent_section": "§8.1 [Relating Groups of Records Within a Domain Using --GRPID]", "md_verbatim": "It is used to identify relationships between records within a USUBJID within a single domain (e.g., intervention records for a combination therapy where treatments in the combination varies from subject to subject).", "score": 0.4385, "match_basis": "verbatim_token+chapter_route:ch08"}, {"md_atom_id": "md_ch08_a055", "md_file": "knowledge_base/chapters/ch08_relationships.md", "md_atom_type": "SENTENCE", "md_parent_section": "§8.2 [Relating Peer Records]", "md_verbatim": "A relationship is defined by adding a record to RELREC for each record to be related and by assigning a unique character identifier value for the relationship.", "score": 0.431, "match_basis": "verbatim_token+chapter_route:ch08"}], "candidate_count": 5, "zero_candidate": false}
{"pdf_atom_id": "ig34_p0429_a007", "pdf_atom_type": "SENTENCE", "pdf_source": "SDTMIG_v3.4", "pdf_page": 429, "pdf_parent_section": "§8.2 [RELATING PEER RECORDS]", "pdf_verbatim": "It is recommended that the sponsor use a standard system or naming convention for RELID (e.g., all letters, all numbers, capitalized).", "figure_ref": null, "candidates": [{"md_atom_id": "md_ch08_a058", "md_file": "knowledge_base/chapters/ch08_relationships.md", "md_atom_type": "SENTENCE", "md_parent_section": "§8.2 [Relating Peer Records]", "md_verbatim": "It is recommended that the sponsor use a standard system or naming convention for RELID (e.g., all letters, all numbers, capitalized).", "score": 0.9, "match_basis": "verbatim_token+chapter_route:ch08"}, {"md_atom_id": "md_ch08_a015", "md_file": "knowledge_base/chapters/ch08_relationships.md", "md_atom_type": "SENTENCE", "md_parent_section": "§8 [Representing Relationships and Data]", "md_verbatim": "All relationships make use of the standard domain identifiers STUDYID, DOMAIN, and USUBJID.", "score": 0.4043, "match_basis": "verbatim_token+chapter_route:ch08"}, {"md_atom_id": "md_ch08_a221", "md_file": "knowledge_base/chapters/ch08_relationships.md", "md_atom_type": "SENTENCE", "md_parent_section": "§8.5 [Relating Comments to a Parent Domain]", "md_verbatim": "If a single comment relates to records in multiple domains, the comment may need to be repeated in the CO special-purpose domain to facilitate the understanding of the relationships.", "score": 0.3966, "match_basis": "verbatim_token+chapter_route:ch08"}, {"md_atom_id": "md_ch08_a057", "md_file": "knowledge_base/chapters/ch08_relationships.md", "md_atom_type": "SENTENCE", "md_parent_section": "§8.2 [Relating Peer Records]", "md_verbatim": "The value of RELID is chosen by the sponsor, but must be identical for all related records within USUBJID.", "score": 0.3957, "match_basis": "verbatim_token+chapter_route:ch08"}, {"md_atom_id": "md_ch08_a220", "md_file": "knowledge_base/chapters/ch08_relationships.md", "md_atom_type": "SENTENCE", "md_parent_section": "§8.5 [Relating Comments to a Parent Domain]", "md_verbatim": "The limitation of this is that a single comment may only be related to a group of records in 1 domain (RDOMAIN can have only 1 value).", "score": 0.3928, "match_basis": "verbatim_token+chapter_route:ch08"}], "candidate_count": 5, "zero_candidate": false}
{"pdf_atom_id": "ig34_p0429_a008", "pdf_atom_type": "SENTENCE", "pdf_source": "SDTMIG_v3.4", "pdf_page": 429, "pdf_parent_section": "§8.2 [RELATING PEER RECORDS]", "pdf_verbatim": "Records expressing a relationship are specified using the key variables STUDYID, RDOMAIN (the domain code of the record in the relationship), and USUBJID, along with IDVAR and IDVARVAL.", "figure_ref": null, "candidates": [{"md_atom_id": "md_ch08_a059", "md_file": "knowledge_base/chapters/ch08_relationships.md", "md_atom_type": "SENTENCE", "md_parent_section": "§8.2 [Relating Peer Records]", "md_verbatim": "Records expressing a relationship are specified using the key variables STUDYID, RDOMAIN (the domain code of the record in the relationship), and USUBJID, along with IDVAR and IDVARVAL.", "score": 0.9, "match_basis": "verbatim_token+chapter_route:ch08"}, {"md_atom_id": "md_ch08_a216", "md_file": "knowledge_base/chapters/ch08_relationships.md", "md_atom_type": "SENTENCE", "md_parent_section": "§8.5 [Relating Comments to a Parent Domain]", "md_verbatim": "For additional information collected further describing the comment relationship to a parent record(s) that cannot be represented using the relationship variables RDOMAIN, IDVAR and IDVARVAL:", "score": 0.5, "match_basis": "verbatim_token+chapter_route:ch08"}, {"md_atom_id": "md_ch08_a015", "md_file": "knowledge_base/chapters/ch08_relationships.md", "md_atom_type": "SENTENCE", "md_parent_section": "§8 [Representing Relationships and Data]", "md_verbatim": "All relationships make use of the standard domain identifiers STUDYID, DOMAIN, and USUBJID.", "score": 0.4953, "match_basis": "verbatim_token+chapter_route:ch08"}, {"md_atom_id": "md_ch08_a219", "md_file": "knowledge_base/chapters/ch08_relationships.md", "md_atom_type": "SENTENCE", "md_parent_section": "§8.5 [Relating Comments to a Parent Domain]", "md_verbatim": "As with Supplemental Qualifiers (SUPP--) and Related Records (RELREC), --GRPID and other grouping variables can be used as the value in IDVAR to identify comments with relationships to multiple domain records.", "score": 0.4815, "match_basis": "verbatim_token+chapter_route:ch08"}, {"md_atom_id": "md_ch08_a209", "md_file": "knowledge_base/chapters/ch08_relationships.md", "md_atom_type": "SENTENCE", "md_parent_section": "§8.5 [Relating Comments to a Parent Domain]", "md_verbatim": "The CO special-purpose domain is structured similarly to the Supplemental Qualifiers (SUPP--) dataset, in that it uses the same set of keys (STUDYID, RDOMAIN, USUBJID, IDVAR, and IDVARVAL) to identify related records.", "score": 0.4762, "match_basis": "verbatim_token+chapter_route:ch08"}], "candidate_count": 5, "zero_candidate": false}
{"pdf_atom_id": "ig34_p0429_a009", "pdf_atom_type": "SENTENCE", "pdf_source": "SDTMIG_v3.4", "pdf_page": 429, "pdf_parent_section": "§8.2 [RELATING PEER RECORDS]", "pdf_verbatim": "Single records can be related by using a unique-record-identifier variable such as --SEQ in IDVAR.", "figure_ref": null, "candidates": [{"md_atom_id": "md_ch08_a060", "md_file": "knowledge_base/chapters/ch08_relationships.md", "md_atom_type": "SENTENCE", "md_parent_section": "§8.2 [Relating Peer Records]", "md_verbatim": "Single records can be related by using a unique-record-identifier variable such as --SEQ in IDVAR.", "score": 0.9, "match_basis": "verbatim_token+chapter_route:ch08"}, {"md_atom_id": "md_ch08_a061", "md_file": "knowledge_base/chapters/ch08_relationships.md", "md_atom_type": "SENTENCE", "md_parent_section": "§8.2 [Relating Peer Records]", "md_verbatim": "Groups of records can be related by using grouping variables such as --GRPID in IDVAR.", "score": 0.5939, "match_basis": "verbatim_token+chapter_route:ch08"}, {"md_atom_id": "md_ch08_a219", "md_file": "knowledge_base/chapters/ch08_relationships.md", "md_atom_type": "SENTENCE", "md_parent_section": "§8.5 [Relating Comments to a Parent Domain]", "md_verbatim": "As with Supplemental Qualifiers (SUPP--) and Related Records (RELREC), --GRPID and other grouping variables can be used as the value in IDVAR to identify comments with relationships to multiple domain records.", "score": 0.4732, "match_basis": "verbatim_token+chapter_route:ch08"}, {"md_atom_id": "md_ch08_a055", "md_file": "knowledge_base/chapters/ch08_relationships.md", "md_atom_type": "SENTENCE", "md_parent_section": "§8.2 [Relating Peer Records]", "md_verbatim": "A relationship is defined by adding a record to RELREC for each record to be related and by assigning a unique character identifier value for the relationship.", "score": 0.4714, "match_basis": "verbatim_token+chapter_route:ch08"}, {"md_atom_id": "md_ch08_a111", "md_file": "knowledge_base/chapters/ch08_relationships.md", "md_atom_type": "SENTENCE", "md_parent_section": "§8.3 [Relating Datasets Using RELREC]", "md_verbatim": "The relationship is defined by including a single record for each related dataset that identifies the key(s) of the dataset that can be used to relate the respective records.", "score": 0.465, "match_basis": "verbatim_token+chapter_route:ch08"}], "candidate_count": 5, "zero_candidate": false}
{"pdf_atom_id": "ig34_p0429_a010", "pdf_atom_type": "SENTENCE", "pdf_source": "SDTMIG_v3.4", "pdf_page": 429, "pdf_parent_section": "§8.2 [RELATING PEER RECORDS]", "pdf_verbatim": "Groups of records can be related by using grouping variables such as --GRPID in IDVAR.", "figure_ref": null, "candidates": [{"md_atom_id": "md_ch08_a061", "md_file": "knowledge_base/chapters/ch08_relationships.md", "md_atom_type": "SENTENCE", "md_parent_section": "§8.2 [Relating Peer Records]", "md_verbatim": "Groups of records can be related by using grouping variables such as --GRPID in IDVAR.", "score": 0.9, "match_basis": "verbatim_token+chapter_route:ch08"}, {"md_atom_id": "md_ch08_a060", "md_file": "knowledge_base/chapters/ch08_relationships.md", "md_atom_type": "SENTENCE", "md_parent_section": "§8.2 [Relating Peer Records]", "md_verbatim": "Single records can be related by using a unique-record-identifier variable such as --SEQ in IDVAR.", "score": 0.5939, "match_basis": "verbatim_token+chapter_route:ch08"}, {"md_atom_id": "md_ch08_a219", "md_file": "knowledge_base/chapters/ch08_relationships.md", "md_atom_type": "SENTENCE", "md_parent_section": "§8.5 [Relating Comments to a Parent Domain]", "md_verbatim": "As with Supplemental Qualifiers (SUPP--) and Related Records (RELREC), --GRPID and other grouping variables can be used as the value in IDVAR to identify comments with relationships to multiple domain records.", "score": 0.4912, "match_basis": "verbatim_token+chapter_route:ch08"}, {"md_atom_id": "md_ch08_a059", "md_file": "knowledge_base/chapters/ch08_relationships.md", "md_atom_type": "SENTENCE", "md_parent_section": "§8.2 [Relating Peer Records]", "md_verbatim": "Records expressing a relationship are specified using the key variables STUDYID, RDOMAIN (the domain code of the record in the relationship), and USUBJID, along with IDVAR and IDVARVAL.", "score": 0.4446, "match_basis": "verbatim_token+chapter_route:ch08"}, {"md_atom_id": "md_ch08_a220", "md_file": "knowledge_base/chapters/ch08_relationships.md", "md_atom_type": "SENTENCE", "md_parent_section": "§8.5 [Relating Comments to a Parent Domain]", "md_verbatim": "The limitation of this is that a single comment may only be related to a group of records in 1 domain (RDOMAIN can have only 1 value).", "score": 0.4433, "match_basis": "verbatim_token+chapter_route:ch08"}], "candidate_count": 5, "zero_candidate": false}
{"pdf_atom_id": "ig34_p0429_a011", "pdf_atom_type": "SENTENCE", "pdf_source": "SDTMIG_v3.4", "pdf_page": 429, "pdf_parent_section": "§8.2 [RELATING PEER RECORDS]", "pdf_verbatim": "IDVARVAL would contain the value of the variable described in IDVAR.", "figure_ref": null, "candidates": [{"md_atom_id": "md_ch08_a062", "md_file": "knowledge_base/chapters/ch08_relationships.md", "md_atom_type": "SENTENCE", "md_parent_section": "§8.2 [Relating Peer Records]", "md_verbatim": "IDVARVAL would contain the value of the variable described in IDVAR.", "score": 0.9, "match_basis": "verbatim_token+chapter_route:ch08"}, {"md_atom_id": "md_ch08_a018", "md_file": "knowledge_base/chapters/ch08_relationships.md", "md_atom_type": "SENTENCE", "md_parent_section": "§8 [Representing Relationships and Data]", "md_verbatim": "The following are examples of variables that could be used in IDVAR:", "score": 0.4375, "match_basis": "verbatim_token+chapter_route:ch08"}, {"md_atom_id": "md_ch08_a123", "md_file": "knowledge_base/chapters/ch08_relationships.md", "md_atom_type": "SENTENCE", "md_parent_section": "§8.3.1 [RELREC Dataset Relationship Example]", "md_verbatim": "The values for the --LNKID variable in the 2 datasets are sponsor-defined.", "score": 0.4176, "match_basis": "verbatim_token+chapter_route:ch08"}, {"md_atom_id": "md_ch08_a016", "md_file": "knowledge_base/chapters/ch08_relationships.md", "md_atom_type": "SENTENCE", "md_parent_section": "§8 [Representing Relationships and Data]", "md_verbatim": "In addition, the variables IDVAR and IDVARVAL are used for identifying the record-level merge/join keys.", "score": 0.4125, "match_basis": "verbatim_token+chapter_route:ch08"}, {"md_atom_id": "md_ch08_a212", "md_file": "knowledge_base/chapters/ch08_relationships.md", "md_atom_type": "SENTENCE", "md_parent_section": "§8.5 [Relating Comments to a Parent Domain]", "md_verbatim": "RDOMAIN, IDVAR, and IDVARVAL should be populated as follows:", "score": 0.4125, "match_basis": "verbatim_token+chapter_route:ch08"}], "candidate_count": 5, "zero_candidate": false}
{"pdf_atom_id": "ig34_p0429_a012", "pdf_atom_type": "SENTENCE", "pdf_source": "SDTMIG_v3.4", "pdf_page": 429, "pdf_parent_section": "§8.2 [RELATING PEER RECORDS]", "pdf_verbatim": "Using --GRPID can be a more efficient method of representing relationships in RELREC, such as when relating an adverse event (or events) to a group of concomitant medications taken to treat the adverse event(s).", "figure_ref": null, "candidates": [{"md_atom_id": "md_ch08_a063", "md_file": "knowledge_base/chapters/ch08_relationships.md", "md_atom_type": "SENTENCE", "md_parent_section": "§8.2 [Relating Peer Records]", "md_verbatim": "Using --GRPID can be a more efficient method of representing relationships in RELREC, such as when relating an adverse event (or events) to a group of concomitant medications taken to treat the adverse event(s).", "score": 0.9, "match_basis": "verbatim_token+chapter_route:ch08"}, {"md_atom_id": "md_ch08_a083", "md_file": "knowledge_base/chapters/ch08_relationships.md", "md_atom_type": "SENTENCE", "md_parent_section": "§8.2.2 [RELREC Dataset Examples]", "md_verbatim": "**Rows 1-3:** Show the representation of a relationship between an AE record and 2 concomitant medication records.", "score": 0.5106, "match_basis": "verbatim_token+chapter_route:ch08"}, {"md_atom_id": "md_ch08_a101", "md_file": "knowledge_base/chapters/ch08_relationships.md", "md_atom_type": "SENTENCE", "md_parent_section": "§8.2.2 [RELREC Dataset Examples]", "md_verbatim": "**Example 3:** Same scenario as Example 2, but the sponsor grouped the 2 concomitant medications in the CM domain using CMGRPID = \"COMBO 1\", allowing the relationship among these 5 records to be represented with 4, rather than 5, records in the RELREC dataset.", "score": 0.4985, "match_basis": "verbatim_token+chapter_route:ch08"}, {"md_atom_id": "md_ch08_a065", "md_file": "knowledge_base/chapters/ch08_relationships.md", "md_atom_type": "LIST_ITEM", "md_parent_section": "§8.2 [Relating Peer Records]", "md_verbatim": "- explicit relationships, such as concomitant medications taken as a result of an adverse event; or", "score": 0.4891, "match_basis": "verbatim_token+chapter_route:ch08"}, {"md_atom_id": "md_ch08_a082", "md_file": "knowledge_base/chapters/ch08_relationships.md", "md_atom_type": "SENTENCE", "md_parent_section": "§8.2.2 [RELREC Dataset Examples]", "md_verbatim": "**Example 1:** This example illustrates the use of the RELREC dataset to relate records stored in separate domains for USUBJID = \"123456\". This example represents a situation in which a single adverse event is part of 2 collected relationships, one with 2 concomitant medications and the other with 2 laboratory findings, but there is no collected relationship between the 2 laboratory findings and the 2 concomitant medications.", "score": 0.4689, "match_basis": "verbatim_token+chapter_route:ch08"}], "candidate_count": 5, "zero_candidate": false}
{"pdf_atom_id": "ig34_p0429_a013", "pdf_atom_type": "SENTENCE", "pdf_source": "SDTMIG_v3.4", "pdf_page": 429, "pdf_parent_section": "§8.2 [RELATING PEER RECORDS]", "pdf_verbatim": "The RELREC dataset should be used to represent either:", "figure_ref": null, "candidates": [{"md_atom_id": "md_ch08_a064", "md_file": "knowledge_base/chapters/ch08_relationships.md", "md_atom_type": "SENTENCE", "md_parent_section": "§8.2 [Relating Peer Records]", "md_verbatim": "The RELREC dataset should be used to represent either:", "score": 0.9, "match_basis": "verbatim_token+chapter_route:ch08"}, {"md_atom_id": "md_ch08_a317", "md_file": "knowledge_base/chapters/ch08_relationships.md", "md_atom_type": "SENTENCE", "md_parent_section": "§8.8 [Related Specimens (RELSPEC)]", "md_verbatim": "A dataset used to represent relationships between specimens.", "score": 0.4875, "match_basis": "verbatim_token+chapter_route:ch08"}, {"md_atom_id": "md_ch08_a140", "md_file": "knowledge_base/chapters/ch08_relationships.md", "md_atom_type": "SENTENCE", "md_parent_section": "§8.4 [Relating Non-standard Variable Values to a Parent Domain]", "md_verbatim": "Data that represent separate observations should be treated as separate observations.", "score": 0.4625, "match_basis": "verbatim_token+chapter_route:ch08"}, {"md_atom_id": "md_ch08_a336", "md_file": "knowledge_base/chapters/ch08_relationships.md", "md_atom_type": "SENTENCE", "md_parent_section": "§8.8 [Related Specimens (RELSPEC)]", "md_verbatim": "All other values represent a derived sample.", "score": 0.4317, "match_basis": "verbatim_token+chapter_route:ch08"}, {"md_atom_id": "md_ch08_a181", "md_file": "knowledge_base/chapters/ch08_relationships.md", "md_atom_type": "SENTENCE", "md_parent_section": "§8.4.2 [Submitting Supplemental Qualifiers in Separate Datasets]", "md_verbatim": "A dataset name with the SUPP fragment (e.g., SUPPAPFAMH) would be too long.", "score": 0.4304, "match_basis": "verbatim_token+chapter_route:ch08"}], "candidate_count": 5, "zero_candidate": false}
{"pdf_atom_id": "ig34_p0429_a014", "pdf_atom_type": "LIST_ITEM", "pdf_source": "SDTMIG_v3.4", "pdf_page": 429, "pdf_parent_section": "§8.2 [RELATING PEER RECORDS]", "pdf_verbatim": "explicit relationships, such as concomitant medications taken as a result of an adverse event; or", "figure_ref": null, "candidates": [{"md_atom_id": "md_ch08_a065", "md_file": "knowledge_base/chapters/ch08_relationships.md", "md_atom_type": "LIST_ITEM", "md_parent_section": "§8.2 [Relating Peer Records]", "md_verbatim": "- explicit relationships, such as concomitant medications taken as a result of an adverse event; or", "score": 0.9, "match_basis": "verbatim_token+chapter_route:ch08"}, {"md_atom_id": "md_ch08_a008", "md_file": "knowledge_base/chapters/ch08_relationships.md", "md_atom_type": "LIST_ITEM", "md_parent_section": "§8 [Representing Relationships and Data]", "md_verbatim": "- **Section 8.2**, Relating Peer Records — representing relationships between independent records (usually in separate domains) for a subject, such as a concomitant medication taken to treat an adverse event", "score": 0.5294, "match_basis": "verbatim_token+chapter_route:ch08"}, {"md_atom_id": "md_ch08_a063", "md_file": "knowledge_base/chapters/ch08_relationships.md", "md_atom_type": "SENTENCE", "md_parent_section": "§8.2 [Relating Peer Records]", "md_verbatim": "Using --GRPID can be a more efficient method of representing relationships in RELREC, such as when relating an adverse event (or events) to a group of concomitant medications taken to treat the adverse event(s).", "score": 0.4891, "match_basis": "verbatim_token+chapter_route:ch08"}, {"md_atom_id": "md_ch08_a083", "md_file": "knowledge_base/chapters/ch08_relationships.md", "md_atom_type": "SENTENCE", "md_parent_section": "§8.2.2 [RELREC Dataset Examples]", "md_verbatim": "**Rows 1-3:** Show the representation of a relationship between an AE record and 2 concomitant medication records.", "score": 0.4297, "match_basis": "verbatim_token+chapter_route:ch08"}, {"md_atom_id": "md_ch08_a014", "md_file": "knowledge_base/chapters/ch08_relationships.md", "md_atom_type": "LIST_ITEM", "md_parent_section": "§8 [Representing Relationships and Data]", "md_verbatim": "- **Section 8.8**, Related Specimens — a dataset used to represent relationships between specimens", "score": 0.4013, "match_basis": "verbatim_token+chapter_route:ch08"}], "candidate_count": 5, "zero_candidate": false}
{"pdf_atom_id": "ig34_p0429_a015", "pdf_atom_type": "LIST_ITEM", "pdf_source": "SDTMIG_v3.4", "pdf_page": 429, "pdf_parent_section": "§8.2 [RELATING PEER RECORDS]", "pdf_verbatim": "information of a nature that necessitates using multiple datasets, as described in Section 8.3, Relating Datasets.", "figure_ref": null, "candidates": [{"md_atom_id": "md_ch08_a066", "md_file": "knowledge_base/chapters/ch08_relationships.md", "md_atom_type": "LIST_ITEM", "md_parent_section": "§8.2 [Relating Peer Records]", "md_verbatim": "- information of a nature that necessitates using multiple datasets, as described in Section 8.3, Relating Datasets.", "score": 0.9, "match_basis": "verbatim_token+chapter_route:ch08"}, {"md_atom_id": "md_ch08_a009", "md_file": "knowledge_base/chapters/ch08_relationships.md", "md_atom_type": "LIST_ITEM", "md_parent_section": "§8 [Representing Relationships and Data]", "md_verbatim": "- **Section 8.3**, Relating Datasets — representing a relationship between 2 (or more) datasets where records of 1 (or more) dataset(s) are related to record(s) in another dataset (or datasets)", "score": 0.4241, "match_basis": "verbatim_token+chapter_route:ch08"}, {"md_atom_id": "md_ch08_a014", "md_file": "knowledge_base/chapters/ch08_relationships.md", "md_atom_type": "LIST_ITEM", "md_parent_section": "§8 [Representing Relationships and Data]", "md_verbatim": "- **Section 8.8**, Related Specimens — a dataset used to represent relationships between specimens", "score": 0.4111, "match_basis": "verbatim_token+chapter_route:ch08"}, {"md_atom_id": "md_ch08_a131", "md_file": "knowledge_base/chapters/ch08_relationships.md", "md_atom_type": "LIST_ITEM", "md_parent_section": "§8.3.1 [RELREC Dataset Relationship Example]", "md_verbatim": "3. **MANY and MANY.** This combination is unusual and challenging to manage in a merge/join, and may represent a relationship that was never intended to convey a usable merge/join, such as described in Section 6.3.5.9.3, Relating PP Records to PC Records.", "score": 0.4033, "match_basis": "verbatim_token+chapter_route:ch08"}, {"md_atom_id": "md_ch08_a012", "md_file": "knowledge_base/chapters/ch08_relationships.md", "md_atom_type": "LIST_ITEM", "md_parent_section": "§8 [Representing Relationships and Data]", "md_verbatim": "- **Section 8.6**, How to Determine Where Data Belong in SDTM-Compliant Data Tabulations — the concept of related datasets and where to place additional data", "score": 0.396, "match_basis": "verbatim_token+chapter_route:ch08"}], "candidate_count": 5, "zero_candidate": false}
{"pdf_atom_id": "ig34_p0429_a016", "pdf_atom_type": "HEADING", "pdf_source": "SDTMIG_v3.4", "pdf_page": 429, "pdf_parent_section": "§8.2 [RELATING PEER RECORDS]", "pdf_verbatim": "8.2.1 Related Records (RELREC)", "figure_ref": null, "candidates": [{"md_atom_id": "md_ch08_a067", "md_file": "knowledge_base/chapters/ch08_relationships.md", "md_atom_type": "HEADING", "md_parent_section": "§8.2 [Relating Peer Records]", "md_verbatim": "### 8.2.1 Related Records (RELREC)", "score": 0.9, "match_basis": "verbatim_token+chapter_route:ch08"}, {"md_atom_id": "md_ch08_a052", "md_file": "knowledge_base/chapters/ch08_relationships.md", "md_atom_type": "HEADING", "md_parent_section": "§8 [Representing Relationships and Data]", "md_verbatim": "## 8.2 Relating Peer Records", "score": 0.5824, "match_basis": "verbatim_token+chapter_route:ch08"}, {"md_atom_id": "md_ch08_a109", "md_file": "knowledge_base/chapters/ch08_relationships.md", "md_atom_type": "HEADING", "md_parent_section": "§8 [Representing Relationships and Data]", "md_verbatim": "## 8.3 Relating Datasets Using RELREC", "score": 0.4565, "match_basis": "verbatim_token+chapter_route:ch08"}, {"md_atom_id": "md_ch08_a022", "md_file": "knowledge_base/chapters/ch08_relationships.md", "md_atom_type": "HEADING", "md_parent_section": "§8 [Representing Relationships and Data]", "md_verbatim": "## 8.1 Relating Groups of Records Within a Domain Using --GRPID", "score": 0.45, "match_basis": "verbatim_token+chapter_route:ch08"}, {"md_atom_id": "md_ch08_a275", "md_file": "knowledge_base/chapters/ch08_relationships.md", "md_atom_type": "HEADING", "md_parent_section": "§8 [Representing Relationships and Data]", "md_verbatim": "## 8.7 Related Subjects (RELSUB)", "score": 0.45, "match_basis": "verbatim_token+chapter_route:ch08"}], "candidate_count": 5, "zero_candidate": false}
{"pdf_atom_id": "ig34_p0429_a017", "pdf_atom_type": "HEADING", "pdf_source": "SDTMIG_v3.4", "pdf_page": 429, "pdf_parent_section": "§8.2.1 Related Records (RELREC)", "pdf_verbatim": "RELREC - Description/Overview", "figure_ref": null, "candidates": [{"md_atom_id": "md_dmRELREC_assn_a001", "md_file": "knowledge_base/domains/RELREC/assumptions.md", "md_atom_type": "HEADING", "md_parent_section": "§RELREC [RELREC — Assumptions]", "md_verbatim": "# RELREC — Assumptions", "score": 0.568, "match_basis": "verbatim_token+domain_route:RELREC"}, {"md_atom_id": "md_dmRELREC_ex_a001", "md_file": "knowledge_base/domains/RELREC/examples.md", "md_atom_type": "HEADING", "md_parent_section": "§RELREC [RELREC — Examples]", "md_verbatim": "# RELREC — Examples", "score": 0.496, "match_basis": "verbatim_token+domain_route:RELREC"}, {"md_atom_id": "md_dmRELREC_ex_a033", "md_file": "knowledge_base/domains/RELREC/examples.md", "md_atom_type": "HEADING", "md_parent_section": "§RELREC [RELREC — Examples]", "md_verbatim": "## Dataset Relationship Example", "score": 0.45, "match_basis": "verbatim_token+domain_route:RELREC"}, {"md_atom_id": "md_dmRELREC_assn_a004", "md_file": "knowledge_base/domains/RELREC/assumptions.md", "md_atom_type": "HEADING", "md_parent_section": "§RELREC [RELREC — Assumptions]", "md_verbatim": "## Relating Peer Records", "score": 0.44, "match_basis": "verbatim_token+domain_route:RELREC"}, {"md_atom_id": "md_dmRELREC_assn_a013", "md_file": "knowledge_base/domains/RELREC/assumptions.md", "md_atom_type": "HEADING", "md_parent_section": "§RELREC [RELREC — Assumptions]", "md_verbatim": "## Relating Datasets", "score": 0.42, "match_basis": "verbatim_token+domain_route:RELREC"}], "candidate_count": 5, "zero_candidate": false}
{"pdf_atom_id": "ig34_p0429_a018", "pdf_atom_type": "SENTENCE", "pdf_source": "SDTMIG_v3.4", "pdf_page": 429, "pdf_parent_section": "§8.2.1 Related Records (RELREC)", "pdf_verbatim": "A dataset used to describe relationships between records for a subject within or across domains, and relationships of records across datasets.", "figure_ref": null, "candidates": [{"md_atom_id": "md_dmRELREC_ex_a035", "md_file": "knowledge_base/domains/RELREC/examples.md", "md_atom_type": "SENTENCE", "md_parent_section": "§RELREC.2.1 [Example 1]", "md_verbatim": "This example illustrates RELREC records used to represent the relationship between records in 2 datasets that have a one-to-many relationship. Note that because this is a dataset-to-dataset relationship, USUBJID and IDVARVAL are null.", "score": 0.5829, "match_basis": "verbatim_token+domain_route:RELREC"}, {"md_atom_id": "md_dmRELREC_assn_a002", "md_file": "knowledge_base/domains/RELREC/assumptions.md", "md_atom_type": "SENTENCE", "md_parent_section": "§RELREC [RELREC — Assumptions]", "md_verbatim": "The Related Records (RELREC) special-purpose dataset is used to describe relationships between records for a subject (relating peer records) and relationships between datasets (relating datasets). In both cases, relationships represented in RELREC are collected relationships, either by explicit references or checkboxes on the CRF, or by design of the CRF (e.g., vital signs captured during an exercise stress test).", "score": 0.5792, "match_basis": "verbatim_token+domain_route:RELREC"}, {"md_atom_id": "md_dmRELREC_assn_a014", "md_file": "knowledge_base/domains/RELREC/assumptions.md", "md_atom_type": "SENTENCE", "md_parent_section": "§RELREC [RELREC — Assumptions]", "md_verbatim": "The Related Records (RELREC) special-purpose dataset can also be used to identify relationships between datasets (e.g., a one-to-many or parent-child relationship). The relationship is defined by including a single record for each related dataset that identifies the key(s) of the dataset that can be used to relate the respective records.", "score": 0.5603, "match_basis": "verbatim_token+domain_route:RELREC"}, {"md_atom_id": "md_dmRELREC_ex_a004", "md_file": "knowledge_base/domains/RELREC/examples.md", "md_atom_type": "SENTENCE", "md_parent_section": "§RELREC.1.1 [Example 1]", "md_verbatim": "This example illustrates the use of the RELREC dataset to relate records stored in separate domains for USUBJID = \"123456\". This example represents a situation in which a single adverse event is part of 2 collected relationships, one with 2 concomitant medications and the other with 2 laboratory findings, but there is no collected relationship between the 2 laboratory findings and the 2 concomitant medications.", "score": 0.5589, "match_basis": "verbatim_token+domain_route:RELREC"}, {"md_atom_id": "md_dmRELREC_ex_a005", "md_file": "knowledge_base/domains/RELREC/examples.md", "md_atom_type": "SENTENCE", "md_parent_section": "§RELREC.1.1 [Example 1]", "md_verbatim": "**Rows 1-3:** Show the representation of a relationship between an AE record and 2 concomitant medication records.", "score": 0.5518, "match_basis": "verbatim_token+domain_route:RELREC"}], "candidate_count": 5, "zero_candidate": false}
{"pdf_atom_id": "ig34_p0429_a019", "pdf_atom_type": "HEADING", "pdf_source": "SDTMIG_v3.4", "pdf_page": 429, "pdf_parent_section": "§8.2.1 Related Records (RELREC)", "pdf_verbatim": "RELREC – Specification", "figure_ref": null, "candidates": [{"md_atom_id": "md_dmRELREC_assn_a001", "md_file": "knowledge_base/domains/RELREC/assumptions.md", "md_atom_type": "HEADING", "md_parent_section": "§RELREC [RELREC — Assumptions]", "md_verbatim": "# RELREC — Assumptions", "score": 0.5636, "match_basis": "verbatim_token+domain_route:RELREC"}, {"md_atom_id": "md_dmRELREC_ex_a001", "md_file": "knowledge_base/domains/RELREC/examples.md", "md_atom_type": "HEADING", "md_parent_section": "§RELREC [RELREC — Examples]", "md_verbatim": "# RELREC — Examples", "score": 0.5143, "match_basis": "verbatim_token+domain_route:RELREC"}, {"md_atom_id": "md_dmRELREC_ex_a033", "md_file": "knowledge_base/domains/RELREC/examples.md", "md_atom_type": "HEADING", "md_parent_section": "§RELREC [RELREC — Examples]", "md_verbatim": "## Dataset Relationship Example", "score": 0.4774, "match_basis": "verbatim_token+domain_route:RELREC"}, {"md_atom_id": "md_dmRELREC_assn_a004", "md_file": "knowledge_base/domains/RELREC/assumptions.md", "md_atom_type": "HEADING", "md_parent_section": "§RELREC [RELREC — Assumptions]", "md_verbatim": "## Relating Peer Records", "score": 0.472, "match_basis": "verbatim_token+domain_route:RELREC"}, {"md_atom_id": "md_dmRELREC_assn_a013", "md_file": "knowledge_base/domains/RELREC/assumptions.md", "md_atom_type": "HEADING", "md_parent_section": "§RELREC [RELREC — Assumptions]", "md_verbatim": "## Relating Datasets", "score": 0.448, "match_basis": "verbatim_token+domain_route:RELREC"}], "candidate_count": 5, "zero_candidate": false}
{"pdf_atom_id": "ig34_p0429_a020", "pdf_atom_type": "CODE_LITERAL", "pdf_source": "SDTMIG_v3.4", "pdf_page": 429, "pdf_parent_section": "RELREC – Specification", "pdf_verbatim": "relrec.xpt", "figure_ref": null, "candidates": [{"md_atom_id": "md_dmRELREC_ex_a007", "md_file": "knowledge_base/domains/RELREC/examples.md", "md_atom_type": "SENTENCE", "md_parent_section": "§RELREC.1.1 [Example 1]", "md_verbatim": "**relrec.xpt**", "score": 0.79, "match_basis": "verbatim_token+domain_route:RELREC"}, {"md_atom_id": "md_dmRELREC_ex_a017", "md_file": "knowledge_base/domains/RELREC/examples.md", "md_atom_type": "SENTENCE", "md_parent_section": "§RELREC.1.2 [Example 2]", "md_verbatim": "**relrec.xpt**", "score": 0.79, "match_basis": "verbatim_token+domain_route:RELREC"}, {"md_atom_id": "md_dmRELREC_ex_a026", "md_file": "knowledge_base/domains/RELREC/examples.md", "md_atom_type": "SENTENCE", "md_parent_section": "§RELREC.1.3 [Example 3]", "md_verbatim": "**relrec.xpt**", "score": 0.79, "match_basis": "verbatim_token+domain_route:RELREC"}, {"md_atom_id": "md_dmRELREC_ex_a036", "md_file": "knowledge_base/domains/RELREC/examples.md", "md_atom_type": "SENTENCE", "md_parent_section": "§RELREC.2.1 [Example 1]", "md_verbatim": "**relrec.xpt**", "score": 0.79, "match_basis": "verbatim_token+domain_route:RELREC"}, {"md_atom_id": "md_dmRELREC_ex_a001", "md_file": "knowledge_base/domains/RELREC/examples.md", "md_atom_type": "HEADING", "md_parent_section": "§RELREC [RELREC — Examples]", "md_verbatim": "# RELREC — Examples", "score": 0.4082, "match_basis": "verbatim_token+domain_route:RELREC"}, {"md_atom_id": "md_dmRELREC_assn_a001", "md_file": "knowledge_base/domains/RELREC/assumptions.md", "md_atom_type": "HEADING", "md_parent_section": "§RELREC [RELREC — Assumptions]", "md_verbatim": "# RELREC — Assumptions", "score": 0.3614, "match_basis": "verbatim_token+domain_route:RELREC"}, {"md_atom_id": "md_dmRELREC_assn_a006", "md_file": "knowledge_base/domains/RELREC/assumptions.md", "md_atom_type": "SENTENCE", "md_parent_section": "§RELREC [RELREC — Assumptions]", "md_verbatim": "The RELREC dataset should be used to represent either:", "score": 0.2789, "match_basis": "verbatim_token+domain_route:RELREC"}, {"md_atom_id": "md_dmRELREC_assn_a004", "md_file": "knowledge_base/domains/RELREC/assumptions.md", "md_atom_type": "HEADING", "md_parent_section": "§RELREC [RELREC — Assumptions]", "md_verbatim": "## Relating Peer Records", "score": 0.265, "match_basis": "verbatim_token+domain_route:RELREC"}, {"md_atom_id": "md_dmRELREC_assn_a013", "md_file": "knowledge_base/domains/RELREC/assumptions.md", "md_atom_type": "HEADING", "md_parent_section": "§RELREC [RELREC — Assumptions]", "md_verbatim": "## Relating Datasets", "score": 0.2275, "match_basis": "verbatim_token+domain_route:RELREC"}, {"md_atom_id": "md_dmRELREC_ex_a002", "md_file": "knowledge_base/domains/RELREC/examples.md", "md_atom_type": "HEADING", "md_parent_section": "§RELREC [RELREC — Examples]", "md_verbatim": "## Peer Record Examples", "score": 0.2275, "match_basis": "verbatim_token+domain_route:RELREC"}], "candidate_count": 10, "zero_candidate": false}
{"pdf_atom_id": "ig34_p0429_a021", "pdf_atom_type": "SENTENCE", "pdf_source": "SDTMIG_v3.4", "pdf_page": 429, "pdf_parent_section": "RELREC – Specification", "pdf_verbatim": "relrec.xpt, Related Records — Relationship. One record per related record, group of records or dataset, Tabulation.", "figure_ref": null, "candidates": [{"md_atom_id": "md_dmRELREC_ex_a035", "md_file": "knowledge_base/domains/RELREC/examples.md", "md_atom_type": "SENTENCE", "md_parent_section": "§RELREC.2.1 [Example 1]", "md_verbatim": "This example illustrates RELREC records used to represent the relationship between records in 2 datasets that have a one-to-many relationship. Note that because this is a dataset-to-dataset relationship, USUBJID and IDVARVAL are null.", "score": 0.5565, "match_basis": "verbatim_token+domain_route:RELREC"}, {"md_atom_id": "md_dmRELREC_assn_a014", "md_file": "knowledge_base/domains/RELREC/assumptions.md", "md_atom_type": "SENTENCE", "md_parent_section": "§RELREC [RELREC — Assumptions]", "md_verbatim": "The Related Records (RELREC) special-purpose dataset can also be used to identify relationships between datasets (e.g., a one-to-many or parent-child relationship). The relationship is defined by including a single record for each related dataset that identifies the key(s) of the dataset that can be used to relate the respective records.", "score": 0.5485, "match_basis": "verbatim_token+domain_route:RELREC"}, {"md_atom_id": "md_dmRELREC_ex_a025", "md_file": "knowledge_base/domains/RELREC/examples.md", "md_atom_type": "SENTENCE", "md_parent_section": "§RELREC.1.3 [Example 3]", "md_verbatim": "Example 3 is the same scenario as Example 2. However, the sponsor grouped the 2 concomitant medications in the CM domain using CMGRPID = \"COMBO 1\", allowing the relationship among these 5 records to be represented with 4, rather than 5, records in the RELREC dataset.", "score": 0.5405, "match_basis": "verbatim_token+domain_route:RELREC"}, {"md_atom_id": "md_dmRELREC_ex_a005", "md_file": "knowledge_base/domains/RELREC/examples.md", "md_atom_type": "SENTENCE", "md_parent_section": "§RELREC.1.1 [Example 1]", "md_verbatim": "**Rows 1-3:** Show the representation of a relationship between an AE record and 2 concomitant medication records.", "score": 0.5324, "match_basis": "verbatim_token+domain_route:RELREC"}, {"md_atom_id": "md_dmRELREC_ex_a006", "md_file": "knowledge_base/domains/RELREC/examples.md", "md_atom_type": "SENTENCE", "md_parent_section": "§RELREC.1.1 [Example 1]", "md_verbatim": "**Rows 4-6:** Show the representation of a relationship between the same AE record and 2 laboratory findings records.", "score": 0.5286, "match_basis": "verbatim_token+domain_route:RELREC"}], "candidate_count": 5, "zero_candidate": false}
{"pdf_atom_id": "ig34_p0429_a022", "pdf_atom_type": "TABLE_HEADER", "pdf_source": "SDTMIG_v3.4", "pdf_page": 429, "pdf_parent_section": "RELREC – Specification", "pdf_verbatim": "Variable Name | Variable Label | Type | Controlled Terms, Codelist or Format | Role | CDISC Notes | Core", "figure_ref": null, "candidates": [{"md_atom_id": "md_dmRELREC_ex_a008", "md_file": "knowledge_base/domains/RELREC/examples.md", "md_atom_type": "TABLE_HEADER", "md_parent_section": "§RELREC.1.1 [Example 1]", "md_verbatim": "| Row | STUDYID | RDOMAIN | USUBJID | IDVAR | IDVARVAL | RELTYPE | RELID |\n|-----|---------|---------|---------|-------|----------|---------|-------|", "score": 0.4353, "match_basis": "verbatim_token+domain_route:RELREC"}, {"md_atom_id": "md_dmRELREC_ex_a018", "md_file": "knowledge_base/domains/RELREC/examples.md", "md_atom_type": "TABLE_HEADER", "md_parent_section": "§RELREC.1.2 [Example 2]", "md_verbatim": "| Row | STUDYID | RDOMAIN | USUBJID | IDVAR | IDVARVAL | RELTYPE | RELID |\n|-----|---------|---------|---------|-------|----------|---------|-------|", "score": 0.4353, "match_basis": "verbatim_token+domain_route:RELREC"}, {"md_atom_id": "md_dmRELREC_ex_a027", "md_file": "knowledge_base/domains/RELREC/examples.md", "md_atom_type": "TABLE_HEADER", "md_parent_section": "§RELREC.1.3 [Example 3]", "md_verbatim": "| Row | STUDYID | RDOMAIN | USUBJID | IDVAR | IDVARVAL | RELTYPE | RELID |\n|-----|---------|---------|---------|-------|----------|---------|-------|", "score": 0.4353, "match_basis": "verbatim_token+domain_route:RELREC"}, {"md_atom_id": "md_dmRELREC_ex_a037", "md_file": "knowledge_base/domains/RELREC/examples.md", "md_atom_type": "TABLE_HEADER", "md_parent_section": "§RELREC.2.1 [Example 1]", "md_verbatim": "| Row | STUDYID | RDOMAIN | USUBJID | IDVAR | IDVARVAL | RELTYPE | RELID |\n|-----|---------|---------|---------|-------|----------|---------|-------|", "score": 0.4353, "match_basis": "verbatim_token+domain_route:RELREC"}, {"md_atom_id": "md_dmRELREC_ex_a009", "md_file": "knowledge_base/domains/RELREC/examples.md", "md_atom_type": "TABLE_ROW", "md_parent_section": "§RELREC.1.1 [Example 1]", "md_verbatim": "| 1 | EFC1234 | AE | 123456 | AESEQ | 5 | | 1 |", "score": 0.34, "match_basis": "verbatim_token+domain_route:RELREC"}], "candidate_count": 5, "zero_candidate": false}
{"pdf_atom_id": "ig34_p0429_a023", "pdf_atom_type": "TABLE_ROW", "pdf_source": "SDTMIG_v3.4", "pdf_page": 429, "pdf_parent_section": "RELREC – Specification", "pdf_verbatim": "Row 1 | STUDYID | Study Identifier | Char | | Identifier | Unique identifier for a study. | Req", "figure_ref": null, "candidates": [{"md_atom_id": "md_dmRELREC_ex_a008", "md_file": "knowledge_base/domains/RELREC/examples.md", "md_atom_type": "TABLE_HEADER", "md_parent_section": "§RELREC.1.1 [Example 1]", "md_verbatim": "| Row | STUDYID | RDOMAIN | USUBJID | IDVAR | IDVARVAL | RELTYPE | RELID |\n|-----|---------|---------|---------|-------|----------|---------|-------|", "score": 0.42, "match_basis": "verbatim_token+domain_route:RELREC"}, {"md_atom_id": "md_dmRELREC_ex_a018", "md_file": "knowledge_base/domains/RELREC/examples.md", "md_atom_type": "TABLE_HEADER", "md_parent_section": "§RELREC.1.2 [Example 2]", "md_verbatim": "| Row | STUDYID | RDOMAIN | USUBJID | IDVAR | IDVARVAL | RELTYPE | RELID |\n|-----|---------|---------|---------|-------|----------|---------|-------|", "score": 0.42, "match_basis": "verbatim_token+domain_route:RELREC"}, {"md_atom_id": "md_dmRELREC_ex_a027", "md_file": "knowledge_base/domains/RELREC/examples.md", "md_atom_type": "TABLE_HEADER", "md_parent_section": "§RELREC.1.3 [Example 3]", "md_verbatim": "| Row | STUDYID | RDOMAIN | USUBJID | IDVAR | IDVARVAL | RELTYPE | RELID |\n|-----|---------|---------|---------|-------|----------|---------|-------|", "score": 0.42, "match_basis": "verbatim_token+domain_route:RELREC"}, {"md_atom_id": "md_dmRELREC_ex_a037", "md_file": "knowledge_base/domains/RELREC/examples.md", "md_atom_type": "TABLE_HEADER", "md_parent_section": "§RELREC.2.1 [Example 1]", "md_verbatim": "| Row | STUDYID | RDOMAIN | USUBJID | IDVAR | IDVARVAL | RELTYPE | RELID |\n|-----|---------|---------|---------|-------|----------|---------|-------|", "score": 0.42, "match_basis": "verbatim_token+domain_route:RELREC"}, {"md_atom_id": "md_dmRELREC_ex_a009", "md_file": "knowledge_base/domains/RELREC/examples.md", "md_atom_type": "TABLE_ROW", "md_parent_section": "§RELREC.1.1 [Example 1]", "md_verbatim": "| 1 | EFC1234 | AE | 123456 | AESEQ | 5 | | 1 |", "score": 0.4, "match_basis": "verbatim_token+domain_route:RELREC"}], "candidate_count": 5, "zero_candidate": false}
{"pdf_atom_id": "ig34_p0429_a024", "pdf_atom_type": "TABLE_ROW", "pdf_source": "SDTMIG_v3.4", "pdf_page": 429, "pdf_parent_section": "RELREC – Specification", "pdf_verbatim": "Row 2 | RDOMAIN | Related Domain Abbreviation | Char | (DOMAIN) | Identifier | Abbreviation for the domain of the parent record(s). | Req", "figure_ref": null, "candidates": [{"md_atom_id": "md_dmRELREC_assn_a012", "md_file": "knowledge_base/domains/RELREC/assumptions.md", "md_atom_type": "LIST_ITEM", "md_parent_section": "§RELREC [RELREC — Assumptions]", "md_verbatim": "- The grouping identifier (--GRPID) variable, used to link related records for a subject within a domain, is explained in Section 8.1, Relating Groups of Records Within a --GRPID Variable.", "score": 0.415, "match_basis": "verbatim_token+domain_route:RELREC"}, {"md_atom_id": "md_dmRELREC_ex_a008", "md_file": "knowledge_base/domains/RELREC/examples.md", "md_atom_type": "TABLE_HEADER", "md_parent_section": "§RELREC.1.1 [Example 1]", "md_verbatim": "| Row | STUDYID | RDOMAIN | USUBJID | IDVAR | IDVARVAL | RELTYPE | RELID |\n|-----|---------|---------|---------|-------|----------|---------|-------|", "score": 0.4067, "match_basis": "verbatim_token+domain_route:RELREC"}, {"md_atom_id": "md_dmRELREC_ex_a018", "md_file": "knowledge_base/domains/RELREC/examples.md", "md_atom_type": "TABLE_HEADER", "md_parent_section": "§RELREC.1.2 [Example 2]", "md_verbatim": "| Row | STUDYID | RDOMAIN | USUBJID | IDVAR | IDVARVAL | RELTYPE | RELID |\n|-----|---------|---------|---------|-------|----------|---------|-------|", "score": 0.4067, "match_basis": "verbatim_token+domain_route:RELREC"}, {"md_atom_id": "md_dmRELREC_ex_a027", "md_file": "knowledge_base/domains/RELREC/examples.md", "md_atom_type": "TABLE_HEADER", "md_parent_section": "§RELREC.1.3 [Example 3]", "md_verbatim": "| Row | STUDYID | RDOMAIN | USUBJID | IDVAR | IDVARVAL | RELTYPE | RELID |\n|-----|---------|---------|---------|-------|----------|---------|-------|", "score": 0.4067, "match_basis": "verbatim_token+domain_route:RELREC"}, {"md_atom_id": "md_dmRELREC_ex_a037", "md_file": "knowledge_base/domains/RELREC/examples.md", "md_atom_type": "TABLE_HEADER", "md_parent_section": "§RELREC.2.1 [Example 1]", "md_verbatim": "| Row | STUDYID | RDOMAIN | USUBJID | IDVAR | IDVARVAL | RELTYPE | RELID |\n|-----|---------|---------|---------|-------|----------|---------|-------|", "score": 0.4067, "match_basis": "verbatim_token+domain_route:RELREC"}], "candidate_count": 5, "zero_candidate": false}
{"pdf_atom_id": "ig34_p0429_a025", "pdf_atom_type": "TABLE_ROW", "pdf_source": "SDTMIG_v3.4", "pdf_page": 429, "pdf_parent_section": "RELREC – Specification", "pdf_verbatim": "Row 3 | USUBJID | Unique Subject Identifier | Char | | Identifier | Identifier used to uniquely identify a subject across all studies for all applications or submissions involving the product. | Exp", "figure_ref": null, "candidates": [{"md_atom_id": "md_dmRELREC_ex_a009", "md_file": "knowledge_base/domains/RELREC/examples.md", "md_atom_type": "TABLE_ROW", "md_parent_section": "§RELREC.1.1 [Example 1]", "md_verbatim": "| 1 | EFC1234 | AE | 123456 | AESEQ | 5 | | 1 |", "score": 0.4, "match_basis": "verbatim_token+domain_route:RELREC"}, {"md_atom_id": "md_dmRELREC_ex_a010", "md_file": "knowledge_base/domains/RELREC/examples.md", "md_atom_type": "TABLE_ROW", "md_parent_section": "§RELREC.1.1 [Example 1]", "md_verbatim": "| 2 | EFC1234 | CM | 123456 | CMSEQ | 11 | | 1 |", "score": 0.4, "match_basis": "verbatim_token+domain_route:RELREC"}, {"md_atom_id": "md_dmRELREC_ex_a011", "md_file": "knowledge_base/domains/RELREC/examples.md", "md_atom_type": "TABLE_ROW", "md_parent_section": "§RELREC.1.1 [Example 1]", "md_verbatim": "| 3 | EFC1234 | CM | 123456 | CMSEQ | 12 | | 1 |", "score": 0.4, "match_basis": "verbatim_token+domain_route:RELREC"}, {"md_atom_id": "md_dmRELREC_ex_a012", "md_file": "knowledge_base/domains/RELREC/examples.md", "md_atom_type": "TABLE_ROW", "md_parent_section": "§RELREC.1.1 [Example 1]", "md_verbatim": "| 4 | EFC1234 | AE | 123456 | AESEQ | 5 | | 2 |", "score": 0.4, "match_basis": "verbatim_token+domain_route:RELREC"}, {"md_atom_id": "md_dmRELREC_ex_a013", "md_file": "knowledge_base/domains/RELREC/examples.md", "md_atom_type": "TABLE_ROW", "md_parent_section": "§RELREC.1.1 [Example 1]", "md_verbatim": "| 5 | EFC1234 | LB | 123456 | LBSEQ | 47 | | 2 |", "score": 0.4, "match_basis": "verbatim_token+domain_route:RELREC"}], "candidate_count": 5, "zero_candidate": false}
{"pdf_atom_id": "ig34_p0429_a026", "pdf_atom_type": "TABLE_ROW", "pdf_source": "SDTMIG_v3.4", "pdf_page": 429, "pdf_parent_section": "RELREC – Specification", "pdf_verbatim": "Row 4 | IDVAR | Identifying Variable | Char * | | Identifier | Name of the identifying variable in the general-observation-class dataset that identifies the related record(s). Examples: --SEQ, --GRPID. | Req", "figure_ref": null, "candidates": [{"md_atom_id": "md_dmRELREC_ex_a029", "md_file": "knowledge_base/domains/RELREC/examples.md", "md_atom_type": "TABLE_ROW", "md_parent_section": "§RELREC.1.3 [Example 3]", "md_verbatim": "| 2 | EFC1234 | CM | 123456 | CMGRPID | COMBO1 | | 1 |", "score": 0.4214, "match_basis": "verbatim_token+domain_route:RELREC"}, {"md_atom_id": "md_dmRELREC_ex_a013", "md_file": "knowledge_base/domains/RELREC/examples.md", "md_atom_type": "TABLE_ROW", "md_parent_section": "§RELREC.1.1 [Example 1]", "md_verbatim": "| 5 | EFC1234 | LB | 123456 | LBSEQ | 47 | | 2 |", "score": 0.4152, "match_basis": "verbatim_token+domain_route:RELREC"}, {"md_atom_id": "md_dmRELREC_ex_a014", "md_file": "knowledge_base/domains/RELREC/examples.md", "md_atom_type": "TABLE_ROW", "md_parent_section": "§RELREC.1.1 [Example 1]", "md_verbatim": "| 6 | EFC1234 | LB | 123456 | LBSEQ | 48 | | 2 |", "score": 0.4152, "match_basis": "verbatim_token+domain_route:RELREC"}, {"md_atom_id": "md_dmRELREC_ex_a022", "md_file": "knowledge_base/domains/RELREC/examples.md", "md_atom_type": "TABLE_ROW", "md_parent_section": "§RELREC.1.2 [Example 2]", "md_verbatim": "| 4 | EFC1234 | LB | 123456 | LBSEQ | 47 | | 1 |", "score": 0.4152, "match_basis": "verbatim_token+domain_route:RELREC"}, {"md_atom_id": "md_dmRELREC_ex_a023", "md_file": "knowledge_base/domains/RELREC/examples.md", "md_atom_type": "TABLE_ROW", "md_parent_section": "§RELREC.1.2 [Example 2]", "md_verbatim": "| 5 | EFC1234 | LB | 123456 | LBSEQ | 48 | | 1 |", "score": 0.4152, "match_basis": "verbatim_token+domain_route:RELREC"}], "candidate_count": 5, "zero_candidate": false}
{"pdf_atom_id": "ig34_p0429_a027", "pdf_atom_type": "TABLE_ROW", "pdf_source": "SDTMIG_v3.4", "pdf_page": 429, "pdf_parent_section": "RELREC – Specification", "pdf_verbatim": "Row 5 | IDVARVAL | Identifying Variable Value | Char | | Identifier | Value of identifying variable described in IDVAR. If --SEQ is the variable being used to describe this record, then the value of --SEQ would be entered here. | Exp", "figure_ref": null, "candidates": [{"md_atom_id": "md_dmRELREC_ex_a009", "md_file": "knowledge_base/domains/RELREC/examples.md", "md_atom_type": "TABLE_ROW", "md_parent_section": "§RELREC.1.1 [Example 1]", "md_verbatim": "| 1 | EFC1234 | AE | 123456 | AESEQ | 5 | | 1 |", "score": 0.4091, "match_basis": "verbatim_token+domain_route:RELREC"}, {"md_atom_id": "md_dmRELREC_ex_a010", "md_file": "knowledge_base/domains/RELREC/examples.md", "md_atom_type": "TABLE_ROW", "md_parent_section": "§RELREC.1.1 [Example 1]", "md_verbatim": "| 2 | EFC1234 | CM | 123456 | CMSEQ | 11 | | 1 |", "score": 0.4091, "match_basis": "verbatim_token+domain_route:RELREC"}, {"md_atom_id": "md_dmRELREC_ex_a011", "md_file": "knowledge_base/domains/RELREC/examples.md", "md_atom_type": "TABLE_ROW", "md_parent_section": "§RELREC.1.1 [Example 1]", "md_verbatim": "| 3 | EFC1234 | CM | 123456 | CMSEQ | 12 | | 1 |", "score": 0.4091, "match_basis": "verbatim_token+domain_route:RELREC"}, {"md_atom_id": "md_dmRELREC_ex_a012", "md_file": "knowledge_base/domains/RELREC/examples.md", "md_atom_type": "TABLE_ROW", "md_parent_section": "§RELREC.1.1 [Example 1]", "md_verbatim": "| 4 | EFC1234 | AE | 123456 | AESEQ | 5 | | 2 |", "score": 0.4091, "match_basis": "verbatim_token+domain_route:RELREC"}, {"md_atom_id": "md_dmRELREC_ex_a013", "md_file": "knowledge_base/domains/RELREC/examples.md", "md_atom_type": "TABLE_ROW", "md_parent_section": "§RELREC.1.1 [Example 1]", "md_verbatim": "| 5 | EFC1234 | LB | 123456 | LBSEQ | 47 | | 2 |", "score": 0.4091, "match_basis": "verbatim_token+domain_route:RELREC"}], "candidate_count": 5, "zero_candidate": false}
{"pdf_atom_id": "ig34_p0429_a028", "pdf_atom_type": "TABLE_ROW", "pdf_source": "SDTMIG_v3.4", "pdf_page": 429, "pdf_parent_section": "RELREC – Specification", "pdf_verbatim": "Row 6 | RELTYPE | Relationship Type | Char | (RELTYPE) | Record Qualifier | Identifies the hierarchical level of the records in the relationship. Values should be either \"ONE\" or \"MANY\". Used only when identifying a relationship between datasets (as described in Section 8.3, Relating Datasets). | Exp", "figure_ref": null, "candidates": [{"md_atom_id": "md_dmRELREC_assn_a018", "md_file": "knowledge_base/domains/RELREC/assumptions.md", "md_atom_type": "LIST_ITEM", "md_parent_section": "§RELREC [RELREC — Assumptions]", "md_verbatim": "2. **ONE and MANY.** This combination indicates that there **IS** a hierarchical (parent-child) relationship between the datasets. One record within USUBJID in the dataset identified by RELTYPE = \"ONE\" will potentially have the same value of the IDVAR with many (1 or more) records in the dataset identified by RELTYPE = \"MANY\".", "score": 0.4533, "match_basis": "verbatim_token+domain_route:RELREC"}, {"md_atom_id": "md_dmRELREC_assn_a017", "md_file": "knowledge_base/domains/RELREC/assumptions.md", "md_atom_type": "LIST_ITEM", "md_parent_section": "§RELREC [RELREC — Assumptions]", "md_verbatim": "1. **ONE and ONE.** This combination indicates that there is **NO** hierarchical relationship between the datasets and the records in the datasets. Only 1 record from each dataset will potentially have the same value of the IDVAR within USUBJID.", "score": 0.4214, "match_basis": "verbatim_token+domain_route:RELREC"}, {"md_atom_id": "md_dmRELREC_ex_a039", "md_file": "knowledge_base/domains/RELREC/examples.md", "md_atom_type": "TABLE_ROW", "md_parent_section": "§RELREC.2.1 [Example 1]", "md_verbatim": "| 2 | EFC1234 | TR | | TRLNKID | | MANY | 1 |", "score": 0.4114, "match_basis": "verbatim_token+domain_route:RELREC"}, {"md_atom_id": "md_dmRELREC_assn_a014", "md_file": "knowledge_base/domains/RELREC/assumptions.md", "md_atom_type": "SENTENCE", "md_parent_section": "§RELREC [RELREC — Assumptions]", "md_verbatim": "The Related Records (RELREC) special-purpose dataset can also be used to identify relationships between datasets (e.g., a one-to-many or parent-child relationship). The relationship is defined by including a single record for each related dataset that identifies the key(s) of the dataset that can be used to relate the respective records.", "score": 0.4101, "match_basis": "verbatim_token+domain_route:RELREC"}, {"md_atom_id": "md_dmRELREC_ex_a038", "md_file": "knowledge_base/domains/RELREC/examples.md", "md_atom_type": "TABLE_ROW", "md_parent_section": "§RELREC.2.1 [Example 1]", "md_verbatim": "| 1 | EFC1234 | TU | | TULNKID | | ONE | 1 |", "score": 0.4057, "match_basis": "verbatim_token+domain_route:RELREC"}], "candidate_count": 5, "zero_candidate": false}
{"pdf_atom_id": "ig34_p0429_a029", "pdf_atom_type": "TABLE_ROW", "pdf_source": "SDTMIG_v3.4", "pdf_page": 429, "pdf_parent_section": "RELREC – Specification", "pdf_verbatim": "Row 7 | RELID | Relationship Identifier | Char | | Record Qualifier | Unique value within USUBJID that identifies the relationship. All records for the same USUBJID that have the same RELID are considered related/associated. RELID can be any value the sponsor chooses, and is only meaningful within the RELREC dataset to identify the related/associated domain records. | Req", "figure_ref": null, "candidates": [{"md_atom_id": "md_dmRELREC_assn_a003", "md_file": "knowledge_base/domains/RELREC/assumptions.md", "md_atom_type": "SENTENCE", "md_parent_section": "§RELREC [RELREC — Assumptions]", "md_verbatim": "A relationship is defined by adding a record to RELREC for each record to be related and by assigning a unique character identifier value for the relationship. Each record in the RELREC special-purpose dataset contains keys that identify a record (or group of records) and the relationship identifier, which is stored in the RELID variable. The value of RELID is chosen by the sponsor, but must be identical for all related records within USUBJID. It is recommended that the sponsor use a standard system or naming convention for RELID (e.g., all letters, all numbers, capitalized).", "score": 0.4358, "match_basis": "verbatim_token+domain_route:RELREC"}, {"md_atom_id": "md_dmRELREC_assn_a018", "md_file": "knowledge_base/domains/RELREC/assumptions.md", "md_atom_type": "LIST_ITEM", "md_parent_section": "§RELREC [RELREC — Assumptions]", "md_verbatim": "2. **ONE and MANY.** This combination indicates that there **IS** a hierarchical (parent-child) relationship between the datasets. One record within USUBJID in the dataset identified by RELTYPE = \"ONE\" will potentially have the same value of the IDVAR with many (1 or more) records in the dataset identified by RELTYPE = \"MANY\".", "score": 0.4187, "match_basis": "verbatim_token+domain_route:RELREC"}, {"md_atom_id": "md_dmRELREC_assn_a017", "md_file": "knowledge_base/domains/RELREC/assumptions.md", "md_atom_type": "LIST_ITEM", "md_parent_section": "§RELREC [RELREC — Assumptions]", "md_verbatim": "1. **ONE and ONE.** This combination indicates that there is **NO** hierarchical relationship between the datasets and the records in the datasets. Only 1 record from each dataset will potentially have the same value of the IDVAR within USUBJID.", "score": 0.4095, "match_basis": "verbatim_token+domain_route:RELREC"}, {"md_atom_id": "md_dmRELREC_ex_a008", "md_file": "knowledge_base/domains/RELREC/examples.md", "md_atom_type": "TABLE_HEADER", "md_parent_section": "§RELREC.1.1 [Example 1]", "md_verbatim": "| Row | STUDYID | RDOMAIN | USUBJID | IDVAR | IDVARVAL | RELTYPE | RELID |\n|-----|---------|---------|---------|-------|----------|---------|-------|", "score": 0.4083, "match_basis": "verbatim_token+domain_route:RELREC"}, {"md_atom_id": "md_dmRELREC_ex_a018", "md_file": "knowledge_base/domains/RELREC/examples.md", "md_atom_type": "TABLE_HEADER", "md_parent_section": "§RELREC.1.2 [Example 2]", "md_verbatim": "| Row | STUDYID | RDOMAIN | USUBJID | IDVAR | IDVARVAL | RELTYPE | RELID |\n|-----|---------|---------|---------|-------|----------|---------|-------|", "score": 0.4083, "match_basis": "verbatim_token+domain_route:RELREC"}], "candidate_count": 5, "zero_candidate": false}
{"pdf_atom_id": "ig34_p0429_a030", "pdf_atom_type": "NOTE", "pdf_source": "SDTMIG_v3.4", "pdf_page": 429, "pdf_parent_section": "RELREC – Specification", "pdf_verbatim": "1In this column, an asterisk (*) indicates that the variable may be subject to controlled terminology. CDISC/NCI codelist values are enclosed in parentheses.", "figure_ref": null, "candidates": [{"md_atom_id": "md_dmRELREC_assn_a016", "md_file": "knowledge_base/domains/RELREC/assumptions.md", "md_atom_type": "SENTENCE", "md_parent_section": "§RELREC [RELREC — Assumptions]", "md_verbatim": "The variable RELTYPE identifies the type of relationship between the datasets. The allowable values are ONE and MANY (controlled terminology is expected). This information defines how a merge/join would be written, and what would be the result of the merge/join. The possible combinations are:", "score": 0.4329, "match_basis": "verbatim_token+domain_route:RELREC"}, {"md_atom_id": "md_dmRELREC_ex_a040", "md_file": "knowledge_base/domains/RELREC/examples.md", "md_atom_type": "SENTENCE", "md_parent_section": "§RELREC.2.1 [Example 1]", "md_verbatim": "In the sponsor's operational database, these datasets may have existed as either separate datasets that were merged for analysis, or a single dataset that may have included observations from more than 1 general observation class (e.g., Events and Findings). The value in IDVAR must be the name of the key used to merge/join the 2 datasets. In this example, the --LNKID variable is used as the key to identify the related observations. The values for the --LNKID variable in the 2 datasets are sponsor-defined. Although other variables may also serve as a single merge key when the corresponding values for IDVAR are equal, --GRPID, --SPID, --REFID, --LNKID, or --LNKGRP are typically used for this purpose.", "score": 0.3886, "match_basis": "verbatim_token+domain_route:RELREC"}, {"md_atom_id": "md_dmRELREC_assn_a009", "md_file": "knowledge_base/domains/RELREC/assumptions.md", "md_atom_type": "SENTENCE", "md_parent_section": "§RELREC [RELREC — Assumptions]", "md_verbatim": "The following are examples of variables that could be used in IDVAR:", "score": 0.3842, "match_basis": "verbatim_token+domain_route:RELREC"}, {"md_atom_id": "md_dmRELREC_ex_a016", "md_file": "knowledge_base/domains/RELREC/examples.md", "md_atom_type": "SENTENCE", "md_parent_section": "§RELREC.1.2 [Example 2]", "md_verbatim": "Example 2 is the same scenario as Example 1. In this case, however, the way the data were collected indicated that the concomitant medications and laboratory findings were all in a single relationship to each other and the adverse event.", "score": 0.3811, "match_basis": "verbatim_token+domain_route:RELREC"}, {"md_atom_id": "md_dmRELREC_assn_a003", "md_file": "knowledge_base/domains/RELREC/assumptions.md", "md_atom_type": "SENTENCE", "md_parent_section": "§RELREC [RELREC — Assumptions]", "md_verbatim": "A relationship is defined by adding a record to RELREC for each record to be related and by assigning a unique character identifier value for the relationship. Each record in the RELREC special-purpose dataset contains keys that identify a record (or group of records) and the relationship identifier, which is stored in the RELID variable. The value of RELID is chosen by the sponsor, but must be identical for all related records within USUBJID. It is recommended that the sponsor use a standard system or naming convention for RELID (e.g., all letters, all numbers, capitalized).", "score": 0.3776, "match_basis": "verbatim_token+domain_route:RELREC"}], "candidate_count": 5, "zero_candidate": false}
{"pdf_atom_id": "ig34_p0430_a001", "pdf_atom_type": "HEADING", "pdf_source": "SDTMIG_v3.4", "pdf_page": 430, "pdf_parent_section": "§8.2 [RELATING PEER RECORDS]", "pdf_verbatim": "8.2.2 RELREC Dataset Examples", "figure_ref": null, "candidates": [{"md_atom_id": "md_ch08_a081", "md_file": "knowledge_base/chapters/ch08_relationships.md", "md_atom_type": "HEADING", "md_parent_section": "§8.2 [Relating Peer Records]", "md_verbatim": "### 8.2.2 RELREC Dataset Examples", "score": 0.9, "match_basis": "verbatim_token+chapter_route:ch08"}, {"md_atom_id": "md_ch08_a114", "md_file": "knowledge_base/chapters/ch08_relationships.md", "md_atom_type": "HEADING", "md_parent_section": "§8.3 [Relating Datasets Using RELREC]", "md_verbatim": "### 8.3.1 RELREC Dataset Relationship Example", "score": 0.65, "match_basis": "verbatim_token+chapter_route:ch08"}, {"md_atom_id": "md_ch08_a184", "md_file": "knowledge_base/chapters/ch08_relationships.md", "md_atom_type": "HEADING", "md_parent_section": "§8.4 [Relating Non-standard Variable Values to a Parent Domain]", "md_verbatim": "### 8.4.3 Examples", "score": 0.54, "match_basis": "verbatim_token+chapter_route:ch08"}, {"md_atom_id": "md_ch08_a109", "md_file": "knowledge_base/chapters/ch08_relationships.md", "md_atom_type": "HEADING", "md_parent_section": "§8 [Representing Relationships and Data]", "md_verbatim": "## 8.3 Relating Datasets Using RELREC", "score": 0.5348, "match_basis": "verbatim_token+chapter_route:ch08"}, {"md_atom_id": "md_ch08_a292", "md_file": "knowledge_base/chapters/ch08_relationships.md", "md_atom_type": "HEADING", "md_parent_section": "§8.7 [Related Subjects (RELSUB)]", "md_verbatim": "### Example", "score": 0.5, "match_basis": "verbatim_token+chapter_route:ch08"}], "candidate_count": 5, "zero_candidate": false}
{"pdf_atom_id": "ig34_p0430_a002", "pdf_atom_type": "HEADING", "pdf_source": "SDTMIG_v3.4", "pdf_page": 430, "pdf_parent_section": "§8.2.2 RELREC Dataset Examples", "pdf_verbatim": "Example 1", "figure_ref": null, "candidates": [{"md_atom_id": "md_dmRELREC_ex_a003", "md_file": "knowledge_base/domains/RELREC/examples.md", "md_atom_type": "HEADING", "md_parent_section": "§RELREC.1 [Peer Record Examples]", "md_verbatim": "### Example 1", "score": 1.0, "match_basis": "verbatim_token+domain_route:RELREC"}, {"md_atom_id": "md_dmRELREC_ex_a015", "md_file": "knowledge_base/domains/RELREC/examples.md", "md_atom_type": "HEADING", "md_parent_section": "§RELREC.1 [Peer Record Examples]", "md_verbatim": "### Example 2", "score": 1.0, "match_basis": "verbatim_token+domain_route:RELREC"}, {"md_atom_id": "md_dmRELREC_ex_a024", "md_file": "knowledge_base/domains/RELREC/examples.md", "md_atom_type": "HEADING", "md_parent_section": "§RELREC.1 [Peer Record Examples]", "md_verbatim": "### Example 3", "score": 1.0, "match_basis": "verbatim_token+domain_route:RELREC"}, {"md_atom_id": "md_dmRELREC_ex_a034", "md_file": "knowledge_base/domains/RELREC/examples.md", "md_atom_type": "HEADING", "md_parent_section": "§RELREC.2 [Dataset Relationship Example]", "md_verbatim": "### Example 1", "score": 1.0, "match_basis": "verbatim_token+domain_route:RELREC"}, {"md_atom_id": "md_dmRELREC_ex_a001", "md_file": "knowledge_base/domains/RELREC/examples.md", "md_atom_type": "HEADING", "md_parent_section": "§RELREC [RELREC — Examples]", "md_verbatim": "# RELREC — Examples", "score": 0.7, "match_basis": "verbatim_token+domain_route:RELREC"}, {"md_atom_id": "md_dmRELREC_ex_a002", "md_file": "knowledge_base/domains/RELREC/examples.md", "md_atom_type": "HEADING", "md_parent_section": "§RELREC [RELREC — Examples]", "md_verbatim": "## Peer Record Examples", "score": 0.65, "match_basis": "verbatim_token+domain_route:RELREC"}, {"md_atom_id": "md_dmRELREC_ex_a033", "md_file": "knowledge_base/domains/RELREC/examples.md", "md_atom_type": "HEADING", "md_parent_section": "§RELREC [RELREC — Examples]", "md_verbatim": "## Dataset Relationship Example", "score": 0.55, "match_basis": "verbatim_token+domain_route:RELREC"}, {"md_atom_id": "md_dmRELREC_assn_a001", "md_file": "knowledge_base/domains/RELREC/assumptions.md", "md_atom_type": "HEADING", "md_parent_section": "§RELREC [RELREC — Assumptions]", "md_verbatim": "# RELREC — Assumptions", "score": 0.4, "match_basis": "verbatim_token+domain_route:RELREC"}, {"md_atom_id": "md_dmRELREC_assn_a004", "md_file": "knowledge_base/domains/RELREC/assumptions.md", "md_atom_type": "HEADING", "md_parent_section": "§RELREC [RELREC — Assumptions]", "md_verbatim": "## Relating Peer Records", "score": 0.4, "match_basis": "verbatim_token+domain_route:RELREC"}, {"md_atom_id": "md_dmRELREC_assn_a013", "md_file": "knowledge_base/domains/RELREC/assumptions.md", "md_atom_type": "HEADING", "md_parent_section": "§RELREC [RELREC — Assumptions]", "md_verbatim": "## Relating Datasets", "score": 0.4, "match_basis": "verbatim_token+domain_route:RELREC"}], "candidate_count": 10, "zero_candidate": false}
{"pdf_atom_id": "ig34_p0430_a003", "pdf_atom_type": "SENTENCE", "pdf_source": "SDTMIG_v3.4", "pdf_page": 430, "pdf_parent_section": "§8.2.2 RELREC Dataset Examples", "pdf_verbatim": "This example illustrates the use of the RELREC dataset to relate records stored in separate domains for USUBJID = \"123456\".", "figure_ref": null, "candidates": [{"md_atom_id": "md_dmRELREC_ex_a004", "md_file": "knowledge_base/domains/RELREC/examples.md", "md_atom_type": "SENTENCE", "md_parent_section": "§RELREC.1.1 [Example 1]", "md_verbatim": "This example illustrates the use of the RELREC dataset to relate records stored in separate domains for USUBJID = \"123456\". This example represents a situation in which a single adverse event is part of 2 collected relationships, one with 2 concomitant medications and the other with 2 laboratory findings, but there is no collected relationship between the 2 laboratory findings and the 2 concomitant medications.", "score": 0.6471, "match_basis": "verbatim_token+domain_route:RELREC"}, {"md_atom_id": "md_dmRELREC_ex_a035", "md_file": "knowledge_base/domains/RELREC/examples.md", "md_atom_type": "SENTENCE", "md_parent_section": "§RELREC.2.1 [Example 1]", "md_verbatim": "This example illustrates RELREC records used to represent the relationship between records in 2 datasets that have a one-to-many relationship. Note that because this is a dataset-to-dataset relationship, USUBJID and IDVARVAL are null.", "score": 0.628, "match_basis": "verbatim_token+domain_route:RELREC"}, {"md_atom_id": "md_dmRELREC_ex_a025", "md_file": "knowledge_base/domains/RELREC/examples.md", "md_atom_type": "SENTENCE", "md_parent_section": "§RELREC.1.3 [Example 3]", "md_verbatim": "Example 3 is the same scenario as Example 2. However, the sponsor grouped the 2 concomitant medications in the CM domain using CMGRPID = \"COMBO 1\", allowing the relationship among these 5 records to be represented with 4, rather than 5, records in the RELREC dataset.", "score": 0.5173, "match_basis": "verbatim_token+domain_route:RELREC"}, {"md_atom_id": "md_dmRELREC_ex_a032", "md_file": "knowledge_base/domains/RELREC/examples.md", "md_atom_type": "SENTENCE", "md_parent_section": "§RELREC.1.3 [Example 3]", "md_verbatim": "Additional examples may be found in the domain examples such as Section 6.2.4, Disposition, Example 4, and all of the Pharmacokinetics examples in Section 6.3.5.9.3, Relating PP Records to PC Records.", "score": 0.5091, "match_basis": "verbatim_token+domain_route:RELREC"}, {"md_atom_id": "md_dmRELREC_assn_a003", "md_file": "knowledge_base/domains/RELREC/assumptions.md", "md_atom_type": "SENTENCE", "md_parent_section": "§RELREC [RELREC — Assumptions]", "md_verbatim": "A relationship is defined by adding a record to RELREC for each record to be related and by assigning a unique character identifier value for the relationship. Each record in the RELREC special-purpose dataset contains keys that identify a record (or group of records) and the relationship identifier, which is stored in the RELID variable. The value of RELID is chosen by the sponsor, but must be identical for all related records within USUBJID. It is recommended that the sponsor use a standard system or naming convention for RELID (e.g., all letters, all numbers, capitalized).", "score": 0.5037, "match_basis": "verbatim_token+domain_route:RELREC"}], "candidate_count": 5, "zero_candidate": false}
{"pdf_atom_id": "ig34_p0430_a004", "pdf_atom_type": "SENTENCE", "pdf_source": "SDTMIG_v3.4", "pdf_page": 430, "pdf_parent_section": "§8.2.2 RELREC Dataset Examples", "pdf_verbatim": "This example represents a situation in which a single adverse event is part of 2 collected relationships, one with 2 concomitant medications and the other with 2 laboratory findings, but there is no collected relationship between the 2 laboratory findings and the 2 concomitant medications.", "figure_ref": null, "candidates": [{"md_atom_id": "md_dmRELREC_ex_a004", "md_file": "knowledge_base/domains/RELREC/examples.md", "md_atom_type": "SENTENCE", "md_parent_section": "§RELREC.1.1 [Example 1]", "md_verbatim": "This example illustrates the use of the RELREC dataset to relate records stored in separate domains for USUBJID = \"123456\". This example represents a situation in which a single adverse event is part of 2 collected relationships, one with 2 concomitant medications and the other with 2 laboratory findings, but there is no collected relationship between the 2 laboratory findings and the 2 concomitant medications.", "score": 0.8147, "match_basis": "verbatim_token+domain_route:RELREC"}, {"md_atom_id": "md_dmRELREC_ex_a016", "md_file": "knowledge_base/domains/RELREC/examples.md", "md_atom_type": "SENTENCE", "md_parent_section": "§RELREC.1.2 [Example 2]", "md_verbatim": "Example 2 is the same scenario as Example 1. In this case, however, the way the data were collected indicated that the concomitant medications and laboratory findings were all in a single relationship to each other and the adverse event.", "score": 0.7487, "match_basis": "verbatim_token+domain_route:RELREC"}, {"md_atom_id": "md_dmRELREC_ex_a005", "md_file": "knowledge_base/domains/RELREC/examples.md", "md_atom_type": "SENTENCE", "md_parent_section": "§RELREC.1.1 [Example 1]", "md_verbatim": "**Rows 1-3:** Show the representation of a relationship between an AE record and 2 concomitant medication records.", "score": 0.6171, "match_basis": "verbatim_token+domain_route:RELREC"}, {"md_atom_id": "md_dmRELREC_ex_a006", "md_file": "knowledge_base/domains/RELREC/examples.md", "md_atom_type": "SENTENCE", "md_parent_section": "§RELREC.1.1 [Example 1]", "md_verbatim": "**Rows 4-6:** Show the representation of a relationship between the same AE record and 2 laboratory findings records.", "score": 0.6131, "match_basis": "verbatim_token+domain_route:RELREC"}, {"md_atom_id": "md_dmRELREC_ex_a025", "md_file": "knowledge_base/domains/RELREC/examples.md", "md_atom_type": "SENTENCE", "md_parent_section": "§RELREC.1.3 [Example 3]", "md_verbatim": "Example 3 is the same scenario as Example 2. However, the sponsor grouped the 2 concomitant medications in the CM domain using CMGRPID = \"COMBO 1\", allowing the relationship among these 5 records to be represented with 4, rather than 5, records in the RELREC dataset.", "score": 0.5828, "match_basis": "verbatim_token+domain_route:RELREC"}], "candidate_count": 5, "zero_candidate": false}
{"pdf_atom_id": "ig34_p0430_a005", "pdf_atom_type": "LIST_ITEM", "pdf_source": "SDTMIG_v3.4", "pdf_page": 430, "pdf_parent_section": "§8.2.2 RELREC Dataset Examples", "pdf_verbatim": "Rows 1-3: Show the representation of a relationship between an AE record and 2 concomitant medication records.", "figure_ref": null, "candidates": [{"md_atom_id": "md_dmRELREC_ex_a005", "md_file": "knowledge_base/domains/RELREC/examples.md", "md_atom_type": "SENTENCE", "md_parent_section": "§RELREC.1.1 [Example 1]", "md_verbatim": "**Rows 1-3:** Show the representation of a relationship between an AE record and 2 concomitant medication records.", "score": 0.91, "match_basis": "verbatim_token+domain_route:RELREC"}, {"md_atom_id": "md_dmRELREC_ex_a006", "md_file": "knowledge_base/domains/RELREC/examples.md", "md_atom_type": "SENTENCE", "md_parent_section": "§RELREC.1.1 [Example 1]", "md_verbatim": "**Rows 4-6:** Show the representation of a relationship between the same AE record and 2 laboratory findings records.", "score": 0.6331, "match_basis": "verbatim_token+domain_route:RELREC"}, {"md_atom_id": "md_dmRELREC_assn_a007", "md_file": "knowledge_base/domains/RELREC/assumptions.md", "md_atom_type": "LIST_ITEM", "md_parent_section": "§RELREC [RELREC — Assumptions]", "md_verbatim": "- explicit relationships, such as concomitant medications taken as a result of an adverse event; or", "score": 0.6197, "match_basis": "verbatim_token+domain_route:RELREC"}, {"md_atom_id": "md_dmRELREC_assn_a017", "md_file": "knowledge_base/domains/RELREC/assumptions.md", "md_atom_type": "LIST_ITEM", "md_parent_section": "§RELREC [RELREC — Assumptions]", "md_verbatim": "1. **ONE and ONE.** This combination indicates that there is **NO** hierarchical relationship between the datasets and the records in the datasets. Only 1 record from each dataset will potentially have the same value of the IDVAR within USUBJID.", "score": 0.5421, "match_basis": "verbatim_token+domain_route:RELREC"}, {"md_atom_id": "md_dmRELREC_assn_a019", "md_file": "knowledge_base/domains/RELREC/assumptions.md", "md_atom_type": "LIST_ITEM", "md_parent_section": "§RELREC [RELREC — Assumptions]", "md_verbatim": "3. **MANY and MANY.** This combination is unusual and challenging to manage in a merge/join, and may represent a relationship that was never intended to convey a usable merge/join, such as described in Section 6.3.5.9.3, Relating PP Records to PC Records.", "score": 0.5327, "match_basis": "verbatim_token+domain_route:RELREC"}], "candidate_count": 5, "zero_candidate": false}
{"pdf_atom_id": "ig34_p0430_a006", "pdf_atom_type": "LIST_ITEM", "pdf_source": "SDTMIG_v3.4", "pdf_page": 430, "pdf_parent_section": "§8.2.2 RELREC Dataset Examples", "pdf_verbatim": "Rows 4-6: Show the representation of a relationship between the same AE record and 2 laboratory findings records.", "figure_ref": null, "candidates": [{"md_atom_id": "md_dmRELREC_ex_a006", "md_file": "knowledge_base/domains/RELREC/examples.md", "md_atom_type": "SENTENCE", "md_parent_section": "§RELREC.1.1 [Example 1]", "md_verbatim": "**Rows 4-6:** Show the representation of a relationship between the same AE record and 2 laboratory findings records.", "score": 0.91, "match_basis": "verbatim_token+domain_route:RELREC"}, {"md_atom_id": "md_dmRELREC_ex_a005", "md_file": "knowledge_base/domains/RELREC/examples.md", "md_atom_type": "SENTENCE", "md_parent_section": "§RELREC.1.1 [Example 1]", "md_verbatim": "**Rows 1-3:** Show the representation of a relationship between an AE record and 2 concomitant medication records.", "score": 0.6331, "match_basis": "verbatim_token+domain_route:RELREC"}, {"md_atom_id": "md_dmRELREC_assn_a017", "md_file": "knowledge_base/domains/RELREC/assumptions.md", "md_atom_type": "LIST_ITEM", "md_parent_section": "§RELREC [RELREC — Assumptions]", "md_verbatim": "1. **ONE and ONE.** This combination indicates that there is **NO** hierarchical relationship between the datasets and the records in the datasets. Only 1 record from each dataset will potentially have the same value of the IDVAR within USUBJID.", "score": 0.5397, "match_basis": "verbatim_token+domain_route:RELREC"}, {"md_atom_id": "md_dmRELREC_assn_a018", "md_file": "knowledge_base/domains/RELREC/assumptions.md", "md_atom_type": "LIST_ITEM", "md_parent_section": "§RELREC [RELREC — Assumptions]", "md_verbatim": "2. **ONE and MANY.** This combination indicates that there **IS** a hierarchical (parent-child) relationship between the datasets. One record within USUBJID in the dataset identified by RELTYPE = \"ONE\" will potentially have the same value of the IDVAR with many (1 or more) records in the dataset identified by RELTYPE = \"MANY\".", "score": 0.5256, "match_basis": "verbatim_token+domain_route:RELREC"}, {"md_atom_id": "md_dmRELREC_assn_a019", "md_file": "knowledge_base/domains/RELREC/assumptions.md", "md_atom_type": "LIST_ITEM", "md_parent_section": "§RELREC [RELREC — Assumptions]", "md_verbatim": "3. **MANY and MANY.** This combination is unusual and challenging to manage in a merge/join, and may represent a relationship that was never intended to convey a usable merge/join, such as described in Section 6.3.5.9.3, Relating PP Records to PC Records.", "score": 0.5241, "match_basis": "verbatim_token+domain_route:RELREC"}], "candidate_count": 5, "zero_candidate": false}
{"pdf_atom_id": "ig34_p0430_a007", "pdf_atom_type": "CODE_LITERAL", "pdf_source": "SDTMIG_v3.4", "pdf_page": 430, "pdf_parent_section": "§8.2.2 RELREC Dataset Examples", "pdf_verbatim": "relrec.xpt", "figure_ref": null, "candidates": [{"md_atom_id": "md_dmRELREC_ex_a007", "md_file": "knowledge_base/domains/RELREC/examples.md", "md_atom_type": "SENTENCE", "md_parent_section": "§RELREC.1.1 [Example 1]", "md_verbatim": "**relrec.xpt**", "score": 0.79, "match_basis": "verbatim_token+domain_route:RELREC"}, {"md_atom_id": "md_dmRELREC_ex_a017", "md_file": "knowledge_base/domains/RELREC/examples.md", "md_atom_type": "SENTENCE", "md_parent_section": "§RELREC.1.2 [Example 2]", "md_verbatim": "**relrec.xpt**", "score": 0.79, "match_basis": "verbatim_token+domain_route:RELREC"}, {"md_atom_id": "md_dmRELREC_ex_a026", "md_file": "knowledge_base/domains/RELREC/examples.md", "md_atom_type": "SENTENCE", "md_parent_section": "§RELREC.1.3 [Example 3]", "md_verbatim": "**relrec.xpt**", "score": 0.79, "match_basis": "verbatim_token+domain_route:RELREC"}, {"md_atom_id": "md_dmRELREC_ex_a036", "md_file": "knowledge_base/domains/RELREC/examples.md", "md_atom_type": "SENTENCE", "md_parent_section": "§RELREC.2.1 [Example 1]", "md_verbatim": "**relrec.xpt**", "score": 0.79, "match_basis": "verbatim_token+domain_route:RELREC"}, {"md_atom_id": "md_dmRELREC_ex_a001", "md_file": "knowledge_base/domains/RELREC/examples.md", "md_atom_type": "HEADING", "md_parent_section": "§RELREC [RELREC — Examples]", "md_verbatim": "# RELREC — Examples", "score": 0.4082, "match_basis": "verbatim_token+domain_route:RELREC"}, {"md_atom_id": "md_dmRELREC_assn_a001", "md_file": "knowledge_base/domains/RELREC/assumptions.md", "md_atom_type": "HEADING", "md_parent_section": "§RELREC [RELREC — Assumptions]", "md_verbatim": "# RELREC — Assumptions", "score": 0.3614, "match_basis": "verbatim_token+domain_route:RELREC"}, {"md_atom_id": "md_dmRELREC_assn_a006", "md_file": "knowledge_base/domains/RELREC/assumptions.md", "md_atom_type": "SENTENCE", "md_parent_section": "§RELREC [RELREC — Assumptions]", "md_verbatim": "The RELREC dataset should be used to represent either:", "score": 0.2789, "match_basis": "verbatim_token+domain_route:RELREC"}, {"md_atom_id": "md_dmRELREC_assn_a004", "md_file": "knowledge_base/domains/RELREC/assumptions.md", "md_atom_type": "HEADING", "md_parent_section": "§RELREC [RELREC — Assumptions]", "md_verbatim": "## Relating Peer Records", "score": 0.265, "match_basis": "verbatim_token+domain_route:RELREC"}, {"md_atom_id": "md_dmRELREC_assn_a013", "md_file": "knowledge_base/domains/RELREC/assumptions.md", "md_atom_type": "HEADING", "md_parent_section": "§RELREC [RELREC — Assumptions]", "md_verbatim": "## Relating Datasets", "score": 0.2275, "match_basis": "verbatim_token+domain_route:RELREC"}, {"md_atom_id": "md_dmRELREC_ex_a002", "md_file": "knowledge_base/domains/RELREC/examples.md", "md_atom_type": "HEADING", "md_parent_section": "§RELREC [RELREC — Examples]", "md_verbatim": "## Peer Record Examples", "score": 0.2275, "match_basis": "verbatim_token+domain_route:RELREC"}], "candidate_count": 10, "zero_candidate": false}
