{"pdf_atom_id": "ig34_p0023_a008", "pdf_atom_type": "SENTENCE", "pdf_source": "SDTMIG_v3.4", "pdf_page": 23, "pdf_parent_section": "§4.1.6 [Additional Guidance on Dataset Naming]", "pdf_verbatim": "SDTM datasets are normally named to be consistent with the domain code; for example, the Demographics dataset (DM) is named dm.xpt.", "figure_ref": null, "candidates": [{"md_atom_id": "md_ch04_a042", "md_file": "knowledge_base/chapters/ch04_general_assumptions.md", "md_atom_type": "SENTENCE", "md_parent_section": "§4.1.6 [Additional Guidance on Dataset Naming]", "md_verbatim": "SDTM datasets are normally named to be consistent with the domain code; for example, the Demographics dataset (DM) is named dm.xpt.", "score": 0.9, "match_basis": "verbatim_token+chapter_route:ch04"}, {"md_atom_id": "md_ch04_a181", "md_file": "knowledge_base/chapters/ch04_general_assumptions.md", "md_atom_type": "SENTENCE", "md_parent_section": "§4.2.1 [Variable-Naming Conventions]", "md_verbatim": "Use of variable names (other than domain prefixes), formats, decodes, terminology, and data types for the same type of data (even for custom domains and Supplemental Qualifiers) should be consistent within and across studies within a submission.", "score": 0.4111, "match_basis": "verbatim_token+chapter_route:ch04"}, {"md_atom_id": "md_ch04_a475", "md_file": "knowledge_base/chapters/ch04_general_assumptions.md", "md_atom_type": "SENTENCE", "md_parent_section": "§4.4 [Actual and Relative Time Assumptions]", "md_verbatim": "Timing variables (SDTM Section 3.1.5, Timing Variables for All Classes) are an essential component of all SDTM subject-level domain datasets.", "score": 0.4055, "match_basis": "verbatim_token+chapter_route:ch04"}, {"md_atom_id": "md_ch04_a050", "md_file": "knowledge_base/chapters/ch04_general_assumptions.md", "md_atom_type": "SENTENCE", "md_parent_section": "§4.1.7 [Splitting Domains]", "md_verbatim": "Sponsors may choose to split a domain of topically related information into physically separate datasets.", "score": 0.4043, "match_basis": "verbatim_token+chapter_route:ch04"}, {"md_atom_id": "md_ch04_a981", "md_file": "knowledge_base/chapters/ch04_general_assumptions.md", "md_atom_type": "SENTENCE", "md_parent_section": "§4.5.6 [Supplemental Reason Variables]", "md_verbatim": "If the sponsor collects a reason for performing an activity represented in an Events domain where the topic is not a medical condition, or a reason for an intervention other than a medical indication, the reason can be represented in the SUPP-- dataset (as described in Section 8.4.1, Supplemental Qualifiers -- SUPP-- Datasets) using the supplemental qualifier with QNAM of \"--REAS\" listed in Appendix C1, Supplemental Qualifiers Name Codes.", "score": 0.4033, "match_basis": "verbatim_token+chapter_route:ch04"}], "candidate_count": 5, "zero_candidate": false}
{"pdf_atom_id": "ig34_p0023_a009", "pdf_atom_type": "CODE_LITERAL", "pdf_source": "SDTMIG_v3.4", "pdf_page": 23, "pdf_parent_section": "§4.1.6 [Additional Guidance on Dataset Naming]", "pdf_verbatim": "dm.xpt", "figure_ref": null, "candidates": [{"md_atom_id": "md_ch04_a207", "md_file": "knowledge_base/chapters/ch04_general_assumptions.md", "md_atom_type": "CODE_LITERAL", "md_parent_section": "§4.2.3 [Use of \"Subject\" and USUBJID]", "md_verbatim": "dm.xpt:", "score": 0.69, "match_basis": "verbatim_token+chapter_route:ch04"}, {"md_atom_id": "md_ch04_a210", "md_file": "knowledge_base/chapters/ch04_general_assumptions.md", "md_atom_type": "CODE_LITERAL", "md_parent_section": "§4.2.3 [Use of \"Subject\" and USUBJID]", "md_verbatim": "dm.xpt:", "score": 0.69, "match_basis": "verbatim_token+chapter_route:ch04"}, {"md_atom_id": "md_ch04_a368", "md_file": "knowledge_base/chapters/ch04_general_assumptions.md", "md_atom_type": "CODE_LITERAL", "md_parent_section": "§4.2.8.3 [Multiple Values for a Non-result Qualifier Variable]", "md_verbatim": "ae.xpt:", "score": 0.69, "match_basis": "verbatim_token+chapter_route:ch04"}, {"md_atom_id": "md_ch04_a378", "md_file": "knowledge_base/chapters/ch04_general_assumptions.md", "md_atom_type": "CODE_LITERAL", "md_parent_section": "§4.2.8.3 [Multiple Values for a Non-result Qualifier Variable]", "md_verbatim": "ae.xpt:", "score": 0.69, "match_basis": "verbatim_token+chapter_route:ch04"}, {"md_atom_id": "md_ch04_a391", "md_file": "knowledge_base/chapters/ch04_general_assumptions.md", "md_atom_type": "CODE_LITERAL", "md_parent_section": "§4.2.8.3 [Multiple Values for a Non-result Qualifier Variable]", "md_verbatim": "ae.xpt:", "score": 0.69, "match_basis": "verbatim_token+chapter_route:ch04"}, {"md_atom_id": "md_ch04_a835", "md_file": "knowledge_base/chapters/ch04_general_assumptions.md", "md_atom_type": "CODE_LITERAL", "md_parent_section": "§4.5.1.3 [Examples of Original and Standard Units and Test Not Done]", "md_verbatim": "lb.xpt", "score": 0.69, "match_basis": "verbatim_token+chapter_route:ch04"}, {"md_atom_id": "md_ch04_a861", "md_file": "knowledge_base/chapters/ch04_general_assumptions.md", "md_atom_type": "CODE_LITERAL", "md_parent_section": "§4.5.1.3 [Examples of Original and Standard Units and Test Not Done]", "md_verbatim": "eg.xpt", "score": 0.69, "match_basis": "verbatim_token+chapter_route:ch04"}, {"md_atom_id": "md_ch04_a877", "md_file": "knowledge_base/chapters/ch04_general_assumptions.md", "md_atom_type": "CODE_LITERAL", "md_parent_section": "§4.5.1.3 [Examples of Original and Standard Units and Test Not Done]", "md_verbatim": "vs.xpt", "score": 0.69, "match_basis": "verbatim_token+chapter_route:ch04"}, {"md_atom_id": "md_ch04_a917", "md_file": "knowledge_base/chapters/ch04_general_assumptions.md", "md_atom_type": "CODE_LITERAL", "md_parent_section": "§4.5.3.2 [Text Strings Greater than 200 Characters in Other Variables]", "md_verbatim": "mh.xpt", "score": 0.69, "match_basis": "verbatim_token+chapter_route:ch04"}, {"md_atom_id": "md_ch04_a919", "md_file": "knowledge_base/chapters/ch04_general_assumptions.md", "md_atom_type": "SENTENCE", "md_parent_section": "§4.5.3.2 [Text Strings Greater than 200 Characters in Other Variables]", "md_verbatim": "mh.xpt:", "score": 0.69, "match_basis": "verbatim_token+chapter_route:ch04"}], "candidate_count": 10, "zero_candidate": false}
{"pdf_atom_id": "ig34_p0023_a010", "pdf_atom_type": "SENTENCE", "pdf_source": "SDTMIG_v3.4", "pdf_page": 23, "pdf_parent_section": "§4.1.6 [Additional Guidance on Dataset Naming]", "pdf_verbatim": "(See the SDTM Domain Abbreviation codelist, C66734, in CDISC Controlled Terminology (https://www.cancer.gov/research/resources/terminology/cdisc) for standard domain codes).", "figure_ref": null, "candidates": [{"md_atom_id": "md_ch04_a043", "md_file": "knowledge_base/chapters/ch04_general_assumptions.md", "md_atom_type": "SENTENCE", "md_parent_section": "§4.1.6 [Additional Guidance on Dataset Naming]", "md_verbatim": "(See the SDTM Domain Abbreviation codelist, C66734, in CDISC Controlled Terminology at https://www.cancer.gov/research/resources/terminology/cdisc for standard domain codes.)", "score": 0.9, "match_basis": "verbatim_token+chapter_route:ch04"}, {"md_atom_id": "md_ch04_a427", "md_file": "knowledge_base/chapters/ch04_general_assumptions.md", "md_atom_type": "SENTENCE", "md_parent_section": "§4.3.2 [Controlled Terminology Text Case]", "md_verbatim": "Terms from controlled terminology should be in the case that appears in the source codelist or code system (e.g., CDISC codelist or external code system such as MedDRA).", "score": 0.4794, "match_basis": "verbatim_token+chapter_route:ch04"}, {"md_atom_id": "md_ch04_a995", "md_file": "knowledge_base/chapters/ch04_general_assumptions.md", "md_atom_type": "SENTENCE", "md_parent_section": "§4.5.7 [Presence or Absence of Prespecified Interventions and Events]", "md_verbatim": "It has controlled terminology of \"Y\" and \"N\" (for \"Yes\" and \"No\").", "score": 0.4443, "match_basis": "verbatim_token+chapter_route:ch04"}, {"md_atom_id": "md_ch04_a005", "md_file": "knowledge_base/chapters/ch04_general_assumptions.md", "md_atom_type": "SENTENCE", "md_parent_section": "§4.0 [Overview]", "md_verbatim": "It covers general domain assumptions, general variable assumptions, coding and controlled terminology assumptions, actual and relative time assumptions, and other assumptions.", "score": 0.4409, "match_basis": "verbatim_token+chapter_route:ch04"}, {"md_atom_id": "md_ch04_a365", "md_file": "knowledge_base/chapters/ch04_general_assumptions.md", "md_atom_type": "SENTENCE", "md_parent_section": "§4.2.8.3 [Multiple Values for a Non-result Qualifier Variable]", "md_verbatim": "The values stored in QVAL should be consistent with the controlled terminology associated with the standard variable.", "score": 0.4405, "match_basis": "verbatim_token+chapter_route:ch04"}], "candidate_count": 5, "zero_candidate": false}
{"pdf_atom_id": "ig34_p0023_a011", "pdf_atom_type": "CODE_LITERAL", "pdf_source": "SDTMIG_v3.4", "pdf_page": 23, "pdf_parent_section": "§4.1.6 [Additional Guidance on Dataset Naming]", "pdf_verbatim": "C66734", "figure_ref": null, "candidates": [{"md_atom_id": "md_ch04_a043", "md_file": "knowledge_base/chapters/ch04_general_assumptions.md", "md_atom_type": "SENTENCE", "md_parent_section": "§4.1.6 [Additional Guidance on Dataset Naming]", "md_verbatim": "(See the SDTM Domain Abbreviation codelist, C66734, in CDISC Controlled Terminology at https://www.cancer.gov/research/resources/terminology/cdisc for standard domain codes.)", "score": 0.1212, "match_basis": "verbatim_token+chapter_route:ch04"}, {"md_atom_id": "md_ch04_a001", "md_file": "knowledge_base/chapters/ch04_general_assumptions.md", "md_atom_type": "HEADING", "md_parent_section": "§4 [Assumptions for Domain Models]", "md_verbatim": "# SDTMIG v3.4 — Chapter 4: Assumptions for Domain Models", "score": 0.09, "match_basis": "verbatim_token+chapter_route:ch04"}, {"md_atom_id": "md_ch04_a002", "md_file": "knowledge_base/chapters/ch04_general_assumptions.md", "md_atom_type": "SENTENCE", "md_parent_section": "§4 [Assumptions for Domain Models]", "md_verbatim": "Source: SDTMIG v3.4, Section 4 (Pages 22-59)", "score": 0.09, "match_basis": "verbatim_token+chapter_route:ch04"}, {"md_atom_id": "md_ch04_a003", "md_file": "knowledge_base/chapters/ch04_general_assumptions.md", "md_atom_type": "HEADING", "md_parent_section": "§4 [Assumptions for Domain Models]", "md_verbatim": "## Overview", "score": 0.09, "match_basis": "verbatim_token+chapter_route:ch04"}, {"md_atom_id": "md_ch04_a004", "md_file": "knowledge_base/chapters/ch04_general_assumptions.md", "md_atom_type": "SENTENCE", "md_parent_section": "§4.0 [Overview]", "md_verbatim": "This section describes basic concepts, business rules, and assumptions that should be taken into consideration before applying the domain models.", "score": 0.09, "match_basis": "verbatim_token+chapter_route:ch04"}, {"md_atom_id": "md_ch04_a005", "md_file": "knowledge_base/chapters/ch04_general_assumptions.md", "md_atom_type": "SENTENCE", "md_parent_section": "§4.0 [Overview]", "md_verbatim": "It covers general domain assumptions, general variable assumptions, coding and controlled terminology assumptions, actual and relative time assumptions, and other assumptions.", "score": 0.09, "match_basis": "verbatim_token+chapter_route:ch04"}, {"md_atom_id": "md_ch04_a006", "md_file": "knowledge_base/chapters/ch04_general_assumptions.md", "md_atom_type": "HEADING", "md_parent_section": "§4 [Assumptions for Domain Models]", "md_verbatim": "## 4.1 General Domain Assumptions", "score": 0.09, "match_basis": "verbatim_token+chapter_route:ch04"}, {"md_atom_id": "md_ch04_a007", "md_file": "knowledge_base/chapters/ch04_general_assumptions.md", "md_atom_type": "HEADING", "md_parent_section": "§4.1 [General Domain Assumptions]", "md_verbatim": "### 4.1.1 Review Study Data Tabulation Model and Implementation Guide", "score": 0.09, "match_basis": "verbatim_token+chapter_route:ch04"}, {"md_atom_id": "md_ch04_a008", "md_file": "knowledge_base/chapters/ch04_general_assumptions.md", "md_atom_type": "SENTENCE", "md_parent_section": "§4.1.1 [Review Study Data Tabulation Model and Implementation Guide]", "md_verbatim": "Review the SDTM as well as this complete implementation guide before attempting to use any of the individual domain models.", "score": 0.09, "match_basis": "verbatim_token+chapter_route:ch04"}, {"md_atom_id": "md_ch04_a009", "md_file": "knowledge_base/chapters/ch04_general_assumptions.md", "md_atom_type": "SENTENCE", "md_parent_section": "§4.1.1 [Review Study Data Tabulation Model and Implementation Guide]", "md_verbatim": "The SDTM describes the general conceptual framework, including the general observation classes (Interventions, Events, Findings), special-purpose domains, trial design model datasets, relationship datasets, and study references.", "score": 0.09, "match_basis": "verbatim_token+chapter_route:ch04"}], "candidate_count": 10, "zero_candidate": false}
{"pdf_atom_id": "ig34_p0023_a012", "pdf_atom_type": "SENTENCE", "pdf_source": "SDTMIG_v3.4", "pdf_page": 23, "pdf_parent_section": "§4.1.6 [Additional Guidance on Dataset Naming]", "pdf_verbatim": "Exceptions to this rule are described in Section 4.1.7, Splitting Domains, for general observation class datasets and in Section 8, Representing Relationships and Data, for RELREC and SUPP-- datasets.", "figure_ref": null, "candidates": [{"md_atom_id": "md_ch04_a044", "md_file": "knowledge_base/chapters/ch04_general_assumptions.md", "md_atom_type": "SENTENCE", "md_parent_section": "§4.1.6 [Additional Guidance on Dataset Naming]", "md_verbatim": "Exceptions to this rule are described in Section 4.1.7, Splitting Domains, for general observation class datasets and in Section 8, Representing Relationships and Data, for RELREC and SUPP-- datasets.", "score": 0.9, "match_basis": "verbatim_token+chapter_route:ch04"}, {"md_atom_id": "md_ch04_a015", "md_file": "knowledge_base/chapters/ch04_general_assumptions.md", "md_atom_type": "SENTENCE", "md_parent_section": "§4.1.3 [Additional Timing Variables]", "md_verbatim": "Timing variables cannot be added to SUPPQUAL datasets or to RELREC (described in Section 8, Representing Relationships and Data).", "score": 0.5606, "match_basis": "verbatim_token+chapter_route:ch04"}, {"md_atom_id": "md_ch04_a009", "md_file": "knowledge_base/chapters/ch04_general_assumptions.md", "md_atom_type": "SENTENCE", "md_parent_section": "§4.1.1 [Review Study Data Tabulation Model and Implementation Guide]", "md_verbatim": "The SDTM describes the general conceptual framework, including the general observation classes (Interventions, Events, Findings), special-purpose domains, trial design model datasets, relationship datasets, and study references.", "score": 0.4986, "match_basis": "verbatim_token+chapter_route:ch04"}, {"md_atom_id": "md_ch04_a607", "md_file": "knowledge_base/chapters/ch04_general_assumptions.md", "md_atom_type": "SENTENCE", "md_parent_section": "§4.4.5 [Clinical Encounters and Visits]", "md_verbatim": "For domains in the Events or Interventions observation classes, this could be the start date of the event or intervention.", "score": 0.4516, "match_basis": "verbatim_token+chapter_route:ch04"}, {"md_atom_id": "md_ch04_a1007", "md_file": "knowledge_base/chapters/ch04_general_assumptions.md", "md_atom_type": "SENTENCE", "md_parent_section": "§4.5.7 [Presence or Absence of Prespecified Interventions and Events]", "md_verbatim": "Refer to the standard domains in the Events and Interventions general observation classes for additional assumptions and examples.", "score": 0.45, "match_basis": "verbatim_token+chapter_route:ch04"}], "candidate_count": 5, "zero_candidate": false}
{"pdf_atom_id": "ig34_p0023_a013", "pdf_atom_type": "SENTENCE", "pdf_source": "SDTMIG_v3.4", "pdf_page": 23, "pdf_parent_section": "§4.1.6 [Additional Guidance on Dataset Naming]", "pdf_verbatim": "In some cases, sponsors may need to define new custom domains and may be concerned that CDISC domain codes defined in the future will conflict with those they choose to use.", "figure_ref": null, "candidates": [{"md_atom_id": "md_ch04_a045", "md_file": "knowledge_base/chapters/ch04_general_assumptions.md", "md_atom_type": "SENTENCE", "md_parent_section": "§4.1.6 [Additional Guidance on Dataset Naming]", "md_verbatim": "In some cases, sponsors may need to define new custom domains and may be concerned that CDISC domain codes defined in the future will conflict with those they choose to use.", "score": 0.9, "match_basis": "verbatim_token+chapter_route:ch04"}, {"md_atom_id": "md_ch04_a046", "md_file": "knowledge_base/chapters/ch04_general_assumptions.md", "md_atom_type": "SENTENCE", "md_parent_section": "§4.1.6 [Additional Guidance on Dataset Naming]", "md_verbatim": "To eliminate any risk of a sponsor using a name that CDISC later determines to have a different meaning, domain codes beginning with the letters X, Y, and Z have been reserved for the creation of custom domains.", "score": 0.4296, "match_basis": "verbatim_token+chapter_route:ch04"}, {"md_atom_id": "md_ch04_a140", "md_file": "knowledge_base/chapters/ch04_general_assumptions.md", "md_atom_type": "SENTENCE", "md_parent_section": "§4.1.9 [Assigning Natural Keys in the Metadata]", "md_verbatim": "Sponsor A chooses the following natural key for the MK domain:", "score": 0.4215, "match_basis": "verbatim_token+chapter_route:ch04"}, {"md_atom_id": "md_ch04_a048", "md_file": "knowledge_base/chapters/ch04_general_assumptions.md", "md_atom_type": "SENTENCE", "md_parent_section": "§4.1.6 [Additional Guidance on Dataset Naming]", "md_verbatim": "Note the use of codes beginning with X, Y, or Z is optional, and not required for custom domains.", "score": 0.4159, "match_basis": "verbatim_token+chapter_route:ch04"}, {"md_atom_id": "md_ch04_a143", "md_file": "knowledge_base/chapters/ch04_general_assumptions.md", "md_atom_type": "SENTENCE", "md_parent_section": "§4.1.9 [Assigning Natural Keys in the Metadata]", "md_verbatim": "Sponsor B then defines the following natural key for the MK domain:", "score": 0.4111, "match_basis": "verbatim_token+chapter_route:ch04"}], "candidate_count": 5, "zero_candidate": false}
{"pdf_atom_id": "ig34_p0023_a014", "pdf_atom_type": "SENTENCE", "pdf_source": "SDTMIG_v3.4", "pdf_page": 23, "pdf_parent_section": "§4.1.6 [Additional Guidance on Dataset Naming]", "pdf_verbatim": "To eliminate any risk of a sponsor using a name that CDISC later determines to have a different meaning, domain codes beginning with the letters X, Y, and Z have been reserved for the creation of custom domains.", "figure_ref": null, "candidates": [{"md_atom_id": "md_ch04_a046", "md_file": "knowledge_base/chapters/ch04_general_assumptions.md", "md_atom_type": "SENTENCE", "md_parent_section": "§4.1.6 [Additional Guidance on Dataset Naming]", "md_verbatim": "To eliminate any risk of a sponsor using a name that CDISC later determines to have a different meaning, domain codes beginning with the letters X, Y, and Z have been reserved for the creation of custom domains.", "score": 0.9, "match_basis": "verbatim_token+chapter_route:ch04"}, {"md_atom_id": "md_ch04_a048", "md_file": "knowledge_base/chapters/ch04_general_assumptions.md", "md_atom_type": "SENTENCE", "md_parent_section": "§4.1.6 [Additional Guidance on Dataset Naming]", "md_verbatim": "Note the use of codes beginning with X, Y, or Z is optional, and not required for custom domains.", "score": 0.4576, "match_basis": "verbatim_token+chapter_route:ch04"}, {"md_atom_id": "md_ch04_a045", "md_file": "knowledge_base/chapters/ch04_general_assumptions.md", "md_atom_type": "SENTENCE", "md_parent_section": "§4.1.6 [Additional Guidance on Dataset Naming]", "md_verbatim": "In some cases, sponsors may need to define new custom domains and may be concerned that CDISC domain codes defined in the future will conflict with those they choose to use.", "score": 0.4296, "match_basis": "verbatim_token+chapter_route:ch04"}, {"md_atom_id": "md_ch04_a981", "md_file": "knowledge_base/chapters/ch04_general_assumptions.md", "md_atom_type": "SENTENCE", "md_parent_section": "§4.5.6 [Supplemental Reason Variables]", "md_verbatim": "If the sponsor collects a reason for performing an activity represented in an Events domain where the topic is not a medical condition, or a reason for an intervention other than a medical indication, the reason can be represented in the SUPP-- dataset (as described in Section 8.4.1, Supplemental Qualifiers -- SUPP-- Datasets) using the supplemental qualifier with QNAM of \"--REAS\" listed in Appendix C1, Supplemental Qualifiers Name Codes.", "score": 0.4234, "match_basis": "verbatim_token+chapter_route:ch04"}, {"md_atom_id": "md_ch04_a150", "md_file": "knowledge_base/chapters/ch04_general_assumptions.md", "md_atom_type": "SENTENCE", "md_parent_section": "§4.1.9 [Assigning Natural Keys in the Metadata]", "md_verbatim": "In this example, sponsor B might have collected data that used different imaging methods, using imaging devices with different makes and models, and using different hand positions.", "score": 0.4191, "match_basis": "verbatim_token+chapter_route:ch04"}], "candidate_count": 5, "zero_candidate": false}
{"pdf_atom_id": "ig34_p0023_a015", "pdf_atom_type": "SENTENCE", "pdf_source": "SDTMIG_v3.4", "pdf_page": 23, "pdf_parent_section": "§4.1.6 [Additional Guidance on Dataset Naming]", "pdf_verbatim": "Any letter or number may be used in the second position. Note the use of codes beginning with X, Y, or Z is optional, and not required for custom domains.", "figure_ref": null, "candidates": [{"md_atom_id": "md_ch04_a048", "md_file": "knowledge_base/chapters/ch04_general_assumptions.md", "md_atom_type": "SENTENCE", "md_parent_section": "§4.1.6 [Additional Guidance on Dataset Naming]", "md_verbatim": "Note the use of codes beginning with X, Y, or Z is optional, and not required for custom domains.", "score": 0.7034, "match_basis": "verbatim_token+chapter_route:ch04"}, {"md_atom_id": "md_ch04_a047", "md_file": "knowledge_base/chapters/ch04_general_assumptions.md", "md_atom_type": "SENTENCE", "md_parent_section": "§4.1.6 [Additional Guidance on Dataset Naming]", "md_verbatim": "Any letter or number may be used in the second position.", "score": 0.5379, "match_basis": "verbatim_token+chapter_route:ch04"}, {"md_atom_id": "md_ch04_a046", "md_file": "knowledge_base/chapters/ch04_general_assumptions.md", "md_atom_type": "SENTENCE", "md_parent_section": "§4.1.6 [Additional Guidance on Dataset Naming]", "md_verbatim": "To eliminate any risk of a sponsor using a name that CDISC later determines to have a different meaning, domain codes beginning with the letters X, Y, and Z have been reserved for the creation of custom domains.", "score": 0.4646, "match_basis": "verbatim_token+chapter_route:ch04"}, {"md_atom_id": "md_ch04_a200", "md_file": "knowledge_base/chapters/ch04_general_assumptions.md", "md_atom_type": "SENTENCE", "md_parent_section": "§4.2.2 [Two-character Domain Identifier]", "md_verbatim": "Required identifiers are not prefixed because they are usually used as keys when merging/joining observations. The --SEQ and the optional Identifiers --GRPID and --REFID are prefixed because they may be used as keys when relating observations across domains.", "score": 0.4357, "match_basis": "verbatim_token+chapter_route:ch04"}, {"md_atom_id": "md_ch04_a045", "md_file": "knowledge_base/chapters/ch04_general_assumptions.md", "md_atom_type": "SENTENCE", "md_parent_section": "§4.1.6 [Additional Guidance on Dataset Naming]", "md_verbatim": "In some cases, sponsors may need to define new custom domains and may be concerned that CDISC domain codes defined in the future will conflict with those they choose to use.", "score": 0.4086, "match_basis": "verbatim_token+chapter_route:ch04"}], "candidate_count": 5, "zero_candidate": false}
{"pdf_atom_id": "ig34_p0023_a016", "pdf_atom_type": "HEADING", "pdf_source": "SDTMIG_v3.4", "pdf_page": 23, "pdf_parent_section": "§4.1.7 [Splitting Domains]", "pdf_verbatim": "4.1.7 Splitting Domains", "figure_ref": null, "candidates": [{"md_atom_id": "md_ch04_a049", "md_file": "knowledge_base/chapters/ch04_general_assumptions.md", "md_atom_type": "HEADING", "md_parent_section": "§4.1 [General Domain Assumptions]", "md_verbatim": "### 4.1.7 Splitting Domains", "score": 0.9, "match_basis": "verbatim_token+chapter_route:ch04"}, {"md_atom_id": "md_ch04_a069", "md_file": "knowledge_base/chapters/ch04_general_assumptions.md", "md_atom_type": "HEADING", "md_parent_section": "§4.1.7 [Splitting Domains]", "md_verbatim": "#### 4.1.7.1 Example of Splitting Questionnaires", "score": 0.4448, "match_basis": "verbatim_token+chapter_route:ch04"}, {"md_atom_id": "md_ch04_a257", "md_file": "knowledge_base/chapters/ch04_general_assumptions.md", "md_atom_type": "HEADING", "md_parent_section": "§4.2 [General Variable Assumptions]", "md_verbatim": "### 4.2.7 Submitting Free Text from the CRF", "score": 0.4, "match_basis": "verbatim_token+chapter_route:ch04"}, {"md_atom_id": "md_ch04_a680", "md_file": "knowledge_base/chapters/ch04_general_assumptions.md", "md_atom_type": "HEADING", "md_parent_section": "§4.4 [Use of Timing Variables]", "md_verbatim": "### 4.4.8 Date and Time Reported in a Domain Based on Findings", "score": 0.3968, "match_basis": "verbatim_token+chapter_route:ch04"}, {"md_atom_id": "md_ch04_a006", "md_file": "knowledge_base/chapters/ch04_general_assumptions.md", "md_atom_type": "HEADING", "md_parent_section": "§4 [Assumptions for Domain Models]", "md_verbatim": "## 4.1 General Domain Assumptions", "score": 0.3923, "match_basis": "verbatim_token+chapter_route:ch04"}], "candidate_count": 5, "zero_candidate": false}
{"pdf_atom_id": "ig34_p0023_a017", "pdf_atom_type": "SENTENCE", "pdf_source": "SDTMIG_v3.4", "pdf_page": 23, "pdf_parent_section": "§4.1.7 [Splitting Domains]", "pdf_verbatim": "Sponsors may choose to split a domain of topically related information into physically separate datasets.", "figure_ref": null, "candidates": [{"md_atom_id": "md_ch04_a050", "md_file": "knowledge_base/chapters/ch04_general_assumptions.md", "md_atom_type": "SENTENCE", "md_parent_section": "§4.1.7 [Splitting Domains]", "md_verbatim": "Sponsors may choose to split a domain of topically related information into physically separate datasets.", "score": 0.9, "match_basis": "verbatim_token+chapter_route:ch04"}, {"md_atom_id": "md_ch04_a053", "md_file": "knowledge_base/chapters/ch04_general_assumptions.md", "md_atom_type": "SENTENCE", "md_parent_section": "§4.1.7 [Splitting Domains]", "md_verbatim": "The following rules must be adhered to when splitting a domain into separate datasets to ensure they can be appended back into 1 domain dataset:", "score": 0.4355, "match_basis": "verbatim_token+chapter_route:ch04"}, {"md_atom_id": "md_ch04_a140", "md_file": "knowledge_base/chapters/ch04_general_assumptions.md", "md_atom_type": "SENTENCE", "md_parent_section": "§4.1.9 [Assigning Natural Keys in the Metadata]", "md_verbatim": "Sponsor A chooses the following natural key for the MK domain:", "score": 0.4183, "match_basis": "verbatim_token+chapter_route:ch04"}, {"md_atom_id": "md_ch04_a1012", "md_file": "knowledge_base/chapters/ch04_general_assumptions.md", "md_atom_type": "SENTENCE", "md_parent_section": "§4.5.8 [Accounting for Long-term Follow-up]", "md_verbatim": "Regardless of the method of contact, the information should be stored in the appropriate topic-based domain.", "score": 0.4174, "match_basis": "verbatim_token+chapter_route:ch04"}, {"md_atom_id": "md_ch04_a147", "md_file": "knowledge_base/chapters/ch04_general_assumptions.md", "md_atom_type": "SENTENCE", "md_parent_section": "§4.1.9 [Assigning Natural Keys in the Metadata]", "md_verbatim": "A domain may comprise more than 1 physical dataset (e.g., the main domain dataset and its associated Supplemental Qualifiers dataset).", "score": 0.4161, "match_basis": "verbatim_token+chapter_route:ch04"}], "candidate_count": 5, "zero_candidate": false}
{"pdf_atom_id": "ig34_p0023_a018", "pdf_atom_type": "LIST_ITEM", "pdf_source": "SDTMIG_v3.4", "pdf_page": 23, "pdf_parent_section": "§4.1.7 [Splitting Domains]", "pdf_verbatim": "A domain based on a general observation class may be split according to values in --CAT. When a domain is split on --CAT, --CAT must not be null.", "figure_ref": null, "candidates": [{"md_atom_id": "md_ch04_a051", "md_file": "knowledge_base/chapters/ch04_general_assumptions.md", "md_atom_type": "LIST_ITEM", "md_parent_section": "§4.1.7 [Splitting Domains]", "md_verbatim": "- A domain based on a general observation class may be split according to values in --CAT. When a domain is split on --CAT, --CAT must not be null.", "score": 0.9, "match_basis": "verbatim_token+chapter_route:ch04"}, {"md_atom_id": "md_ch04_a476", "md_file": "knowledge_base/chapters/ch04_general_assumptions.md", "md_atom_type": "SENTENCE", "md_parent_section": "§4.4 [Actual and Relative Time Assumptions]", "md_verbatim": "In general, all domains based on the 3 general observation classes should have at least 1 timing variable.", "score": 0.4243, "match_basis": "verbatim_token+chapter_route:ch04"}, {"md_atom_id": "md_ch04_a606", "md_file": "knowledge_base/chapters/ch04_general_assumptions.md", "md_atom_type": "SENTENCE", "md_parent_section": "§4.4.5 [Clinical Encounters and Visits]", "md_verbatim": "All domains based on the 3 general observation classes should have at least 1 timing variable.", "score": 0.4243, "match_basis": "verbatim_token+chapter_route:ch04"}, {"md_atom_id": "md_ch04_a052", "md_file": "knowledge_base/chapters/ch04_general_assumptions.md", "md_atom_type": "LIST_ITEM", "md_parent_section": "§4.1.7 [Splitting Domains]", "md_verbatim": "- A Findings About (FA) domain (see Section 6.4.4, Findings About Events or Interventions) may alternatively be split based on the domain of the value in --OBJ. For example, FACM would store findings about Concomitant/Prior Medications (CM) records. See Section 6.4.2, Naming Findings About Domains, for more details.", "score": 0.4131, "match_basis": "verbatim_token+chapter_route:ch04"}, {"md_atom_id": "md_ch04_a255", "md_file": "knowledge_base/chapters/ch04_general_assumptions.md", "md_atom_type": "SENTENCE", "md_parent_section": "§4.2.6 [Grouping Variables and Categorization]", "md_verbatim": "In domains based on the Findings general observation class, the --RESCAT variable can be used to categorize results after the fact.", "score": 0.4125, "match_basis": "verbatim_token+chapter_route:ch04"}], "candidate_count": 5, "zero_candidate": false}
{"pdf_atom_id": "ig34_p0023_a019", "pdf_atom_type": "LIST_ITEM", "pdf_source": "SDTMIG_v3.4", "pdf_page": 23, "pdf_parent_section": "§4.1.7 [Splitting Domains]", "pdf_verbatim": "The Findings About (FA) domain (see Section 6.4.4, Findings About Events or Interventions) may alternatively be split based on the domain of the value in --OBJ. For example, FACM would store findings about Concomitant/Prior Medications (CM) records. See Section 6.4.2, Naming Findings About Domains, for more details.", "figure_ref": null, "candidates": [{"md_atom_id": "md_ch04_a052", "md_file": "knowledge_base/chapters/ch04_general_assumptions.md", "md_atom_type": "LIST_ITEM", "md_parent_section": "§4.1.7 [Splitting Domains]", "md_verbatim": "- A Findings About (FA) domain (see Section 6.4.4, Findings About Events or Interventions) may alternatively be split based on the domain of the value in --OBJ. For example, FACM would store findings about Concomitant/Prior Medications (CM) records. See Section 6.4.2, Naming Findings About Domains, for more details.", "score": 0.9, "match_basis": "verbatim_token+chapter_route:ch04"}, {"md_atom_id": "md_ch04_a061", "md_file": "knowledge_base/chapters/ch04_general_assumptions.md", "md_atom_type": "LIST_ITEM", "md_parent_section": "§4.1.7 [Splitting Domains]", "md_verbatim": "8. In RELREC, if a dataset-level relationship is defined for a split Findings About domain, then RDOMAIN may contain the 4-character dataset name, rather than the domain name \"FA\", as shown in the following example.", "score": 0.4543, "match_basis": "verbatim_token+chapter_route:ch04"}, {"md_atom_id": "md_ch04_a1022", "md_file": "knowledge_base/chapters/ch04_general_assumptions.md", "md_atom_type": "LIST_ITEM", "md_parent_section": "§4.5.8 [Accounting for Long-term Follow-up]", "md_verbatim": "1. Concomitant medications reported during the contact should be stored in the CM domain.", "score": 0.4526, "match_basis": "verbatim_token+chapter_route:ch04"}, {"md_atom_id": "md_ch04_a450", "md_file": "knowledge_base/chapters/ch04_general_assumptions.md", "md_atom_type": "LIST_ITEM", "md_parent_section": "§4.3.5 [Storing Controlled Terminology for Synonym Qualifier Variables (MedDRA and WHODrug)]", "md_verbatim": "- For concomitant medications, supplemental qualifiers may be used to represent additional coding dictionary information (e.g., a drug's ATC codes from the WHO Drug Dictionary); see Section 8.4, Relating Non-standard Variable Values to a Parent Domain", "score": 0.4345, "match_basis": "verbatim_token+chapter_route:ch04"}, {"md_atom_id": "md_ch04_a059", "md_file": "knowledge_base/chapters/ch04_general_assumptions.md", "md_atom_type": "LIST_ITEM", "md_parent_section": "§4.1.7 [Splitting Domains]", "md_verbatim": "6. For domains with 2-letter domain codes (i.e., other than SUPPxx and RELREC), split dataset names can be up to 4 characters in length. For example, if splitting by --CAT, dataset names would be the domain name plus up to 2 additional characters (e.g., QS36 for SF-36). If splitting Findings About by parent domain, then the dataset name would be the domain code, \"FA\", plus the 2-character domain code for parent domain code (e.g., \"FACM\"). The 4-character dataset-name limitation allows the use of a Supplemental Qualifier dataset associated with the split dataset.", "score": 0.4319, "match_basis": "verbatim_token+chapter_route:ch04"}], "candidate_count": 5, "zero_candidate": false}
{"pdf_atom_id": "ig34_p0023_a020", "pdf_atom_type": "SENTENCE", "pdf_source": "SDTMIG_v3.4", "pdf_page": 23, "pdf_parent_section": "§4.1.7 [Splitting Domains]", "pdf_verbatim": "The following rules must be adhered to when splitting a domain into separate datasets to ensure they can be appended back into 1 domain dataset:", "figure_ref": null, "candidates": [{"md_atom_id": "md_ch04_a053", "md_file": "knowledge_base/chapters/ch04_general_assumptions.md", "md_atom_type": "SENTENCE", "md_parent_section": "§4.1.7 [Splitting Domains]", "md_verbatim": "The following rules must be adhered to when splitting a domain into separate datasets to ensure they can be appended back into 1 domain dataset:", "score": 0.9, "match_basis": "verbatim_token+chapter_route:ch04"}, {"md_atom_id": "md_ch04_a050", "md_file": "knowledge_base/chapters/ch04_general_assumptions.md", "md_atom_type": "SENTENCE", "md_parent_section": "§4.1.7 [Splitting Domains]", "md_verbatim": "Sponsors may choose to split a domain of topically related information into physically separate datasets.", "score": 0.4355, "match_basis": "verbatim_token+chapter_route:ch04"}, {"md_atom_id": "md_ch04_a1015", "md_file": "knowledge_base/chapters/ch04_general_assumptions.md", "md_atom_type": "SENTENCE", "md_parent_section": "§4.5.8 [Accounting for Long-term Follow-up]", "md_verbatim": "The following example illustrates the recommended SDTM approach to storing these data.", "score": 0.4159, "match_basis": "verbatim_token+chapter_route:ch04"}, {"md_atom_id": "md_ch04_a832", "md_file": "knowledge_base/chapters/ch04_general_assumptions.md", "md_atom_type": "SENTENCE", "md_parent_section": "§4.5.1.3 [Examples of Original and Standard Units and Test Not Done]", "md_verbatim": "The following examples illustrate the use of Findings results variables and are not meant as comprehensive domain examples.", "score": 0.408, "match_basis": "verbatim_token+chapter_route:ch04"}, {"md_atom_id": "md_ch04_a234", "md_file": "knowledge_base/chapters/ch04_general_assumptions.md", "md_atom_type": "SENTENCE", "md_parent_section": "§4.2.6 [Grouping Variables and Categorization]", "md_verbatim": "      In such cases, the data collected during the stress tests recorded in 3 separate domains may all have --CAT/--SCAT values (STRESS TEST) that identify that data were collected during the stress test.", "score": 0.4049, "match_basis": "verbatim_token+chapter_route:ch04"}], "candidate_count": 5, "zero_candidate": false}
{"pdf_atom_id": "ig34_p0023_a021", "pdf_atom_type": "LIST_ITEM", "pdf_source": "SDTMIG_v3.4", "pdf_page": 23, "pdf_parent_section": "§4.1.7 [Splitting Domains]", "pdf_verbatim": "The value of DOMAIN must be consistent across the separate datasets as it would have been if they had not been split (e.g., QS, FA).", "figure_ref": null, "candidates": [{"md_atom_id": "md_ch04_a054", "md_file": "knowledge_base/chapters/ch04_general_assumptions.md", "md_atom_type": "LIST_ITEM", "md_parent_section": "§4.1.7 [Splitting Domains]", "md_verbatim": "1. The value of DOMAIN must be consistent across the separate datasets as it would have been if they had not been split (e.g., QS, FA).", "score": 0.9, "match_basis": "verbatim_token+chapter_route:ch04"}, {"md_atom_id": "md_ch04_a056", "md_file": "knowledge_base/chapters/ch04_general_assumptions.md", "md_atom_type": "LIST_ITEM", "md_parent_section": "§4.1.7 [Splitting Domains]", "md_verbatim": "3. --SEQ must be unique within USUBJID for all records across all the split datasets. If there are 1000 records for a USUBJID across the separate datasets, all 1000 records need unique values for --SEQ.", "score": 0.4974, "match_basis": "verbatim_token+chapter_route:ch04"}, {"md_atom_id": "md_ch04_a057", "md_file": "knowledge_base/chapters/ch04_general_assumptions.md", "md_atom_type": "LIST_ITEM", "md_parent_section": "§4.1.7 [Splitting Domains]", "md_verbatim": "4. When relationship datasets (e.g., SUPPxx, FAxx, CO, RELREC) relate back to split parent domains, IDVAR would generally be --SEQ. When IDVAR is a value other than --SEQ (e.g., --GRPID, --REFID, --SPID), care should be used to ensure that the parent records across the split datasets have unique values for the variable specified in IDVAR, so that related children records do not accidentally join back to incorrect parent records.", "score": 0.4274, "match_basis": "verbatim_token+chapter_route:ch04"}, {"md_atom_id": "md_ch04_a060", "md_file": "knowledge_base/chapters/ch04_general_assumptions.md", "md_atom_type": "LIST_ITEM", "md_parent_section": "§4.1.7 [Splitting Domains]", "md_verbatim": "7. Supplemental Qualifier datasets for split domains would also be split. The nomenclature would include the additional 1 to 2 characters used to identify the split dataset (e.g., SUPPQS36, SUPPFACM). The value of RDOMAIN in the SUPP-- datasets would be the 2-character domain code (e.g., QS, FA).", "score": 0.4168, "match_basis": "verbatim_token+chapter_route:ch04"}, {"md_atom_id": "md_ch04_a227", "md_file": "knowledge_base/chapters/ch04_general_assumptions.md", "md_atom_type": "LIST_ITEM", "md_parent_section": "§4.2.6 [Grouping Variables and Categorization]", "md_verbatim": "3. --CAT (Category) and --SCAT (Sub-category) values further subset groups within the domain. Generally, --CAT/--SCAT values have meaning within a particular domain. However, it is possible to use the same values for --CAT/--SCAT in related domains (e.g., MH and AE). When values are used across domains, the meanings should be the same. Examples of where --CAT/--SCAT may have meaning across domains/datasets include:", "score": 0.4125, "match_basis": "verbatim_token+chapter_route:ch04"}], "candidate_count": 5, "zero_candidate": false}
{"pdf_atom_id": "ig34_p0023_a022", "pdf_atom_type": "LIST_ITEM", "pdf_source": "SDTMIG_v3.4", "pdf_page": 23, "pdf_parent_section": "§4.1.7 [Splitting Domains]", "pdf_verbatim": "All variables that require a domain prefix (e.g., --TESTCD, --LOC) must use the value of DOMAIN as the prefix value (e.g., QS, FA).", "figure_ref": null, "candidates": [{"md_atom_id": "md_ch04_a055", "md_file": "knowledge_base/chapters/ch04_general_assumptions.md", "md_atom_type": "LIST_ITEM", "md_parent_section": "§4.1.7 [Splitting Domains]", "md_verbatim": "2. All variables that require a domain prefix (e.g., --TESTCD, --LOC) must use the value of DOMAIN as the prefix value (e.g., QS, FA).", "score": 0.9, "match_basis": "verbatim_token+chapter_route:ch04"}, {"md_atom_id": "md_ch04_a422", "md_file": "knowledge_base/chapters/ch04_general_assumptions.md", "md_atom_type": "LIST_ITEM", "md_parent_section": "§4.3.1 [Controlled Terms, Codelist or Format Column]", "md_verbatim": "- The single applicable value for the variable DOMAIN (e.g., \"PR\")", "score": 0.4826, "match_basis": "verbatim_token+chapter_route:ch04"}, {"md_atom_id": "md_ch04_a912", "md_file": "knowledge_base/chapters/ch04_general_assumptions.md", "md_atom_type": "LIST_ITEM", "md_parent_section": "§4.5.3.2 [Text Strings Greater than 200 Characters in Other Variables]", "md_verbatim": "- The value for **QLABEL should be the original domain variable label**:", "score": 0.468, "match_basis": "verbatim_token+chapter_route:ch04"}, {"md_atom_id": "md_ch04_a198", "md_file": "knowledge_base/chapters/ch04_general_assumptions.md", "md_atom_type": "LIST_ITEM", "md_parent_section": "§4.2.2 [Two-character Domain Identifier]", "md_verbatim": "- All Demographics (DM) domain variables other than DMDTC and DMDY", "score": 0.4585, "match_basis": "verbatim_token+chapter_route:ch04"}, {"md_atom_id": "md_ch04_a038", "md_file": "knowledge_base/chapters/ch04_general_assumptions.md", "md_atom_type": "LIST_ITEM", "md_parent_section": "§4.1.5 [SDTM Core Designations]", "md_verbatim": "- Domain assumptions that say a Permissible variable is \"generally not used\" do not prohibit use of the variable.", "score": 0.4343, "match_basis": "verbatim_token+chapter_route:ch04"}], "candidate_count": 5, "zero_candidate": false}
{"pdf_atom_id": "ig34_p0023_a023", "pdf_atom_type": "LIST_ITEM", "pdf_source": "SDTMIG_v3.4", "pdf_page": 23, "pdf_parent_section": "§4.1.7 [Splitting Domains]", "pdf_verbatim": "--SEQ must be unique within USUBJID for all records across all the split datasets. If there are 1000 records for a USUBJID across the separate datasets, all 1000 records need unique values for --SEQ.", "figure_ref": null, "candidates": [{"md_atom_id": "md_ch04_a056", "md_file": "knowledge_base/chapters/ch04_general_assumptions.md", "md_atom_type": "LIST_ITEM", "md_parent_section": "§4.1.7 [Splitting Domains]", "md_verbatim": "3. --SEQ must be unique within USUBJID for all records across all the split datasets. If there are 1000 records for a USUBJID across the separate datasets, all 1000 records need unique values for --SEQ.", "score": 0.9, "match_basis": "verbatim_token+chapter_route:ch04"}, {"md_atom_id": "md_ch04_a054", "md_file": "knowledge_base/chapters/ch04_general_assumptions.md", "md_atom_type": "LIST_ITEM", "md_parent_section": "§4.1.7 [Splitting Domains]", "md_verbatim": "1. The value of DOMAIN must be consistent across the separate datasets as it would have been if they had not been split (e.g., QS, FA).", "score": 0.4974, "match_basis": "verbatim_token+chapter_route:ch04"}, {"md_atom_id": "md_ch04_a057", "md_file": "knowledge_base/chapters/ch04_general_assumptions.md", "md_atom_type": "LIST_ITEM", "md_parent_section": "§4.1.7 [Splitting Domains]", "md_verbatim": "4. When relationship datasets (e.g., SUPPxx, FAxx, CO, RELREC) relate back to split parent domains, IDVAR would generally be --SEQ. When IDVAR is a value other than --SEQ (e.g., --GRPID, --REFID, --SPID), care should be used to ensure that the parent records across the split datasets have unique values for the variable specified in IDVAR, so that related children records do not accidentally join back to incorrect parent records.", "score": 0.436, "match_basis": "verbatim_token+chapter_route:ch04"}, {"md_atom_id": "md_ch04_a812", "md_file": "knowledge_base/chapters/ch04_general_assumptions.md", "md_atom_type": "LIST_ITEM", "md_parent_section": "§4.4.11 [Disease Milestones and Disease Milestone Timing Variables]", "md_verbatim": "- RELREC indicates that there is a relationship between records or datasets, but not the nature of the relationship; records with the same MIDS value are related to the same disease milestone", "score": 0.4248, "match_basis": "verbatim_token+chapter_route:ch04"}, {"md_atom_id": "md_ch04_a227", "md_file": "knowledge_base/chapters/ch04_general_assumptions.md", "md_atom_type": "LIST_ITEM", "md_parent_section": "§4.2.6 [Grouping Variables and Categorization]", "md_verbatim": "3. --CAT (Category) and --SCAT (Sub-category) values further subset groups within the domain. Generally, --CAT/--SCAT values have meaning within a particular domain. However, it is possible to use the same values for --CAT/--SCAT in related domains (e.g., MH and AE). When values are used across domains, the meanings should be the same. Examples of where --CAT/--SCAT may have meaning across domains/datasets include:", "score": 0.4227, "match_basis": "verbatim_token+chapter_route:ch04"}], "candidate_count": 5, "zero_candidate": false}
{"pdf_atom_id": "ig34_p0024_a001", "pdf_atom_type": "LIST_ITEM", "pdf_source": "SDTMIG_v3.4", "pdf_page": 24, "pdf_parent_section": "§4.1.7 [Splitting Domains]", "pdf_verbatim": "When relationship datasets (e.g., SUPPxx, FAxx, CO, RELREC) relate back to split parent domains, IDVAR would generally be --SEQ. When IDVAR is a value other than --SEQ (e.g., --GRPID, --REFID, --SPID), care should be used to ensure that the parent records across the split datasets have unique values for the variable specified in IDVAR, so that related children records do not accidentally join back to incorrect parent records.", "figure_ref": null, "candidates": [{"md_atom_id": "md_ch04_a057", "md_file": "knowledge_base/chapters/ch04_general_assumptions.md", "md_atom_type": "LIST_ITEM", "md_parent_section": "§4.1.7 [Splitting Domains]", "md_verbatim": "4. When relationship datasets (e.g., SUPPxx, FAxx, CO, RELREC) relate back to split parent domains, IDVAR would generally be --SEQ. When IDVAR is a value other than --SEQ (e.g., --GRPID, --REFID, --SPID), care should be used to ensure that the parent records across the split datasets have unique values for the variable specified in IDVAR, so that related children records do not accidentally join back to incorrect parent records.", "score": 0.9, "match_basis": "verbatim_token+chapter_route:ch04"}, {"md_atom_id": "md_ch04_a227", "md_file": "knowledge_base/chapters/ch04_general_assumptions.md", "md_atom_type": "LIST_ITEM", "md_parent_section": "§4.2.6 [Grouping Variables and Categorization]", "md_verbatim": "3. --CAT (Category) and --SCAT (Sub-category) values further subset groups within the domain. Generally, --CAT/--SCAT values have meaning within a particular domain. However, it is possible to use the same values for --CAT/--SCAT in related domains (e.g., MH and AE). When values are used across domains, the meanings should be the same. Examples of where --CAT/--SCAT may have meaning across domains/datasets include:", "score": 0.454, "match_basis": "verbatim_token+chapter_route:ch04"}, {"md_atom_id": "md_ch04_a230", "md_file": "knowledge_base/chapters/ch04_general_assumptions.md", "md_atom_type": "LIST_ITEM", "md_parent_section": "§4.2.6 [Grouping Variables and Categorization]", "md_verbatim": "   c. Cases where multiple domains are necessary to capture data that were collected together and have an implicit relationship, perhaps identified in the Related Records (RELREC) special-purpose dataset. Stress-test data collection may capture the following:", "score": 0.4523, "match_basis": "verbatim_token+chapter_route:ch04"}, {"md_atom_id": "md_ch04_a908", "md_file": "knowledge_base/chapters/ch04_general_assumptions.md", "md_atom_type": "LIST_ITEM", "md_parent_section": "§4.5.3.2 [Text Strings Greater than 200 Characters in Other Variables]", "md_verbatim": "- The **first 200 characters** of text should be stored in the parent domain variable and each additional 200 characters of text should be stored in a record in the SUPP-- dataset (see Section 8.4, Relating Non-standard Variable Values to a Parent Domain)", "score": 0.4464, "match_basis": "verbatim_token+chapter_route:ch04"}, {"md_atom_id": "md_ch04_a243", "md_file": "knowledge_base/chapters/ch04_general_assumptions.md", "md_atom_type": "LIST_ITEM", "md_parent_section": "§4.2.6 [Grouping Variables and Categorization]", "md_verbatim": "- --LNKGRP is a grouping identifier used to identify a group of records in one domain that is related to a record in another domain, often forming a many-to-one relationship.", "score": 0.4412, "match_basis": "verbatim_token+chapter_route:ch04"}], "candidate_count": 5, "zero_candidate": false}
{"pdf_atom_id": "ig34_p0024_a002", "pdf_atom_type": "LIST_ITEM", "pdf_source": "SDTMIG_v3.4", "pdf_page": 24, "pdf_parent_section": "§4.1.7 [Splitting Domains]", "pdf_verbatim": "Permissible variables included in one split dataset need not be included in all split datasets.", "figure_ref": null, "candidates": [{"md_atom_id": "md_ch04_a058", "md_file": "knowledge_base/chapters/ch04_general_assumptions.md", "md_atom_type": "LIST_ITEM", "md_parent_section": "§4.1.7 [Splitting Domains]", "md_verbatim": "5. Permissible variables included in one split dataset need not be included in all split datasets.", "score": 0.9, "match_basis": "verbatim_token+chapter_route:ch04"}, {"md_atom_id": "md_ch04_a040", "md_file": "knowledge_base/chapters/ch04_general_assumptions.md", "md_atom_type": "LIST_ITEM", "md_parent_section": "§4.1.5 [SDTM Core Designations]", "md_verbatim": "- If a study did not include a data item that would be represented in a Permissible variable, then that variable should not be included in the SDTM dataset and should not be declared in the Define-XML document.", "score": 0.5, "match_basis": "verbatim_token+chapter_route:ch04"}, {"md_atom_id": "md_ch04_a039", "md_file": "knowledge_base/chapters/ch04_general_assumptions.md", "md_atom_type": "LIST_ITEM", "md_parent_section": "§4.1.5 [SDTM Core Designations]", "md_verbatim": "- If a study includes a data item that would be represented in a Permissible variable, then that variable must be included in the SDTM dataset, even if null. Indicate no data were available for that variable in the Define-XML document.", "score": 0.4685, "match_basis": "verbatim_token+chapter_route:ch04"}, {"md_atom_id": "md_ch04_a038", "md_file": "knowledge_base/chapters/ch04_general_assumptions.md", "md_atom_type": "LIST_ITEM", "md_parent_section": "§4.1.5 [SDTM Core Designations]", "md_verbatim": "- Domain assumptions that say a Permissible variable is \"generally not used\" do not prohibit use of the variable.", "score": 0.4455, "match_basis": "verbatim_token+chapter_route:ch04"}, {"md_atom_id": "md_ch04_a199", "md_file": "knowledge_base/chapters/ch04_general_assumptions.md", "md_atom_type": "LIST_ITEM", "md_parent_section": "§4.2.2 [Two-character Domain Identifier]", "md_verbatim": "- All variables in RELREC and SUPPQUAL, and some variables in the Comments and Trial Design datasets", "score": 0.4377, "match_basis": "verbatim_token+chapter_route:ch04"}], "candidate_count": 5, "zero_candidate": false}
{"pdf_atom_id": "ig34_p0024_a003", "pdf_atom_type": "LIST_ITEM", "pdf_source": "SDTMIG_v3.4", "pdf_page": 24, "pdf_parent_section": "§4.1.7 [Splitting Domains]", "pdf_verbatim": "For domains with 2-letter domain codes (i.e., other than SUPPxx and RELREC), split dataset names can be up to 4 characters in length. For example, if splitting by --CAT, dataset names would be the domain name plus up to 2 additional characters (e.g., QS36 for SF-36). If splitting Findings About by parent domain, then the dataset name would be the domain code, \"FA\", plus the 2-character domain code for parent domain code (e.g., \"FACM\"). The 4-character dataset-name limitation allows the use of a Supplemental Qualifier dataset associated with the split dataset.", "figure_ref": null, "candidates": [{"md_atom_id": "md_ch04_a059", "md_file": "knowledge_base/chapters/ch04_general_assumptions.md", "md_atom_type": "LIST_ITEM", "md_parent_section": "§4.1.7 [Splitting Domains]", "md_verbatim": "6. For domains with 2-letter domain codes (i.e., other than SUPPxx and RELREC), split dataset names can be up to 4 characters in length. For example, if splitting by --CAT, dataset names would be the domain name plus up to 2 additional characters (e.g., QS36 for SF-36). If splitting Findings About by parent domain, then the dataset name would be the domain code, \"FA\", plus the 2-character domain code for parent domain code (e.g., \"FACM\"). The 4-character dataset-name limitation allows the use of a Supplemental Qualifier dataset associated with the split dataset.", "score": 0.9, "match_basis": "verbatim_token+chapter_route:ch04"}, {"md_atom_id": "md_ch04_a060", "md_file": "knowledge_base/chapters/ch04_general_assumptions.md", "md_atom_type": "LIST_ITEM", "md_parent_section": "§4.1.7 [Splitting Domains]", "md_verbatim": "7. Supplemental Qualifier datasets for split domains would also be split. The nomenclature would include the additional 1 to 2 characters used to identify the split dataset (e.g., SUPPQS36, SUPPFACM). The value of RDOMAIN in the SUPP-- datasets would be the 2-character domain code (e.g., QS, FA).", "score": 0.526, "match_basis": "verbatim_token+chapter_route:ch04"}, {"md_atom_id": "md_ch04_a061", "md_file": "knowledge_base/chapters/ch04_general_assumptions.md", "md_atom_type": "LIST_ITEM", "md_parent_section": "§4.1.7 [Splitting Domains]", "md_verbatim": "8. In RELREC, if a dataset-level relationship is defined for a split Findings About domain, then RDOMAIN may contain the 4-character dataset name, rather than the domain name \"FA\", as shown in the following example.", "score": 0.5026, "match_basis": "verbatim_token+chapter_route:ch04"}, {"md_atom_id": "md_ch04_a450", "md_file": "knowledge_base/chapters/ch04_general_assumptions.md", "md_atom_type": "LIST_ITEM", "md_parent_section": "§4.3.5 [Storing Controlled Terminology for Synonym Qualifier Variables (MedDRA and WHODrug)]", "md_verbatim": "- For concomitant medications, supplemental qualifiers may be used to represent additional coding dictionary information (e.g., a drug's ATC codes from the WHO Drug Dictionary); see Section 8.4, Relating Non-standard Variable Values to a Parent Domain", "score": 0.46, "match_basis": "verbatim_token+chapter_route:ch04"}, {"md_atom_id": "md_ch04_a908", "md_file": "knowledge_base/chapters/ch04_general_assumptions.md", "md_atom_type": "LIST_ITEM", "md_parent_section": "§4.5.3.2 [Text Strings Greater than 200 Characters in Other Variables]", "md_verbatim": "- The **first 200 characters** of text should be stored in the parent domain variable and each additional 200 characters of text should be stored in a record in the SUPP-- dataset (see Section 8.4, Relating Non-standard Variable Values to a Parent Domain)", "score": 0.4472, "match_basis": "verbatim_token+chapter_route:ch04"}], "candidate_count": 5, "zero_candidate": false}
{"pdf_atom_id": "ig34_p0024_a004", "pdf_atom_type": "LIST_ITEM", "pdf_source": "SDTMIG_v3.4", "pdf_page": 24, "pdf_parent_section": "§4.1.7 [Splitting Domains]", "pdf_verbatim": "Supplemental Qualifier datasets for split domains would also be split. The nomenclature would include the additional 1 to 2 characters used to identify the split dataset (e.g., SUPPQS36, SUPPFACM). The value of RDOMAIN in the SUPP-- datasets would be the 2-character domain code (e.g., QS, FA).", "figure_ref": null, "candidates": [{"md_atom_id": "md_ch04_a060", "md_file": "knowledge_base/chapters/ch04_general_assumptions.md", "md_atom_type": "LIST_ITEM", "md_parent_section": "§4.1.7 [Splitting Domains]", "md_verbatim": "7. Supplemental Qualifier datasets for split domains would also be split. The nomenclature would include the additional 1 to 2 characters used to identify the split dataset (e.g., SUPPQS36, SUPPFACM). The value of RDOMAIN in the SUPP-- datasets would be the 2-character domain code (e.g., QS, FA).", "score": 0.9, "match_basis": "verbatim_token+chapter_route:ch04"}, {"md_atom_id": "md_ch04_a059", "md_file": "knowledge_base/chapters/ch04_general_assumptions.md", "md_atom_type": "LIST_ITEM", "md_parent_section": "§4.1.7 [Splitting Domains]", "md_verbatim": "6. For domains with 2-letter domain codes (i.e., other than SUPPxx and RELREC), split dataset names can be up to 4 characters in length. For example, if splitting by --CAT, dataset names would be the domain name plus up to 2 additional characters (e.g., QS36 for SF-36). If splitting Findings About by parent domain, then the dataset name would be the domain code, \"FA\", plus the 2-character domain code for parent domain code (e.g., \"FACM\"). The 4-character dataset-name limitation allows the use of a Supplemental Qualifier dataset associated with the split dataset.", "score": 0.526, "match_basis": "verbatim_token+chapter_route:ch04"}, {"md_atom_id": "md_ch04_a908", "md_file": "knowledge_base/chapters/ch04_general_assumptions.md", "md_atom_type": "LIST_ITEM", "md_parent_section": "§4.5.3.2 [Text Strings Greater than 200 Characters in Other Variables]", "md_verbatim": "- The **first 200 characters** of text should be stored in the parent domain variable and each additional 200 characters of text should be stored in a record in the SUPP-- dataset (see Section 8.4, Relating Non-standard Variable Values to a Parent Domain)", "score": 0.4591, "match_basis": "verbatim_token+chapter_route:ch04"}, {"md_atom_id": "md_ch04_a450", "md_file": "knowledge_base/chapters/ch04_general_assumptions.md", "md_atom_type": "LIST_ITEM", "md_parent_section": "§4.3.5 [Storing Controlled Terminology for Synonym Qualifier Variables (MedDRA and WHODrug)]", "md_verbatim": "- For concomitant medications, supplemental qualifiers may be used to represent additional coding dictionary information (e.g., a drug's ATC codes from the WHO Drug Dictionary); see Section 8.4, Relating Non-standard Variable Values to a Parent Domain", "score": 0.4579, "match_basis": "verbatim_token+chapter_route:ch04"}, {"md_atom_id": "md_ch04_a910", "md_file": "knowledge_base/chapters/ch04_general_assumptions.md", "md_atom_type": "LIST_ITEM", "md_parent_section": "§4.5.3.2 [Text Strings Greater than 200 Characters in Other Variables]", "md_verbatim": "- When the text longer than 200 characters is for a supplemental qualifier, the **first QNAM should describe the NSV without any numeric suffix**", "score": 0.437, "match_basis": "verbatim_token+chapter_route:ch04"}], "candidate_count": 5, "zero_candidate": false}
{"pdf_atom_id": "ig34_p0024_a005", "pdf_atom_type": "LIST_ITEM", "pdf_source": "SDTMIG_v3.4", "pdf_page": 24, "pdf_parent_section": "§4.1.7 [Splitting Domains]", "pdf_verbatim": "In RELREC, if a dataset-level relationship is defined for a split Findings About domain, then RDOMAIN may contain the 4-character dataset name, rather than the domain name \"FA\", as shown in the following example.", "figure_ref": null, "candidates": [{"md_atom_id": "md_ch04_a061", "md_file": "knowledge_base/chapters/ch04_general_assumptions.md", "md_atom_type": "LIST_ITEM", "md_parent_section": "§4.1.7 [Splitting Domains]", "md_verbatim": "8. In RELREC, if a dataset-level relationship is defined for a split Findings About domain, then RDOMAIN may contain the 4-character dataset name, rather than the domain name \"FA\", as shown in the following example.", "score": 0.9, "match_basis": "verbatim_token+chapter_route:ch04"}, {"md_atom_id": "md_ch04_a059", "md_file": "knowledge_base/chapters/ch04_general_assumptions.md", "md_atom_type": "LIST_ITEM", "md_parent_section": "§4.1.7 [Splitting Domains]", "md_verbatim": "6. For domains with 2-letter domain codes (i.e., other than SUPPxx and RELREC), split dataset names can be up to 4 characters in length. For example, if splitting by --CAT, dataset names would be the domain name plus up to 2 additional characters (e.g., QS36 for SF-36). If splitting Findings About by parent domain, then the dataset name would be the domain code, \"FA\", plus the 2-character domain code for parent domain code (e.g., \"FACM\"). The 4-character dataset-name limitation allows the use of a Supplemental Qualifier dataset associated with the split dataset.", "score": 0.5026, "match_basis": "verbatim_token+chapter_route:ch04"}, {"md_atom_id": "md_ch04_a052", "md_file": "knowledge_base/chapters/ch04_general_assumptions.md", "md_atom_type": "LIST_ITEM", "md_parent_section": "§4.1.7 [Splitting Domains]", "md_verbatim": "- A Findings About (FA) domain (see Section 6.4.4, Findings About Events or Interventions) may alternatively be split based on the domain of the value in --OBJ. For example, FACM would store findings about Concomitant/Prior Medications (CM) records. See Section 6.4.2, Naming Findings About Domains, for more details.", "score": 0.4543, "match_basis": "verbatim_token+chapter_route:ch04"}, {"md_atom_id": "md_ch04_a230", "md_file": "knowledge_base/chapters/ch04_general_assumptions.md", "md_atom_type": "LIST_ITEM", "md_parent_section": "§4.2.6 [Grouping Variables and Categorization]", "md_verbatim": "   c. Cases where multiple domains are necessary to capture data that were collected together and have an implicit relationship, perhaps identified in the Related Records (RELREC) special-purpose dataset. Stress-test data collection may capture the following:", "score": 0.4451, "match_basis": "verbatim_token+chapter_route:ch04"}, {"md_atom_id": "md_ch04_a067", "md_file": "knowledge_base/chapters/ch04_general_assumptions.md", "md_atom_type": "LIST_ITEM", "md_parent_section": "§4.1.7 [Splitting Domains]", "md_verbatim": "10. See the SDTM Define-XML specification (https://www.cdisc.org/standards/data-exchange/define-xml) for details regarding metadata representation when a domain is split into different datasets. For additional examples, see the Metadata Submission Guideline (MSG) for SDTMIG (https://www.cdisc.org/standards/foundational/sdtmig/).", "score": 0.4207, "match_basis": "verbatim_token+chapter_route:ch04"}], "candidate_count": 5, "zero_candidate": false}
{"pdf_atom_id": "ig34_p0024_a006", "pdf_atom_type": "CODE_LITERAL", "pdf_source": "SDTMIG_v3.4", "pdf_page": 24, "pdf_parent_section": "§4.1.7 [Splitting Domains]", "pdf_verbatim": "relrec.xpt", "figure_ref": null, "candidates": [{"md_atom_id": "md_ch04_a062", "md_file": "knowledge_base/chapters/ch04_general_assumptions.md", "md_atom_type": "SENTENCE", "md_parent_section": "§4.1.7 [Splitting Domains]", "md_verbatim": "**relrec.xpt**", "score": 0.69, "match_basis": "verbatim_token+chapter_route:ch04"}, {"md_atom_id": "md_ch04_a207", "md_file": "knowledge_base/chapters/ch04_general_assumptions.md", "md_atom_type": "CODE_LITERAL", "md_parent_section": "§4.2.3 [Use of \"Subject\" and USUBJID]", "md_verbatim": "dm.xpt:", "score": 0.21, "match_basis": "verbatim_token+chapter_route:ch04"}, {"md_atom_id": "md_ch04_a210", "md_file": "knowledge_base/chapters/ch04_general_assumptions.md", "md_atom_type": "CODE_LITERAL", "md_parent_section": "§4.2.3 [Use of \"Subject\" and USUBJID]", "md_verbatim": "dm.xpt:", "score": 0.21, "match_basis": "verbatim_token+chapter_route:ch04"}, {"md_atom_id": "md_ch04_a368", "md_file": "knowledge_base/chapters/ch04_general_assumptions.md", "md_atom_type": "CODE_LITERAL", "md_parent_section": "§4.2.8.3 [Multiple Values for a Non-result Qualifier Variable]", "md_verbatim": "ae.xpt:", "score": 0.21, "match_basis": "verbatim_token+chapter_route:ch04"}, {"md_atom_id": "md_ch04_a378", "md_file": "knowledge_base/chapters/ch04_general_assumptions.md", "md_atom_type": "CODE_LITERAL", "md_parent_section": "§4.2.8.3 [Multiple Values for a Non-result Qualifier Variable]", "md_verbatim": "ae.xpt:", "score": 0.21, "match_basis": "verbatim_token+chapter_route:ch04"}, {"md_atom_id": "md_ch04_a391", "md_file": "knowledge_base/chapters/ch04_general_assumptions.md", "md_atom_type": "CODE_LITERAL", "md_parent_section": "§4.2.8.3 [Multiple Values for a Non-result Qualifier Variable]", "md_verbatim": "ae.xpt:", "score": 0.21, "match_basis": "verbatim_token+chapter_route:ch04"}, {"md_atom_id": "md_ch04_a835", "md_file": "knowledge_base/chapters/ch04_general_assumptions.md", "md_atom_type": "CODE_LITERAL", "md_parent_section": "§4.5.1.3 [Examples of Original and Standard Units and Test Not Done]", "md_verbatim": "lb.xpt", "score": 0.21, "match_basis": "verbatim_token+chapter_route:ch04"}, {"md_atom_id": "md_ch04_a861", "md_file": "knowledge_base/chapters/ch04_general_assumptions.md", "md_atom_type": "CODE_LITERAL", "md_parent_section": "§4.5.1.3 [Examples of Original and Standard Units and Test Not Done]", "md_verbatim": "eg.xpt", "score": 0.21, "match_basis": "verbatim_token+chapter_route:ch04"}, {"md_atom_id": "md_ch04_a877", "md_file": "knowledge_base/chapters/ch04_general_assumptions.md", "md_atom_type": "CODE_LITERAL", "md_parent_section": "§4.5.1.3 [Examples of Original and Standard Units and Test Not Done]", "md_verbatim": "vs.xpt", "score": 0.21, "match_basis": "verbatim_token+chapter_route:ch04"}, {"md_atom_id": "md_ch04_a917", "md_file": "knowledge_base/chapters/ch04_general_assumptions.md", "md_atom_type": "CODE_LITERAL", "md_parent_section": "§4.5.3.2 [Text Strings Greater than 200 Characters in Other Variables]", "md_verbatim": "mh.xpt", "score": 0.21, "match_basis": "verbatim_token+chapter_route:ch04"}], "candidate_count": 10, "zero_candidate": false}
{"pdf_atom_id": "ig34_p0024_a007", "pdf_atom_type": "TABLE_HEADER", "pdf_source": "SDTMIG_v3.4", "pdf_page": 24, "pdf_parent_section": "§4.1.7 [Splitting Domains]", "pdf_verbatim": "Row | STUDYID | RDOMAIN | USUBJID | IDVAR | IDVARVAL | RELTYPE | RELID", "figure_ref": null, "candidates": [{"md_atom_id": "md_ch04_a063", "md_file": "knowledge_base/chapters/ch04_general_assumptions.md", "md_atom_type": "TABLE_HEADER", "md_parent_section": "§4.1.7 [Splitting Domains]", "md_verbatim": "| Row | STUDYID | RDOMAIN | USUBJID | IDVAR | IDVARVAL | RELTYPE | RELID |\n|-----|---------|---------|---------|-------|----------|---------|-------|", "score": 0.9, "match_basis": "verbatim_token+chapter_route:ch04"}, {"md_atom_id": "md_ch04_a923", "md_file": "knowledge_base/chapters/ch04_general_assumptions.md", "md_atom_type": "TABLE_HEADER", "md_parent_section": "§4.5.3.2 [Text Strings Greater than 200 Characters in Other Variables]", "md_verbatim": "| Row | STUDYID | RDOMAIN | USUBJID | IDVAR | IDVARVAL | QNAM | QLABEL | QVAL | QORIG |\n|-----|---------|---------|---------|-------|----------|------|--------|------|-------|", "score": 0.6385, "match_basis": "verbatim_token+chapter_route:ch04"}, {"md_atom_id": "md_ch04_a933", "md_file": "knowledge_base/chapters/ch04_general_assumptions.md", "md_atom_type": "TABLE_HEADER", "md_parent_section": "§4.5.3.2 [Text Strings Greater than 200 Characters in Other Variables]", "md_verbatim": "| Row | STUDYID | RDOMAIN | USUBJID | IDVAR | IDVARVAL | QNAM | QLABEL | QVAL | QORIG |\n|-----|---------|---------|---------|-------|----------|------|--------|------|-------|", "score": 0.6385, "match_basis": "verbatim_token+chapter_route:ch04"}, {"md_atom_id": "md_ch04_a942", "md_file": "knowledge_base/chapters/ch04_general_assumptions.md", "md_atom_type": "TABLE_HEADER", "md_parent_section": "§4.5.3.2 [Text Strings Greater than 200 Characters in Other Variables]", "md_verbatim": "| Row | STUDYID | RDOMAIN | USUBJID | IDVAR | IDVARVAL | QNAM | QLABEL | QVAL | QORIG |\n|-----|---------|---------|---------|-------|----------|------|--------|------|-------|", "score": 0.6385, "match_basis": "verbatim_token+chapter_route:ch04"}, {"md_atom_id": "md_ch04_a985", "md_file": "knowledge_base/chapters/ch04_general_assumptions.md", "md_atom_type": "TABLE_HEADER", "md_parent_section": "§4.5.6 [Supplemental Reason Variables]", "md_verbatim": "| Row | STUDYID | RDOMAIN | USUBJID | IDVAR | IDVARVAL | QNAM | QLABEL | QVAL | QORIG |\n|-----|---------|---------|---------|-------|----------|------|--------|------|-------|", "score": 0.6385, "match_basis": "verbatim_token+chapter_route:ch04"}], "candidate_count": 5, "zero_candidate": false}
{"pdf_atom_id": "ig34_p0024_a008", "pdf_atom_type": "TABLE_ROW", "pdf_source": "SDTMIG_v3.4", "pdf_page": 24, "pdf_parent_section": "§4.1.7 [Splitting Domains]", "pdf_verbatim": "1 | ABC | CM |  | CMSPID |  | ONE | 1", "figure_ref": null, "candidates": [{"md_atom_id": "md_ch04_a064", "md_file": "knowledge_base/chapters/ch04_general_assumptions.md", "md_atom_type": "TABLE_ROW", "md_parent_section": "§4.1.7 [Splitting Domains]", "md_verbatim": "| 1 | ABC | CM | | CMSPID | | ONE | 1 |", "score": 0.9, "match_basis": "verbatim_token+chapter_route:ch04"}, {"md_atom_id": "md_ch04_a065", "md_file": "knowledge_base/chapters/ch04_general_assumptions.md", "md_atom_type": "TABLE_ROW", "md_parent_section": "§4.1.7 [Splitting Domains]", "md_verbatim": "| 2 | ABC | FACM | | FASPID | | MANY | 1 |", "score": 0.45, "match_basis": "verbatim_token+chapter_route:ch04"}, {"md_atom_id": "md_ch04_a323", "md_file": "knowledge_base/chapters/ch04_general_assumptions.md", "md_atom_type": "TABLE_ROW", "md_parent_section": "§4.2.7.3 [\"Specify\" Values for Topic Variables]", "md_verbatim": "|                                                                                                    | [ ] Aspirin                   |", "score": 0.36, "match_basis": "verbatim_token+chapter_route:ch04"}, {"md_atom_id": "md_ch04_a886", "md_file": "knowledge_base/chapters/ch04_general_assumptions.md", "md_atom_type": "TABLE_ROW", "md_parent_section": "§4.5.1.3 [Examples of Original and Standard Units and Test Not Done]", "md_verbatim": "| 3 | HR | | | | | | NOT DONE | | 1 | 2016-07-18 |", "score": 0.36, "match_basis": "verbatim_token+chapter_route:ch04"}, {"md_atom_id": "md_ch04_a587", "md_file": "knowledge_base/chapters/ch04_general_assumptions.md", "md_atom_type": "TABLE_ROW", "md_parent_section": "§4.4.3.1 [Intervals of Time and Use of Duration]", "md_verbatim": "| One-half hour | PT0.5H |", "score": 0.3545, "match_basis": "verbatim_token+chapter_route:ch04"}], "candidate_count": 5, "zero_candidate": false}
{"pdf_atom_id": "ig34_p0024_a009", "pdf_atom_type": "TABLE_ROW", "pdf_source": "SDTMIG_v3.4", "pdf_page": 24, "pdf_parent_section": "§4.1.7 [Splitting Domains]", "pdf_verbatim": "2 | ABC | FACM |  | FASPID |  | MANY | 1", "figure_ref": null, "candidates": [{"md_atom_id": "md_ch04_a065", "md_file": "knowledge_base/chapters/ch04_general_assumptions.md", "md_atom_type": "TABLE_ROW", "md_parent_section": "§4.1.7 [Splitting Domains]", "md_verbatim": "| 2 | ABC | FACM | | FASPID | | MANY | 1 |", "score": 0.9, "match_basis": "verbatim_token+chapter_route:ch04"}, {"md_atom_id": "md_ch04_a064", "md_file": "knowledge_base/chapters/ch04_general_assumptions.md", "md_atom_type": "TABLE_ROW", "md_parent_section": "§4.1.7 [Splitting Domains]", "md_verbatim": "| 1 | ABC | CM | | CMSPID | | ONE | 1 |", "score": 0.45, "match_basis": "verbatim_token+chapter_route:ch04"}, {"md_atom_id": "md_ch04_a323", "md_file": "knowledge_base/chapters/ch04_general_assumptions.md", "md_atom_type": "TABLE_ROW", "md_parent_section": "§4.2.7.3 [\"Specify\" Values for Topic Variables]", "md_verbatim": "|                                                                                                    | [ ] Aspirin                   |", "score": 0.4, "match_basis": "verbatim_token+chapter_route:ch04"}, {"md_atom_id": "md_ch04_a209", "md_file": "knowledge_base/chapters/ch04_general_assumptions.md", "md_atom_type": "TABLE_ROW", "md_parent_section": "§4.2.3 [Use of \"Subject\" and USUBJID]", "md_verbatim": "| 1 | ACME01 | DM | ACME01-05-001 | 001 | 05 | John Doe |", "score": 0.3375, "match_basis": "verbatim_token+chapter_route:ch04"}, {"md_atom_id": "md_ch04_a212", "md_file": "knowledge_base/chapters/ch04_general_assumptions.md", "md_atom_type": "TABLE_ROW", "md_parent_section": "§4.2.3 [Use of \"Subject\" and USUBJID]", "md_verbatim": "| 1 | ACME14 | DM | ACME01-05-001 | 017 | 14 | Mary Smith |", "score": 0.3286, "match_basis": "verbatim_token+chapter_route:ch04"}], "candidate_count": 5, "zero_candidate": false}
{"pdf_atom_id": "ig34_p0024_a010", "pdf_atom_type": "LIST_ITEM", "pdf_source": "SDTMIG_v3.4", "pdf_page": 24, "pdf_parent_section": "§4.1.7 [Splitting Domains]", "pdf_verbatim": "See the SDTM Implementation Guide: Associated Persons (https://www.cdisc.org/standards/foundational/sdtmig/) for the naming of split AP datasets.", "figure_ref": null, "candidates": [{"md_atom_id": "md_ch04_a066", "md_file": "knowledge_base/chapters/ch04_general_assumptions.md", "md_atom_type": "LIST_ITEM", "md_parent_section": "§4.1.7 [Splitting Domains]", "md_verbatim": "9. See the SDTM Implementation Guide: Associated Persons (https://www.cdisc.org/standards/foundational/sdtmig/) for the naming of split AP datasets.", "score": 0.9, "match_basis": "verbatim_token+chapter_route:ch04"}, {"md_atom_id": "md_ch04_a067", "md_file": "knowledge_base/chapters/ch04_general_assumptions.md", "md_atom_type": "LIST_ITEM", "md_parent_section": "§4.1.7 [Splitting Domains]", "md_verbatim": "10. See the SDTM Define-XML specification (https://www.cdisc.org/standards/data-exchange/define-xml) for details regarding metadata representation when a domain is split into different datasets. For additional examples, see the Metadata Submission Guideline (MSG) for SDTMIG (https://www.cdisc.org/standards/foundational/sdtmig/).", "score": 0.5072, "match_basis": "verbatim_token+chapter_route:ch04"}, {"md_atom_id": "md_ch04_a011", "md_file": "knowledge_base/chapters/ch04_general_assumptions.md", "md_atom_type": "SENTENCE", "md_parent_section": "§4.1.2 [Relationship to Analysis Datasets]", "md_verbatim": "Specific guidance on preparing analysis datasets can be found in the CDISC Analysis Data Model (ADaM) Implementation Guide and other ADaM documents, available at https://www.cdisc.org/standards/foundational/adam.", "score": 0.4467, "match_basis": "verbatim_token+chapter_route:ch04"}, {"md_atom_id": "md_ch04_a059", "md_file": "knowledge_base/chapters/ch04_general_assumptions.md", "md_atom_type": "LIST_ITEM", "md_parent_section": "§4.1.7 [Splitting Domains]", "md_verbatim": "6. For domains with 2-letter domain codes (i.e., other than SUPPxx and RELREC), split dataset names can be up to 4 characters in length. For example, if splitting by --CAT, dataset names would be the domain name plus up to 2 additional characters (e.g., QS36 for SF-36). If splitting Findings About by parent domain, then the dataset name would be the domain code, \"FA\", plus the 2-character domain code for parent domain code (e.g., \"FACM\"). The 4-character dataset-name limitation allows the use of a Supplemental Qualifier dataset associated with the split dataset.", "score": 0.4338, "match_basis": "verbatim_token+chapter_route:ch04"}, {"md_atom_id": "md_ch04_a060", "md_file": "knowledge_base/chapters/ch04_general_assumptions.md", "md_atom_type": "LIST_ITEM", "md_parent_section": "§4.1.7 [Splitting Domains]", "md_verbatim": "7. Supplemental Qualifier datasets for split domains would also be split. The nomenclature would include the additional 1 to 2 characters used to identify the split dataset (e.g., SUPPQS36, SUPPFACM). The value of RDOMAIN in the SUPP-- datasets would be the 2-character domain code (e.g., QS, FA).", "score": 0.4038, "match_basis": "verbatim_token+chapter_route:ch04"}], "candidate_count": 5, "zero_candidate": false}
{"pdf_atom_id": "ig34_p0024_a011", "pdf_atom_type": "LIST_ITEM", "pdf_source": "SDTMIG_v3.4", "pdf_page": 24, "pdf_parent_section": "§4.1.7 [Splitting Domains]", "pdf_verbatim": "See the SDTM Define-XML specification (https://www.cdisc.org/standards/data-exchange/define-xml) for details regarding metadata representation when a domain is split into different datasets. For additional examples, see the Metadata Submission Guideline (MSG) for SDTMIG (https://www.cdisc.org/standards/foundational/sdtmig/).", "figure_ref": null, "candidates": [{"md_atom_id": "md_ch04_a067", "md_file": "knowledge_base/chapters/ch04_general_assumptions.md", "md_atom_type": "LIST_ITEM", "md_parent_section": "§4.1.7 [Splitting Domains]", "md_verbatim": "10. See the SDTM Define-XML specification (https://www.cdisc.org/standards/data-exchange/define-xml) for details regarding metadata representation when a domain is split into different datasets. For additional examples, see the Metadata Submission Guideline (MSG) for SDTMIG (https://www.cdisc.org/standards/foundational/sdtmig/).", "score": 0.9, "match_basis": "verbatim_token+chapter_route:ch04"}, {"md_atom_id": "md_ch04_a066", "md_file": "knowledge_base/chapters/ch04_general_assumptions.md", "md_atom_type": "LIST_ITEM", "md_parent_section": "§4.1.7 [Splitting Domains]", "md_verbatim": "9. See the SDTM Implementation Guide: Associated Persons (https://www.cdisc.org/standards/foundational/sdtmig/) for the naming of split AP datasets.", "score": 0.5072, "match_basis": "verbatim_token+chapter_route:ch04"}, {"md_atom_id": "md_ch04_a059", "md_file": "knowledge_base/chapters/ch04_general_assumptions.md", "md_atom_type": "LIST_ITEM", "md_parent_section": "§4.1.7 [Splitting Domains]", "md_verbatim": "6. For domains with 2-letter domain codes (i.e., other than SUPPxx and RELREC), split dataset names can be up to 4 characters in length. For example, if splitting by --CAT, dataset names would be the domain name plus up to 2 additional characters (e.g., QS36 for SF-36). If splitting Findings About by parent domain, then the dataset name would be the domain code, \"FA\", plus the 2-character domain code for parent domain code (e.g., \"FACM\"). The 4-character dataset-name limitation allows the use of a Supplemental Qualifier dataset associated with the split dataset.", "score": 0.4218, "match_basis": "verbatim_token+chapter_route:ch04"}, {"md_atom_id": "md_ch04_a061", "md_file": "knowledge_base/chapters/ch04_general_assumptions.md", "md_atom_type": "LIST_ITEM", "md_parent_section": "§4.1.7 [Splitting Domains]", "md_verbatim": "8. In RELREC, if a dataset-level relationship is defined for a split Findings About domain, then RDOMAIN may contain the 4-character dataset name, rather than the domain name \"FA\", as shown in the following example.", "score": 0.4207, "match_basis": "verbatim_token+chapter_route:ch04"}, {"md_atom_id": "md_ch04_a450", "md_file": "knowledge_base/chapters/ch04_general_assumptions.md", "md_atom_type": "LIST_ITEM", "md_parent_section": "§4.3.5 [Storing Controlled Terminology for Synonym Qualifier Variables (MedDRA and WHODrug)]", "md_verbatim": "- For concomitant medications, supplemental qualifiers may be used to represent additional coding dictionary information (e.g., a drug's ATC codes from the WHO Drug Dictionary); see Section 8.4, Relating Non-standard Variable Values to a Parent Domain", "score": 0.4194, "match_basis": "verbatim_token+chapter_route:ch04"}], "candidate_count": 5, "zero_candidate": false}
{"pdf_atom_id": "ig34_p0024_a012", "pdf_atom_type": "NOTE", "pdf_source": "SDTMIG_v3.4", "pdf_page": 24, "pdf_parent_section": "§4.1.7 [Splitting Domains]", "pdf_verbatim": "Note that submission of split SDTM domains may be subject to additional dataset-splitting conventions as defined by regulators via technical specifications and/or as negotiated with regulatory reviewers.", "figure_ref": null, "candidates": [{"md_atom_id": "md_ch04_a068", "md_file": "knowledge_base/chapters/ch04_general_assumptions.md", "md_atom_type": "NOTE", "md_parent_section": "§4.1.7 [Splitting Domains]", "md_verbatim": "> **Note:** Submission of split SDTM domains may be subject to additional dataset-splitting conventions as defined by regulators via technical specifications and/or as negotiated with regulatory reviewers.", "score": 0.8878, "match_basis": "verbatim_token+chapter_route:ch04"}, {"md_atom_id": "md_ch04_a351", "md_file": "knowledge_base/chapters/ch04_general_assumptions.md", "md_atom_type": "NOTE", "md_parent_section": "§4.2.8.1 [Multiple Values for an Intervention or Event Topic Variable]", "md_verbatim": "**Note:** The Disposition (DS) dataset is an exception to the general rule of splitting multiple topic values into separate records. For DS, 1 record for each disposition or protocol milestone is permitted according to the domain structure. For cases of multiple reasons for discontinuation see Section 6.2.4, Disposition, assumption 5 for additional information.", "score": 0.3995, "match_basis": "verbatim_token+chapter_route:ch04"}, {"md_atom_id": "md_ch04_a902", "md_file": "knowledge_base/chapters/ch04_general_assumptions.md", "md_atom_type": "NOTE", "md_parent_section": "§4.5.3.1 [Test Name (--TEST) Greater than 40 Characters]", "md_verbatim": "**Exception — IETEST in IE and TI domains:** IETEST values in the Inclusion/Exclusion Criteria Not Met (IE) and Trial Inclusion/Exclusion Criteria (TI) domains are exceptions to the 40-character rule and are limited to 200 characters, because these are not expected to be transformed to column labels. Values of IETEST that exceed 200 characters should be described in study metadata as per the convention above.", "score": 0.3798, "match_basis": "verbatim_token+chapter_route:ch04"}, {"md_atom_id": "md_ch04_a275", "md_file": "knowledge_base/chapters/ch04_general_assumptions.md", "md_atom_type": "NOTE", "md_parent_section": "§4.2.7.1 [\"Specify\" Values for Non-Result Qualifier Variables]", "md_verbatim": "> **Note:** QNAM references the \"parent\" variable name with the addition of \"DSC\". Likewise, the label is a modification of the parent variable label.", "score": 0.3733, "match_basis": "verbatim_token+chapter_route:ch04"}, {"md_atom_id": "md_ch04_a473", "md_file": "knowledge_base/chapters/ch04_general_assumptions.md", "md_atom_type": "NOTE", "md_parent_section": "§4.3.7 [Use of \"Yes\" and \"No\" Values]", "md_verbatim": "> **Note:** Permissible values for variables with controlled terms of \"Y\" or \"N\" may be extended to include \"U\" or \"NA\" if it is the sponsor's practice to explicitly collect or derive values indicating \"Unknown\" or \"Not Applicable\" for that variable.", "score": 0.3671, "match_basis": "verbatim_token+chapter_route:ch04"}], "candidate_count": 5, "zero_candidate": false}
{"pdf_atom_id": "ig34_p0024_a013", "pdf_atom_type": "HEADING", "pdf_source": "SDTMIG_v3.4", "pdf_page": 24, "pdf_parent_section": "§4.1.7.1 [Example of Splitting Questionnaires]", "pdf_verbatim": "4.1.7.1  Example of Splitting Questionnaires", "figure_ref": null, "candidates": [{"md_atom_id": "md_ch04_a069", "md_file": "knowledge_base/chapters/ch04_general_assumptions.md", "md_atom_type": "HEADING", "md_parent_section": "§4.1.7 [Splitting Domains]", "md_verbatim": "#### 4.1.7.1 Example of Splitting Questionnaires", "score": 0.9, "match_basis": "verbatim_token+chapter_route:ch04"}, {"md_atom_id": "md_ch04_a049", "md_file": "knowledge_base/chapters/ch04_general_assumptions.md", "md_atom_type": "HEADING", "md_parent_section": "§4.1 [General Domain Assumptions]", "md_verbatim": "### 4.1.7 Splitting Domains", "score": 0.4448, "match_basis": "verbatim_token+chapter_route:ch04"}, {"md_atom_id": "md_ch04_a831", "md_file": "knowledge_base/chapters/ch04_general_assumptions.md", "md_atom_type": "HEADING", "md_parent_section": "§4.5.1 [Original and Standardized Results]", "md_verbatim": "#### 4.5.1.3 Examples of Original and Standard Units and Test Not Done", "score": 0.3818, "match_basis": "verbatim_token+chapter_route:ch04"}, {"md_atom_id": "md_ch04_a624", "md_file": "knowledge_base/chapters/ch04_general_assumptions.md", "md_atom_type": "HEADING", "md_parent_section": "§4.4 [Actual and Relative Time Assumptions]", "md_verbatim": "### 4.4.6 Representing Additional Study Days", "score": 0.3714, "match_basis": "verbatim_token+chapter_route:ch04"}, {"md_atom_id": "md_ch04_a257", "md_file": "knowledge_base/chapters/ch04_general_assumptions.md", "md_atom_type": "HEADING", "md_parent_section": "§4.2 [General Variable Assumptions]", "md_verbatim": "### 4.2.7 Submitting Free Text from the CRF", "score": 0.3667, "match_basis": "verbatim_token+chapter_route:ch04"}], "candidate_count": 5, "zero_candidate": false}
{"pdf_atom_id": "ig34_p0024_a014", "pdf_atom_type": "SENTENCE", "pdf_source": "SDTMIG_v3.4", "pdf_page": 24, "pdf_parent_section": "§4.1.7.1 [Example of Splitting Questionnaires]", "pdf_verbatim": "QRS datasets are routinely created and reviewed for the individual QRS instrument.", "figure_ref": null, "candidates": [{"md_atom_id": "md_ch04_a070", "md_file": "knowledge_base/chapters/ch04_general_assumptions.md", "md_atom_type": "SENTENCE", "md_parent_section": "§4.1.7.1 [Example of Splitting Questionnaires]", "md_verbatim": "QRS datasets are routinely created and reviewed for the individual QRS instrument.", "score": 0.9, "match_basis": "verbatim_token+chapter_route:ch04"}, {"md_atom_id": "md_ch04_a008", "md_file": "knowledge_base/chapters/ch04_general_assumptions.md", "md_atom_type": "SENTENCE", "md_parent_section": "§4.1.1 [Review Study Data Tabulation Model and Implementation Guide]", "md_verbatim": "Review the SDTM as well as this complete implementation guide before attempting to use any of the individual domain models.", "score": 0.4159, "match_basis": "verbatim_token+chapter_route:ch04"}, {"md_atom_id": "md_ch04_a125", "md_file": "knowledge_base/chapters/ch04_general_assumptions.md", "md_atom_type": "SENTENCE", "md_parent_section": "§4.1.8.1 [Origin Metadata for Variables]", "md_verbatim": "The origin element in the Define-XML file is used to indicate where the data originated.", "score": 0.3882, "match_basis": "verbatim_token+chapter_route:ch04"}, {"md_atom_id": "md_ch04_a357", "md_file": "knowledge_base/chapters/ch04_general_assumptions.md", "md_atom_type": "SENTENCE", "md_parent_section": "§4.2.8.2 [Multiple Values for a Findings Result Variable]", "md_verbatim": "When a finding can have multiple results, the key structure for the findings dataset must be adequate to distinguish between the multiple results.", "score": 0.3876, "match_basis": "verbatim_token+chapter_route:ch04"}, {"md_atom_id": "md_ch04_a028", "md_file": "knowledge_base/chapters/ch04_general_assumptions.md", "md_atom_type": "SENTENCE", "md_parent_section": "§4.1.4 [Order of the Variables]", "md_verbatim": "The order of variables in the Define-XML document must reflect the order of variables in the dataset.", "score": 0.387, "match_basis": "verbatim_token+chapter_route:ch04"}], "candidate_count": 5, "zero_candidate": false}
{"pdf_atom_id": "ig34_p0024_a015", "pdf_atom_type": "SENTENCE", "pdf_source": "SDTMIG_v3.4", "pdf_page": 24, "pdf_parent_section": "§4.1.7.1 [Example of Splitting Questionnaires]", "pdf_verbatim": "This example shows the QS domain data split into 3 datasets: Clinical Global Impression (QSCG), Pain Intensity (QSPI), and Satisfaction of Life Scale (QSSW).", "figure_ref": null, "candidates": [{"md_atom_id": "md_ch04_a071", "md_file": "knowledge_base/chapters/ch04_general_assumptions.md", "md_atom_type": "SENTENCE", "md_parent_section": "§4.1.7.1 [Example of Splitting Questionnaires]", "md_verbatim": "This example shows the QS domain data split into 3 datasets: Clinical Global Impression (QSCG), Pain Intensity (QSPI), and Satisfaction of Life Scale (QSSW).", "score": 0.9, "match_basis": "verbatim_token+chapter_route:ch04"}, {"md_atom_id": "md_ch04_a073", "md_file": "knowledge_base/chapters/ch04_general_assumptions.md", "md_atom_type": "SENTENCE", "md_parent_section": "§4.1.7.1 [Example of Splitting Questionnaires]", "md_verbatim": "**Dataset for Clinical Global Impressions — qscg.xpt**", "score": 0.5027, "match_basis": "verbatim_token+chapter_route:ch04"}, {"md_atom_id": "md_ch04_a090", "md_file": "knowledge_base/chapters/ch04_general_assumptions.md", "md_atom_type": "SENTENCE", "md_parent_section": "§4.1.7.1 [Example of Splitting Questionnaires]", "md_verbatim": "**Dataset for Satisfaction of Life Scale — qssw.xpt**", "score": 0.4808, "match_basis": "verbatim_token+chapter_route:ch04"}, {"md_atom_id": "md_ch04_a082", "md_file": "knowledge_base/chapters/ch04_general_assumptions.md", "md_atom_type": "SENTENCE", "md_parent_section": "§4.1.7.1 [Example of Splitting Questionnaires]", "md_verbatim": "**Dataset for Pain Intensity — qspi.xpt**", "score": 0.4315, "match_basis": "verbatim_token+chapter_route:ch04"}, {"md_atom_id": "md_ch04_a050", "md_file": "knowledge_base/chapters/ch04_general_assumptions.md", "md_atom_type": "SENTENCE", "md_parent_section": "§4.1.7 [Splitting Domains]", "md_verbatim": "Sponsors may choose to split a domain of topically related information into physically separate datasets.", "score": 0.4121, "match_basis": "verbatim_token+chapter_route:ch04"}], "candidate_count": 5, "zero_candidate": false}
{"pdf_atom_id": "ig34_p0024_a016", "pdf_atom_type": "SENTENCE", "pdf_source": "SDTMIG_v3.4", "pdf_page": 24, "pdf_parent_section": "§4.1.7.1 [Example of Splitting Questionnaires]", "pdf_verbatim": "Each dataset represents a subset of the QS domain data and has only 1 value of QSCAT.", "figure_ref": null, "candidates": [{"md_atom_id": "md_ch04_a072", "md_file": "knowledge_base/chapters/ch04_general_assumptions.md", "md_atom_type": "SENTENCE", "md_parent_section": "§4.1.7.1 [Example of Splitting Questionnaires]", "md_verbatim": "Each dataset represents a subset of the QS domain data and has only 1 value of QSCAT.", "score": 0.9, "match_basis": "verbatim_token+chapter_route:ch04"}, {"md_atom_id": "md_ch04_a959", "md_file": "knowledge_base/chapters/ch04_general_assumptions.md", "md_atom_type": "SENTENCE", "md_parent_section": "§4.5.4 [Evaluators in the Interventions and Events Observation Classes]", "md_verbatim": "The evaluations of the adverse event by the primary investigator were represented in the standard AE dataset.", "score": 0.4352, "match_basis": "verbatim_token+chapter_route:ch04"}, {"md_atom_id": "md_ch04_a431", "md_file": "knowledge_base/chapters/ch04_general_assumptions.md", "md_atom_type": "SENTENCE", "md_parent_section": "§4.3.3 [Controlled Terminology Values]", "md_verbatim": "All values in the permissible value set for the study should be included, whether or not they are represented in submitted data.", "score": 0.425, "match_basis": "verbatim_token+chapter_route:ch04"}, {"md_atom_id": "md_ch04_a977", "md_file": "knowledge_base/chapters/ch04_general_assumptions.md", "md_atom_type": "SENTENCE", "md_parent_section": "§4.5.6 [Supplemental Reason Variables]", "md_verbatim": "For Events and Interventions domains where prespecified occurrences have a reason for the \"Y\" or \"N\" value of --OCCUR, the reason can be represented with the variable --REASOC.", "score": 0.4229, "match_basis": "verbatim_token+chapter_route:ch04"}, {"md_atom_id": "md_ch04_a044", "md_file": "knowledge_base/chapters/ch04_general_assumptions.md", "md_atom_type": "SENTENCE", "md_parent_section": "§4.1.6 [Additional Guidance on Dataset Naming]", "md_verbatim": "Exceptions to this rule are described in Section 4.1.7, Splitting Domains, for general observation class datasets and in Section 8, Representing Relationships and Data, for RELREC and SUPP-- datasets.", "score": 0.4161, "match_basis": "verbatim_token+chapter_route:ch04"}], "candidate_count": 5, "zero_candidate": false}
{"pdf_atom_id": "ig34_p0025_a001", "pdf_atom_type": "HEADING", "pdf_source": "SDTMIG_v3.4", "pdf_page": 25, "pdf_parent_section": "§4.1.7.1 [Example of Splitting Questionnaires]", "pdf_verbatim": "QS Domains", "figure_ref": null, "candidates": [{"md_atom_id": "md_ch04_a049", "md_file": "knowledge_base/chapters/ch04_general_assumptions.md", "md_atom_type": "HEADING", "md_parent_section": "§4.1 [General Domain Assumptions]", "md_verbatim": "### 4.1.7 Splitting Domains", "score": 0.55, "match_basis": "verbatim_token+chapter_route:ch04"}, {"md_atom_id": "md_ch04_a006", "md_file": "knowledge_base/chapters/ch04_general_assumptions.md", "md_atom_type": "HEADING", "md_parent_section": "§4 [Assumptions for Domain Models]", "md_verbatim": "## 4.1 General Domain Assumptions", "score": 0.4263, "match_basis": "verbatim_token+chapter_route:ch04"}, {"md_atom_id": "md_ch04_a192", "md_file": "knowledge_base/chapters/ch04_general_assumptions.md", "md_atom_type": "HEADING", "md_parent_section": "§4.2 [General Variable Assumptions]", "md_verbatim": "### 4.2.2 Two-character Domain Identifier", "score": 0.4143, "match_basis": "verbatim_token+chapter_route:ch04"}, {"md_atom_id": "md_ch04_a680", "md_file": "knowledge_base/chapters/ch04_general_assumptions.md", "md_atom_type": "HEADING", "md_parent_section": "§4.4 [Use of Timing Variables]", "md_verbatim": "### 4.4.8 Date and Time Reported in a Domain Based on Findings", "score": 0.396, "match_basis": "verbatim_token+chapter_route:ch04"}, {"md_atom_id": "md_ch04_a001", "md_file": "knowledge_base/chapters/ch04_general_assumptions.md", "md_atom_type": "HEADING", "md_parent_section": "§4 [Assumptions for Domain Models]", "md_verbatim": "# SDTMIG v3.4 — Chapter 4: Assumptions for Domain Models", "score": 0.3857, "match_basis": "verbatim_token+chapter_route:ch04"}, {"md_atom_id": "md_ch04_a452", "md_file": "knowledge_base/chapters/ch04_general_assumptions.md", "md_atom_type": "HEADING", "md_parent_section": "§4.3 [Coding and Controlled Terminology Assumptions]", "md_verbatim": "### 4.3.6 Storing Topic Variables for General Domain Models", "score": 0.38, "match_basis": "verbatim_token+chapter_route:ch04"}, {"md_atom_id": "md_ch04_a893", "md_file": "knowledge_base/chapters/ch04_general_assumptions.md", "md_atom_type": "HEADING", "md_parent_section": "§4.5 [Other Assumptions]", "md_verbatim": "### 4.5.3 Text Strings that Exceed the Maximum Length for General Observation-class Domain Variables", "score": 0.3453, "match_basis": "verbatim_token+chapter_route:ch04"}, {"md_atom_id": "md_ch04_a591", "md_file": "knowledge_base/chapters/ch04_general_assumptions.md", "md_atom_type": "HEADING", "md_parent_section": "§4.4.3 [Intervals of Time and Use of Duration for --DUR Variables]", "md_verbatim": "#### 4.4.3.2 Interval with Uncertainty", "score": 0.33, "match_basis": "verbatim_token+chapter_route:ch04"}, {"md_atom_id": "md_ch04_a003", "md_file": "knowledge_base/chapters/ch04_general_assumptions.md", "md_atom_type": "HEADING", "md_parent_section": "§4 [Assumptions for Domain Models]", "md_verbatim": "## Overview", "score": 0.3, "match_basis": "verbatim_token+chapter_route:ch04"}, {"md_atom_id": "md_ch04_a007", "md_file": "knowledge_base/chapters/ch04_general_assumptions.md", "md_atom_type": "HEADING", "md_parent_section": "§4.1 [General Domain Assumptions]", "md_verbatim": "### 4.1.1 Review Study Data Tabulation Model and Implementation Guide", "score": 0.3, "match_basis": "verbatim_token+chapter_route:ch04"}], "candidate_count": 10, "zero_candidate": false}
{"pdf_atom_id": "ig34_p0025_a002", "pdf_atom_type": "HEADING", "pdf_source": "SDTMIG_v3.4", "pdf_page": 25, "pdf_parent_section": "§4.1.7.1 [Example of Splitting Questionnaires]", "pdf_verbatim": "Dataset for Clinical Global Impressions", "figure_ref": null, "candidates": [{"md_atom_id": "md_ch04_a968", "md_file": "knowledge_base/chapters/ch04_general_assumptions.md", "md_atom_type": "HEADING", "md_parent_section": "§4.5 [Other Assumptions]", "md_verbatim": "### 4.5.5 Clinical Significance for Findings Observation Class Data", "score": 0.4176, "match_basis": "verbatim_token+chapter_route:ch04"}, {"md_atom_id": "md_ch04_a010", "md_file": "knowledge_base/chapters/ch04_general_assumptions.md", "md_atom_type": "HEADING", "md_parent_section": "§4.1 [General Domain Assumptions]", "md_verbatim": "### 4.1.2 Relationship to Analysis Datasets", "score": 0.405, "match_basis": "verbatim_token+chapter_route:ch04"}, {"md_atom_id": "md_ch04_a605", "md_file": "knowledge_base/chapters/ch04_general_assumptions.md", "md_atom_type": "HEADING", "md_parent_section": "§4.4 [Actual and Relative Time Assumptions]", "md_verbatim": "### 4.4.5 Clinical Encounters and Visits", "score": 0.3947, "match_basis": "verbatim_token+chapter_route:ch04"}, {"md_atom_id": "md_ch04_a041", "md_file": "knowledge_base/chapters/ch04_general_assumptions.md", "md_atom_type": "HEADING", "md_parent_section": "§4.1 [General Domain Assumptions]", "md_verbatim": "### 4.1.6 Additional Guidance on Dataset Naming", "score": 0.3857, "match_basis": "verbatim_token+chapter_route:ch04"}, {"md_atom_id": "md_ch04_a509", "md_file": "knowledge_base/chapters/ch04_general_assumptions.md", "md_atom_type": "HEADING", "md_parent_section": "§4.4 [Actual and Relative Time Assumptions]", "md_verbatim": "### 4.4.2 Date/Time Precision", "score": 0.375, "match_basis": "verbatim_token+chapter_route:ch04"}], "candidate_count": 5, "zero_candidate": false}
{"pdf_atom_id": "ig34_p0025_a003", "pdf_atom_type": "CODE_LITERAL", "pdf_source": "SDTMIG_v3.4", "pdf_page": 25, "pdf_parent_section": "§4.1.7.1 [Example of Splitting Questionnaires]", "pdf_verbatim": "qscg.xpt", "figure_ref": null, "candidates": [{"md_atom_id": "md_ch04_a207", "md_file": "knowledge_base/chapters/ch04_general_assumptions.md", "md_atom_type": "CODE_LITERAL", "md_parent_section": "§4.2.3 [Use of \"Subject\" and USUBJID]", "md_verbatim": "dm.xpt:", "score": 0.29, "match_basis": "verbatim_token+chapter_route:ch04"}, {"md_atom_id": "md_ch04_a210", "md_file": "knowledge_base/chapters/ch04_general_assumptions.md", "md_atom_type": "CODE_LITERAL", "md_parent_section": "§4.2.3 [Use of \"Subject\" and USUBJID]", "md_verbatim": "dm.xpt:", "score": 0.29, "match_basis": "verbatim_token+chapter_route:ch04"}, {"md_atom_id": "md_ch04_a368", "md_file": "knowledge_base/chapters/ch04_general_assumptions.md", "md_atom_type": "CODE_LITERAL", "md_parent_section": "§4.2.8.3 [Multiple Values for a Non-result Qualifier Variable]", "md_verbatim": "ae.xpt:", "score": 0.29, "match_basis": "verbatim_token+chapter_route:ch04"}, {"md_atom_id": "md_ch04_a378", "md_file": "knowledge_base/chapters/ch04_general_assumptions.md", "md_atom_type": "CODE_LITERAL", "md_parent_section": "§4.2.8.3 [Multiple Values for a Non-result Qualifier Variable]", "md_verbatim": "ae.xpt:", "score": 0.29, "match_basis": "verbatim_token+chapter_route:ch04"}, {"md_atom_id": "md_ch04_a391", "md_file": "knowledge_base/chapters/ch04_general_assumptions.md", "md_atom_type": "CODE_LITERAL", "md_parent_section": "§4.2.8.3 [Multiple Values for a Non-result Qualifier Variable]", "md_verbatim": "ae.xpt:", "score": 0.29, "match_basis": "verbatim_token+chapter_route:ch04"}, {"md_atom_id": "md_ch04_a835", "md_file": "knowledge_base/chapters/ch04_general_assumptions.md", "md_atom_type": "CODE_LITERAL", "md_parent_section": "§4.5.1.3 [Examples of Original and Standard Units and Test Not Done]", "md_verbatim": "lb.xpt", "score": 0.29, "match_basis": "verbatim_token+chapter_route:ch04"}, {"md_atom_id": "md_ch04_a861", "md_file": "knowledge_base/chapters/ch04_general_assumptions.md", "md_atom_type": "CODE_LITERAL", "md_parent_section": "§4.5.1.3 [Examples of Original and Standard Units and Test Not Done]", "md_verbatim": "eg.xpt", "score": 0.29, "match_basis": "verbatim_token+chapter_route:ch04"}, {"md_atom_id": "md_ch04_a877", "md_file": "knowledge_base/chapters/ch04_general_assumptions.md", "md_atom_type": "CODE_LITERAL", "md_parent_section": "§4.5.1.3 [Examples of Original and Standard Units and Test Not Done]", "md_verbatim": "vs.xpt", "score": 0.29, "match_basis": "verbatim_token+chapter_route:ch04"}, {"md_atom_id": "md_ch04_a917", "md_file": "knowledge_base/chapters/ch04_general_assumptions.md", "md_atom_type": "CODE_LITERAL", "md_parent_section": "§4.5.3.2 [Text Strings Greater than 200 Characters in Other Variables]", "md_verbatim": "mh.xpt", "score": 0.29, "match_basis": "verbatim_token+chapter_route:ch04"}, {"md_atom_id": "md_ch04_a919", "md_file": "knowledge_base/chapters/ch04_general_assumptions.md", "md_atom_type": "SENTENCE", "md_parent_section": "§4.5.3.2 [Text Strings Greater than 200 Characters in Other Variables]", "md_verbatim": "mh.xpt:", "score": 0.29, "match_basis": "verbatim_token+chapter_route:ch04"}], "candidate_count": 10, "zero_candidate": false}
{"pdf_atom_id": "ig34_p0025_a004", "pdf_atom_type": "TABLE_HEADER", "pdf_source": "SDTMIG_v3.4", "pdf_page": 25, "pdf_parent_section": "§4.1.7.1 [Example of Splitting Questionnaires]", "pdf_verbatim": "Row | STUDYID | DOMAIN | USUBJID | QSSEQ | QSTESTCD | QSTEST | QSCAT | QSORRES | QSSTRESC | QSSTRESN | QSLOBXFL | VISITNUM | VISIT | VISITDY | QSDTC | QSDY", "figure_ref": null, "candidates": [{"md_atom_id": "md_ch04_a074", "md_file": "knowledge_base/chapters/ch04_general_assumptions.md", "md_atom_type": "TABLE_HEADER", "md_parent_section": "§4.1.7.1 [Example of Splitting Questionnaires]", "md_verbatim": "| Row | STUDYID | DOMAIN | USUBJID | QSSEQ | QSTESTCD | QSTEST | QSCAT | QSORRES | QSSTRESC | QSSTRESN | QSLOBXFL | VISITNUM | VISIT | VISITDY | QSDTC | QSDY |\n|-----|---------|--------|---------|-------|----------|--------|-------|---------|----------|----------|----------|----------|-------|---------|-------|------|", "score": 0.9, "match_basis": "verbatim_token+chapter_route:ch04"}, {"md_atom_id": "md_ch04_a091", "md_file": "knowledge_base/chapters/ch04_general_assumptions.md", "md_atom_type": "TABLE_HEADER", "md_parent_section": "§4.1.7.1 [Example of Splitting Questionnaires]", "md_verbatim": "| Row | STUDYID | DOMAIN | USUBJID | QSSEQ | QSTESTCD | QSTEST | QSCAT | QSORRES | QSSTRESC | QSSTRESN | QSLOBXFL | VISITNUM | QSDTC | QSDY |", "score": 0.8782, "match_basis": "verbatim_token+chapter_route:ch04"}, {"md_atom_id": "md_ch04_a083", "md_file": "knowledge_base/chapters/ch04_general_assumptions.md", "md_atom_type": "TABLE_HEADER", "md_parent_section": "§4.1.7.1 [Example of Splitting Questionnaires]", "md_verbatim": "| Row | STUDYID | DOMAIN | USUBJID | QSSEQ | QSTESTCD | QSTEST | QSCAT | QSSCAT | QSORRES | QSORRESU | QSSTRESC | QSSTRESN | QSSTRESU | QSLOC | QSMETHOD | QSLOBXFL | VISITNUM | QSDTC | QSDY | QSEVLINT |", "score": 0.7543, "match_basis": "verbatim_token+chapter_route:ch04"}, {"md_atom_id": "md_ch04_a883", "md_file": "knowledge_base/chapters/ch04_general_assumptions.md", "md_atom_type": "TABLE_HEADER", "md_parent_section": "§4.5.1.3 [Examples of Original and Standard Units and Test Not Done]", "md_verbatim": "| Row | VSTESTCD | VSORRES | VSORRESU | VSSTRESC | VSSTRESN | VSSTRESU | VSSTAT | VSDRVFL | VISITNUM | VSDTC |\n|-----|----------|---------|----------|----------|----------|----------|--------|---------|----------|-------|", "score": 0.5091, "match_basis": "verbatim_token+chapter_route:ch04"}, {"md_atom_id": "md_ch04_a847", "md_file": "knowledge_base/chapters/ch04_general_assumptions.md", "md_atom_type": "TABLE_HEADER", "md_parent_section": "§4.5.1.3 [Examples of Original and Standard Units and Test Not Done]", "md_verbatim": "| Row | LBTESTCD | LBCAT | LBORRES | LBORRESU | LBSTRESC | LBSTRESN | LBSTRESU | LBSTAT | LBLOBXFL | VISITNUM | LBDTC |\n|-----|----------|-------|---------|----------|----------|----------|----------|--------|----------|----------|-------|", "score": 0.5057, "match_basis": "verbatim_token+chapter_route:ch04"}], "candidate_count": 5, "zero_candidate": false}
{"pdf_atom_id": "ig34_p0025_a005", "pdf_atom_type": "TABLE_ROW", "pdf_source": "SDTMIG_v3.4", "pdf_page": 25, "pdf_parent_section": "§4.1.7.1 [Example of Splitting Questionnaires]", "pdf_verbatim": "1 | CDISC01 | QS | CDISC01.100008 | 1 | CGI0201 | CGI02-Severity | CGI | Moderate | 4 | 4 | Y | | WEEK 1 | | 2003-04-15 | 1", "figure_ref": null, "candidates": [{"md_atom_id": "md_ch04_a075", "md_file": "knowledge_base/chapters/ch04_general_assumptions.md", "md_atom_type": "TABLE_ROW", "md_parent_section": "§4.1.7.1 [Example of Splitting Questionnaires]", "md_verbatim": "| 1 | CDISC01 | QS | CDISC01.100008 | 1 | CGI0201 | CGI02-Severity | CGI | Moderate | 4 | 4 | | 1 | WEEK 1 | 7 | 2003-04-15 | 1 |", "score": 0.9, "match_basis": "verbatim_token+chapter_route:ch04"}, {"md_atom_id": "md_ch04_a079", "md_file": "knowledge_base/chapters/ch04_general_assumptions.md", "md_atom_type": "TABLE_ROW", "md_parent_section": "§4.1.7.1 [Example of Splitting Questionnaires]", "md_verbatim": "| 5 | CDISC01 | QS | CDISC01.100014 | 1 | CGI0201 | CGI02-Severity | CGI | Moderate | 4 | 4 | | 1 | WEEK 1 | 7 | 2003-04-15 | 1 |", "score": 0.8419, "match_basis": "verbatim_token+chapter_route:ch04"}, {"md_atom_id": "md_ch04_a076", "md_file": "knowledge_base/chapters/ch04_general_assumptions.md", "md_atom_type": "TABLE_ROW", "md_parent_section": "§4.1.7.1 [Example of Splitting Questionnaires]", "md_verbatim": "| 2 | CDISC01 | QS | CDISC01.100008 | 2 | CGI0201 | CGI02-Severity | CGI | Mild | 3 | 3 | | 2 | WEEK 2 | 7 | 2003-04-21 | 7 |", "score": 0.7452, "match_basis": "verbatim_token+chapter_route:ch04"}, {"md_atom_id": "md_ch04_a080", "md_file": "knowledge_base/chapters/ch04_general_assumptions.md", "md_atom_type": "TABLE_ROW", "md_parent_section": "§4.1.7.1 [Example of Splitting Questionnaires]", "md_verbatim": "| 6 | CDISC01 | QS | CDISC01.100014 | 2 | CGI0201 | CGI02-Severity | CGI | Mild | 3 | 3 | | 2 | WEEK 2 | 7 | 2003-04-21 | 7 |", "score": 0.7, "match_basis": "verbatim_token+chapter_route:ch04"}, {"md_atom_id": "md_ch04_a077", "md_file": "knowledge_base/chapters/ch04_general_assumptions.md", "md_atom_type": "TABLE_ROW", "md_parent_section": "§4.1.7.1 [Example of Splitting Questionnaires]", "md_verbatim": "| 3 | CDISC01 | QS | CDISC01.100008 | 3 | CGI0202 | CGI02-Change | CGI | Minimally Improved | 3 | 3 | | 2 | WEEK 2 | 7 | 2003-04-21 | 7 |", "score": 0.5043, "match_basis": "verbatim_token+chapter_route:ch04"}], "candidate_count": 5, "zero_candidate": false}
{"pdf_atom_id": "ig34_p0025_a006", "pdf_atom_type": "TABLE_ROW", "pdf_source": "SDTMIG_v3.4", "pdf_page": 25, "pdf_parent_section": "§4.1.7.1 [Example of Splitting Questionnaires]", "pdf_verbatim": "2 | CDISC01 | QS | CDISC01.100008 | 2 | CGI0201 | CGI02-Severity | CGI | Mild | 3 | 3 | | | WEEK 2 | 7 | 2003-04-21 | 7", "figure_ref": null, "candidates": [{"md_atom_id": "md_ch04_a076", "md_file": "knowledge_base/chapters/ch04_general_assumptions.md", "md_atom_type": "TABLE_ROW", "md_parent_section": "§4.1.7.1 [Example of Splitting Questionnaires]", "md_verbatim": "| 2 | CDISC01 | QS | CDISC01.100008 | 2 | CGI0201 | CGI02-Severity | CGI | Mild | 3 | 3 | | 2 | WEEK 2 | 7 | 2003-04-21 | 7 |", "score": 0.9, "match_basis": "verbatim_token+chapter_route:ch04"}, {"md_atom_id": "md_ch04_a080", "md_file": "knowledge_base/chapters/ch04_general_assumptions.md", "md_atom_type": "TABLE_ROW", "md_parent_section": "§4.1.7.1 [Example of Splitting Questionnaires]", "md_verbatim": "| 6 | CDISC01 | QS | CDISC01.100014 | 2 | CGI0201 | CGI02-Severity | CGI | Mild | 3 | 3 | | 2 | WEEK 2 | 7 | 2003-04-21 | 7 |", "score": 0.8333, "match_basis": "verbatim_token+chapter_route:ch04"}, {"md_atom_id": "md_ch04_a075", "md_file": "knowledge_base/chapters/ch04_general_assumptions.md", "md_atom_type": "TABLE_ROW", "md_parent_section": "§4.1.7.1 [Example of Splitting Questionnaires]", "md_verbatim": "| 1 | CDISC01 | QS | CDISC01.100008 | 1 | CGI0201 | CGI02-Severity | CGI | Moderate | 4 | 4 | | 1 | WEEK 1 | 7 | 2003-04-15 | 1 |", "score": 0.7452, "match_basis": "verbatim_token+chapter_route:ch04"}, {"md_atom_id": "md_ch04_a079", "md_file": "knowledge_base/chapters/ch04_general_assumptions.md", "md_atom_type": "TABLE_ROW", "md_parent_section": "§4.1.7.1 [Example of Splitting Questionnaires]", "md_verbatim": "| 5 | CDISC01 | QS | CDISC01.100014 | 1 | CGI0201 | CGI02-Severity | CGI | Moderate | 4 | 4 | | 1 | WEEK 1 | 7 | 2003-04-15 | 1 |", "score": 0.7, "match_basis": "verbatim_token+chapter_route:ch04"}, {"md_atom_id": "md_ch04_a077", "md_file": "knowledge_base/chapters/ch04_general_assumptions.md", "md_atom_type": "TABLE_ROW", "md_parent_section": "§4.1.7.1 [Example of Splitting Questionnaires]", "md_verbatim": "| 3 | CDISC01 | QS | CDISC01.100008 | 3 | CGI0202 | CGI02-Change | CGI | Minimally Improved | 3 | 3 | | 2 | WEEK 2 | 7 | 2003-04-21 | 7 |", "score": 0.5233, "match_basis": "verbatim_token+chapter_route:ch04"}], "candidate_count": 5, "zero_candidate": false}
{"pdf_atom_id": "ig34_p0025_a007", "pdf_atom_type": "TABLE_ROW", "pdf_source": "SDTMIG_v3.4", "pdf_page": 25, "pdf_parent_section": "§4.1.7.1 [Example of Splitting Questionnaires]", "pdf_verbatim": "3 | CDISC01 | QS | CDISC01.100008 | 3 | CGI0202 | CGI02-Change | CGI | Minimally Improved | 3 | 3 | | 2 | WEEK 2 | 7 | 2003-04-21 | 7", "figure_ref": null, "candidates": [{"md_atom_id": "md_ch04_a077", "md_file": "knowledge_base/chapters/ch04_general_assumptions.md", "md_atom_type": "TABLE_ROW", "md_parent_section": "§4.1.7.1 [Example of Splitting Questionnaires]", "md_verbatim": "| 3 | CDISC01 | QS | CDISC01.100008 | 3 | CGI0202 | CGI02-Change | CGI | Minimally Improved | 3 | 3 | | 2 | WEEK 2 | 7 | 2003-04-21 | 7 |", "score": 0.9, "match_basis": "verbatim_token+chapter_route:ch04"}, {"md_atom_id": "md_ch04_a078", "md_file": "knowledge_base/chapters/ch04_general_assumptions.md", "md_atom_type": "TABLE_ROW", "md_parent_section": "§4.1.7.1 [Example of Splitting Questionnaires]", "md_verbatim": "| 4 | CDISC01 | QS | CDISC01.100008 | 4 | CGI0203 | CGI02-Improvement | CGI | A little better | 3 | 3 | | 2 | WEEK 2 | 7 | 2003-04-21 | 7 |", "score": 0.5681, "match_basis": "verbatim_token+chapter_route:ch04"}, {"md_atom_id": "md_ch04_a081", "md_file": "knowledge_base/chapters/ch04_general_assumptions.md", "md_atom_type": "TABLE_ROW", "md_parent_section": "§4.1.7.1 [Example of Splitting Questionnaires]", "md_verbatim": "| 8 | CDISC01 | QS | CDISC01.100014 | 4 | CGI0203 | CGI02-Improvement | CGI | A little better | 3 | 3 | | 2 | WEEK 2 | 7 | 2003-04-21 | 7 |", "score": 0.5449, "match_basis": "verbatim_token+chapter_route:ch04"}, {"md_atom_id": "md_ch04_a076", "md_file": "knowledge_base/chapters/ch04_general_assumptions.md", "md_atom_type": "TABLE_ROW", "md_parent_section": "§4.1.7.1 [Example of Splitting Questionnaires]", "md_verbatim": "| 2 | CDISC01 | QS | CDISC01.100008 | 2 | CGI0201 | CGI02-Severity | CGI | Mild | 3 | 3 | | 2 | WEEK 2 | 7 | 2003-04-21 | 7 |", "score": 0.5233, "match_basis": "verbatim_token+chapter_route:ch04"}, {"md_atom_id": "md_ch04_a075", "md_file": "knowledge_base/chapters/ch04_general_assumptions.md", "md_atom_type": "TABLE_ROW", "md_parent_section": "§4.1.7.1 [Example of Splitting Questionnaires]", "md_verbatim": "| 1 | CDISC01 | QS | CDISC01.100008 | 1 | CGI0201 | CGI02-Severity | CGI | Moderate | 4 | 4 | | 1 | WEEK 1 | 7 | 2003-04-15 | 1 |", "score": 0.5043, "match_basis": "verbatim_token+chapter_route:ch04"}], "candidate_count": 5, "zero_candidate": false}
{"pdf_atom_id": "ig34_p0025_a008", "pdf_atom_type": "TABLE_ROW", "pdf_source": "SDTMIG_v3.4", "pdf_page": 25, "pdf_parent_section": "§4.1.7.1 [Example of Splitting Questionnaires]", "pdf_verbatim": "4 | CDISC01 | QS | CDISC01.100008 | 4 | CGI0203 | CGI02-Improvement | CGI | A little better | 3 | 3 | | 2 | WEEK 2 | 7 | 2003-04-21 | 7", "figure_ref": null, "candidates": [{"md_atom_id": "md_ch04_a078", "md_file": "knowledge_base/chapters/ch04_general_assumptions.md", "md_atom_type": "TABLE_ROW", "md_parent_section": "§4.1.7.1 [Example of Splitting Questionnaires]", "md_verbatim": "| 4 | CDISC01 | QS | CDISC01.100008 | 4 | CGI0203 | CGI02-Improvement | CGI | A little better | 3 | 3 | | 2 | WEEK 2 | 7 | 2003-04-21 | 7 |", "score": 0.9, "match_basis": "verbatim_token+chapter_route:ch04"}, {"md_atom_id": "md_ch04_a081", "md_file": "knowledge_base/chapters/ch04_general_assumptions.md", "md_atom_type": "TABLE_ROW", "md_parent_section": "§4.1.7.1 [Example of Splitting Questionnaires]", "md_verbatim": "| 8 | CDISC01 | QS | CDISC01.100014 | 4 | CGI0203 | CGI02-Improvement | CGI | A little better | 3 | 3 | | 2 | WEEK 2 | 7 | 2003-04-21 | 7 |", "score": 0.85, "match_basis": "verbatim_token+chapter_route:ch04"}, {"md_atom_id": "md_ch04_a077", "md_file": "knowledge_base/chapters/ch04_general_assumptions.md", "md_atom_type": "TABLE_ROW", "md_parent_section": "§4.1.7.1 [Example of Splitting Questionnaires]", "md_verbatim": "| 3 | CDISC01 | QS | CDISC01.100008 | 3 | CGI0202 | CGI02-Change | CGI | Minimally Improved | 3 | 3 | | 2 | WEEK 2 | 7 | 2003-04-21 | 7 |", "score": 0.5681, "match_basis": "verbatim_token+chapter_route:ch04"}, {"md_atom_id": "md_ch04_a076", "md_file": "knowledge_base/chapters/ch04_general_assumptions.md", "md_atom_type": "TABLE_ROW", "md_parent_section": "§4.1.7.1 [Example of Splitting Questionnaires]", "md_verbatim": "| 2 | CDISC01 | QS | CDISC01.100008 | 2 | CGI0201 | CGI02-Severity | CGI | Mild | 3 | 3 | | 2 | WEEK 2 | 7 | 2003-04-21 | 7 |", "score": 0.5233, "match_basis": "verbatim_token+chapter_route:ch04"}, {"md_atom_id": "md_ch04_a075", "md_file": "knowledge_base/chapters/ch04_general_assumptions.md", "md_atom_type": "TABLE_ROW", "md_parent_section": "§4.1.7.1 [Example of Splitting Questionnaires]", "md_verbatim": "| 1 | CDISC01 | QS | CDISC01.100008 | 1 | CGI0201 | CGI02-Severity | CGI | Moderate | 4 | 4 | | 1 | WEEK 1 | 7 | 2003-04-15 | 1 |", "score": 0.5043, "match_basis": "verbatim_token+chapter_route:ch04"}], "candidate_count": 5, "zero_candidate": false}
{"pdf_atom_id": "ig34_p0025_a009", "pdf_atom_type": "TABLE_ROW", "pdf_source": "SDTMIG_v3.4", "pdf_page": 25, "pdf_parent_section": "§4.1.7.1 [Example of Splitting Questionnaires]", "pdf_verbatim": "5 | CDISC01 | QS | CDISC01.100014 | 1 | CGI0201 | CGI02-Severity | CGI | Moderate | 4 | 4 | Y | | WEEK 1 | | 2003-04-15 | 1", "figure_ref": null, "candidates": [{"md_atom_id": "md_ch04_a079", "md_file": "knowledge_base/chapters/ch04_general_assumptions.md", "md_atom_type": "TABLE_ROW", "md_parent_section": "§4.1.7.1 [Example of Splitting Questionnaires]", "md_verbatim": "| 5 | CDISC01 | QS | CDISC01.100014 | 1 | CGI0201 | CGI02-Severity | CGI | Moderate | 4 | 4 | | 1 | WEEK 1 | 7 | 2003-04-15 | 1 |", "score": 0.9, "match_basis": "verbatim_token+chapter_route:ch04"}, {"md_atom_id": "md_ch04_a075", "md_file": "knowledge_base/chapters/ch04_general_assumptions.md", "md_atom_type": "TABLE_ROW", "md_parent_section": "§4.1.7.1 [Example of Splitting Questionnaires]", "md_verbatim": "| 1 | CDISC01 | QS | CDISC01.100008 | 1 | CGI0201 | CGI02-Severity | CGI | Moderate | 4 | 4 | | 1 | WEEK 1 | 7 | 2003-04-15 | 1 |", "score": 0.8419, "match_basis": "verbatim_token+chapter_route:ch04"}, {"md_atom_id": "md_ch04_a080", "md_file": "knowledge_base/chapters/ch04_general_assumptions.md", "md_atom_type": "TABLE_ROW", "md_parent_section": "§4.1.7.1 [Example of Splitting Questionnaires]", "md_verbatim": "| 6 | CDISC01 | QS | CDISC01.100014 | 2 | CGI0201 | CGI02-Severity | CGI | Mild | 3 | 3 | | 2 | WEEK 2 | 7 | 2003-04-21 | 7 |", "score": 0.75, "match_basis": "verbatim_token+chapter_route:ch04"}, {"md_atom_id": "md_ch04_a076", "md_file": "knowledge_base/chapters/ch04_general_assumptions.md", "md_atom_type": "TABLE_ROW", "md_parent_section": "§4.1.7.1 [Example of Splitting Questionnaires]", "md_verbatim": "| 2 | CDISC01 | QS | CDISC01.100008 | 2 | CGI0201 | CGI02-Severity | CGI | Mild | 3 | 3 | | 2 | WEEK 2 | 7 | 2003-04-21 | 7 |", "score": 0.7, "match_basis": "verbatim_token+chapter_route:ch04"}, {"md_atom_id": "md_ch04_a081", "md_file": "knowledge_base/chapters/ch04_general_assumptions.md", "md_atom_type": "TABLE_ROW", "md_parent_section": "§4.1.7.1 [Example of Splitting Questionnaires]", "md_verbatim": "| 8 | CDISC01 | QS | CDISC01.100014 | 4 | CGI0203 | CGI02-Improvement | CGI | A little better | 3 | 3 | | 2 | WEEK 2 | 7 | 2003-04-21 | 7 |", "score": 0.5125, "match_basis": "verbatim_token+chapter_route:ch04"}], "candidate_count": 5, "zero_candidate": false}
{"pdf_atom_id": "ig34_p0025_a010", "pdf_atom_type": "TABLE_ROW", "pdf_source": "SDTMIG_v3.4", "pdf_page": 25, "pdf_parent_section": "§4.1.7.1 [Example of Splitting Questionnaires]", "pdf_verbatim": "6 | CDISC01 | QS | CDISC01.100014 | 2 | CGI0201 | CGI02-Severity | CGI | Mild | 3 | 3 | | 2 | WEEK 2 | 7 | 2003-04-21 | 7", "figure_ref": null, "candidates": [{"md_atom_id": "md_ch04_a080", "md_file": "knowledge_base/chapters/ch04_general_assumptions.md", "md_atom_type": "TABLE_ROW", "md_parent_section": "§4.1.7.1 [Example of Splitting Questionnaires]", "md_verbatim": "| 6 | CDISC01 | QS | CDISC01.100014 | 2 | CGI0201 | CGI02-Severity | CGI | Mild | 3 | 3 | | 2 | WEEK 2 | 7 | 2003-04-21 | 7 |", "score": 0.9, "match_basis": "verbatim_token+chapter_route:ch04"}, {"md_atom_id": "md_ch04_a076", "md_file": "knowledge_base/chapters/ch04_general_assumptions.md", "md_atom_type": "TABLE_ROW", "md_parent_section": "§4.1.7.1 [Example of Splitting Questionnaires]", "md_verbatim": "| 2 | CDISC01 | QS | CDISC01.100008 | 2 | CGI0201 | CGI02-Severity | CGI | Mild | 3 | 3 | | 2 | WEEK 2 | 7 | 2003-04-21 | 7 |", "score": 0.8333, "match_basis": "verbatim_token+chapter_route:ch04"}, {"md_atom_id": "md_ch04_a079", "md_file": "knowledge_base/chapters/ch04_general_assumptions.md", "md_atom_type": "TABLE_ROW", "md_parent_section": "§4.1.7.1 [Example of Splitting Questionnaires]", "md_verbatim": "| 5 | CDISC01 | QS | CDISC01.100014 | 1 | CGI0201 | CGI02-Severity | CGI | Moderate | 4 | 4 | | 1 | WEEK 1 | 7 | 2003-04-15 | 1 |", "score": 0.75, "match_basis": "verbatim_token+chapter_route:ch04"}, {"md_atom_id": "md_ch04_a075", "md_file": "knowledge_base/chapters/ch04_general_assumptions.md", "md_atom_type": "TABLE_ROW", "md_parent_section": "§4.1.7.1 [Example of Splitting Questionnaires]", "md_verbatim": "| 1 | CDISC01 | QS | CDISC01.100008 | 1 | CGI0201 | CGI02-Severity | CGI | Moderate | 4 | 4 | | 1 | WEEK 1 | 7 | 2003-04-15 | 1 |", "score": 0.7, "match_basis": "verbatim_token+chapter_route:ch04"}, {"md_atom_id": "md_ch04_a081", "md_file": "knowledge_base/chapters/ch04_general_assumptions.md", "md_atom_type": "TABLE_ROW", "md_parent_section": "§4.1.7.1 [Example of Splitting Questionnaires]", "md_verbatim": "| 8 | CDISC01 | QS | CDISC01.100014 | 4 | CGI0203 | CGI02-Improvement | CGI | A little better | 3 | 3 | | 2 | WEEK 2 | 7 | 2003-04-21 | 7 |", "score": 0.5318, "match_basis": "verbatim_token+chapter_route:ch04"}], "candidate_count": 5, "zero_candidate": false}
{"pdf_atom_id": "ig34_p0025_a011", "pdf_atom_type": "TABLE_ROW", "pdf_source": "SDTMIG_v3.4", "pdf_page": 25, "pdf_parent_section": "§4.1.7.1 [Example of Splitting Questionnaires]", "pdf_verbatim": "7 | CDISC01 | QS | CDISC01.100014 | 3 | CGI0202 | CGI02-Change | CGI | Minimally Improved | 3 | 3 | | 2 | WEEK 2 | 7 | 2003-04-21 | 7", "figure_ref": null, "candidates": [{"md_atom_id": "md_ch04_a077", "md_file": "knowledge_base/chapters/ch04_general_assumptions.md", "md_atom_type": "TABLE_ROW", "md_parent_section": "§4.1.7.1 [Example of Splitting Questionnaires]", "md_verbatim": "| 3 | CDISC01 | QS | CDISC01.100008 | 3 | CGI0202 | CGI02-Change | CGI | Minimally Improved | 3 | 3 | | 2 | WEEK 2 | 7 | 2003-04-21 | 7 |", "score": 0.85, "match_basis": "verbatim_token+chapter_route:ch04"}, {"md_atom_id": "md_ch04_a081", "md_file": "knowledge_base/chapters/ch04_general_assumptions.md", "md_atom_type": "TABLE_ROW", "md_parent_section": "§4.1.7.1 [Example of Splitting Questionnaires]", "md_verbatim": "| 8 | CDISC01 | QS | CDISC01.100014 | 4 | CGI0203 | CGI02-Improvement | CGI | A little better | 3 | 3 | | 2 | WEEK 2 | 7 | 2003-04-21 | 7 |", "score": 0.575, "match_basis": "verbatim_token+chapter_route:ch04"}, {"md_atom_id": "md_ch04_a078", "md_file": "knowledge_base/chapters/ch04_general_assumptions.md", "md_atom_type": "TABLE_ROW", "md_parent_section": "§4.1.7.1 [Example of Splitting Questionnaires]", "md_verbatim": "| 4 | CDISC01 | QS | CDISC01.100008 | 4 | CGI0203 | CGI02-Improvement | CGI | A little better | 3 | 3 | | 2 | WEEK 2 | 7 | 2003-04-21 | 7 |", "score": 0.5449, "match_basis": "verbatim_token+chapter_route:ch04"}, {"md_atom_id": "md_ch04_a080", "md_file": "knowledge_base/chapters/ch04_general_assumptions.md", "md_atom_type": "TABLE_ROW", "md_parent_section": "§4.1.7.1 [Example of Splitting Questionnaires]", "md_verbatim": "| 6 | CDISC01 | QS | CDISC01.100014 | 2 | CGI0201 | CGI02-Severity | CGI | Mild | 3 | 3 | | 2 | WEEK 2 | 7 | 2003-04-21 | 7 |", "score": 0.5318, "match_basis": "verbatim_token+chapter_route:ch04"}, {"md_atom_id": "md_ch04_a079", "md_file": "knowledge_base/chapters/ch04_general_assumptions.md", "md_atom_type": "TABLE_ROW", "md_parent_section": "§4.1.7.1 [Example of Splitting Questionnaires]", "md_verbatim": "| 5 | CDISC01 | QS | CDISC01.100014 | 1 | CGI0201 | CGI02-Severity | CGI | Moderate | 4 | 4 | | 1 | WEEK 1 | 7 | 2003-04-15 | 1 |", "score": 0.5125, "match_basis": "verbatim_token+chapter_route:ch04"}], "candidate_count": 5, "zero_candidate": false}
{"pdf_atom_id": "ig34_p0025_a012", "pdf_atom_type": "TABLE_ROW", "pdf_source": "SDTMIG_v3.4", "pdf_page": 25, "pdf_parent_section": "§4.1.7.1 [Example of Splitting Questionnaires]", "pdf_verbatim": "8 | CDISC01 | QS | CDISC01.100014 | 4 | CGI0203 | CGI02-Improvement | CGI | A little better | 3 | 3 | | 2 | WEEK 2 | 7 | 2003-04-21 | 7", "figure_ref": null, "candidates": [{"md_atom_id": "md_ch04_a081", "md_file": "knowledge_base/chapters/ch04_general_assumptions.md", "md_atom_type": "TABLE_ROW", "md_parent_section": "§4.1.7.1 [Example of Splitting Questionnaires]", "md_verbatim": "| 8 | CDISC01 | QS | CDISC01.100014 | 4 | CGI0203 | CGI02-Improvement | CGI | A little better | 3 | 3 | | 2 | WEEK 2 | 7 | 2003-04-21 | 7 |", "score": 0.9, "match_basis": "verbatim_token+chapter_route:ch04"}, {"md_atom_id": "md_ch04_a078", "md_file": "knowledge_base/chapters/ch04_general_assumptions.md", "md_atom_type": "TABLE_ROW", "md_parent_section": "§4.1.7.1 [Example of Splitting Questionnaires]", "md_verbatim": "| 4 | CDISC01 | QS | CDISC01.100008 | 4 | CGI0203 | CGI02-Improvement | CGI | A little better | 3 | 3 | | 2 | WEEK 2 | 7 | 2003-04-21 | 7 |", "score": 0.85, "match_basis": "verbatim_token+chapter_route:ch04"}, {"md_atom_id": "md_ch04_a077", "md_file": "knowledge_base/chapters/ch04_general_assumptions.md", "md_atom_type": "TABLE_ROW", "md_parent_section": "§4.1.7.1 [Example of Splitting Questionnaires]", "md_verbatim": "| 3 | CDISC01 | QS | CDISC01.100008 | 3 | CGI0202 | CGI02-Change | CGI | Minimally Improved | 3 | 3 | | 2 | WEEK 2 | 7 | 2003-04-21 | 7 |", "score": 0.5449, "match_basis": "verbatim_token+chapter_route:ch04"}, {"md_atom_id": "md_ch04_a080", "md_file": "knowledge_base/chapters/ch04_general_assumptions.md", "md_atom_type": "TABLE_ROW", "md_parent_section": "§4.1.7.1 [Example of Splitting Questionnaires]", "md_verbatim": "| 6 | CDISC01 | QS | CDISC01.100014 | 2 | CGI0201 | CGI02-Severity | CGI | Mild | 3 | 3 | | 2 | WEEK 2 | 7 | 2003-04-21 | 7 |", "score": 0.5318, "match_basis": "verbatim_token+chapter_route:ch04"}, {"md_atom_id": "md_ch04_a079", "md_file": "knowledge_base/chapters/ch04_general_assumptions.md", "md_atom_type": "TABLE_ROW", "md_parent_section": "§4.1.7.1 [Example of Splitting Questionnaires]", "md_verbatim": "| 5 | CDISC01 | QS | CDISC01.100014 | 1 | CGI0201 | CGI02-Severity | CGI | Moderate | 4 | 4 | | 1 | WEEK 1 | 7 | 2003-04-15 | 1 |", "score": 0.5125, "match_basis": "verbatim_token+chapter_route:ch04"}], "candidate_count": 5, "zero_candidate": false}
{"pdf_atom_id": "ig34_p0025_a013", "pdf_atom_type": "HEADING", "pdf_source": "SDTMIG_v3.4", "pdf_page": 25, "pdf_parent_section": "§4.1.7.1 [Example of Splitting Questionnaires]", "pdf_verbatim": "Dataset for Pain Intensity", "figure_ref": null, "candidates": [{"md_atom_id": "md_ch04_a010", "md_file": "knowledge_base/chapters/ch04_general_assumptions.md", "md_atom_type": "HEADING", "md_parent_section": "§4.1 [General Domain Assumptions]", "md_verbatim": "### 4.1.2 Relationship to Analysis Datasets", "score": 0.3937, "match_basis": "verbatim_token+chapter_route:ch04"}, {"md_atom_id": "md_ch04_a041", "md_file": "knowledge_base/chapters/ch04_general_assumptions.md", "md_atom_type": "HEADING", "md_parent_section": "§4.1 [General Domain Assumptions]", "md_verbatim": "### 4.1.6 Additional Guidance on Dataset Naming", "score": 0.3909, "match_basis": "verbatim_token+chapter_route:ch04"}, {"md_atom_id": "md_ch04_a213", "md_file": "knowledge_base/chapters/ch04_general_assumptions.md", "md_atom_type": "HEADING", "md_parent_section": "§4.2 [General Variable Assumptions]", "md_verbatim": "### 4.2.4 Text Case in Submitted Data", "score": 0.372, "match_basis": "verbatim_token+chapter_route:ch04"}, {"md_atom_id": "md_ch04_a130", "md_file": "knowledge_base/chapters/ch04_general_assumptions.md", "md_atom_type": "HEADING", "md_parent_section": "§4.1.8.2 [Origin Metadata for Records]", "md_verbatim": "#### 4.1.8.2 Origin Metadata for Records", "score": 0.3643, "match_basis": "verbatim_token+chapter_route:ch04"}, {"md_atom_id": "md_ch04_a591", "md_file": "knowledge_base/chapters/ch04_general_assumptions.md", "md_atom_type": "HEADING", "md_parent_section": "§4.4.3 [Intervals of Time and Use of Duration for --DUR Variables]", "md_verbatim": "#### 4.4.3.2 Interval with Uncertainty", "score": 0.3643, "match_basis": "verbatim_token+chapter_route:ch04"}], "candidate_count": 5, "zero_candidate": false}
{"pdf_atom_id": "ig34_p0025_a014", "pdf_atom_type": "CODE_LITERAL", "pdf_source": "SDTMIG_v3.4", "pdf_page": 25, "pdf_parent_section": "§4.1.7.1 [Example of Splitting Questionnaires]", "pdf_verbatim": "qspi.xpt", "figure_ref": null, "candidates": [{"md_atom_id": "md_ch04_a207", "md_file": "knowledge_base/chapters/ch04_general_assumptions.md", "md_atom_type": "CODE_LITERAL", "md_parent_section": "§4.2.3 [Use of \"Subject\" and USUBJID]", "md_verbatim": "dm.xpt:", "score": 0.29, "match_basis": "verbatim_token+chapter_route:ch04"}, {"md_atom_id": "md_ch04_a210", "md_file": "knowledge_base/chapters/ch04_general_assumptions.md", "md_atom_type": "CODE_LITERAL", "md_parent_section": "§4.2.3 [Use of \"Subject\" and USUBJID]", "md_verbatim": "dm.xpt:", "score": 0.29, "match_basis": "verbatim_token+chapter_route:ch04"}, {"md_atom_id": "md_ch04_a368", "md_file": "knowledge_base/chapters/ch04_general_assumptions.md", "md_atom_type": "CODE_LITERAL", "md_parent_section": "§4.2.8.3 [Multiple Values for a Non-result Qualifier Variable]", "md_verbatim": "ae.xpt:", "score": 0.29, "match_basis": "verbatim_token+chapter_route:ch04"}, {"md_atom_id": "md_ch04_a378", "md_file": "knowledge_base/chapters/ch04_general_assumptions.md", "md_atom_type": "CODE_LITERAL", "md_parent_section": "§4.2.8.3 [Multiple Values for a Non-result Qualifier Variable]", "md_verbatim": "ae.xpt:", "score": 0.29, "match_basis": "verbatim_token+chapter_route:ch04"}, {"md_atom_id": "md_ch04_a391", "md_file": "knowledge_base/chapters/ch04_general_assumptions.md", "md_atom_type": "CODE_LITERAL", "md_parent_section": "§4.2.8.3 [Multiple Values for a Non-result Qualifier Variable]", "md_verbatim": "ae.xpt:", "score": 0.29, "match_basis": "verbatim_token+chapter_route:ch04"}, {"md_atom_id": "md_ch04_a835", "md_file": "knowledge_base/chapters/ch04_general_assumptions.md", "md_atom_type": "CODE_LITERAL", "md_parent_section": "§4.5.1.3 [Examples of Original and Standard Units and Test Not Done]", "md_verbatim": "lb.xpt", "score": 0.29, "match_basis": "verbatim_token+chapter_route:ch04"}, {"md_atom_id": "md_ch04_a861", "md_file": "knowledge_base/chapters/ch04_general_assumptions.md", "md_atom_type": "CODE_LITERAL", "md_parent_section": "§4.5.1.3 [Examples of Original and Standard Units and Test Not Done]", "md_verbatim": "eg.xpt", "score": 0.29, "match_basis": "verbatim_token+chapter_route:ch04"}, {"md_atom_id": "md_ch04_a877", "md_file": "knowledge_base/chapters/ch04_general_assumptions.md", "md_atom_type": "CODE_LITERAL", "md_parent_section": "§4.5.1.3 [Examples of Original and Standard Units and Test Not Done]", "md_verbatim": "vs.xpt", "score": 0.29, "match_basis": "verbatim_token+chapter_route:ch04"}, {"md_atom_id": "md_ch04_a917", "md_file": "knowledge_base/chapters/ch04_general_assumptions.md", "md_atom_type": "CODE_LITERAL", "md_parent_section": "§4.5.3.2 [Text Strings Greater than 200 Characters in Other Variables]", "md_verbatim": "mh.xpt", "score": 0.29, "match_basis": "verbatim_token+chapter_route:ch04"}, {"md_atom_id": "md_ch04_a919", "md_file": "knowledge_base/chapters/ch04_general_assumptions.md", "md_atom_type": "SENTENCE", "md_parent_section": "§4.5.3.2 [Text Strings Greater than 200 Characters in Other Variables]", "md_verbatim": "mh.xpt:", "score": 0.29, "match_basis": "verbatim_token+chapter_route:ch04"}], "candidate_count": 10, "zero_candidate": false}
{"pdf_atom_id": "ig34_p0025_a015", "pdf_atom_type": "TABLE_HEADER", "pdf_source": "SDTMIG_v3.4", "pdf_page": 25, "pdf_parent_section": "§4.1.7.1 [Example of Splitting Questionnaires]", "pdf_verbatim": "Row | STUDYID | DOMAIN | USUBJID | QSSEQ | QSTESTCD | QSTEST | QSCAT | QSSCAT | QSORRES | QSSTRESU | QSSTRESC | QSSTRESN | QSTRESU | QSLOC | QSMETHOD | QSLOBXFL | VISITNUM | QSDTC | QSDY | QSEVLINT", "figure_ref": null, "candidates": [{"md_atom_id": "md_ch04_a083", "md_file": "knowledge_base/chapters/ch04_general_assumptions.md", "md_atom_type": "TABLE_HEADER", "md_parent_section": "§4.1.7.1 [Example of Splitting Questionnaires]", "md_verbatim": "| Row | STUDYID | DOMAIN | USUBJID | QSSEQ | QSTESTCD | QSTEST | QSCAT | QSSCAT | QSORRES | QSORRESU | QSSTRESC | QSSTRESN | QSSTRESU | QSLOC | QSMETHOD | QSLOBXFL | VISITNUM | QSDTC | QSDY | QSEVLINT |", "score": 0.9, "match_basis": "verbatim_token+chapter_route:ch04"}, {"md_atom_id": "md_ch04_a091", "md_file": "knowledge_base/chapters/ch04_general_assumptions.md", "md_atom_type": "TABLE_HEADER", "md_parent_section": "§4.1.7.1 [Example of Splitting Questionnaires]", "md_verbatim": "| Row | STUDYID | DOMAIN | USUBJID | QSSEQ | QSTESTCD | QSTEST | QSCAT | QSORRES | QSSTRESC | QSSTRESN | QSLOBXFL | VISITNUM | QSDTC | QSDY |", "score": 0.7676, "match_basis": "verbatim_token+chapter_route:ch04"}, {"md_atom_id": "md_ch04_a074", "md_file": "knowledge_base/chapters/ch04_general_assumptions.md", "md_atom_type": "TABLE_HEADER", "md_parent_section": "§4.1.7.1 [Example of Splitting Questionnaires]", "md_verbatim": "| Row | STUDYID | DOMAIN | USUBJID | QSSEQ | QSTESTCD | QSTEST | QSCAT | QSORRES | QSSTRESC | QSSTRESN | QSLOBXFL | VISITNUM | VISIT | VISITDY | QSDTC | QSDY |\n|-----|---------|--------|---------|-------|----------|--------|-------|---------|----------|----------|----------|----------|-------|---------|-------|------|", "score": 0.7543, "match_basis": "verbatim_token+chapter_route:ch04"}, {"md_atom_id": "md_ch04_a883", "md_file": "knowledge_base/chapters/ch04_general_assumptions.md", "md_atom_type": "TABLE_HEADER", "md_parent_section": "§4.5.1.3 [Examples of Original and Standard Units and Test Not Done]", "md_verbatim": "| Row | VSTESTCD | VSORRES | VSORRESU | VSSTRESC | VSSTRESN | VSSTRESU | VSSTAT | VSDRVFL | VISITNUM | VSDTC |\n|-----|----------|---------|----------|----------|----------|----------|--------|---------|----------|-------|", "score": 0.4846, "match_basis": "verbatim_token+chapter_route:ch04"}, {"md_atom_id": "md_ch04_a847", "md_file": "knowledge_base/chapters/ch04_general_assumptions.md", "md_atom_type": "TABLE_HEADER", "md_parent_section": "§4.5.1.3 [Examples of Original and Standard Units and Test Not Done]", "md_verbatim": "| Row | LBTESTCD | LBCAT | LBORRES | LBORRESU | LBSTRESC | LBSTRESN | LBSTRESU | LBSTAT | LBLOBXFL | VISITNUM | LBDTC |\n|-----|----------|-------|---------|----------|----------|----------|----------|--------|----------|----------|-------|", "score": 0.4829, "match_basis": "verbatim_token+chapter_route:ch04"}], "candidate_count": 5, "zero_candidate": false}
{"pdf_atom_id": "ig34_p0025_a016", "pdf_atom_type": "TABLE_ROW", "pdf_source": "SDTMIG_v3.4", "pdf_page": 25, "pdf_parent_section": "§4.1.7.1 [Example of Splitting Questionnaires]", "pdf_verbatim": "1 | CDISC01 | QS | CDISC01.100008 | 1 | PI0101 | PI01-Pain Intensity | PI | FIBROMYALGIA | WORST PAIN IMAGINABLE | | 100 | 100 | | BACK | VISUAL ANALOG SCALE (100 MM) | Y | 1 | 2003-04-15 | | -PT24H", "figure_ref": null, "candidates": [{"md_atom_id": "md_ch04_a084", "md_file": "knowledge_base/chapters/ch04_general_assumptions.md", "md_atom_type": "TABLE_ROW", "md_parent_section": "§4.1.7.1 [Example of Splitting Questionnaires]", "md_verbatim": "| 1 | CDISC01 | QS | CDISC01.100008 | 1 | PI0101 | PI01-Pain Intensity | PI | FIBROMYALGIA | WORST PAIN IMAGINABLE | | 100 | 100 | | BACK | VISUAL ANALOG SCALE (100 MM) | Y | 1 | 2003-04-15 | 1 | -PT24H |", "score": 0.9, "match_basis": "verbatim_token+chapter_route:ch04"}, {"md_atom_id": "md_ch04_a087", "md_file": "knowledge_base/chapters/ch04_general_assumptions.md", "md_atom_type": "TABLE_ROW", "md_parent_section": "§4.1.7.1 [Example of Splitting Questionnaires]", "md_verbatim": "| 4 | CDISC01 | QS | CDISC01.100014 | 4 | PI0101 | PI01-Pain Intensity | PI | FIBROMYALGIA | WORST PAIN IMAGINABLE | | 100 | 100 | | BACK | VISUAL ANALOG SCALE (100 MM) | Y | 1 | 2003-04-15 | 1 | -PT24H |", "score": 0.871, "match_basis": "verbatim_token+chapter_route:ch04"}, {"md_atom_id": "md_ch04_a085", "md_file": "knowledge_base/chapters/ch04_general_assumptions.md", "md_atom_type": "TABLE_ROW", "md_parent_section": "§4.1.7.1 [Example of Splitting Questionnaires]", "md_verbatim": "| 2 | CDISC01 | QS | CDISC01.100008 | 2 | PI0101 | PI01-Pain Intensity | PI | FIBROMYALGIA | 50 | mm | 50 | 50 | mm | BACK | VISUAL ANALOG SCALE (100 MM) | | 2 | 2003-04-21 | 7 | -PT24H |", "score": 0.79, "match_basis": "verbatim_token+chapter_route:ch04"}, {"md_atom_id": "md_ch04_a086", "md_file": "knowledge_base/chapters/ch04_general_assumptions.md", "md_atom_type": "TABLE_ROW", "md_parent_section": "§4.1.7.1 [Example of Splitting Questionnaires]", "md_verbatim": "| 3 | CDISC01 | QS | CDISC01.100008 | 3 | PI0101 | PI01-Pain Intensity | PI | FIBROMYALGIA | 60 | mm | 60 | 60 | mm | BACK | VISUAL ANALOG SCALE (100 MM) | | 3 | 2003-04-28 | 14 | -PT24H |", "score": 0.79, "match_basis": "verbatim_token+chapter_route:ch04"}, {"md_atom_id": "md_ch04_a088", "md_file": "knowledge_base/chapters/ch04_general_assumptions.md", "md_atom_type": "TABLE_ROW", "md_parent_section": "§4.1.7.1 [Example of Splitting Questionnaires]", "md_verbatim": "| 5 | CDISC01 | QS | CDISC01.100014 | 5 | PI0101 | PI01-Pain Intensity | PI | FIBROMYALGIA | 50 | mm | 50 | 50 | mm | BACK | VISUAL ANALOG SCALE (100 MM) | | 2 | 2003-04-21 | 7 | -PT24H |", "score": 0.7645, "match_basis": "verbatim_token+chapter_route:ch04"}], "candidate_count": 5, "zero_candidate": false}
{"pdf_atom_id": "ig34_p0025_a017", "pdf_atom_type": "TABLE_ROW", "pdf_source": "SDTMIG_v3.4", "pdf_page": 25, "pdf_parent_section": "§4.1.7.1 [Example of Splitting Questionnaires]", "pdf_verbatim": "2 | CDISC01 | QS | CDISC01.100008 | 2 | PI0101 | PI01-Pain Intensity | PI | FIBROMYALGIA | 50 | mm | 50 | 50 | mm | BACK | VISUAL ANALOG SCALE (100 MM) | | 2 | 2003-04-21 | 7 | -PT24H", "figure_ref": null, "candidates": [{"md_atom_id": "md_ch04_a085", "md_file": "knowledge_base/chapters/ch04_general_assumptions.md", "md_atom_type": "TABLE_ROW", "md_parent_section": "§4.1.7.1 [Example of Splitting Questionnaires]", "md_verbatim": "| 2 | CDISC01 | QS | CDISC01.100008 | 2 | PI0101 | PI01-Pain Intensity | PI | FIBROMYALGIA | 50 | mm | 50 | 50 | mm | BACK | VISUAL ANALOG SCALE (100 MM) | | 2 | 2003-04-21 | 7 | -PT24H |", "score": 0.9, "match_basis": "verbatim_token+chapter_route:ch04"}, {"md_atom_id": "md_ch04_a086", "md_file": "knowledge_base/chapters/ch04_general_assumptions.md", "md_atom_type": "TABLE_ROW", "md_parent_section": "§4.1.7.1 [Example of Splitting Questionnaires]", "md_verbatim": "| 3 | CDISC01 | QS | CDISC01.100008 | 3 | PI0101 | PI01-Pain Intensity | PI | FIBROMYALGIA | 60 | mm | 60 | 60 | mm | BACK | VISUAL ANALOG SCALE (100 MM) | | 3 | 2003-04-28 | 14 | -PT24H |", "score": 0.9, "match_basis": "verbatim_token+chapter_route:ch04"}, {"md_atom_id": "md_ch04_a088", "md_file": "knowledge_base/chapters/ch04_general_assumptions.md", "md_atom_type": "TABLE_ROW", "md_parent_section": "§4.1.7.1 [Example of Splitting Questionnaires]", "md_verbatim": "| 5 | CDISC01 | QS | CDISC01.100014 | 5 | PI0101 | PI01-Pain Intensity | PI | FIBROMYALGIA | 50 | mm | 50 | 50 | mm | BACK | VISUAL ANALOG SCALE (100 MM) | | 2 | 2003-04-21 | 7 | -PT24H |", "score": 0.8647, "match_basis": "verbatim_token+chapter_route:ch04"}, {"md_atom_id": "md_ch04_a089", "md_file": "knowledge_base/chapters/ch04_general_assumptions.md", "md_atom_type": "TABLE_ROW", "md_parent_section": "§4.1.7.1 [Example of Splitting Questionnaires]", "md_verbatim": "| 6 | CDISC01 | QS | CDISC01.100014 | 6 | PI0101 | PI01-Pain Intensity | PI | FIBROMYALGIA | 60 | mm | 60 | 60 | mm | BACK | VISUAL ANALOG SCALE (100 MM) | | 3 | 2003-04-28 | 14 | -PT24H |", "score": 0.8647, "match_basis": "verbatim_token+chapter_route:ch04"}, {"md_atom_id": "md_ch04_a084", "md_file": "knowledge_base/chapters/ch04_general_assumptions.md", "md_atom_type": "TABLE_ROW", "md_parent_section": "§4.1.7.1 [Example of Splitting Questionnaires]", "md_verbatim": "| 1 | CDISC01 | QS | CDISC01.100008 | 1 | PI0101 | PI01-Pain Intensity | PI | FIBROMYALGIA | WORST PAIN IMAGINABLE | | 100 | 100 | | BACK | VISUAL ANALOG SCALE (100 MM) | Y | 1 | 2003-04-15 | 1 | -PT24H |", "score": 0.79, "match_basis": "verbatim_token+chapter_route:ch04"}], "candidate_count": 5, "zero_candidate": false}
{"pdf_atom_id": "ig34_p0025_a018", "pdf_atom_type": "TABLE_ROW", "pdf_source": "SDTMIG_v3.4", "pdf_page": 25, "pdf_parent_section": "§4.1.7.1 [Example of Splitting Questionnaires]", "pdf_verbatim": "3 | CDISC01 | QS | CDISC01.100008 | 3 | PI0101 | PI01-Pain Intensity | PI | FIBROMYALGIA | 60 | mm | 60 | 60 | mm | BACK | VISUAL ANALOG SCALE (100 MM) | | 3 | 2003-04-28 | 14 | -PT24H", "figure_ref": null, "candidates": [{"md_atom_id": "md_ch04_a085", "md_file": "knowledge_base/chapters/ch04_general_assumptions.md", "md_atom_type": "TABLE_ROW", "md_parent_section": "§4.1.7.1 [Example of Splitting Questionnaires]", "md_verbatim": "| 2 | CDISC01 | QS | CDISC01.100008 | 2 | PI0101 | PI01-Pain Intensity | PI | FIBROMYALGIA | 50 | mm | 50 | 50 | mm | BACK | VISUAL ANALOG SCALE (100 MM) | | 2 | 2003-04-21 | 7 | -PT24H |", "score": 0.9, "match_basis": "verbatim_token+chapter_route:ch04"}, {"md_atom_id": "md_ch04_a086", "md_file": "knowledge_base/chapters/ch04_general_assumptions.md", "md_atom_type": "TABLE_ROW", "md_parent_section": "§4.1.7.1 [Example of Splitting Questionnaires]", "md_verbatim": "| 3 | CDISC01 | QS | CDISC01.100008 | 3 | PI0101 | PI01-Pain Intensity | PI | FIBROMYALGIA | 60 | mm | 60 | 60 | mm | BACK | VISUAL ANALOG SCALE (100 MM) | | 3 | 2003-04-28 | 14 | -PT24H |", "score": 0.9, "match_basis": "verbatim_token+chapter_route:ch04"}, {"md_atom_id": "md_ch04_a088", "md_file": "knowledge_base/chapters/ch04_general_assumptions.md", "md_atom_type": "TABLE_ROW", "md_parent_section": "§4.1.7.1 [Example of Splitting Questionnaires]", "md_verbatim": "| 5 | CDISC01 | QS | CDISC01.100014 | 5 | PI0101 | PI01-Pain Intensity | PI | FIBROMYALGIA | 50 | mm | 50 | 50 | mm | BACK | VISUAL ANALOG SCALE (100 MM) | | 2 | 2003-04-21 | 7 | -PT24H |", "score": 0.8647, "match_basis": "verbatim_token+chapter_route:ch04"}, {"md_atom_id": "md_ch04_a089", "md_file": "knowledge_base/chapters/ch04_general_assumptions.md", "md_atom_type": "TABLE_ROW", "md_parent_section": "§4.1.7.1 [Example of Splitting Questionnaires]", "md_verbatim": "| 6 | CDISC01 | QS | CDISC01.100014 | 6 | PI0101 | PI01-Pain Intensity | PI | FIBROMYALGIA | 60 | mm | 60 | 60 | mm | BACK | VISUAL ANALOG SCALE (100 MM) | | 3 | 2003-04-28 | 14 | -PT24H |", "score": 0.8647, "match_basis": "verbatim_token+chapter_route:ch04"}, {"md_atom_id": "md_ch04_a084", "md_file": "knowledge_base/chapters/ch04_general_assumptions.md", "md_atom_type": "TABLE_ROW", "md_parent_section": "§4.1.7.1 [Example of Splitting Questionnaires]", "md_verbatim": "| 1 | CDISC01 | QS | CDISC01.100008 | 1 | PI0101 | PI01-Pain Intensity | PI | FIBROMYALGIA | WORST PAIN IMAGINABLE | | 100 | 100 | | BACK | VISUAL ANALOG SCALE (100 MM) | Y | 1 | 2003-04-15 | 1 | -PT24H |", "score": 0.79, "match_basis": "verbatim_token+chapter_route:ch04"}], "candidate_count": 5, "zero_candidate": false}
{"pdf_atom_id": "ig34_p0025_a019", "pdf_atom_type": "TABLE_ROW", "pdf_source": "SDTMIG_v3.4", "pdf_page": 25, "pdf_parent_section": "§4.1.7.1 [Example of Splitting Questionnaires]", "pdf_verbatim": "4 | CDISC01 | QS | CDISC01.100014 | 4 | PI0101 | PI01-Pain Intensity | PI | FIBROMYALGIA | WORST PAIN IMAGINABLE | | 100 | 100 | | BACK | VISUAL ANALOG SCALE (100 MM) | Y | | 2003-04-15 | | -PT24H", "figure_ref": null, "candidates": [{"md_atom_id": "md_ch04_a087", "md_file": "knowledge_base/chapters/ch04_general_assumptions.md", "md_atom_type": "TABLE_ROW", "md_parent_section": "§4.1.7.1 [Example of Splitting Questionnaires]", "md_verbatim": "| 4 | CDISC01 | QS | CDISC01.100014 | 4 | PI0101 | PI01-Pain Intensity | PI | FIBROMYALGIA | WORST PAIN IMAGINABLE | | 100 | 100 | | BACK | VISUAL ANALOG SCALE (100 MM) | Y | 1 | 2003-04-15 | 1 | -PT24H |", "score": 0.9, "match_basis": "verbatim_token+chapter_route:ch04"}, {"md_atom_id": "md_ch04_a084", "md_file": "knowledge_base/chapters/ch04_general_assumptions.md", "md_atom_type": "TABLE_ROW", "md_parent_section": "§4.1.7.1 [Example of Splitting Questionnaires]", "md_verbatim": "| 1 | CDISC01 | QS | CDISC01.100008 | 1 | PI0101 | PI01-Pain Intensity | PI | FIBROMYALGIA | WORST PAIN IMAGINABLE | | 100 | 100 | | BACK | VISUAL ANALOG SCALE (100 MM) | Y | 1 | 2003-04-15 | 1 | -PT24H |", "score": 0.871, "match_basis": "verbatim_token+chapter_route:ch04"}, {"md_atom_id": "md_ch04_a088", "md_file": "knowledge_base/chapters/ch04_general_assumptions.md", "md_atom_type": "TABLE_ROW", "md_parent_section": "§4.1.7.1 [Example of Splitting Questionnaires]", "md_verbatim": "| 5 | CDISC01 | QS | CDISC01.100014 | 5 | PI0101 | PI01-Pain Intensity | PI | FIBROMYALGIA | 50 | mm | 50 | 50 | mm | BACK | VISUAL ANALOG SCALE (100 MM) | | 2 | 2003-04-21 | 7 | -PT24H |", "score": 0.7918, "match_basis": "verbatim_token+chapter_route:ch04"}, {"md_atom_id": "md_ch04_a089", "md_file": "knowledge_base/chapters/ch04_general_assumptions.md", "md_atom_type": "TABLE_ROW", "md_parent_section": "§4.1.7.1 [Example of Splitting Questionnaires]", "md_verbatim": "| 6 | CDISC01 | QS | CDISC01.100014 | 6 | PI0101 | PI01-Pain Intensity | PI | FIBROMYALGIA | 60 | mm | 60 | 60 | mm | BACK | VISUAL ANALOG SCALE (100 MM) | | 3 | 2003-04-28 | 14 | -PT24H |", "score": 0.7918, "match_basis": "verbatim_token+chapter_route:ch04"}, {"md_atom_id": "md_ch04_a085", "md_file": "knowledge_base/chapters/ch04_general_assumptions.md", "md_atom_type": "TABLE_ROW", "md_parent_section": "§4.1.7.1 [Example of Splitting Questionnaires]", "md_verbatim": "| 2 | CDISC01 | QS | CDISC01.100008 | 2 | PI0101 | PI01-Pain Intensity | PI | FIBROMYALGIA | 50 | mm | 50 | 50 | mm | BACK | VISUAL ANALOG SCALE (100 MM) | | 2 | 2003-04-21 | 7 | -PT24H |", "score": 0.7645, "match_basis": "verbatim_token+chapter_route:ch04"}], "candidate_count": 5, "zero_candidate": false}
{"pdf_atom_id": "ig34_p0025_a020", "pdf_atom_type": "TABLE_ROW", "pdf_source": "SDTMIG_v3.4", "pdf_page": 25, "pdf_parent_section": "§4.1.7.1 [Example of Splitting Questionnaires]", "pdf_verbatim": "5 | CDISC01 | QS | CDISC01.100014 | 5 | PI0101 | PI01-Pain Intensity | PI | FIBROMYALGIA | 50 | mm | 50 | 50 | mm | BACK | VISUAL ANALOG SCALE (100 MM) | | 2 | 2003-04-21 | 7 | -PT24H", "figure_ref": null, "candidates": [{"md_atom_id": "md_ch04_a088", "md_file": "knowledge_base/chapters/ch04_general_assumptions.md", "md_atom_type": "TABLE_ROW", "md_parent_section": "§4.1.7.1 [Example of Splitting Questionnaires]", "md_verbatim": "| 5 | CDISC01 | QS | CDISC01.100014 | 5 | PI0101 | PI01-Pain Intensity | PI | FIBROMYALGIA | 50 | mm | 50 | 50 | mm | BACK | VISUAL ANALOG SCALE (100 MM) | | 2 | 2003-04-21 | 7 | -PT24H |", "score": 0.9, "match_basis": "verbatim_token+chapter_route:ch04"}, {"md_atom_id": "md_ch04_a089", "md_file": "knowledge_base/chapters/ch04_general_assumptions.md", "md_atom_type": "TABLE_ROW", "md_parent_section": "§4.1.7.1 [Example of Splitting Questionnaires]", "md_verbatim": "| 6 | CDISC01 | QS | CDISC01.100014 | 6 | PI0101 | PI01-Pain Intensity | PI | FIBROMYALGIA | 60 | mm | 60 | 60 | mm | BACK | VISUAL ANALOG SCALE (100 MM) | | 3 | 2003-04-28 | 14 | -PT24H |", "score": 0.9, "match_basis": "verbatim_token+chapter_route:ch04"}, {"md_atom_id": "md_ch04_a085", "md_file": "knowledge_base/chapters/ch04_general_assumptions.md", "md_atom_type": "TABLE_ROW", "md_parent_section": "§4.1.7.1 [Example of Splitting Questionnaires]", "md_verbatim": "| 2 | CDISC01 | QS | CDISC01.100008 | 2 | PI0101 | PI01-Pain Intensity | PI | FIBROMYALGIA | 50 | mm | 50 | 50 | mm | BACK | VISUAL ANALOG SCALE (100 MM) | | 2 | 2003-04-21 | 7 | -PT24H |", "score": 0.8647, "match_basis": "verbatim_token+chapter_route:ch04"}, {"md_atom_id": "md_ch04_a086", "md_file": "knowledge_base/chapters/ch04_general_assumptions.md", "md_atom_type": "TABLE_ROW", "md_parent_section": "§4.1.7.1 [Example of Splitting Questionnaires]", "md_verbatim": "| 3 | CDISC01 | QS | CDISC01.100008 | 3 | PI0101 | PI01-Pain Intensity | PI | FIBROMYALGIA | 60 | mm | 60 | 60 | mm | BACK | VISUAL ANALOG SCALE (100 MM) | | 3 | 2003-04-28 | 14 | -PT24H |", "score": 0.8647, "match_basis": "verbatim_token+chapter_route:ch04"}, {"md_atom_id": "md_ch04_a087", "md_file": "knowledge_base/chapters/ch04_general_assumptions.md", "md_atom_type": "TABLE_ROW", "md_parent_section": "§4.1.7.1 [Example of Splitting Questionnaires]", "md_verbatim": "| 4 | CDISC01 | QS | CDISC01.100014 | 4 | PI0101 | PI01-Pain Intensity | PI | FIBROMYALGIA | WORST PAIN IMAGINABLE | | 100 | 100 | | BACK | VISUAL ANALOG SCALE (100 MM) | Y | 1 | 2003-04-15 | 1 | -PT24H |", "score": 0.7918, "match_basis": "verbatim_token+chapter_route:ch04"}], "candidate_count": 5, "zero_candidate": false}
{"pdf_atom_id": "ig34_p0025_a021", "pdf_atom_type": "TABLE_ROW", "pdf_source": "SDTMIG_v3.4", "pdf_page": 25, "pdf_parent_section": "§4.1.7.1 [Example of Splitting Questionnaires]", "pdf_verbatim": "6 | CDISC01 | QS | CDISC01.100014 | 6 | PI0101 | PI01-Pain Intensity | PI | FIBROMYALGIA | 60 | mm | 60 | 60 | mm | BACK | VISUAL ANALOG SCALE (100 MM) | | 3 | 2003-04-28 | 14 | -PT24H", "figure_ref": null, "candidates": [{"md_atom_id": "md_ch04_a088", "md_file": "knowledge_base/chapters/ch04_general_assumptions.md", "md_atom_type": "TABLE_ROW", "md_parent_section": "§4.1.7.1 [Example of Splitting Questionnaires]", "md_verbatim": "| 5 | CDISC01 | QS | CDISC01.100014 | 5 | PI0101 | PI01-Pain Intensity | PI | FIBROMYALGIA | 50 | mm | 50 | 50 | mm | BACK | VISUAL ANALOG SCALE (100 MM) | | 2 | 2003-04-21 | 7 | -PT24H |", "score": 0.9, "match_basis": "verbatim_token+chapter_route:ch04"}, {"md_atom_id": "md_ch04_a089", "md_file": "knowledge_base/chapters/ch04_general_assumptions.md", "md_atom_type": "TABLE_ROW", "md_parent_section": "§4.1.7.1 [Example of Splitting Questionnaires]", "md_verbatim": "| 6 | CDISC01 | QS | CDISC01.100014 | 6 | PI0101 | PI01-Pain Intensity | PI | FIBROMYALGIA | 60 | mm | 60 | 60 | mm | BACK | VISUAL ANALOG SCALE (100 MM) | | 3 | 2003-04-28 | 14 | -PT24H |", "score": 0.9, "match_basis": "verbatim_token+chapter_route:ch04"}, {"md_atom_id": "md_ch04_a085", "md_file": "knowledge_base/chapters/ch04_general_assumptions.md", "md_atom_type": "TABLE_ROW", "md_parent_section": "§4.1.7.1 [Example of Splitting Questionnaires]", "md_verbatim": "| 2 | CDISC01 | QS | CDISC01.100008 | 2 | PI0101 | PI01-Pain Intensity | PI | FIBROMYALGIA | 50 | mm | 50 | 50 | mm | BACK | VISUAL ANALOG SCALE (100 MM) | | 2 | 2003-04-21 | 7 | -PT24H |", "score": 0.8647, "match_basis": "verbatim_token+chapter_route:ch04"}, {"md_atom_id": "md_ch04_a086", "md_file": "knowledge_base/chapters/ch04_general_assumptions.md", "md_atom_type": "TABLE_ROW", "md_parent_section": "§4.1.7.1 [Example of Splitting Questionnaires]", "md_verbatim": "| 3 | CDISC01 | QS | CDISC01.100008 | 3 | PI0101 | PI01-Pain Intensity | PI | FIBROMYALGIA | 60 | mm | 60 | 60 | mm | BACK | VISUAL ANALOG SCALE (100 MM) | | 3 | 2003-04-28 | 14 | -PT24H |", "score": 0.8647, "match_basis": "verbatim_token+chapter_route:ch04"}, {"md_atom_id": "md_ch04_a087", "md_file": "knowledge_base/chapters/ch04_general_assumptions.md", "md_atom_type": "TABLE_ROW", "md_parent_section": "§4.1.7.1 [Example of Splitting Questionnaires]", "md_verbatim": "| 4 | CDISC01 | QS | CDISC01.100014 | 4 | PI0101 | PI01-Pain Intensity | PI | FIBROMYALGIA | WORST PAIN IMAGINABLE | | 100 | 100 | | BACK | VISUAL ANALOG SCALE (100 MM) | Y | 1 | 2003-04-15 | 1 | -PT24H |", "score": 0.7918, "match_basis": "verbatim_token+chapter_route:ch04"}], "candidate_count": 5, "zero_candidate": false}
{"pdf_atom_id": "ig34_p0025_a022", "pdf_atom_type": "HEADING", "pdf_source": "SDTMIG_v3.4", "pdf_page": 25, "pdf_parent_section": "§4.1.7.1 [Example of Splitting Questionnaires]", "pdf_verbatim": "Dataset for Satisfaction of Life Scale", "figure_ref": null, "candidates": [{"md_atom_id": "md_ch04_a010", "md_file": "knowledge_base/chapters/ch04_general_assumptions.md", "md_atom_type": "HEADING", "md_parent_section": "§4.1 [General Domain Assumptions]", "md_verbatim": "### 4.1.2 Relationship to Analysis Datasets", "score": 0.4371, "match_basis": "verbatim_token+chapter_route:ch04"}, {"md_atom_id": "md_ch04_a041", "md_file": "knowledge_base/chapters/ch04_general_assumptions.md", "md_atom_type": "HEADING", "md_parent_section": "§4.1 [General Domain Assumptions]", "md_verbatim": "### 4.1.6 Additional Guidance on Dataset Naming", "score": 0.4135, "match_basis": "verbatim_token+chapter_route:ch04"}, {"md_atom_id": "md_ch04_a968", "md_file": "knowledge_base/chapters/ch04_general_assumptions.md", "md_atom_type": "HEADING", "md_parent_section": "§4.5 [Other Assumptions]", "md_verbatim": "### 4.5.5 Clinical Significance for Findings Observation Class Data", "score": 0.384, "match_basis": "verbatim_token+chapter_route:ch04"}, {"md_atom_id": "md_ch04_a474", "md_file": "knowledge_base/chapters/ch04_general_assumptions.md", "md_atom_type": "HEADING", "md_parent_section": "§4 [General Assumptions]", "md_verbatim": "## 4.4 Actual and Relative Time Assumptions", "score": 0.3615, "match_basis": "verbatim_token+chapter_route:ch04"}, {"md_atom_id": "md_ch04_a007", "md_file": "knowledge_base/chapters/ch04_general_assumptions.md", "md_atom_type": "HEADING", "md_parent_section": "§4.1 [General Domain Assumptions]", "md_verbatim": "### 4.1.1 Review Study Data Tabulation Model and Implementation Guide", "score": 0.3612, "match_basis": "verbatim_token+chapter_route:ch04"}], "candidate_count": 5, "zero_candidate": false}
{"pdf_atom_id": "ig34_p0025_a023", "pdf_atom_type": "CODE_LITERAL", "pdf_source": "SDTMIG_v3.4", "pdf_page": 25, "pdf_parent_section": "§4.1.7.1 [Example of Splitting Questionnaires]", "pdf_verbatim": "qssw.xpt", "figure_ref": null, "candidates": [{"md_atom_id": "md_ch04_a207", "md_file": "knowledge_base/chapters/ch04_general_assumptions.md", "md_atom_type": "CODE_LITERAL", "md_parent_section": "§4.2.3 [Use of \"Subject\" and USUBJID]", "md_verbatim": "dm.xpt:", "score": 0.29, "match_basis": "verbatim_token+chapter_route:ch04"}, {"md_atom_id": "md_ch04_a210", "md_file": "knowledge_base/chapters/ch04_general_assumptions.md", "md_atom_type": "CODE_LITERAL", "md_parent_section": "§4.2.3 [Use of \"Subject\" and USUBJID]", "md_verbatim": "dm.xpt:", "score": 0.29, "match_basis": "verbatim_token+chapter_route:ch04"}, {"md_atom_id": "md_ch04_a368", "md_file": "knowledge_base/chapters/ch04_general_assumptions.md", "md_atom_type": "CODE_LITERAL", "md_parent_section": "§4.2.8.3 [Multiple Values for a Non-result Qualifier Variable]", "md_verbatim": "ae.xpt:", "score": 0.29, "match_basis": "verbatim_token+chapter_route:ch04"}, {"md_atom_id": "md_ch04_a378", "md_file": "knowledge_base/chapters/ch04_general_assumptions.md", "md_atom_type": "CODE_LITERAL", "md_parent_section": "§4.2.8.3 [Multiple Values for a Non-result Qualifier Variable]", "md_verbatim": "ae.xpt:", "score": 0.29, "match_basis": "verbatim_token+chapter_route:ch04"}, {"md_atom_id": "md_ch04_a391", "md_file": "knowledge_base/chapters/ch04_general_assumptions.md", "md_atom_type": "CODE_LITERAL", "md_parent_section": "§4.2.8.3 [Multiple Values for a Non-result Qualifier Variable]", "md_verbatim": "ae.xpt:", "score": 0.29, "match_basis": "verbatim_token+chapter_route:ch04"}, {"md_atom_id": "md_ch04_a835", "md_file": "knowledge_base/chapters/ch04_general_assumptions.md", "md_atom_type": "CODE_LITERAL", "md_parent_section": "§4.5.1.3 [Examples of Original and Standard Units and Test Not Done]", "md_verbatim": "lb.xpt", "score": 0.29, "match_basis": "verbatim_token+chapter_route:ch04"}, {"md_atom_id": "md_ch04_a861", "md_file": "knowledge_base/chapters/ch04_general_assumptions.md", "md_atom_type": "CODE_LITERAL", "md_parent_section": "§4.5.1.3 [Examples of Original and Standard Units and Test Not Done]", "md_verbatim": "eg.xpt", "score": 0.29, "match_basis": "verbatim_token+chapter_route:ch04"}, {"md_atom_id": "md_ch04_a877", "md_file": "knowledge_base/chapters/ch04_general_assumptions.md", "md_atom_type": "CODE_LITERAL", "md_parent_section": "§4.5.1.3 [Examples of Original and Standard Units and Test Not Done]", "md_verbatim": "vs.xpt", "score": 0.29, "match_basis": "verbatim_token+chapter_route:ch04"}, {"md_atom_id": "md_ch04_a917", "md_file": "knowledge_base/chapters/ch04_general_assumptions.md", "md_atom_type": "CODE_LITERAL", "md_parent_section": "§4.5.3.2 [Text Strings Greater than 200 Characters in Other Variables]", "md_verbatim": "mh.xpt", "score": 0.29, "match_basis": "verbatim_token+chapter_route:ch04"}, {"md_atom_id": "md_ch04_a919", "md_file": "knowledge_base/chapters/ch04_general_assumptions.md", "md_atom_type": "SENTENCE", "md_parent_section": "§4.5.3.2 [Text Strings Greater than 200 Characters in Other Variables]", "md_verbatim": "mh.xpt:", "score": 0.29, "match_basis": "verbatim_token+chapter_route:ch04"}], "candidate_count": 10, "zero_candidate": false}
{"pdf_atom_id": "ig34_p0025_a024", "pdf_atom_type": "TABLE_HEADER", "pdf_source": "SDTMIG_v3.4", "pdf_page": 25, "pdf_parent_section": "§4.1.7.1 [Example of Splitting Questionnaires]", "pdf_verbatim": "Row | STUDYID | DOMAIN | USUBJID | QSSEQ | QSTESTCD | QSTEST | QSCAT | QSORRES | QSSTRESC | QSSTRESN | QSLOBXFL | VISITNUM | QSDTC | QSDY", "figure_ref": null, "candidates": [{"md_atom_id": "md_ch04_a091", "md_file": "knowledge_base/chapters/ch04_general_assumptions.md", "md_atom_type": "TABLE_HEADER", "md_parent_section": "§4.1.7.1 [Example of Splitting Questionnaires]", "md_verbatim": "| Row | STUDYID | DOMAIN | USUBJID | QSSEQ | QSTESTCD | QSTEST | QSCAT | QSORRES | QSSTRESC | QSSTRESN | QSLOBXFL | VISITNUM | QSDTC | QSDY |", "score": 0.9, "match_basis": "verbatim_token+chapter_route:ch04"}, {"md_atom_id": "md_ch04_a074", "md_file": "knowledge_base/chapters/ch04_general_assumptions.md", "md_atom_type": "TABLE_HEADER", "md_parent_section": "§4.1.7.1 [Example of Splitting Questionnaires]", "md_verbatim": "| Row | STUDYID | DOMAIN | USUBJID | QSSEQ | QSTESTCD | QSTEST | QSCAT | QSORRES | QSSTRESC | QSSTRESN | QSLOBXFL | VISITNUM | VISIT | VISITDY | QSDTC | QSDY |\n|-----|---------|--------|---------|-------|----------|--------|-------|---------|----------|----------|----------|----------|-------|---------|-------|------|", "score": 0.8782, "match_basis": "verbatim_token+chapter_route:ch04"}, {"md_atom_id": "md_ch04_a083", "md_file": "knowledge_base/chapters/ch04_general_assumptions.md", "md_atom_type": "TABLE_HEADER", "md_parent_section": "§4.1.7.1 [Example of Splitting Questionnaires]", "md_verbatim": "| Row | STUDYID | DOMAIN | USUBJID | QSSEQ | QSTESTCD | QSTEST | QSCAT | QSSCAT | QSORRES | QSORRESU | QSSTRESC | QSSTRESN | QSSTRESU | QSLOC | QSMETHOD | QSLOBXFL | VISITNUM | QSDTC | QSDY | QSEVLINT |", "score": 0.7676, "match_basis": "verbatim_token+chapter_route:ch04"}, {"md_atom_id": "md_ch04_a883", "md_file": "knowledge_base/chapters/ch04_general_assumptions.md", "md_atom_type": "TABLE_HEADER", "md_parent_section": "§4.5.1.3 [Examples of Original and Standard Units and Test Not Done]", "md_verbatim": "| Row | VSTESTCD | VSORRES | VSORRESU | VSSTRESC | VSSTRESN | VSSTRESU | VSSTAT | VSDRVFL | VISITNUM | VSDTC |\n|-----|----------|---------|----------|----------|----------|----------|--------|---------|----------|-------|", "score": 0.5156, "match_basis": "verbatim_token+chapter_route:ch04"}, {"md_atom_id": "md_ch04_a847", "md_file": "knowledge_base/chapters/ch04_general_assumptions.md", "md_atom_type": "TABLE_HEADER", "md_parent_section": "§4.5.1.3 [Examples of Original and Standard Units and Test Not Done]", "md_verbatim": "| Row | LBTESTCD | LBCAT | LBORRES | LBORRESU | LBSTRESC | LBSTRESN | LBSTRESU | LBSTAT | LBLOBXFL | VISITNUM | LBDTC |\n|-----|----------|-------|---------|----------|----------|----------|----------|--------|----------|----------|-------|", "score": 0.5118, "match_basis": "verbatim_token+chapter_route:ch04"}], "candidate_count": 5, "zero_candidate": false}
{"pdf_atom_id": "ig34_p0025_a025", "pdf_atom_type": "TABLE_ROW", "pdf_source": "SDTMIG_v3.4", "pdf_page": 25, "pdf_parent_section": "§4.1.7.1 [Example of Splitting Questionnaires]", "pdf_verbatim": "1 | CDISC01 | QS | CDISC01.100008 | | SWLS0101 | SWLS01-My Life is Close to Ideal | SWLS | Slightly agree | 5 | 5 | Y | 1 | 2003-04-15 | 1", "figure_ref": null, "candidates": [{"md_atom_id": "md_ch04_a092", "md_file": "knowledge_base/chapters/ch04_general_assumptions.md", "md_atom_type": "TABLE_ROW", "md_parent_section": "§4.1.7.1 [Example of Splitting Questionnaires]", "md_verbatim": "| 1 | CDISC01 | QS | CDISC01.100008 | 1 | SWLS01 | SWLS01-My Life is Close to Ideal | SWLS | Slightly agree | 5 | 5 | Y | 1 | 2003-04-15 | 1 |", "score": 0.8636, "match_basis": "verbatim_token+chapter_route:ch04"}, {"md_atom_id": "md_ch04_a097", "md_file": "knowledge_base/chapters/ch04_general_assumptions.md", "md_atom_type": "TABLE_ROW", "md_parent_section": "§4.1.7.1 [Example of Splitting Questionnaires]", "md_verbatim": "| 6 | CDISC01 | QS | CDISC01.100014 | 6 | SWLS01 | SWLS01-My Life is Close to Ideal | SWLS | Slightly agree | 5 | 5 | Y | 1 | 2003-04-15 | 1 |", "score": 0.8143, "match_basis": "verbatim_token+chapter_route:ch04"}, {"md_atom_id": "md_ch04_a094", "md_file": "knowledge_base/chapters/ch04_general_assumptions.md", "md_atom_type": "TABLE_ROW", "md_parent_section": "§4.1.7.1 [Example of Splitting Questionnaires]", "md_verbatim": "| 3 | CDISC01 | QS | CDISC01.100008 | 3 | SWLS03 | SWLS01-I Am Satisfied with my Life | SWLS | Agree | 6 | 6 | | 1 | 2003-04-15 | 1 |", "score": 0.5651, "match_basis": "verbatim_token+chapter_route:ch04"}, {"md_atom_id": "md_ch04_a099", "md_file": "knowledge_base/chapters/ch04_general_assumptions.md", "md_atom_type": "TABLE_ROW", "md_parent_section": "§4.1.7.1 [Example of Splitting Questionnaires]", "md_verbatim": "| 8 | CDISC01 | QS | CDISC01.100014 | 8 | SWLS03 | SWLS01-I Am Satisfied with my Life | SWLS | Agree | 6 | 6 | | 1 | 2003-04-15 | 1 |", "score": 0.54, "match_basis": "verbatim_token+chapter_route:ch04"}, {"md_atom_id": "md_ch04_a096", "md_file": "knowledge_base/chapters/ch04_general_assumptions.md", "md_atom_type": "TABLE_ROW", "md_parent_section": "§4.1.7.1 [Example of Splitting Questionnaires]", "md_verbatim": "| 5 | CDISC01 | QS | CDISC01.100008 | 5 | SWLS05 | SWLS01-Live Life Over Change Nothing | SWLS | Strongly disagree | 1 | 1 | | 1 | 2003-04-15 | 1 |", "score": 0.5073, "match_basis": "verbatim_token+chapter_route:ch04"}], "candidate_count": 5, "zero_candidate": false}
{"pdf_atom_id": "ig34_p0025_a026", "pdf_atom_type": "TABLE_ROW", "pdf_source": "SDTMIG_v3.4", "pdf_page": 25, "pdf_parent_section": "§4.1.7.1 [Example of Splitting Questionnaires]", "pdf_verbatim": "2 | CDISC01 | QS | CDISC01.100008 | | SWLS0102 | SWLS01-My Life Conditions are Excellent | SWLS | Neither agree nor disagree | 4 | 4 | Y | 1 | 2003-04-15 | 1", "figure_ref": null, "candidates": [{"md_atom_id": "md_ch04_a093", "md_file": "knowledge_base/chapters/ch04_general_assumptions.md", "md_atom_type": "TABLE_ROW", "md_parent_section": "§4.1.7.1 [Example of Splitting Questionnaires]", "md_verbatim": "| 2 | CDISC01 | QS | CDISC01.100008 | 2 | SWLS02 | SWLS01-My Life Conditions are Excellent | SWLS | Neither agree nor disagree | 4 | 4 | | 1 | 2003-04-15 | 1 |", "score": 0.8609, "match_basis": "verbatim_token+chapter_route:ch04"}, {"md_atom_id": "md_ch04_a098", "md_file": "knowledge_base/chapters/ch04_general_assumptions.md", "md_atom_type": "TABLE_ROW", "md_parent_section": "§4.1.7.1 [Example of Splitting Questionnaires]", "md_verbatim": "| 7 | CDISC01 | QS | CDISC01.100014 | 7 | SWLS02 | SWLS01-My Life Conditions are Excellent | SWLS | Neither agree nor disagree | 4 | 4 | | 1 | 2003-04-15 | 1 |", "score": 0.825, "match_basis": "verbatim_token+chapter_route:ch04"}, {"md_atom_id": "md_ch04_a094", "md_file": "knowledge_base/chapters/ch04_general_assumptions.md", "md_atom_type": "TABLE_ROW", "md_parent_section": "§4.1.7.1 [Example of Splitting Questionnaires]", "md_verbatim": "| 3 | CDISC01 | QS | CDISC01.100008 | 3 | SWLS03 | SWLS01-I Am Satisfied with my Life | SWLS | Agree | 6 | 6 | | 1 | 2003-04-15 | 1 |", "score": 0.5222, "match_basis": "verbatim_token+chapter_route:ch04"}, {"md_atom_id": "md_ch04_a099", "md_file": "knowledge_base/chapters/ch04_general_assumptions.md", "md_atom_type": "TABLE_ROW", "md_parent_section": "§4.1.7.1 [Example of Splitting Questionnaires]", "md_verbatim": "| 8 | CDISC01 | QS | CDISC01.100014 | 8 | SWLS03 | SWLS01-I Am Satisfied with my Life | SWLS | Agree | 6 | 6 | | 1 | 2003-04-15 | 1 |", "score": 0.5036, "match_basis": "verbatim_token+chapter_route:ch04"}, {"md_atom_id": "md_ch04_a092", "md_file": "knowledge_base/chapters/ch04_general_assumptions.md", "md_atom_type": "TABLE_ROW", "md_parent_section": "§4.1.7.1 [Example of Splitting Questionnaires]", "md_verbatim": "| 1 | CDISC01 | QS | CDISC01.100008 | 1 | SWLS01 | SWLS01-My Life is Close to Ideal | SWLS | Slightly agree | 5 | 5 | Y | 1 | 2003-04-15 | 1 |", "score": 0.5, "match_basis": "verbatim_token+chapter_route:ch04"}], "candidate_count": 5, "zero_candidate": false}
{"pdf_atom_id": "ig34_p0025_a027", "pdf_atom_type": "TABLE_ROW", "pdf_source": "SDTMIG_v3.4", "pdf_page": 25, "pdf_parent_section": "§4.1.7.1 [Example of Splitting Questionnaires]", "pdf_verbatim": "3 | CDISC01 | QS | CDISC01.100008 | | SWLS0103 | SWLS01-I Am Satisfied with My Life | SWLS | Agree | 6 | 6 | | 1 | 2003-04-15 | 1", "figure_ref": null, "candidates": [{"md_atom_id": "md_ch04_a094", "md_file": "knowledge_base/chapters/ch04_general_assumptions.md", "md_atom_type": "TABLE_ROW", "md_parent_section": "§4.1.7.1 [Example of Splitting Questionnaires]", "md_verbatim": "| 3 | CDISC01 | QS | CDISC01.100008 | 3 | SWLS03 | SWLS01-I Am Satisfied with my Life | SWLS | Agree | 6 | 6 | | 1 | 2003-04-15 | 1 |", "score": 0.8419, "match_basis": "verbatim_token+chapter_route:ch04"}, {"md_atom_id": "md_ch04_a099", "md_file": "knowledge_base/chapters/ch04_general_assumptions.md", "md_atom_type": "TABLE_ROW", "md_parent_section": "§4.1.7.1 [Example of Splitting Questionnaires]", "md_verbatim": "| 8 | CDISC01 | QS | CDISC01.100014 | 8 | SWLS03 | SWLS01-I Am Satisfied with my Life | SWLS | Agree | 6 | 6 | | 1 | 2003-04-15 | 1 |", "score": 0.7909, "match_basis": "verbatim_token+chapter_route:ch04"}, {"md_atom_id": "md_ch04_a092", "md_file": "knowledge_base/chapters/ch04_general_assumptions.md", "md_atom_type": "TABLE_ROW", "md_parent_section": "§4.1.7.1 [Example of Splitting Questionnaires]", "md_verbatim": "| 1 | CDISC01 | QS | CDISC01.100008 | 1 | SWLS01 | SWLS01-My Life is Close to Ideal | SWLS | Slightly agree | 5 | 5 | Y | 1 | 2003-04-15 | 1 |", "score": 0.5714, "match_basis": "verbatim_token+chapter_route:ch04"}, {"md_atom_id": "md_ch04_a097", "md_file": "knowledge_base/chapters/ch04_general_assumptions.md", "md_atom_type": "TABLE_ROW", "md_parent_section": "§4.1.7.1 [Example of Splitting Questionnaires]", "md_verbatim": "| 6 | CDISC01 | QS | CDISC01.100014 | 6 | SWLS01 | SWLS01-My Life is Close to Ideal | SWLS | Slightly agree | 5 | 5 | Y | 1 | 2003-04-15 | 1 |", "score": 0.5455, "match_basis": "verbatim_token+chapter_route:ch04"}, {"md_atom_id": "md_ch04_a093", "md_file": "knowledge_base/chapters/ch04_general_assumptions.md", "md_atom_type": "TABLE_ROW", "md_parent_section": "§4.1.7.1 [Example of Splitting Questionnaires]", "md_verbatim": "| 2 | CDISC01 | QS | CDISC01.100008 | 2 | SWLS02 | SWLS01-My Life Conditions are Excellent | SWLS | Neither agree nor disagree | 4 | 4 | | 1 | 2003-04-15 | 1 |", "score": 0.5222, "match_basis": "verbatim_token+chapter_route:ch04"}], "candidate_count": 5, "zero_candidate": false}
{"pdf_atom_id": "ig34_p0025_a028", "pdf_atom_type": "TABLE_ROW", "pdf_source": "SDTMIG_v3.4", "pdf_page": 25, "pdf_parent_section": "§4.1.7.1 [Example of Splitting Questionnaires]", "pdf_verbatim": "4 | CDISC01 | QS | CDISC01.100008 | | SWLS0104 | SWLS01-Have Gotten Important Things | SWLS | Disagree | 2 | 2 | | 1 | 2003-04-15 | 1", "figure_ref": null, "candidates": [{"md_atom_id": "md_ch04_a095", "md_file": "knowledge_base/chapters/ch04_general_assumptions.md", "md_atom_type": "TABLE_ROW", "md_parent_section": "§4.1.7.1 [Example of Splitting Questionnaires]", "md_verbatim": "| 4 | CDISC01 | QS | CDISC01.100008 | 4 | SWLS04 | SWLS01-Have Gotten Important Things | SWLS | Disagree | 2 | 2 | | 1 | 2003-04-15 | 1 |", "score": 0.8538, "match_basis": "verbatim_token+chapter_route:ch04"}, {"md_atom_id": "md_ch04_a100", "md_file": "knowledge_base/chapters/ch04_general_assumptions.md", "md_atom_type": "TABLE_ROW", "md_parent_section": "§4.1.7.1 [Example of Splitting Questionnaires]", "md_verbatim": "| 9 | CDISC01 | QS | CDISC01.100014 | 9 | SWLS04 | SWLS01-Have Gotten Important Things | SWLS | Disagree | 2 | 2 | | 1 | 2003-04-15 | 1 |", "score": 0.8122, "match_basis": "verbatim_token+chapter_route:ch04"}, {"md_atom_id": "md_ch04_a096", "md_file": "knowledge_base/chapters/ch04_general_assumptions.md", "md_atom_type": "TABLE_ROW", "md_parent_section": "§4.1.7.1 [Example of Splitting Questionnaires]", "md_verbatim": "| 5 | CDISC01 | QS | CDISC01.100008 | 5 | SWLS05 | SWLS01-Live Life Over Change Nothing | SWLS | Strongly disagree | 1 | 1 | | 1 | 2003-04-15 | 1 |", "score": 0.5316, "match_basis": "verbatim_token+chapter_route:ch04"}, {"md_atom_id": "md_ch04_a101", "md_file": "knowledge_base/chapters/ch04_general_assumptions.md", "md_atom_type": "TABLE_ROW", "md_parent_section": "§4.1.7.1 [Example of Splitting Questionnaires]", "md_verbatim": "| 10 | CDISC01 | QS | CDISC01.100014 | 10 | SWLS05 | SWLS01-Live Life Over Change Nothing | SWLS | Strongly disagree | 1 | 1 | | 1 | 2003-04-15 | 1 |", "score": 0.5136, "match_basis": "verbatim_token+chapter_route:ch04"}, {"md_atom_id": "md_ch04_a094", "md_file": "knowledge_base/chapters/ch04_general_assumptions.md", "md_atom_type": "TABLE_ROW", "md_parent_section": "§4.1.7.1 [Example of Splitting Questionnaires]", "md_verbatim": "| 3 | CDISC01 | QS | CDISC01.100008 | 3 | SWLS03 | SWLS01-I Am Satisfied with my Life | SWLS | Agree | 6 | 6 | | 1 | 2003-04-15 | 1 |", "score": 0.504, "match_basis": "verbatim_token+chapter_route:ch04"}], "candidate_count": 5, "zero_candidate": false}
{"pdf_atom_id": "ig34_p0025_a029", "pdf_atom_type": "TABLE_ROW", "pdf_source": "SDTMIG_v3.4", "pdf_page": 25, "pdf_parent_section": "§4.1.7.1 [Example of Splitting Questionnaires]", "pdf_verbatim": "5 | CDISC01 | QS | CDISC01.100008 | | SWLS0105 | SWLS01-Live Life Over Change Nothing | SWLS | Strongly disagree | 1 | 1 | | 1 | 2003-04-15 | 1", "figure_ref": null, "candidates": [{"md_atom_id": "md_ch04_a096", "md_file": "knowledge_base/chapters/ch04_general_assumptions.md", "md_atom_type": "TABLE_ROW", "md_parent_section": "§4.1.7.1 [Example of Splitting Questionnaires]", "md_verbatim": "| 5 | CDISC01 | QS | CDISC01.100008 | 5 | SWLS05 | SWLS01-Live Life Over Change Nothing | SWLS | Strongly disagree | 1 | 1 | | 1 | 2003-04-15 | 1 |", "score": 0.8581, "match_basis": "verbatim_token+chapter_route:ch04"}, {"md_atom_id": "md_ch04_a101", "md_file": "knowledge_base/chapters/ch04_general_assumptions.md", "md_atom_type": "TABLE_ROW", "md_parent_section": "§4.1.7.1 [Example of Splitting Questionnaires]", "md_verbatim": "| 10 | CDISC01 | QS | CDISC01.100014 | 10 | SWLS05 | SWLS01-Live Life Over Change Nothing | SWLS | Strongly disagree | 1 | 1 | | 1 | 2003-04-15 | 1 |", "score": 0.82, "match_basis": "verbatim_token+chapter_route:ch04"}, {"md_atom_id": "md_ch04_a095", "md_file": "knowledge_base/chapters/ch04_general_assumptions.md", "md_atom_type": "TABLE_ROW", "md_parent_section": "§4.1.7.1 [Example of Splitting Questionnaires]", "md_verbatim": "| 4 | CDISC01 | QS | CDISC01.100008 | 4 | SWLS04 | SWLS01-Have Gotten Important Things | SWLS | Disagree | 2 | 2 | | 1 | 2003-04-15 | 1 |", "score": 0.5316, "match_basis": "verbatim_token+chapter_route:ch04"}, {"md_atom_id": "md_ch04_a094", "md_file": "knowledge_base/chapters/ch04_general_assumptions.md", "md_atom_type": "TABLE_ROW", "md_parent_section": "§4.1.7.1 [Example of Splitting Questionnaires]", "md_verbatim": "| 3 | CDISC01 | QS | CDISC01.100008 | 3 | SWLS03 | SWLS01-I Am Satisfied with my Life | SWLS | Agree | 6 | 6 | | 1 | 2003-04-15 | 1 |", "score": 0.5192, "match_basis": "verbatim_token+chapter_route:ch04"}, {"md_atom_id": "md_ch04_a100", "md_file": "knowledge_base/chapters/ch04_general_assumptions.md", "md_atom_type": "TABLE_ROW", "md_parent_section": "§4.1.7.1 [Example of Splitting Questionnaires]", "md_verbatim": "| 9 | CDISC01 | QS | CDISC01.100014 | 9 | SWLS04 | SWLS01-Have Gotten Important Things | SWLS | Disagree | 2 | 2 | | 1 | 2003-04-15 | 1 |", "score": 0.5136, "match_basis": "verbatim_token+chapter_route:ch04"}], "candidate_count": 5, "zero_candidate": false}
{"pdf_atom_id": "ig34_p0025_a030", "pdf_atom_type": "TABLE_ROW", "pdf_source": "SDTMIG_v3.4", "pdf_page": 25, "pdf_parent_section": "§4.1.7.1 [Example of Splitting Questionnaires]", "pdf_verbatim": "6 | CDISC01 | QS | CDISC01.100014 | | SWLS0101 | SWLS01-My Life is Close to Ideal | SWLS | Slightly agree | 5 | 5 | Y | 1 | 2003-04-15 | 1", "figure_ref": null, "candidates": [{"md_atom_id": "md_ch04_a097", "md_file": "knowledge_base/chapters/ch04_general_assumptions.md", "md_atom_type": "TABLE_ROW", "md_parent_section": "§4.1.7.1 [Example of Splitting Questionnaires]", "md_verbatim": "| 6 | CDISC01 | QS | CDISC01.100014 | 6 | SWLS01 | SWLS01-My Life is Close to Ideal | SWLS | Slightly agree | 5 | 5 | Y | 1 | 2003-04-15 | 1 |", "score": 0.8647, "match_basis": "verbatim_token+chapter_route:ch04"}, {"md_atom_id": "md_ch04_a092", "md_file": "knowledge_base/chapters/ch04_general_assumptions.md", "md_atom_type": "TABLE_ROW", "md_parent_section": "§4.1.7.1 [Example of Splitting Questionnaires]", "md_verbatim": "| 1 | CDISC01 | QS | CDISC01.100008 | 1 | SWLS01 | SWLS01-My Life is Close to Ideal | SWLS | Slightly agree | 5 | 5 | Y | 1 | 2003-04-15 | 1 |", "score": 0.8143, "match_basis": "verbatim_token+chapter_route:ch04"}, {"md_atom_id": "md_ch04_a099", "md_file": "knowledge_base/chapters/ch04_general_assumptions.md", "md_atom_type": "TABLE_ROW", "md_parent_section": "§4.1.7.1 [Example of Splitting Questionnaires]", "md_verbatim": "| 8 | CDISC01 | QS | CDISC01.100014 | 8 | SWLS03 | SWLS01-I Am Satisfied with my Life | SWLS | Agree | 6 | 6 | | 1 | 2003-04-15 | 1 |", "score": 0.5727, "match_basis": "verbatim_token+chapter_route:ch04"}, {"md_atom_id": "md_ch04_a094", "md_file": "knowledge_base/chapters/ch04_general_assumptions.md", "md_atom_type": "TABLE_ROW", "md_parent_section": "§4.1.7.1 [Example of Splitting Questionnaires]", "md_verbatim": "| 3 | CDISC01 | QS | CDISC01.100008 | 3 | SWLS03 | SWLS01-I Am Satisfied with my Life | SWLS | Agree | 6 | 6 | | 1 | 2003-04-15 | 1 |", "score": 0.54, "match_basis": "verbatim_token+chapter_route:ch04"}, {"md_atom_id": "md_ch04_a101", "md_file": "knowledge_base/chapters/ch04_general_assumptions.md", "md_atom_type": "TABLE_ROW", "md_parent_section": "§4.1.7.1 [Example of Splitting Questionnaires]", "md_verbatim": "| 10 | CDISC01 | QS | CDISC01.100014 | 10 | SWLS05 | SWLS01-Live Life Over Change Nothing | SWLS | Strongly disagree | 1 | 1 | | 1 | 2003-04-15 | 1 |", "score": 0.5143, "match_basis": "verbatim_token+chapter_route:ch04"}], "candidate_count": 5, "zero_candidate": false}
{"pdf_atom_id": "ig34_p0025_a031", "pdf_atom_type": "TABLE_ROW", "pdf_source": "SDTMIG_v3.4", "pdf_page": 25, "pdf_parent_section": "§4.1.7.1 [Example of Splitting Questionnaires]", "pdf_verbatim": "7 | CDISC01 | QS | CDISC01.100014 | | SWLS0102 | SWLS01-My Life Conditions are Excellent | SWLS | Neither agree nor disagree | 4 | 4 | | 1 | 2003-04-15 | 1", "figure_ref": null, "candidates": [{"md_atom_id": "md_ch04_a098", "md_file": "knowledge_base/chapters/ch04_general_assumptions.md", "md_atom_type": "TABLE_ROW", "md_parent_section": "§4.1.7.1 [Example of Splitting Questionnaires]", "md_verbatim": "| 7 | CDISC01 | QS | CDISC01.100014 | 7 | SWLS02 | SWLS01-My Life Conditions are Excellent | SWLS | Neither agree nor disagree | 4 | 4 | | 1 | 2003-04-15 | 1 |", "score": 0.8617, "match_basis": "verbatim_token+chapter_route:ch04"}, {"md_atom_id": "md_ch04_a093", "md_file": "knowledge_base/chapters/ch04_general_assumptions.md", "md_atom_type": "TABLE_ROW", "md_parent_section": "§4.1.7.1 [Example of Splitting Questionnaires]", "md_verbatim": "| 2 | CDISC01 | QS | CDISC01.100008 | 2 | SWLS02 | SWLS01-My Life Conditions are Excellent | SWLS | Neither agree nor disagree | 4 | 4 | | 1 | 2003-04-15 | 1 |", "score": 0.825, "match_basis": "verbatim_token+chapter_route:ch04"}, {"md_atom_id": "md_ch04_a099", "md_file": "knowledge_base/chapters/ch04_general_assumptions.md", "md_atom_type": "TABLE_ROW", "md_parent_section": "§4.1.7.1 [Example of Splitting Questionnaires]", "md_verbatim": "| 8 | CDISC01 | QS | CDISC01.100014 | 8 | SWLS03 | SWLS01-I Am Satisfied with my Life | SWLS | Agree | 6 | 6 | | 1 | 2003-04-15 | 1 |", "score": 0.5291, "match_basis": "verbatim_token+chapter_route:ch04"}, {"md_atom_id": "md_ch04_a097", "md_file": "knowledge_base/chapters/ch04_general_assumptions.md", "md_atom_type": "TABLE_ROW", "md_parent_section": "§4.1.7.1 [Example of Splitting Questionnaires]", "md_verbatim": "| 6 | CDISC01 | QS | CDISC01.100014 | 6 | SWLS01 | SWLS01-My Life is Close to Ideal | SWLS | Slightly agree | 5 | 5 | Y | 1 | 2003-04-15 | 1 |", "score": 0.5069, "match_basis": "verbatim_token+chapter_route:ch04"}, {"md_atom_id": "md_ch04_a094", "md_file": "knowledge_base/chapters/ch04_general_assumptions.md", "md_atom_type": "TABLE_ROW", "md_parent_section": "§4.1.7.1 [Example of Splitting Questionnaires]", "md_verbatim": "| 3 | CDISC01 | QS | CDISC01.100008 | 3 | SWLS03 | SWLS01-I Am Satisfied with my Life | SWLS | Agree | 6 | 6 | | 1 | 2003-04-15 | 1 |", "score": 0.5036, "match_basis": "verbatim_token+chapter_route:ch04"}], "candidate_count": 5, "zero_candidate": false}
{"pdf_atom_id": "ig34_p0025_a032", "pdf_atom_type": "TABLE_ROW", "pdf_source": "SDTMIG_v3.4", "pdf_page": 25, "pdf_parent_section": "§4.1.7.1 [Example of Splitting Questionnaires]", "pdf_verbatim": "8 | CDISC01 | QS | CDISC01.100014 | | SWLS0103 | SWLS01-I Am Satisfied with My Life | SWLS | Agree | 6 | 6 | | 1 | 2003-04-15 | 1", "figure_ref": null, "candidates": [{"md_atom_id": "md_ch04_a099", "md_file": "knowledge_base/chapters/ch04_general_assumptions.md", "md_atom_type": "TABLE_ROW", "md_parent_section": "§4.1.7.1 [Example of Splitting Questionnaires]", "md_verbatim": "| 8 | CDISC01 | QS | CDISC01.100014 | 8 | SWLS03 | SWLS01-I Am Satisfied with my Life | SWLS | Agree | 6 | 6 | | 1 | 2003-04-15 | 1 |", "score": 0.8438, "match_basis": "verbatim_token+chapter_route:ch04"}, {"md_atom_id": "md_ch04_a094", "md_file": "knowledge_base/chapters/ch04_general_assumptions.md", "md_atom_type": "TABLE_ROW", "md_parent_section": "§4.1.7.1 [Example of Splitting Questionnaires]", "md_verbatim": "| 3 | CDISC01 | QS | CDISC01.100008 | 3 | SWLS03 | SWLS01-I Am Satisfied with my Life | SWLS | Agree | 6 | 6 | | 1 | 2003-04-15 | 1 |", "score": 0.7909, "match_basis": "verbatim_token+chapter_route:ch04"}, {"md_atom_id": "md_ch04_a097", "md_file": "knowledge_base/chapters/ch04_general_assumptions.md", "md_atom_type": "TABLE_ROW", "md_parent_section": "§4.1.7.1 [Example of Splitting Questionnaires]", "md_verbatim": "| 6 | CDISC01 | QS | CDISC01.100014 | 6 | SWLS01 | SWLS01-My Life is Close to Ideal | SWLS | Slightly agree | 5 | 5 | Y | 1 | 2003-04-15 | 1 |", "score": 0.5791, "match_basis": "verbatim_token+chapter_route:ch04"}, {"md_atom_id": "md_ch04_a092", "md_file": "knowledge_base/chapters/ch04_general_assumptions.md", "md_atom_type": "TABLE_ROW", "md_parent_section": "§4.1.7.1 [Example of Splitting Questionnaires]", "md_verbatim": "| 1 | CDISC01 | QS | CDISC01.100008 | 1 | SWLS01 | SWLS01-My Life is Close to Ideal | SWLS | Slightly agree | 5 | 5 | Y | 1 | 2003-04-15 | 1 |", "score": 0.5455, "match_basis": "verbatim_token+chapter_route:ch04"}, {"md_atom_id": "md_ch04_a098", "md_file": "knowledge_base/chapters/ch04_general_assumptions.md", "md_atom_type": "TABLE_ROW", "md_parent_section": "§4.1.7.1 [Example of Splitting Questionnaires]", "md_verbatim": "| 7 | CDISC01 | QS | CDISC01.100014 | 7 | SWLS02 | SWLS01-My Life Conditions are Excellent | SWLS | Neither agree nor disagree | 4 | 4 | | 1 | 2003-04-15 | 1 |", "score": 0.5291, "match_basis": "verbatim_token+chapter_route:ch04"}], "candidate_count": 5, "zero_candidate": false}
{"pdf_atom_id": "ig34_p0025_a033", "pdf_atom_type": "TABLE_ROW", "pdf_source": "SDTMIG_v3.4", "pdf_page": 25, "pdf_parent_section": "§4.1.7.1 [Example of Splitting Questionnaires]", "pdf_verbatim": "9 | CDISC01 | QS | CDISC01.100014 | | SWLS0104 | SWLS01-Have Gotten Important Things | SWLS | Disagree | 2 | 2 | | 1 | 2003-04-15 | 1", "figure_ref": null, "candidates": [{"md_atom_id": "md_ch04_a100", "md_file": "knowledge_base/chapters/ch04_general_assumptions.md", "md_atom_type": "TABLE_ROW", "md_parent_section": "§4.1.7.1 [Example of Splitting Questionnaires]", "md_verbatim": "| 9 | CDISC01 | QS | CDISC01.100014 | 9 | SWLS04 | SWLS01-Have Gotten Important Things | SWLS | Disagree | 2 | 2 | | 1 | 2003-04-15 | 1 |", "score": 0.855, "match_basis": "verbatim_token+chapter_route:ch04"}, {"md_atom_id": "md_ch04_a095", "md_file": "knowledge_base/chapters/ch04_general_assumptions.md", "md_atom_type": "TABLE_ROW", "md_parent_section": "§4.1.7.1 [Example of Splitting Questionnaires]", "md_verbatim": "| 4 | CDISC01 | QS | CDISC01.100008 | 4 | SWLS04 | SWLS01-Have Gotten Important Things | SWLS | Disagree | 2 | 2 | | 1 | 2003-04-15 | 1 |", "score": 0.8122, "match_basis": "verbatim_token+chapter_route:ch04"}, {"md_atom_id": "md_ch04_a101", "md_file": "knowledge_base/chapters/ch04_general_assumptions.md", "md_atom_type": "TABLE_ROW", "md_parent_section": "§4.1.7.1 [Example of Splitting Questionnaires]", "md_verbatim": "| 10 | CDISC01 | QS | CDISC01.100014 | 10 | SWLS05 | SWLS01-Live Life Over Change Nothing | SWLS | Strongly disagree | 1 | 1 | | 1 | 2003-04-15 | 1 |", "score": 0.5379, "match_basis": "verbatim_token+chapter_route:ch04"}, {"md_atom_id": "md_ch04_a096", "md_file": "knowledge_base/chapters/ch04_general_assumptions.md", "md_atom_type": "TABLE_ROW", "md_parent_section": "§4.1.7.1 [Example of Splitting Questionnaires]", "md_verbatim": "| 5 | CDISC01 | QS | CDISC01.100008 | 5 | SWLS05 | SWLS01-Live Life Over Change Nothing | SWLS | Strongly disagree | 1 | 1 | | 1 | 2003-04-15 | 1 |", "score": 0.5136, "match_basis": "verbatim_token+chapter_route:ch04"}, {"md_atom_id": "md_ch04_a099", "md_file": "knowledge_base/chapters/ch04_general_assumptions.md", "md_atom_type": "TABLE_ROW", "md_parent_section": "§4.1.7.1 [Example of Splitting Questionnaires]", "md_verbatim": "| 8 | CDISC01 | QS | CDISC01.100014 | 8 | SWLS03 | SWLS01-I Am Satisfied with my Life | SWLS | Agree | 6 | 6 | | 1 | 2003-04-15 | 1 |", "score": 0.5118, "match_basis": "verbatim_token+chapter_route:ch04"}], "candidate_count": 5, "zero_candidate": false}
{"pdf_atom_id": "ig34_p0025_a034", "pdf_atom_type": "TABLE_ROW", "pdf_source": "SDTMIG_v3.4", "pdf_page": 25, "pdf_parent_section": "§4.1.7.1 [Example of Splitting Questionnaires]", "pdf_verbatim": "10 | CDISC01 | QS | CDISC01.100014 | | SWLS0105 | SWLS01-Live Life Over Change Nothing | SWLS | Strongly disagree | 1 | 1 | | 1 | 2003-04-15 | 1", "figure_ref": null, "candidates": [{"md_atom_id": "md_ch04_a101", "md_file": "knowledge_base/chapters/ch04_general_assumptions.md", "md_atom_type": "TABLE_ROW", "md_parent_section": "§4.1.7.1 [Example of Splitting Questionnaires]", "md_verbatim": "| 10 | CDISC01 | QS | CDISC01.100014 | 10 | SWLS05 | SWLS01-Live Life Over Change Nothing | SWLS | Strongly disagree | 1 | 1 | | 1 | 2003-04-15 | 1 |", "score": 0.8591, "match_basis": "verbatim_token+chapter_route:ch04"}, {"md_atom_id": "md_ch04_a096", "md_file": "knowledge_base/chapters/ch04_general_assumptions.md", "md_atom_type": "TABLE_ROW", "md_parent_section": "§4.1.7.1 [Example of Splitting Questionnaires]", "md_verbatim": "| 5 | CDISC01 | QS | CDISC01.100008 | 5 | SWLS05 | SWLS01-Live Life Over Change Nothing | SWLS | Strongly disagree | 1 | 1 | | 1 | 2003-04-15 | 1 |", "score": 0.82, "match_basis": "verbatim_token+chapter_route:ch04"}, {"md_atom_id": "md_ch04_a100", "md_file": "knowledge_base/chapters/ch04_general_assumptions.md", "md_atom_type": "TABLE_ROW", "md_parent_section": "§4.1.7.1 [Example of Splitting Questionnaires]", "md_verbatim": "| 9 | CDISC01 | QS | CDISC01.100014 | 9 | SWLS04 | SWLS01-Have Gotten Important Things | SWLS | Disagree | 2 | 2 | | 1 | 2003-04-15 | 1 |", "score": 0.5379, "match_basis": "verbatim_token+chapter_route:ch04"}, {"md_atom_id": "md_ch04_a099", "md_file": "knowledge_base/chapters/ch04_general_assumptions.md", "md_atom_type": "TABLE_ROW", "md_parent_section": "§4.1.7.1 [Example of Splitting Questionnaires]", "md_verbatim": "| 8 | CDISC01 | QS | CDISC01.100014 | 8 | SWLS03 | SWLS01-I Am Satisfied with my Life | SWLS | Agree | 6 | 6 | | 1 | 2003-04-15 | 1 |", "score": 0.5264, "match_basis": "verbatim_token+chapter_route:ch04"}, {"md_atom_id": "md_ch04_a097", "md_file": "knowledge_base/chapters/ch04_general_assumptions.md", "md_atom_type": "TABLE_ROW", "md_parent_section": "§4.1.7.1 [Example of Splitting Questionnaires]", "md_verbatim": "| 6 | CDISC01 | QS | CDISC01.100014 | 6 | SWLS01 | SWLS01-My Life is Close to Ideal | SWLS | Slightly agree | 5 | 5 | Y | 1 | 2003-04-15 | 1 |", "score": 0.5182, "match_basis": "verbatim_token+chapter_route:ch04"}], "candidate_count": 5, "zero_candidate": false}
{"pdf_atom_id": "ig34_p0025_a035", "pdf_atom_type": "HEADING", "pdf_source": "SDTMIG_v3.4", "pdf_page": 25, "pdf_parent_section": "§4.1.7.1 [Example of Splitting Questionnaires]", "pdf_verbatim": "SUPPQS Domains", "figure_ref": null, "candidates": [{"md_atom_id": "md_ch04_a049", "md_file": "knowledge_base/chapters/ch04_general_assumptions.md", "md_atom_type": "HEADING", "md_parent_section": "§4.1 [General Domain Assumptions]", "md_verbatim": "### 4.1.7 Splitting Domains", "score": 0.4875, "match_basis": "verbatim_token+chapter_route:ch04"}, {"md_atom_id": "md_ch04_a006", "md_file": "knowledge_base/chapters/ch04_general_assumptions.md", "md_atom_type": "HEADING", "md_parent_section": "§4 [Assumptions for Domain Models]", "md_verbatim": "## 4.1 General Domain Assumptions", "score": 0.4043, "match_basis": "verbatim_token+chapter_route:ch04"}, {"md_atom_id": "md_ch04_a192", "md_file": "knowledge_base/chapters/ch04_general_assumptions.md", "md_atom_type": "HEADING", "md_parent_section": "§4.2 [General Variable Assumptions]", "md_verbatim": "### 4.2.2 Two-character Domain Identifier", "score": 0.396, "match_basis": "verbatim_token+chapter_route:ch04"}, {"md_atom_id": "md_ch04_a680", "md_file": "knowledge_base/chapters/ch04_general_assumptions.md", "md_atom_type": "HEADING", "md_parent_section": "§4.4 [Use of Timing Variables]", "md_verbatim": "### 4.4.8 Date and Time Reported in a Domain Based on Findings", "score": 0.3828, "match_basis": "verbatim_token+chapter_route:ch04"}, {"md_atom_id": "md_ch04_a001", "md_file": "knowledge_base/chapters/ch04_general_assumptions.md", "md_atom_type": "HEADING", "md_parent_section": "§4 [Assumptions for Domain Models]", "md_verbatim": "# SDTMIG v3.4 — Chapter 4: Assumptions for Domain Models", "score": 0.375, "match_basis": "verbatim_token+chapter_route:ch04"}], "candidate_count": 5, "zero_candidate": false}
{"pdf_atom_id": "ig34_p0025_a036", "pdf_atom_type": "HEADING", "pdf_source": "SDTMIG_v3.4", "pdf_page": 25, "pdf_parent_section": "§4.1.7.1 [Example of Splitting Questionnaires]", "pdf_verbatim": "Supplemental Qualifiers for QSCG", "figure_ref": null, "candidates": [{"md_atom_id": "md_ch04_a975", "md_file": "knowledge_base/chapters/ch04_general_assumptions.md", "md_atom_type": "HEADING", "md_parent_section": "§4.5 [Other Assumptions]", "md_verbatim": "### 4.5.6 Supplemental Reason Variables", "score": 0.4875, "match_basis": "verbatim_token+chapter_route:ch04"}, {"md_atom_id": "md_ch04_a359", "md_file": "knowledge_base/chapters/ch04_general_assumptions.md", "md_atom_type": "HEADING", "md_parent_section": "§4.2.8 [Multiple Values for a Variable]", "md_verbatim": "#### 4.2.8.3 Multiple Values for a Non-result Qualifier Variable", "score": 0.435, "match_basis": "verbatim_token+chapter_route:ch04"}, {"md_atom_id": "md_ch04_a296", "md_file": "knowledge_base/chapters/ch04_general_assumptions.md", "md_atom_type": "HEADING", "md_parent_section": "§4.2.7 [Submitting Free Text from the CRF]", "md_verbatim": "#### 4.2.7.2 \"Specify\" Values for Result Qualifier Variables", "score": 0.4171, "match_basis": "verbatim_token+chapter_route:ch04"}, {"md_atom_id": "md_ch04_a261", "md_file": "knowledge_base/chapters/ch04_general_assumptions.md", "md_atom_type": "HEADING", "md_parent_section": "§4.2.7 [Submitting Free Text from the CRF]", "md_verbatim": "#### 4.2.7.1 \"Specify\" Values for Non-Result Qualifier Variables", "score": 0.4143, "match_basis": "verbatim_token+chapter_route:ch04"}, {"md_atom_id": "md_ch04_a007", "md_file": "knowledge_base/chapters/ch04_general_assumptions.md", "md_atom_type": "HEADING", "md_parent_section": "§4.1 [General Domain Assumptions]", "md_verbatim": "### 4.1.1 Review Study Data Tabulation Model and Implementation Guide", "score": 0.375, "match_basis": "verbatim_token+chapter_route:ch04"}], "candidate_count": 5, "zero_candidate": false}
{"pdf_atom_id": "ig34_p0025_a037", "pdf_atom_type": "CODE_LITERAL", "pdf_source": "SDTMIG_v3.4", "pdf_page": 25, "pdf_parent_section": "§4.1.7.1 [Example of Splitting Questionnaires]", "pdf_verbatim": "suppqscg.xpt", "figure_ref": null, "candidates": [{"md_atom_id": "md_ch04_a371", "md_file": "knowledge_base/chapters/ch04_general_assumptions.md", "md_atom_type": "CODE_LITERAL", "md_parent_section": "§4.2.8.3 [Multiple Values for a Non-result Qualifier Variable]", "md_verbatim": "suppae.xpt:", "score": 0.29, "match_basis": "verbatim_token+chapter_route:ch04"}, {"md_atom_id": "md_ch04_a381", "md_file": "knowledge_base/chapters/ch04_general_assumptions.md", "md_atom_type": "CODE_LITERAL", "md_parent_section": "§4.2.8.3 [Multiple Values for a Non-result Qualifier Variable]", "md_verbatim": "suppae.xpt:", "score": 0.29, "match_basis": "verbatim_token+chapter_route:ch04"}, {"md_atom_id": "md_ch04_a394", "md_file": "knowledge_base/chapters/ch04_general_assumptions.md", "md_atom_type": "CODE_LITERAL", "md_parent_section": "§4.2.8.3 [Multiple Values for a Non-result Qualifier Variable]", "md_verbatim": "suppae.xpt:", "score": 0.29, "match_basis": "verbatim_token+chapter_route:ch04"}, {"md_atom_id": "md_ch04_a918", "md_file": "knowledge_base/chapters/ch04_general_assumptions.md", "md_atom_type": "CODE_LITERAL", "md_parent_section": "§4.5.3.2 [Text Strings Greater than 200 Characters in Other Variables]", "md_verbatim": "suppmh.xpt", "score": 0.29, "match_basis": "verbatim_token+chapter_route:ch04"}, {"md_atom_id": "md_ch04_a922", "md_file": "knowledge_base/chapters/ch04_general_assumptions.md", "md_atom_type": "SENTENCE", "md_parent_section": "§4.5.3.2 [Text Strings Greater than 200 Characters in Other Variables]", "md_verbatim": "suppmh.xpt:", "score": 0.29, "match_basis": "verbatim_token+chapter_route:ch04"}], "candidate_count": 5, "zero_candidate": false}
{"pdf_atom_id": "ig34_p0025_a038", "pdf_atom_type": "TABLE_HEADER", "pdf_source": "SDTMIG_v3.4", "pdf_page": 25, "pdf_parent_section": "§4.1.7.1 [Example of Splitting Questionnaires]", "pdf_verbatim": "Row | STUDYID | RDOMAIN | USUBJID | IDVAR | IDVARVAL | QNAM | QLABEL | QVAL | QORIG | QEVAL", "figure_ref": null, "candidates": [{"md_atom_id": "md_ch04_a104", "md_file": "knowledge_base/chapters/ch04_general_assumptions.md", "md_atom_type": "TABLE_HEADER", "md_parent_section": "§4.1.7.1 [Example of Splitting Questionnaires]", "md_verbatim": "| Row | STUDYID | RDOMAIN | USUBJID | IDVAR | IDVARVAL | QNAM | QLABEL | QVAL | QORIG | QEVAL |", "score": 0.9, "match_basis": "verbatim_token+chapter_route:ch04"}, {"md_atom_id": "md_ch04_a108", "md_file": "knowledge_base/chapters/ch04_general_assumptions.md", "md_atom_type": "TABLE_HEADER", "md_parent_section": "§4.1.7.1 [Example of Splitting Questionnaires]", "md_verbatim": "| Row | STUDYID | RDOMAIN | USUBJID | IDVAR | IDVARVAL | QNAM | QLABEL | QVAL | QORIG | QEVAL |", "score": 0.9, "match_basis": "verbatim_token+chapter_route:ch04"}, {"md_atom_id": "md_ch04_a120", "md_file": "knowledge_base/chapters/ch04_general_assumptions.md", "md_atom_type": "TABLE_HEADER", "md_parent_section": "§4.1.7.1 [Example of Splitting Questionnaires]", "md_verbatim": "| Row | STUDYID | RDOMAIN | USUBJID | IDVAR | IDVARVAL | QNAM | QLABEL | QVAL | QORIG | QEVAL |", "score": 0.9, "match_basis": "verbatim_token+chapter_route:ch04"}, {"md_atom_id": "md_ch04_a964", "md_file": "knowledge_base/chapters/ch04_general_assumptions.md", "md_atom_type": "TABLE_HEADER", "md_parent_section": "§4.5.4 [Evaluators in the Interventions and Events Observation Classes]", "md_verbatim": "| Row | STUDYID | RDOMAIN | USUBJID | IDVAR | IDVARVAL | QNAM | QLABEL | QVAL | QORIG | QEVAL |\n|-----|---------|---------|---------|-------|----------|------|--------|------|-------|-------|", "score": 0.9, "match_basis": "verbatim_token+chapter_route:ch04"}, {"md_atom_id": "md_ch04_a923", "md_file": "knowledge_base/chapters/ch04_general_assumptions.md", "md_atom_type": "TABLE_HEADER", "md_parent_section": "§4.5.3.2 [Text Strings Greater than 200 Characters in Other Variables]", "md_verbatim": "| Row | STUDYID | RDOMAIN | USUBJID | IDVAR | IDVARVAL | QNAM | QLABEL | QVAL | QORIG |\n|-----|---------|---------|---------|-------|----------|------|--------|------|-------|", "score": 0.8647, "match_basis": "verbatim_token+chapter_route:ch04"}], "candidate_count": 5, "zero_candidate": false}
{"pdf_atom_id": "ig34_p0025_a039", "pdf_atom_type": "TABLE_ROW", "pdf_source": "SDTMIG_v3.4", "pdf_page": 25, "pdf_parent_section": "§4.1.7.1 [Example of Splitting Questionnaires]", "pdf_verbatim": "1 | CDISC01 | QS | CDISC01.100008 | QSCAT | CGI | QSLANG | Questionnaire Language | GERMAN | CRF |", "figure_ref": null, "candidates": [{"md_atom_id": "md_ch04_a105", "md_file": "knowledge_base/chapters/ch04_general_assumptions.md", "md_atom_type": "TABLE_ROW", "md_parent_section": "§4.1.7.1 [Example of Splitting Questionnaires]", "md_verbatim": "| 1 | CDISC01 | QS | CDISC01.100008 | QSCAT | CGI | QSLANG | Questionnaire Language | GERMAN | CRF | |", "score": 0.9, "match_basis": "verbatim_token+chapter_route:ch04"}, {"md_atom_id": "md_ch04_a113", "md_file": "knowledge_base/chapters/ch04_general_assumptions.md", "md_atom_type": "TABLE_ROW", "md_parent_section": "§4.1.7.1 [Example of Splitting Questionnaires]", "md_verbatim": "| 5 | CDISC01 | QS | CDISC01.100008 | QSCAT | PI | QSLANG | Questionnaire Language | GERMAN | CRF | |", "score": 0.8833, "match_basis": "verbatim_token+chapter_route:ch04"}, {"md_atom_id": "md_ch04_a121", "md_file": "knowledge_base/chapters/ch04_general_assumptions.md", "md_atom_type": "TABLE_ROW", "md_parent_section": "§4.1.7.1 [Example of Splitting Questionnaires]", "md_verbatim": "| 1 | CDISC01 | QS | CDISC01.100008 | QSCAT | SWLS | QSLANG | Questionnaire Language | GERMAN | CRF | |", "score": 0.8526, "match_basis": "verbatim_token+chapter_route:ch04"}, {"md_atom_id": "md_ch04_a106", "md_file": "knowledge_base/chapters/ch04_general_assumptions.md", "md_atom_type": "TABLE_ROW", "md_parent_section": "§4.1.7.1 [Example of Splitting Questionnaires]", "md_verbatim": "| 2 | CDISC01 | QS | CDISC01.100014 | QSCAT | CGI | QSLANG | Questionnaire Language | FRENCH | CRF | |", "score": 0.7429, "match_basis": "verbatim_token+chapter_route:ch04"}, {"md_atom_id": "md_ch04_a118", "md_file": "knowledge_base/chapters/ch04_general_assumptions.md", "md_atom_type": "TABLE_ROW", "md_parent_section": "§4.1.7.1 [Example of Splitting Questionnaires]", "md_verbatim": "| 10 | CDISC01 | QS | CDISC01.100014 | QSCAT | PI | QSLANG | Questionnaire Language | FRENCH | CRF | |", "score": 0.7286, "match_basis": "verbatim_token+chapter_route:ch04"}], "candidate_count": 5, "zero_candidate": false}
{"pdf_atom_id": "ig34_p0025_a040", "pdf_atom_type": "TABLE_ROW", "pdf_source": "SDTMIG_v3.4", "pdf_page": 25, "pdf_parent_section": "§4.1.7.1 [Example of Splitting Questionnaires]", "pdf_verbatim": "2 | CDISC01 | QS | CDISC01.100014 | QSCAT | CGI | QSLANG | Questionnaire Language | FRENCH | CRF |", "figure_ref": null, "candidates": [{"md_atom_id": "md_ch04_a106", "md_file": "knowledge_base/chapters/ch04_general_assumptions.md", "md_atom_type": "TABLE_ROW", "md_parent_section": "§4.1.7.1 [Example of Splitting Questionnaires]", "md_verbatim": "| 2 | CDISC01 | QS | CDISC01.100014 | QSCAT | CGI | QSLANG | Questionnaire Language | FRENCH | CRF | |", "score": 0.9, "match_basis": "verbatim_token+chapter_route:ch04"}, {"md_atom_id": "md_ch04_a118", "md_file": "knowledge_base/chapters/ch04_general_assumptions.md", "md_atom_type": "TABLE_ROW", "md_parent_section": "§4.1.7.1 [Example of Splitting Questionnaires]", "md_verbatim": "| 10 | CDISC01 | QS | CDISC01.100014 | QSCAT | PI | QSLANG | Questionnaire Language | FRENCH | CRF | |", "score": 0.8838, "match_basis": "verbatim_token+chapter_route:ch04"}, {"md_atom_id": "md_ch04_a122", "md_file": "knowledge_base/chapters/ch04_general_assumptions.md", "md_atom_type": "TABLE_ROW", "md_parent_section": "§4.1.7.1 [Example of Splitting Questionnaires]", "md_verbatim": "| 2 | CDISC01 | QS | CDISC01.100014 | QSCAT | SWLS | QSLANG | Questionnaire Language | FRENCH | CRF | |", "score": 0.8538, "match_basis": "verbatim_token+chapter_route:ch04"}, {"md_atom_id": "md_ch04_a105", "md_file": "knowledge_base/chapters/ch04_general_assumptions.md", "md_atom_type": "TABLE_ROW", "md_parent_section": "§4.1.7.1 [Example of Splitting Questionnaires]", "md_verbatim": "| 1 | CDISC01 | QS | CDISC01.100008 | QSCAT | CGI | QSLANG | Questionnaire Language | GERMAN | CRF | |", "score": 0.7429, "match_basis": "verbatim_token+chapter_route:ch04"}, {"md_atom_id": "md_ch04_a113", "md_file": "knowledge_base/chapters/ch04_general_assumptions.md", "md_atom_type": "TABLE_ROW", "md_parent_section": "§4.1.7.1 [Example of Splitting Questionnaires]", "md_verbatim": "| 5 | CDISC01 | QS | CDISC01.100008 | QSCAT | PI | QSLANG | Questionnaire Language | GERMAN | CRF | |", "score": 0.7286, "match_basis": "verbatim_token+chapter_route:ch04"}], "candidate_count": 5, "zero_candidate": false}
{"pdf_atom_id": "ig34_p0026_a001", "pdf_atom_type": "HEADING", "pdf_source": "SDTMIG_v3.4", "pdf_page": 26, "pdf_parent_section": "§4.1.7.1 [Example of Splitting Questionnaires]", "pdf_verbatim": "Supplemental Qualifiers for QSPI", "figure_ref": null, "candidates": [{"md_atom_id": "md_ch04_a975", "md_file": "knowledge_base/chapters/ch04_general_assumptions.md", "md_atom_type": "HEADING", "md_parent_section": "§4.5 [Other Assumptions]", "md_verbatim": "### 4.5.6 Supplemental Reason Variables", "score": 0.4875, "match_basis": "verbatim_token+chapter_route:ch04"}, {"md_atom_id": "md_ch04_a359", "md_file": "knowledge_base/chapters/ch04_general_assumptions.md", "md_atom_type": "HEADING", "md_parent_section": "§4.2.8 [Multiple Values for a Variable]", "md_verbatim": "#### 4.2.8.3 Multiple Values for a Non-result Qualifier Variable", "score": 0.435, "match_basis": "verbatim_token+chapter_route:ch04"}, {"md_atom_id": "md_ch04_a296", "md_file": "knowledge_base/chapters/ch04_general_assumptions.md", "md_atom_type": "HEADING", "md_parent_section": "§4.2.7 [Submitting Free Text from the CRF]", "md_verbatim": "#### 4.2.7.2 \"Specify\" Values for Result Qualifier Variables", "score": 0.4171, "match_basis": "verbatim_token+chapter_route:ch04"}, {"md_atom_id": "md_ch04_a261", "md_file": "knowledge_base/chapters/ch04_general_assumptions.md", "md_atom_type": "HEADING", "md_parent_section": "§4.2.7 [Submitting Free Text from the CRF]", "md_verbatim": "#### 4.2.7.1 \"Specify\" Values for Non-Result Qualifier Variables", "score": 0.4143, "match_basis": "verbatim_token+chapter_route:ch04"}, {"md_atom_id": "md_ch04_a007", "md_file": "knowledge_base/chapters/ch04_general_assumptions.md", "md_atom_type": "HEADING", "md_parent_section": "§4.1 [General Domain Assumptions]", "md_verbatim": "### 4.1.1 Review Study Data Tabulation Model and Implementation Guide", "score": 0.375, "match_basis": "verbatim_token+chapter_route:ch04"}], "candidate_count": 5, "zero_candidate": false}
{"pdf_atom_id": "ig34_p0026_a002", "pdf_atom_type": "CODE_LITERAL", "pdf_source": "SDTMIG_v3.4", "pdf_page": 26, "pdf_parent_section": "§4.1.7.1 [Example of Splitting Questionnaires]", "pdf_verbatim": "suppqspi.xpt", "figure_ref": null, "candidates": [{"md_atom_id": "md_ch04_a371", "md_file": "knowledge_base/chapters/ch04_general_assumptions.md", "md_atom_type": "CODE_LITERAL", "md_parent_section": "§4.2.8.3 [Multiple Values for a Non-result Qualifier Variable]", "md_verbatim": "suppae.xpt:", "score": 0.29, "match_basis": "verbatim_token+chapter_route:ch04"}, {"md_atom_id": "md_ch04_a381", "md_file": "knowledge_base/chapters/ch04_general_assumptions.md", "md_atom_type": "CODE_LITERAL", "md_parent_section": "§4.2.8.3 [Multiple Values for a Non-result Qualifier Variable]", "md_verbatim": "suppae.xpt:", "score": 0.29, "match_basis": "verbatim_token+chapter_route:ch04"}, {"md_atom_id": "md_ch04_a394", "md_file": "knowledge_base/chapters/ch04_general_assumptions.md", "md_atom_type": "CODE_LITERAL", "md_parent_section": "§4.2.8.3 [Multiple Values for a Non-result Qualifier Variable]", "md_verbatim": "suppae.xpt:", "score": 0.29, "match_basis": "verbatim_token+chapter_route:ch04"}, {"md_atom_id": "md_ch04_a918", "md_file": "knowledge_base/chapters/ch04_general_assumptions.md", "md_atom_type": "CODE_LITERAL", "md_parent_section": "§4.5.3.2 [Text Strings Greater than 200 Characters in Other Variables]", "md_verbatim": "suppmh.xpt", "score": 0.29, "match_basis": "verbatim_token+chapter_route:ch04"}, {"md_atom_id": "md_ch04_a922", "md_file": "knowledge_base/chapters/ch04_general_assumptions.md", "md_atom_type": "SENTENCE", "md_parent_section": "§4.5.3.2 [Text Strings Greater than 200 Characters in Other Variables]", "md_verbatim": "suppmh.xpt:", "score": 0.29, "match_basis": "verbatim_token+chapter_route:ch04"}], "candidate_count": 5, "zero_candidate": false}
