{"pdf_atom_id": "ig34_p0052_a003", "pdf_atom_type": "CROSS_REF", "pdf_source": "SDTMIG_v3.4", "pdf_page": 52, "pdf_parent_section": "§4.5.1.1 [Original and Standardized Results]", "pdf_verbatim": "See Example 1, Rows 11 and 12, in Section 4.5.1.3, Examples of Original and Standard Units and Test Not Done.", "figure_ref": null, "candidates": [{"md_atom_id": "md_ch04_a831", "md_file": "knowledge_base/chapters/ch04_general_assumptions.md", "md_atom_type": "HEADING", "md_parent_section": "§4.5.1 [Original and Standardized Results]", "md_verbatim": "#### 4.5.1.3 Examples of Original and Standard Units and Test Not Done", "score": 0.5488, "match_basis": "verbatim_token+chapter_route:ch04"}, {"md_atom_id": "md_ch04_a822", "md_file": "knowledge_base/chapters/ch04_general_assumptions.md", "md_atom_type": "LIST_ITEM", "md_parent_section": "§4.5.1 [Original and Standardized Results]", "md_verbatim": "- --ORRESU / --STRESU: original and standard units", "score": 0.315, "match_basis": "verbatim_token+chapter_route:ch04"}, {"md_atom_id": "md_ch04_a837", "md_file": "knowledge_base/chapters/ch04_general_assumptions.md", "md_atom_type": "LIST_ITEM", "md_parent_section": "§4.5.1.3 [Examples of Original and Standard Units and Test Not Done]", "md_verbatim": "- **Row 2:** A numeric value was copied; the original unit was the standard unit so conversion was not needed.", "score": 0.2629, "match_basis": "verbatim_token+chapter_route:ch04"}, {"md_atom_id": "md_ch04_a815", "md_file": "knowledge_base/chapters/ch04_general_assumptions.md", "md_atom_type": "HEADING", "md_parent_section": "§4.5 [Other Assumptions]", "md_verbatim": "### 4.5.1 Original and Standardized Results", "score": 0.2574, "match_basis": "verbatim_token+chapter_route:ch04"}, {"md_atom_id": "md_ch04_a878", "md_file": "knowledge_base/chapters/ch04_general_assumptions.md", "md_atom_type": "LIST_ITEM", "md_parent_section": "§4.5.1.3 [Examples of Original and Standard Units and Test Not Done]", "md_verbatim": "- **Rows 1-2:** Numeric values were converted to standard units.", "score": 0.2169, "match_basis": "verbatim_token+chapter_route:ch04"}], "candidate_count": 5, "zero_candidate": false}
{"pdf_atom_id": "ig34_p0052_a004", "pdf_atom_type": "HEADING", "pdf_source": "SDTMIG_v3.4", "pdf_page": 52, "pdf_parent_section": "§4.5.1.2 [Tests Not Done]", "pdf_verbatim": "4.5.1.2 Tests Not Done", "figure_ref": null, "candidates": [{"md_atom_id": "md_ch04_a831", "md_file": "knowledge_base/chapters/ch04_general_assumptions.md", "md_atom_type": "HEADING", "md_parent_section": "§4.5.1 [Original and Standardized Results]", "md_verbatim": "#### 4.5.1.3 Examples of Original and Standard Units and Test Not Done", "score": 0.4111, "match_basis": "verbatim_token+chapter_route:ch04"}, {"md_atom_id": "md_ch04_a781", "md_file": "knowledge_base/chapters/ch04_general_assumptions.md", "md_atom_type": "HEADING", "md_parent_section": "§4.4.11 [Disease Milestones and Disease Milestone Timing Variables]", "md_verbatim": "#### Disease Milestone Naming (MIDS)", "score": 0.3545, "match_basis": "verbatim_token+chapter_route:ch04"}, {"md_atom_id": "md_ch04_a894", "md_file": "knowledge_base/chapters/ch04_general_assumptions.md", "md_atom_type": "HEADING", "md_parent_section": "§4.5.3 [Text Strings that Exceed the Maximum Length for General Observation-class Domain Variables]", "md_verbatim": "#### 4.5.3.1 Test Name (--TEST) Greater than 40 Characters", "score": 0.3545, "match_basis": "verbatim_token+chapter_route:ch04"}, {"md_atom_id": "md_ch04_a809", "md_file": "knowledge_base/chapters/ch04_general_assumptions.md", "md_atom_type": "HEADING", "md_parent_section": "§4.4.11 [Disease Milestones and Disease Milestone Timing Variables]", "md_verbatim": "#### Linking and Disease Milestones", "score": 0.3522, "match_basis": "verbatim_token+chapter_route:ch04"}, {"md_atom_id": "md_ch04_a182", "md_file": "knowledge_base/chapters/ch04_general_assumptions.md", "md_atom_type": "HEADING", "md_parent_section": "§4.2.1 [Variable-Naming Conventions]", "md_verbatim": "#### 4.2.1.1 --TEST and --TESTCD Conventions (Findings)", "score": 0.35, "match_basis": "verbatim_token+chapter_route:ch04"}], "candidate_count": 5, "zero_candidate": false}
{"pdf_atom_id": "ig34_p0052_a005", "pdf_atom_type": "SENTENCE", "pdf_source": "SDTMIG_v3.4", "pdf_page": 52, "pdf_parent_section": "§4.5.1.2 [Tests Not Done]", "pdf_verbatim": "If the data on the CRF is missing and \"Yes/No\" or \"Done/Not Done\" was not explicitly captured, a record should not be created to indicate that the data was not collected, with the exception of QRS.", "figure_ref": null, "candidates": [{"md_atom_id": "md_ch04_a828", "md_file": "knowledge_base/chapters/ch04_general_assumptions.md", "md_atom_type": "LIST_ITEM", "md_parent_section": "§4.5.1 [Original and Standardized Results]", "md_verbatim": "- If CRF does not explicitly collect \"Done/Not Done\", do not create NOT DONE records (exception: QRS datasets)", "score": 0.5017, "match_basis": "verbatim_token+chapter_route:ch04"}, {"md_atom_id": "md_ch04_a019", "md_file": "knowledge_base/chapters/ch04_general_assumptions.md", "md_atom_type": "SENTENCE", "md_parent_section": "§4.1.3.1 [EPOCH Variable Guidance]", "md_verbatim": "A possible, though unlikely, exception would be a finding based on an interval specimen collection that started in one epoch but ended in another.", "score": 0.4339, "match_basis": "verbatim_token+chapter_route:ch04"}, {"md_atom_id": "md_ch04_a021", "md_file": "knowledge_base/chapters/ch04_general_assumptions.md", "md_atom_type": "SENTENCE", "md_parent_section": "§4.1.3.1 [EPOCH Variable Guidance]", "md_verbatim": "Sponsors should not impute EPOCH values, but should, where possible, assign EPOCH values on the basis of CRF instructions and structure, even if EPOCH was not directly collected and date/time data was not collected with sufficient precision to permit assignment of an observation to an EPOCH on the basis of date/time data alone.", "score": 0.4286, "match_basis": "verbatim_token+chapter_route:ch04"}, {"md_atom_id": "md_ch04_a682", "md_file": "knowledge_base/chapters/ch04_general_assumptions.md", "md_atom_type": "SENTENCE", "md_parent_section": "§4.4.8 [Date and Time Reported in a Domain Based on Findings]", "md_verbatim": "For any domain based on the Findings general observation class (e.g., lab tests based on a specimen), the collection date is likely to be tied to when the source of the finding was captured, not necessarily when the data were recorded.", "score": 0.4219, "match_basis": "verbatim_token+chapter_route:ch04"}, {"md_atom_id": "md_ch04_a983", "md_file": "knowledge_base/chapters/ch04_general_assumptions.md", "md_atom_type": "SENTENCE", "md_parent_section": "§4.5.6 [Supplemental Reason Variables]", "md_verbatim": "For example, if the sponsor collected the reason for admission to a nursing home was for rehabilitation, a SUPPHO record might be populated as follows.", "score": 0.4168, "match_basis": "verbatim_token+chapter_route:ch04"}], "candidate_count": 5, "zero_candidate": false}
{"pdf_atom_id": "ig34_p0052_a006", "pdf_atom_type": "SENTENCE", "pdf_source": "SDTMIG_v3.4", "pdf_page": 52, "pdf_parent_section": "§4.5.1.2 [Tests Not Done]", "pdf_verbatim": "Regulatory agencies may require a record for all items on a CRF in QRS datasets (e.g., FT, QS, and clinical classifications in RS).", "figure_ref": null, "candidates": [{"md_atom_id": "md_ch04_a073", "md_file": "knowledge_base/chapters/ch04_general_assumptions.md", "md_atom_type": "SENTENCE", "md_parent_section": "§4.1.7.1 [Example of Splitting Questionnaires]", "md_verbatim": "**Dataset for Clinical Global Impressions — qscg.xpt**", "score": 0.4304, "match_basis": "verbatim_token+chapter_route:ch04"}, {"md_atom_id": "md_ch04_a788", "md_file": "knowledge_base/chapters/ch04_general_assumptions.md", "md_atom_type": "SENTENCE", "md_parent_section": "§4.4.11 [Disease Milestones and Disease Milestone Timing Variables]", "md_verbatim": "Disease Milestones (defined in TM, recorded in SM) provide a way to anchor observations to clinically significant time points.", "score": 0.4038, "match_basis": "verbatim_token+chapter_route:ch04"}, {"md_atom_id": "md_ch04_a954", "md_file": "knowledge_base/chapters/ch04_general_assumptions.md", "md_atom_type": "SENTENCE", "md_parent_section": "§4.5.4 [Evaluators in the Interventions and Events Observation Classes]", "md_verbatim": "The QEVAL variable can be used to describe the evaluator for any data item in a SUPP-- dataset (see Section 8.4.1, Supplemental Qualifiers -- SUPP-- Datasets), but is not required when the data are objective.", "score": 0.4027, "match_basis": "verbatim_token+chapter_route:ch04"}, {"md_atom_id": "md_ch04_a050", "md_file": "knowledge_base/chapters/ch04_general_assumptions.md", "md_atom_type": "SENTENCE", "md_parent_section": "§4.1.7 [Splitting Domains]", "md_verbatim": "Sponsors may choose to split a domain of topically related information into physically separate datasets.", "score": 0.4, "match_basis": "verbatim_token+chapter_route:ch04"}, {"md_atom_id": "md_ch04_a136", "md_file": "knowledge_base/chapters/ch04_general_assumptions.md", "md_atom_type": "SENTENCE", "md_parent_section": "§4.1.9 [Assigning Natural Keys in the Metadata]", "md_verbatim": "Section 3.2, Using the CDISC Domain Models in Regulatory Submissions — Dataset Metadata, indicates that a sponsor should include in the metadata the variables that contribute to the natural key for a domain.", "score": 0.396, "match_basis": "verbatim_token+chapter_route:ch04"}], "candidate_count": 5, "zero_candidate": false}
{"pdf_atom_id": "ig34_p0052_a007", "pdf_atom_type": "SENTENCE", "pdf_source": "SDTMIG_v3.4", "pdf_page": 52, "pdf_parent_section": "§4.5.1.2 [Tests Not Done]", "pdf_verbatim": "If a record is created for a test not done, --REASND is populated only if a reason was explicitly collected except for QRS logically skipped items.", "figure_ref": null, "candidates": [{"md_atom_id": "md_ch04_a825", "md_file": "knowledge_base/chapters/ch04_general_assumptions.md", "md_atom_type": "LIST_ITEM", "md_parent_section": "§4.5.1 [Original and Standardized Results]", "md_verbatim": "- When a test is not performed: --STAT = \"NOT DONE\", --REASND = reason (if explicitly collected; --REASND is populated only if a reason was explicitly collected except for QRS logically skipped items)", "score": 0.6767, "match_basis": "verbatim_token+chapter_route:ch04"}, {"md_atom_id": "md_ch04_a828", "md_file": "knowledge_base/chapters/ch04_general_assumptions.md", "md_atom_type": "LIST_ITEM", "md_parent_section": "§4.5.1 [Original and Standardized Results]", "md_verbatim": "- If CRF does not explicitly collect \"Done/Not Done\", do not create NOT DONE records (exception: QRS datasets)", "score": 0.442, "match_basis": "verbatim_token+chapter_route:ch04"}, {"md_atom_id": "md_ch04_a983", "md_file": "knowledge_base/chapters/ch04_general_assumptions.md", "md_atom_type": "SENTENCE", "md_parent_section": "§4.5.6 [Supplemental Reason Variables]", "md_verbatim": "For example, if the sponsor collected the reason for admission to a nursing home was for rehabilitation, a SUPPHO record might be populated as follows.", "score": 0.4266, "match_basis": "verbatim_token+chapter_route:ch04"}, {"md_atom_id": "md_ch04_a544", "md_file": "knowledge_base/chapters/ch04_general_assumptions.md", "md_atom_type": "SENTENCE", "md_parent_section": "§4.4.2 [Date/Time Precision]", "md_verbatim": "Because most data are collected as part of a visit, when only a time appears on a CRF, it is expected that the date of the visit would usually be used as the date of collection.", "score": 0.3832, "match_basis": "verbatim_token+chapter_route:ch04"}, {"md_atom_id": "md_ch04_a978", "md_file": "knowledge_base/chapters/ch04_general_assumptions.md", "md_atom_type": "SENTENCE", "md_parent_section": "§4.5.6 [Supplemental Reason Variables]", "md_verbatim": "However, sponsors sometimes collect the reason that something was done.", "score": 0.3828, "match_basis": "verbatim_token+chapter_route:ch04"}], "candidate_count": 5, "zero_candidate": false}
{"pdf_atom_id": "ig34_p0052_a008", "pdf_atom_type": "SENTENCE", "pdf_source": "SDTMIG_v3.4", "pdf_page": 52, "pdf_parent_section": "§4.5.1.2 [Tests Not Done]", "pdf_verbatim": "When an entire examination (e.g., laboratory draw, ECG, vital signs, physical examination), a group of tests (e.g., hematology, urinalysis), or an individual test (e.g., glucose, PR interval, blood pressure, hearing) is not done, and this information is explicitly captured with a \"Yes/No\" or \"Done/Not Done\" question, this information should be represented in the dataset.", "figure_ref": null, "candidates": [{"md_atom_id": "md_ch04_a1006", "md_file": "knowledge_base/chapters/ch04_general_assumptions.md", "md_atom_type": "SENTENCE", "md_parent_section": "§4.5.7 [Presence or Absence of Prespecified Interventions and Events]", "md_verbatim": "When an explicit question asks about the occurrence of a group of interventions or events, the group value should be represented in --TRT or --TERM, respectively.", "score": 0.4354, "match_basis": "verbatim_token+chapter_route:ch04"}, {"md_atom_id": "md_ch04_a701", "md_file": "knowledge_base/chapters/ch04_general_assumptions.md", "md_atom_type": "SENTENCE", "md_parent_section": "§4.4.9 [Use of Dates as Result Variables]", "md_verbatim": "One approach to modeling these data would be to place the text of the question in --TEST and the response to the question (a date represented in ISO 8601 format) in --ORRES and --STRESC, as long as these date results do not contain the dates of medically significant events or interventions.", "score": 0.4156, "match_basis": "verbatim_token+chapter_route:ch04"}, {"md_atom_id": "md_ch04_a598", "md_file": "knowledge_base/chapters/ch04_general_assumptions.md", "md_atom_type": "SENTENCE", "md_parent_section": "§4.4.3.2 [Interval with Uncertainty]", "md_verbatim": "where the duration \"Pn...\" is represented before the solidus [/], the end date/time is represented following the solidus, and the entire representation is known as an \"interval.\"", "score": 0.405, "match_basis": "verbatim_token+chapter_route:ch04"}, {"md_atom_id": "md_ch04_a981", "md_file": "knowledge_base/chapters/ch04_general_assumptions.md", "md_atom_type": "SENTENCE", "md_parent_section": "§4.5.6 [Supplemental Reason Variables]", "md_verbatim": "If the sponsor collects a reason for performing an activity represented in an Events domain where the topic is not a medical condition, or a reason for an intervention other than a medical indication, the reason can be represented in the SUPP-- dataset (as described in Section 8.4.1, Supplemental Qualifiers -- SUPP-- Datasets) using the supplemental qualifier with QNAM of \"--REAS\" listed in Appendix C1, Supplemental Qualifiers Name Codes.", "score": 0.4032, "match_basis": "verbatim_token+chapter_route:ch04"}, {"md_atom_id": "md_ch04_a594", "md_file": "knowledge_base/chapters/ch04_general_assumptions.md", "md_atom_type": "SENTENCE", "md_parent_section": "§4.4.3.2 [Interval with Uncertainty]", "md_verbatim": "where the start date/time is represented before the solidus [/], the \"Pn...\" following the solidus represents a \"duration,\" and the entire representation is known as an \"interval.\"", "score": 0.4031, "match_basis": "verbatim_token+chapter_route:ch04"}], "candidate_count": 5, "zero_candidate": false}
{"pdf_atom_id": "ig34_p0052_a009", "pdf_atom_type": "SENTENCE", "pdf_source": "SDTMIG_v3.4", "pdf_page": 52, "pdf_parent_section": "§4.5.1.2 [Tests Not Done]", "pdf_verbatim": "The reason for the missing information may or may not have been collected.", "figure_ref": null, "candidates": [{"md_atom_id": "md_ch04_a674", "md_file": "knowledge_base/chapters/ch04_general_assumptions.md", "md_atom_type": "SENTENCE", "md_parent_section": "§4.4.7 [Use of Relative Timing Variables]", "md_verbatim": "No assessment date or visit information was collected.", "score": 0.5087, "match_basis": "verbatim_token+chapter_route:ch04"}, {"md_atom_id": "md_ch04_a983", "md_file": "knowledge_base/chapters/ch04_general_assumptions.md", "md_atom_type": "SENTENCE", "md_parent_section": "§4.5.6 [Supplemental Reason Variables]", "md_verbatim": "For example, if the sponsor collected the reason for admission to a nursing home was for rehabilitation, a SUPPHO record might be populated as follows.", "score": 0.4556, "match_basis": "verbatim_token+chapter_route:ch04"}, {"md_atom_id": "md_ch04_a216", "md_file": "knowledge_base/chapters/ch04_general_assumptions.md", "md_atom_type": "SENTENCE", "md_parent_section": "§4.2.5 [Convention for Missing Values]", "md_verbatim": "Missing values are represented as null. When a test is not performed, use --STAT = \"NOT DONE\" and --REASND for the reason. See Section 4.5.1.2 for details.", "score": 0.4417, "match_basis": "verbatim_token+chapter_route:ch04"}, {"md_atom_id": "md_ch04_a683", "md_file": "knowledge_base/chapters/ch04_general_assumptions.md", "md_atom_type": "SENTENCE", "md_parent_section": "§4.4.8 [Date and Time Reported in a Domain Based on Findings]", "md_verbatim": "In order to ensure that the critical timing information is always represented in the same variable, the --DTC variable is used to represent the time of specimen collection.", "score": 0.4275, "match_basis": "verbatim_token+chapter_route:ch04"}, {"md_atom_id": "md_ch04_a1018", "md_file": "knowledge_base/chapters/ch04_general_assumptions.md", "md_atom_type": "SENTENCE", "md_parent_section": "§4.5.8 [Accounting for Long-term Follow-up]", "md_verbatim": "During the telephone contact, the investigator collects information on the subject's survival status and medication use.", "score": 0.4215, "match_basis": "verbatim_token+chapter_route:ch04"}], "candidate_count": 5, "zero_candidate": false}
{"pdf_atom_id": "ig34_p0052_a010", "pdf_atom_type": "SENTENCE", "pdf_source": "SDTMIG_v3.4", "pdf_page": 52, "pdf_parent_section": "§4.5.1.2 [Tests Not Done]", "pdf_verbatim": "A sponsor has the following options:", "figure_ref": null, "candidates": [{"md_atom_id": "md_ch04_a140", "md_file": "knowledge_base/chapters/ch04_general_assumptions.md", "md_atom_type": "SENTENCE", "md_parent_section": "§4.1.9 [Assigning Natural Keys in the Metadata]", "md_verbatim": "Sponsor A chooses the following natural key for the MK domain:", "score": 0.5294, "match_basis": "verbatim_token+chapter_route:ch04"}, {"md_atom_id": "md_ch04_a143", "md_file": "knowledge_base/chapters/ch04_general_assumptions.md", "md_atom_type": "SENTENCE", "md_parent_section": "§4.1.9 [Assigning Natural Keys in the Metadata]", "md_verbatim": "Sponsor B then defines the following natural key for the MK domain:", "score": 0.5229, "match_basis": "verbatim_token+chapter_route:ch04"}, {"md_atom_id": "md_ch04_a697", "md_file": "knowledge_base/chapters/ch04_general_assumptions.md", "md_atom_type": "SENTENCE", "md_parent_section": "§4.4.9 [Use of Dates as Result Variables]", "md_verbatim": "Consider the following cases:", "score": 0.5077, "match_basis": "verbatim_token+chapter_route:ch04"}, {"md_atom_id": "md_ch04_a898", "md_file": "knowledge_base/chapters/ch04_general_assumptions.md", "md_atom_type": "SENTENCE", "md_parent_section": "§4.5.3.1 [Test Name (--TEST) Greater than 40 Characters]", "md_verbatim": "Sponsors have the following options for including the full description for these variables in the study metadata:", "score": 0.4889, "match_basis": "verbatim_token+chapter_route:ch04"}, {"md_atom_id": "md_ch04_a158", "md_file": "knowledge_base/chapters/ch04_general_assumptions.md", "md_atom_type": "SENTENCE", "md_parent_section": "§4.1.9 [Assigning Natural Keys in the Metadata]", "md_verbatim": "Taking just the phalanges, a sponsor might want to express the following in a test in order to make it unique:", "score": 0.4529, "match_basis": "verbatim_token+chapter_route:ch04"}], "candidate_count": 5, "zero_candidate": false}
{"pdf_atom_id": "ig34_p0052_a011", "pdf_atom_type": "LIST_ITEM", "pdf_source": "SDTMIG_v3.4", "pdf_page": 52, "pdf_parent_section": "§4.5.1.2 [Tests Not Done]", "pdf_verbatim": "Submit individual records for each test not done.", "figure_ref": null, "candidates": [{"md_atom_id": "md_ch04_a829", "md_file": "knowledge_base/chapters/ch04_general_assumptions.md", "md_atom_type": "LIST_ITEM", "md_parent_section": "§4.5.1 [Original and Standardized Results]", "md_verbatim": "- A sponsor has 2 options: (1) submit individual records for each test not done, or (2) submit 1 record for a group of tests that were not done", "score": 0.6488, "match_basis": "verbatim_token+chapter_route:ch04"}, {"md_atom_id": "md_ch04_a881", "md_file": "knowledge_base/chapters/ch04_general_assumptions.md", "md_atom_type": "LIST_ITEM", "md_parent_section": "§4.5.1.3 [Examples of Original and Standard Units and Test Not Done]", "md_verbatim": "- **Row 6:** A third measurement for VSTESTCD = \"SYSBP\" at visit 1 was a derived record, as indicated by VSDRVFL = \"Y\".", "score": 0.3844, "match_basis": "verbatim_token+chapter_route:ch04"}, {"md_atom_id": "md_ch04_a828", "md_file": "knowledge_base/chapters/ch04_general_assumptions.md", "md_atom_type": "LIST_ITEM", "md_parent_section": "§4.5.1 [Original and Standardized Results]", "md_verbatim": "- If CRF does not explicitly collect \"Done/Not Done\", do not create NOT DONE records (exception: QRS datasets)", "score": 0.3814, "match_basis": "verbatim_token+chapter_route:ch04"}, {"md_atom_id": "md_ch04_a812", "md_file": "knowledge_base/chapters/ch04_general_assumptions.md", "md_atom_type": "LIST_ITEM", "md_parent_section": "§4.4.11 [Disease Milestones and Disease Milestone Timing Variables]", "md_verbatim": "- RELREC indicates that there is a relationship between records or datasets, but not the nature of the relationship; records with the same MIDS value are related to the same disease milestone", "score": 0.3805, "match_basis": "verbatim_token+chapter_route:ch04"}, {"md_atom_id": "md_ch04_a232", "md_file": "knowledge_base/chapters/ch04_general_assumptions.md", "md_atom_type": "LIST_ITEM", "md_parent_section": "§4.2.6 [Grouping Variables and Categorization]", "md_verbatim": "      - Vital Signs recorded during the stress test (VS domain)", "score": 0.3783, "match_basis": "verbatim_token+chapter_route:ch04"}], "candidate_count": 5, "zero_candidate": false}
{"pdf_atom_id": "ig34_p0052_a012", "pdf_atom_type": "LIST_ITEM", "pdf_source": "SDTMIG_v3.4", "pdf_page": 52, "pdf_parent_section": "§4.5.1.2 [Tests Not Done]", "pdf_verbatim": "Submit 1 record for a group of tests that were not done.", "figure_ref": null, "candidates": [{"md_atom_id": "md_ch04_a829", "md_file": "knowledge_base/chapters/ch04_general_assumptions.md", "md_atom_type": "LIST_ITEM", "md_parent_section": "§4.5.1 [Original and Standardized Results]", "md_verbatim": "- A sponsor has 2 options: (1) submit individual records for each test not done, or (2) submit 1 record for a group of tests that were not done", "score": 0.607, "match_basis": "verbatim_token+chapter_route:ch04"}, {"md_atom_id": "md_ch04_a226", "md_file": "knowledge_base/chapters/ch04_general_assumptions.md", "md_atom_type": "LIST_ITEM", "md_parent_section": "§4.2.6 [Grouping Variables and Categorization]", "md_verbatim": "2. All records with the same DOMAIN value are a group of records that describe that domain.", "score": 0.4256, "match_basis": "verbatim_token+chapter_route:ch04"}, {"md_atom_id": "md_ch04_a225", "md_file": "knowledge_base/chapters/ch04_general_assumptions.md", "md_atom_type": "LIST_ITEM", "md_parent_section": "§4.2.6 [Grouping Variables and Categorization]", "md_verbatim": "1. All records with the same STUDYID value are a group of records that describe that study.", "score": 0.4227, "match_basis": "verbatim_token+chapter_route:ch04"}, {"md_atom_id": "md_ch04_a242", "md_file": "knowledge_base/chapters/ch04_general_assumptions.md", "md_atom_type": "LIST_ITEM", "md_parent_section": "§4.2.6 [Grouping Variables and Categorization]", "md_verbatim": "- --LNKID is a grouping identifier used to identify a record in one domain that is related to records in another domain, often forming a one-to-many relationship.", "score": 0.4059, "match_basis": "verbatim_token+chapter_route:ch04"}, {"md_atom_id": "md_ch04_a243", "md_file": "knowledge_base/chapters/ch04_general_assumptions.md", "md_atom_type": "LIST_ITEM", "md_parent_section": "§4.2.6 [Grouping Variables and Categorization]", "md_verbatim": "- --LNKGRP is a grouping identifier used to identify a group of records in one domain that is related to a record in another domain, often forming a many-to-one relationship.", "score": 0.4043, "match_basis": "verbatim_token+chapter_route:ch04"}], "candidate_count": 5, "zero_candidate": false}
{"pdf_atom_id": "ig34_p0052_a013", "pdf_atom_type": "SENTENCE", "pdf_source": "SDTMIG_v3.4", "pdf_page": 52, "pdf_parent_section": "§4.5.1.2 [Tests Not Done]", "pdf_verbatim": "The following example illustrates the single-record approach for representing a group of tests not done.", "figure_ref": null, "candidates": [{"md_atom_id": "md_ch04_a1015", "md_file": "knowledge_base/chapters/ch04_general_assumptions.md", "md_atom_type": "SENTENCE", "md_parent_section": "§4.5.8 [Accounting for Long-term Follow-up]", "md_verbatim": "The following example illustrates the recommended SDTM approach to storing these data.", "score": 0.5696, "match_basis": "verbatim_token+chapter_route:ch04"}, {"md_atom_id": "md_ch04_a578", "md_file": "knowledge_base/chapters/ch04_general_assumptions.md", "md_atom_type": "SENTENCE", "md_parent_section": "§4.4.3.1 [Intervals of Time and Use of Duration]", "md_verbatim": "The following table provides some examples of ISO 8601-compliant representations of durations.", "score": 0.463, "match_basis": "verbatim_token+chapter_route:ch04"}, {"md_atom_id": "md_ch04_a832", "md_file": "knowledge_base/chapters/ch04_general_assumptions.md", "md_atom_type": "SENTENCE", "md_parent_section": "§4.5.1.3 [Examples of Original and Standard Units and Test Not Done]", "md_verbatim": "The following examples illustrate the use of Findings results variables and are not meant as comprehensive domain examples.", "score": 0.4618, "match_basis": "verbatim_token+chapter_route:ch04"}, {"md_atom_id": "md_ch04_a206", "md_file": "knowledge_base/chapters/ch04_general_assumptions.md", "md_atom_type": "SENTENCE", "md_parent_section": "§4.2.3 [Use of \"Subject\" and USUBJID]", "md_verbatim": "The following dm.xpt sample rows illustrate a single subject who participates in 2 studies, first in ACME01 and later in ACME14. Note that this is only one example of the possible values for USUBJID.", "score": 0.4556, "match_basis": "verbatim_token+chapter_route:ch04"}, {"md_atom_id": "md_ch04_a516", "md_file": "knowledge_base/chapters/ch04_general_assumptions.md", "md_atom_type": "SENTENCE", "md_parent_section": "§4.4.2 [Date/Time Precision]", "md_verbatim": "The following table provides examples of ISO 8601 representations of complete and truncated date/time values.", "score": 0.4483, "match_basis": "verbatim_token+chapter_route:ch04"}], "candidate_count": 5, "zero_candidate": false}
{"pdf_atom_id": "ig34_p0052_a014", "pdf_atom_type": "SENTENCE", "pdf_source": "SDTMIG_v3.4", "pdf_page": 52, "pdf_parent_section": "§4.5.1.2 [Tests Not Done]", "pdf_verbatim": "If a single record is used to represent a group of tests were not done:", "figure_ref": null, "candidates": [{"md_atom_id": "md_ch04_a216", "md_file": "knowledge_base/chapters/ch04_general_assumptions.md", "md_atom_type": "SENTENCE", "md_parent_section": "§4.2.5 [Convention for Missing Values]", "md_verbatim": "Missing values are represented as null. When a test is not performed, use --STAT = \"NOT DONE\" and --REASND for the reason. See Section 4.5.1.2 for details.", "score": 0.4286, "match_basis": "verbatim_token+chapter_route:ch04"}, {"md_atom_id": "md_ch04_a824", "md_file": "knowledge_base/chapters/ch04_general_assumptions.md", "md_atom_type": "SENTENCE", "md_parent_section": "§4.5.1 [Original and Standardized Results]", "md_verbatim": "**Tests Not Done (§4.5.1.2):**", "score": 0.4286, "match_basis": "verbatim_token+chapter_route:ch04"}, {"md_atom_id": "md_ch04_a551", "md_file": "knowledge_base/chapters/ch04_general_assumptions.md", "md_atom_type": "SENTENCE", "md_parent_section": "§4.4.3.1 [Intervals of Time and Use of Duration]", "md_verbatim": "One representation, shown below, uses 2 dates in the format:", "score": 0.4277, "match_basis": "verbatim_token+chapter_route:ch04"}, {"md_atom_id": "md_ch04_a534", "md_file": "knowledge_base/chapters/ch04_general_assumptions.md", "md_atom_type": "SENTENCE", "md_parent_section": "§4.4.2 [Date/Time Precision]", "md_verbatim": "ISO 8601 represents missing intermediate components through the use of a hyphen where the missing component would normally be represented.", "score": 0.4099, "match_basis": "verbatim_token+chapter_route:ch04"}, {"md_atom_id": "md_ch04_a510", "md_file": "knowledge_base/chapters/ch04_general_assumptions.md", "md_atom_type": "SENTENCE", "md_parent_section": "§4.4.2 [Date/Time Precision]", "md_verbatim": "The concept of representing date/time precision is handled through use of the ISO 8601 standard.", "score": 0.4065, "match_basis": "verbatim_token+chapter_route:ch04"}], "candidate_count": 5, "zero_candidate": false}
{"pdf_atom_id": "ig34_p0052_a015", "pdf_atom_type": "LIST_ITEM", "pdf_source": "SDTMIG_v3.4", "pdf_page": 52, "pdf_parent_section": "§4.5.1.2 [Tests Not Done]", "pdf_verbatim": "--TESTCD should be --ALL", "figure_ref": null, "candidates": [{"md_atom_id": "md_ch04_a827", "md_file": "knowledge_base/chapters/ch04_general_assumptions.md", "md_atom_type": "LIST_ITEM", "md_parent_section": "§4.5.1 [Original and Standardized Results]", "md_verbatim": "- --ORRESU and --STRESU should also be null", "score": 0.42, "match_basis": "verbatim_token+chapter_route:ch04"}, {"md_atom_id": "md_ch04_a603", "md_file": "knowledge_base/chapters/ch04_general_assumptions.md", "md_atom_type": "LIST_ITEM", "md_parent_section": "§4.4.4 [Study Day Variables]", "md_verbatim": "- Partial dates should not be used to derive study day", "score": 0.4111, "match_basis": "verbatim_token+chapter_route:ch04"}, {"md_atom_id": "md_ch04_a188", "md_file": "knowledge_base/chapters/ch04_general_assumptions.md", "md_atom_type": "LIST_ITEM", "md_parent_section": "§4.2.1.2 [--TRT Conventions (Interventions)]", "md_verbatim": "- Should represent the name as reported on the CRF", "score": 0.396, "match_basis": "verbatim_token+chapter_route:ch04"}, {"md_atom_id": "md_ch04_a191", "md_file": "knowledge_base/chapters/ch04_general_assumptions.md", "md_atom_type": "LIST_ITEM", "md_parent_section": "§4.2.1.3 [--TERM Conventions (Events)]", "md_verbatim": "- Should represent the term as reported on the CRF", "score": 0.396, "match_basis": "verbatim_token+chapter_route:ch04"}, {"md_atom_id": "md_ch04_a055", "md_file": "knowledge_base/chapters/ch04_general_assumptions.md", "md_atom_type": "LIST_ITEM", "md_parent_section": "§4.1.7 [Splitting Domains]", "md_verbatim": "2. All variables that require a domain prefix (e.g., --TESTCD, --LOC) must use the value of DOMAIN as the prefix value (e.g., QS, FA).", "score": 0.3769, "match_basis": "verbatim_token+chapter_route:ch04"}], "candidate_count": 5, "zero_candidate": false}
{"pdf_atom_id": "ig34_p0052_a016", "pdf_atom_type": "LIST_ITEM", "pdf_source": "SDTMIG_v3.4", "pdf_page": 52, "pdf_parent_section": "§4.5.1.2 [Tests Not Done]", "pdf_verbatim": "--TEST should be <Domain description>", "figure_ref": null, "candidates": [{"md_atom_id": "md_ch04_a184", "md_file": "knowledge_base/chapters/ch04_general_assumptions.md", "md_atom_type": "LIST_ITEM", "md_parent_section": "§4.2.1.1 [--TEST and --TESTCD Conventions (Findings)]", "md_verbatim": "- --TEST: full descriptive name of the test", "score": 0.5077, "match_basis": "verbatim_token+chapter_route:ch04"}, {"md_atom_id": "md_ch04_a446", "md_file": "knowledge_base/chapters/ch04_general_assumptions.md", "md_atom_type": "LIST_ITEM", "md_parent_section": "§4.3.5 [Storing Controlled Terminology for Synonym Qualifier Variables (MedDRA and WHODrug)]", "md_verbatim": "  - For example, **--LLT** should be used to represent the Lowest Level Term text description and **--LLTCD** should be used to represent the Lowest Level Term code value", "score": 0.4556, "match_basis": "verbatim_token+chapter_route:ch04"}, {"md_atom_id": "md_ch04_a1023", "md_file": "knowledge_base/chapters/ch04_general_assumptions.md", "md_atom_type": "LIST_ITEM", "md_parent_section": "§4.5.8 [Accounting for Long-term Follow-up]", "md_verbatim": "2. The subject's survival status should be stored in the Subject Status (SS) domain.", "score": 0.4231, "match_basis": "verbatim_token+chapter_route:ch04"}, {"md_atom_id": "md_ch04_a272", "md_file": "knowledge_base/chapters/ch04_general_assumptions.md", "md_atom_type": "SENTENCE", "md_parent_section": "§4.2.7.1 [\"Specify\" Values for Non-Result Qualifier Variables]", "md_verbatim": "The free-text description should be stored in the SUPPEX dataset.", "score": 0.4208, "match_basis": "verbatim_token+chapter_route:ch04"}, {"md_atom_id": "md_ch04_a912", "md_file": "knowledge_base/chapters/ch04_general_assumptions.md", "md_atom_type": "LIST_ITEM", "md_parent_section": "§4.5.3.2 [Text Strings Greater than 200 Characters in Other Variables]", "md_verbatim": "- The value for **QLABEL should be the original domain variable label**:", "score": 0.42, "match_basis": "verbatim_token+chapter_route:ch04"}], "candidate_count": 5, "zero_candidate": false}
{"pdf_atom_id": "ig34_p0052_a017", "pdf_atom_type": "LIST_ITEM", "pdf_source": "SDTMIG_v3.4", "pdf_page": 52, "pdf_parent_section": "§4.5.1.2 [Tests Not Done]", "pdf_verbatim": "--CAT should be <Name of group of tests>", "figure_ref": null, "candidates": [{"md_atom_id": "md_ch04_a188", "md_file": "knowledge_base/chapters/ch04_general_assumptions.md", "md_atom_type": "LIST_ITEM", "md_parent_section": "§4.2.1.2 [--TRT Conventions (Interventions)]", "md_verbatim": "- Should represent the name as reported on the CRF", "score": 0.4333, "match_basis": "verbatim_token+chapter_route:ch04"}, {"md_atom_id": "md_ch04_a827", "md_file": "knowledge_base/chapters/ch04_general_assumptions.md", "md_atom_type": "LIST_ITEM", "md_parent_section": "§4.5.1 [Original and Standardized Results]", "md_verbatim": "- --ORRESU and --STRESU should also be null", "score": 0.4, "match_basis": "verbatim_token+chapter_route:ch04"}, {"md_atom_id": "md_ch04_a603", "md_file": "knowledge_base/chapters/ch04_general_assumptions.md", "md_atom_type": "LIST_ITEM", "md_parent_section": "§4.4.4 [Study Day Variables]", "md_verbatim": "- Partial dates should not be used to derive study day", "score": 0.3968, "match_basis": "verbatim_token+chapter_route:ch04"}, {"md_atom_id": "md_ch04_a184", "md_file": "knowledge_base/chapters/ch04_general_assumptions.md", "md_atom_type": "LIST_ITEM", "md_parent_section": "§4.2.1.1 [--TEST and --TESTCD Conventions (Findings)]", "md_verbatim": "- --TEST: full descriptive name of the test", "score": 0.396, "match_basis": "verbatim_token+chapter_route:ch04"}, {"md_atom_id": "md_ch04_a191", "md_file": "knowledge_base/chapters/ch04_general_assumptions.md", "md_atom_type": "LIST_ITEM", "md_parent_section": "§4.2.1.3 [--TERM Conventions (Events)]", "md_verbatim": "- Should represent the term as reported on the CRF", "score": 0.3828, "match_basis": "verbatim_token+chapter_route:ch04"}], "candidate_count": 5, "zero_candidate": false}
{"pdf_atom_id": "ig34_p0052_a018", "pdf_atom_type": "LIST_ITEM", "pdf_source": "SDTMIG_v3.4", "pdf_page": 52, "pdf_parent_section": "§4.5.1.2 [Tests Not Done]", "pdf_verbatim": "--ORRES should be null", "figure_ref": null, "candidates": [{"md_atom_id": "md_ch04_a827", "md_file": "knowledge_base/chapters/ch04_general_assumptions.md", "md_atom_type": "LIST_ITEM", "md_parent_section": "§4.5.1 [Original and Standardized Results]", "md_verbatim": "- --ORRESU and --STRESU should also be null", "score": 0.66, "match_basis": "verbatim_token+chapter_route:ch04"}, {"md_atom_id": "md_ch04_a826", "md_file": "knowledge_base/chapters/ch04_general_assumptions.md", "md_atom_type": "LIST_ITEM", "md_parent_section": "§4.5.1 [Original and Standardized Results]", "md_verbatim": "- --ORRES, --STRESC, --STRESN must all be null when --STAT = \"NOT DONE\"", "score": 0.4304, "match_basis": "verbatim_token+chapter_route:ch04"}, {"md_atom_id": "md_ch04_a188", "md_file": "knowledge_base/chapters/ch04_general_assumptions.md", "md_atom_type": "LIST_ITEM", "md_parent_section": "§4.2.1.2 [--TRT Conventions (Interventions)]", "md_verbatim": "- Should represent the name as reported on the CRF", "score": 0.425, "match_basis": "verbatim_token+chapter_route:ch04"}, {"md_atom_id": "md_ch04_a191", "md_file": "knowledge_base/chapters/ch04_general_assumptions.md", "md_atom_type": "LIST_ITEM", "md_parent_section": "§4.2.1.3 [--TERM Conventions (Events)]", "md_verbatim": "- Should represent the term as reported on the CRF", "score": 0.425, "match_basis": "verbatim_token+chapter_route:ch04"}, {"md_atom_id": "md_ch04_a823", "md_file": "knowledge_base/chapters/ch04_general_assumptions.md", "md_atom_type": "LIST_ITEM", "md_parent_section": "§4.5.1 [Original and Standardized Results]", "md_verbatim": "- Values with comparison operators (e.g., >10,000, <1): place in --STRESC; --STRESN should be null", "score": 0.4105, "match_basis": "verbatim_token+chapter_route:ch04"}], "candidate_count": 5, "zero_candidate": false}
{"pdf_atom_id": "ig34_p0052_a019", "pdf_atom_type": "LIST_ITEM", "pdf_source": "SDTMIG_v3.4", "pdf_page": 52, "pdf_parent_section": "§4.5.1.2 [Tests Not Done]", "pdf_verbatim": "--STAT should be \"NOT DONE\"", "figure_ref": null, "candidates": [{"md_atom_id": "md_ch04_a826", "md_file": "knowledge_base/chapters/ch04_general_assumptions.md", "md_atom_type": "LIST_ITEM", "md_parent_section": "§4.5.1 [Original and Standardized Results]", "md_verbatim": "- --ORRES, --STRESC, --STRESN must all be null when --STAT = \"NOT DONE\"", "score": 0.4304, "match_basis": "verbatim_token+chapter_route:ch04"}, {"md_atom_id": "md_ch04_a827", "md_file": "knowledge_base/chapters/ch04_general_assumptions.md", "md_atom_type": "LIST_ITEM", "md_parent_section": "§4.5.1 [Original and Standardized Results]", "md_verbatim": "- --ORRESU and --STRESU should also be null", "score": 0.42, "match_basis": "verbatim_token+chapter_route:ch04"}, {"md_atom_id": "md_ch04_a1023", "md_file": "knowledge_base/chapters/ch04_general_assumptions.md", "md_atom_type": "LIST_ITEM", "md_parent_section": "§4.5.8 [Accounting for Long-term Follow-up]", "md_verbatim": "2. The subject's survival status should be stored in the Subject Status (SS) domain.", "score": 0.4161, "match_basis": "verbatim_token+chapter_route:ch04"}, {"md_atom_id": "md_ch04_a603", "md_file": "knowledge_base/chapters/ch04_general_assumptions.md", "md_atom_type": "LIST_ITEM", "md_parent_section": "§4.4.4 [Study Day Variables]", "md_verbatim": "- Partial dates should not be used to derive study day", "score": 0.4111, "match_basis": "verbatim_token+chapter_route:ch04"}, {"md_atom_id": "md_ch04_a188", "md_file": "knowledge_base/chapters/ch04_general_assumptions.md", "md_atom_type": "LIST_ITEM", "md_parent_section": "§4.2.1.2 [--TRT Conventions (Interventions)]", "md_verbatim": "- Should represent the name as reported on the CRF", "score": 0.396, "match_basis": "verbatim_token+chapter_route:ch04"}], "candidate_count": 5, "zero_candidate": false}
{"pdf_atom_id": "ig34_p0052_a020", "pdf_atom_type": "CODE_LITERAL", "pdf_source": "SDTMIG_v3.4", "pdf_page": 52, "pdf_parent_section": "§4.5.1.2 [Tests Not Done]", "pdf_verbatim": "NOT DONE", "figure_ref": null, "candidates": [{"md_atom_id": "md_ch04_a886", "md_file": "knowledge_base/chapters/ch04_general_assumptions.md", "md_atom_type": "TABLE_ROW", "md_parent_section": "§4.5.1.3 [Examples of Original and Standard Units and Test Not Done]", "md_verbatim": "| 3 | HR | | | | | | NOT DONE | | 1 | 2016-07-18 |", "score": 0.45, "match_basis": "verbatim_token+chapter_route:ch04"}, {"md_atom_id": "md_ch04_a824", "md_file": "knowledge_base/chapters/ch04_general_assumptions.md", "md_atom_type": "SENTENCE", "md_parent_section": "§4.5.1 [Original and Standardized Results]", "md_verbatim": "**Tests Not Done (§4.5.1.2):**", "score": 0.39, "match_basis": "verbatim_token+chapter_route:ch04"}, {"md_atom_id": "md_ch04_a857", "md_file": "knowledge_base/chapters/ch04_general_assumptions.md", "md_atom_type": "TABLE_ROW", "md_parent_section": "§4.5.1.3 [Examples of Original and Standard Units and Test Not Done]", "md_verbatim": "| 10 | LBALL | | | | | | | NOT DONE | | 4 | 2016-02-22 |", "score": 0.315, "match_basis": "verbatim_token+chapter_route:ch04"}, {"md_atom_id": "md_ch04_a890", "md_file": "knowledge_base/chapters/ch04_general_assumptions.md", "md_atom_type": "TABLE_ROW", "md_parent_section": "§4.5.1.3 [Examples of Original and Standard Units and Test Not Done]", "md_verbatim": "| 7 | VSALL | | | | | | NOT DONE | | 2 | 2016-07-25 |", "score": 0.315, "match_basis": "verbatim_token+chapter_route:ch04"}, {"md_atom_id": "md_ch04_a855", "md_file": "knowledge_base/chapters/ch04_general_assumptions.md", "md_atom_type": "TABLE_ROW", "md_parent_section": "§4.5.1.3 [Examples of Original and Standard Units and Test Not Done]", "md_verbatim": "| 8 | HCT | HEMATOLOGY | | | | | | NOT DONE | | 2 | 2016-02-08 |", "score": 0.2186, "match_basis": "verbatim_token+chapter_route:ch04"}, {"md_atom_id": "md_ch04_a856", "md_file": "knowledge_base/chapters/ch04_general_assumptions.md", "md_atom_type": "TABLE_ROW", "md_parent_section": "§4.5.1.3 [Examples of Original and Standard Units and Test Not Done]", "md_verbatim": "| 9 | LBALL | HEMATOLOGY | | | | | | NOT DONE | | 3 | 2016-02-29 |", "score": 0.2025, "match_basis": "verbatim_token+chapter_route:ch04"}, {"md_atom_id": "md_ch04_a875", "md_file": "knowledge_base/chapters/ch04_general_assumptions.md", "md_atom_type": "TABLE_ROW", "md_parent_section": "§4.5.1.3 [Examples of Original and Standard Units and Test Not Done]", "md_verbatim": "| 7 | EGALL | ECG Test Results | | | | | | NOT DONE | 3 | 2015-03-21 |", "score": 0.2025, "match_basis": "verbatim_token+chapter_route:ch04"}, {"md_atom_id": "md_ch04_a826", "md_file": "knowledge_base/chapters/ch04_general_assumptions.md", "md_atom_type": "LIST_ITEM", "md_parent_section": "§4.5.1 [Original and Standardized Results]", "md_verbatim": "- --ORRES, --STRESC, --STRESN must all be null when --STAT = \"NOT DONE\"", "score": 0.1847, "match_basis": "verbatim_token+chapter_route:ch04"}, {"md_atom_id": "md_ch04_a874", "md_file": "knowledge_base/chapters/ch04_general_assumptions.md", "md_atom_type": "TABLE_ROW", "md_parent_section": "§4.5.1.3 [Examples of Original and Standard Units and Test Not Done]", "md_verbatim": "| 6 | PRAG | PR Interval, Aggregate | | | | | | NOT DONE | 2 | 2015-03-14 |", "score": 0.18, "match_basis": "verbatim_token+chapter_route:ch04"}, {"md_atom_id": "md_ch04_a1004", "md_file": "knowledge_base/chapters/ch04_general_assumptions.md", "md_atom_type": "TABLE_ROW", "md_parent_section": "§4.5.7 [Presence or Absence of Prespecified Interventions and Events]", "md_verbatim": "| Prespecified event has no response | Y | | NOT DONE |", "score": 0.1757, "match_basis": "verbatim_token+chapter_route:ch04"}], "candidate_count": 10, "zero_candidate": false}
{"pdf_atom_id": "ig34_p0052_a021", "pdf_atom_type": "LIST_ITEM", "pdf_source": "SDTMIG_v3.4", "pdf_page": 52, "pdf_parent_section": "§4.5.1.2 [Tests Not Done]", "pdf_verbatim": "--REASND, if collected, might be \"Specimen lost\"", "figure_ref": null, "candidates": [{"md_atom_id": "md_ch04_a246", "md_file": "knowledge_base/chapters/ch04_general_assumptions.md", "md_atom_type": "LIST_ITEM", "md_parent_section": "§4.2.6 [Grouping Variables and Categorization]", "md_verbatim": "1. --CAT/--SCAT are known (identified) about the data before it is collected.", "score": 0.3913, "match_basis": "verbatim_token+chapter_route:ch04"}, {"md_atom_id": "md_ch04_a819", "md_file": "knowledge_base/chapters/ch04_general_assumptions.md", "md_atom_type": "LIST_ITEM", "md_parent_section": "§4.5.1 [Original and Standardized Results]", "md_verbatim": "- --ORRES: always the originally collected/reported value", "score": 0.3913, "match_basis": "verbatim_token+chapter_route:ch04"}, {"md_atom_id": "md_ch04_a825", "md_file": "knowledge_base/chapters/ch04_general_assumptions.md", "md_atom_type": "LIST_ITEM", "md_parent_section": "§4.5.1 [Original and Standardized Results]", "md_verbatim": "- When a test is not performed: --STAT = \"NOT DONE\", --REASND = reason (if explicitly collected; --REASND is populated only if a reason was explicitly collected except for QRS logically skipped items)", "score": 0.3857, "match_basis": "verbatim_token+chapter_route:ch04"}, {"md_atom_id": "md_ch04_a685", "md_file": "knowledge_base/chapters/ch04_general_assumptions.md", "md_atom_type": "LIST_ITEM", "md_parent_section": "§4.4.8 [Date and Time Reported in a Domain Based on Findings]", "md_verbatim": "- For **single-point blood collections or spot urine collections**: use **LBDTC** for the date/time of collection", "score": 0.372, "match_basis": "verbatim_token+chapter_route:ch04"}, {"md_atom_id": "md_ch04_a686", "md_file": "knowledge_base/chapters/ch04_general_assumptions.md", "md_atom_type": "LIST_ITEM", "md_parent_section": "§4.4.8 [Date and Time Reported in a Domain Based on Findings]", "md_verbatim": "- For **timed lab collections** (e.g., 24-hour urine collections): use **LBDTC** for the start date/time of the collection and **LBENDTC** for the end date/time of the collection", "score": 0.372, "match_basis": "verbatim_token+chapter_route:ch04"}], "candidate_count": 5, "zero_candidate": false}
{"pdf_atom_id": "ig34_p0052_a022", "pdf_atom_type": "SENTENCE", "pdf_source": "SDTMIG_v3.4", "pdf_page": 52, "pdf_parent_section": "§4.5.1.2 [Tests Not Done]", "pdf_verbatim": "For example, if urinalysis tests were not done, then:", "figure_ref": null, "candidates": [{"md_atom_id": "md_ch04_a320", "md_file": "knowledge_base/chapters/ch04_general_assumptions.md", "md_atom_type": "SENTENCE", "md_parent_section": "§4.2.7.3 [\"Specify\" Values for Topic Variables]", "md_verbatim": "For example:", "score": 0.45, "match_basis": "verbatim_token+chapter_route:ch04"}, {"md_atom_id": "md_ch04_a354", "md_file": "knowledge_base/chapters/ch04_general_assumptions.md", "md_atom_type": "SENTENCE", "md_parent_section": "§4.2.8.2 [Multiple Values for a Findings Result Variable]", "md_verbatim": "For example:", "score": 0.45, "match_basis": "verbatim_token+chapter_route:ch04"}, {"md_atom_id": "md_ch04_a402", "md_file": "knowledge_base/chapters/ch04_general_assumptions.md", "md_atom_type": "SENTENCE", "md_parent_section": "§4.2.8.4 [Multiple Values for a Parameter]", "md_verbatim": "For example:", "score": 0.45, "match_basis": "verbatim_token+chapter_route:ch04"}, {"md_atom_id": "md_ch04_a824", "md_file": "knowledge_base/chapters/ch04_general_assumptions.md", "md_atom_type": "SENTENCE", "md_parent_section": "§4.5.1 [Original and Standardized Results]", "md_verbatim": "**Tests Not Done (§4.5.1.2):**", "score": 0.45, "match_basis": "verbatim_token+chapter_route:ch04"}, {"md_atom_id": "md_ch04_a298", "md_file": "knowledge_base/chapters/ch04_general_assumptions.md", "md_atom_type": "SENTENCE", "md_parent_section": "§4.2.7.2 [\"Specify\" Values for Result Qualifier Variables]", "md_verbatim": "For example, consider a CRF where the sponsor requests the subject's eye color:", "score": 0.42, "match_basis": "verbatim_token+chapter_route:ch04"}], "candidate_count": 5, "zero_candidate": false}
{"pdf_atom_id": "ig34_p0052_a023", "pdf_atom_type": "LIST_ITEM", "pdf_source": "SDTMIG_v3.4", "pdf_page": 52, "pdf_parent_section": "§4.5.1.2 [Tests Not Done]", "pdf_verbatim": "LBTESTCD would be \"LBALL\"", "figure_ref": null, "candidates": [{"md_atom_id": "md_ch04_a843", "md_file": "knowledge_base/chapters/ch04_general_assumptions.md", "md_atom_type": "LIST_ITEM", "md_parent_section": "§4.5.1.3 [Examples of Original and Standard Units and Test Not Done]", "md_verbatim": "- **Row 9:** Tests in the category \"HEMATOLOGY\" were not done at visit 3, as indicated by LBTESTCD = \"LBALL\" and LBSTAT = \"NOT DONE\".", "score": 0.4149, "match_basis": "verbatim_token+chapter_route:ch04"}, {"md_atom_id": "md_ch04_a844", "md_file": "knowledge_base/chapters/ch04_general_assumptions.md", "md_atom_type": "LIST_ITEM", "md_parent_section": "§4.5.1.3 [Examples of Original and Standard Units and Test Not Done]", "md_verbatim": "- **Row 10:** None of the tests in the LB domain were done at visit 4, as indicated by LBTESTCD = \"LBALL\", a null LBCAT value, and LBSTAT = \"NOT DONE\".", "score": 0.4149, "match_basis": "verbatim_token+chapter_route:ch04"}, {"md_atom_id": "md_ch04_a055", "md_file": "knowledge_base/chapters/ch04_general_assumptions.md", "md_atom_type": "LIST_ITEM", "md_parent_section": "§4.1.7 [Splitting Domains]", "md_verbatim": "2. All variables that require a domain prefix (e.g., --TESTCD, --LOC) must use the value of DOMAIN as the prefix value (e.g., QS, FA).", "score": 0.3714, "match_basis": "verbatim_token+chapter_route:ch04"}, {"md_atom_id": "md_ch04_a415", "md_file": "knowledge_base/chapters/ch04_general_assumptions.md", "md_atom_type": "LIST_ITEM", "md_parent_section": "§4.2.9 [Variable Lengths]", "md_verbatim": "    - --TESTCD and IDVAR will never be more than 8, so the length can always be set to 8.", "score": 0.3667, "match_basis": "verbatim_token+chapter_route:ch04"}, {"md_atom_id": "md_ch04_a867", "md_file": "knowledge_base/chapters/ch04_general_assumptions.md", "md_atom_type": "LIST_ITEM", "md_parent_section": "§4.5.1.3 [Examples of Original and Standard Units and Test Not Done]", "md_verbatim": "- **Row 7:** At visit 3, there were no ECG results, as indicated by EGTESTCD = \"EGALL\" and EGSTAT = \"NOT DONE\".", "score": 0.3667, "match_basis": "verbatim_token+chapter_route:ch04"}], "candidate_count": 5, "zero_candidate": false}
{"pdf_atom_id": "ig34_p0052_a024", "pdf_atom_type": "CODE_LITERAL", "pdf_source": "SDTMIG_v3.4", "pdf_page": 52, "pdf_parent_section": "§4.5.1.2 [Tests Not Done]", "pdf_verbatim": "LBALL", "figure_ref": null, "candidates": [{"md_atom_id": "md_ch04_a857", "md_file": "knowledge_base/chapters/ch04_general_assumptions.md", "md_atom_type": "TABLE_ROW", "md_parent_section": "§4.5.1.3 [Examples of Original and Standard Units and Test Not Done]", "md_verbatim": "| 10 | LBALL | | | | | | | NOT DONE | | 4 | 2016-02-22 |", "score": 0.315, "match_basis": "verbatim_token+chapter_route:ch04"}, {"md_atom_id": "md_ch04_a856", "md_file": "knowledge_base/chapters/ch04_general_assumptions.md", "md_atom_type": "TABLE_ROW", "md_parent_section": "§4.5.1.3 [Examples of Original and Standard Units and Test Not Done]", "md_verbatim": "| 9 | LBALL | HEMATOLOGY | | | | | | NOT DONE | | 3 | 2016-02-29 |", "score": 0.2025, "match_basis": "verbatim_token+chapter_route:ch04"}, {"md_atom_id": "md_ch04_a890", "md_file": "knowledge_base/chapters/ch04_general_assumptions.md", "md_atom_type": "TABLE_ROW", "md_parent_section": "§4.5.1.3 [Examples of Original and Standard Units and Test Not Done]", "md_verbatim": "| 7 | VSALL | | | | | | NOT DONE | | 2 | 2016-07-25 |", "score": 0.15, "match_basis": "verbatim_token+chapter_route:ch04"}, {"md_atom_id": "md_ch04_a843", "md_file": "knowledge_base/chapters/ch04_general_assumptions.md", "md_atom_type": "LIST_ITEM", "md_parent_section": "§4.5.1.3 [Examples of Original and Standard Units and Test Not Done]", "md_verbatim": "- **Row 9:** Tests in the category \"HEMATOLOGY\" were not done at visit 3, as indicated by LBTESTCD = \"LBALL\" and LBSTAT = \"NOT DONE\".", "score": 0.1309, "match_basis": "verbatim_token+chapter_route:ch04"}, {"md_atom_id": "md_ch04_a844", "md_file": "knowledge_base/chapters/ch04_general_assumptions.md", "md_atom_type": "LIST_ITEM", "md_parent_section": "§4.5.1.3 [Examples of Original and Standard Units and Test Not Done]", "md_verbatim": "- **Row 10:** None of the tests in the LB domain were done at visit 4, as indicated by LBTESTCD = \"LBALL\", a null LBCAT value, and LBSTAT = \"NOT DONE\".", "score": 0.1309, "match_basis": "verbatim_token+chapter_route:ch04"}, {"md_atom_id": "md_ch04_a875", "md_file": "knowledge_base/chapters/ch04_general_assumptions.md", "md_atom_type": "TABLE_ROW", "md_parent_section": "§4.5.1.3 [Examples of Original and Standard Units and Test Not Done]", "md_verbatim": "| 7 | EGALL | ECG Test Results | | | | | | NOT DONE | 3 | 2015-03-21 |", "score": 0.1233, "match_basis": "verbatim_token+chapter_route:ch04"}, {"md_atom_id": "md_ch04_a490", "md_file": "knowledge_base/chapters/ch04_general_assumptions.md", "md_atom_type": "LIST_ITEM", "md_parent_section": "§4.4.1 [Formats for Date/Time Variables]", "md_verbatim": "- [hh] = two digits of hour (00 through 23) (am/pm is NOT allowed)", "score": 0.12, "match_basis": "verbatim_token+chapter_route:ch04"}, {"md_atom_id": "md_ch04_a826", "md_file": "knowledge_base/chapters/ch04_general_assumptions.md", "md_atom_type": "LIST_ITEM", "md_parent_section": "§4.5.1 [Original and Standardized Results]", "md_verbatim": "- --ORRES, --STRESC, --STRESN must all be null when --STAT = \"NOT DONE\"", "score": 0.1186, "match_basis": "verbatim_token+chapter_route:ch04"}, {"md_atom_id": "md_ch04_a631", "md_file": "knowledge_base/chapters/ch04_general_assumptions.md", "md_atom_type": "TABLE_HEADER", "md_parent_section": "§4.4.7 [Use of Relative Timing Variables]", "md_verbatim": "| Variable | Allowable Values | Purpose |\n|----------|-----------------|---------|", "score": 0.1173, "match_basis": "verbatim_token+chapter_route:ch04"}, {"md_atom_id": "md_ch04_a642", "md_file": "knowledge_base/chapters/ch04_general_assumptions.md", "md_atom_type": "TABLE_HEADER", "md_parent_section": "§4.4.7 [Use of Relative Timing Variables]", "md_verbatim": "| Variable | Allowable Values | Purpose |\n|----------|-----------------|---------|", "score": 0.1173, "match_basis": "verbatim_token+chapter_route:ch04"}], "candidate_count": 10, "zero_candidate": false}
{"pdf_atom_id": "ig34_p0052_a025", "pdf_atom_type": "LIST_ITEM", "pdf_source": "SDTMIG_v3.4", "pdf_page": 52, "pdf_parent_section": "§4.5.1.2 [Tests Not Done]", "pdf_verbatim": "LBTEST would be \"Laboratory Test Results\"", "figure_ref": null, "candidates": [{"md_atom_id": "md_ch04_a830", "md_file": "knowledge_base/chapters/ch04_general_assumptions.md", "md_atom_type": "LIST_ITEM", "md_parent_section": "§4.5.1 [Original and Standardized Results]", "md_verbatim": "- A single record can represent a group of tests not done: --TESTCD = \"--ALL\", --TEST = domain description, --CAT = name of group; for example, if urinalysis tests were not done: LBTESTCD = \"LBALL\", LBTEST = \"Laboratory Test Results\", LBCAT = \"URINALYSIS\", LBORRES = null, LBSTAT = \"NOT DONE\", LBREASND (if collected) = \"Subject could not void\"", "score": 0.4036, "match_basis": "verbatim_token+chapter_route:ch04"}, {"md_atom_id": "md_ch04_a165", "md_file": "knowledge_base/chapters/ch04_general_assumptions.md", "md_atom_type": "LIST_ITEM", "md_parent_section": "§4.1.9 [Assigning Natural Keys in the Metadata]", "md_verbatim": "- It results in the creation of a potentially large number of test codes.", "score": 0.3913, "match_basis": "verbatim_token+chapter_route:ch04"}, {"md_atom_id": "md_ch04_a842", "md_file": "knowledge_base/chapters/ch04_general_assumptions.md", "md_atom_type": "LIST_ITEM", "md_parent_section": "§4.5.1.3 [Examples of Original and Standard Units and Test Not Done]", "md_verbatim": "- **Row 8:** A result for LBTEST = \"HCT\" is missing for visit 2, as indicated by LBSTAT = \"NOT DONE\"; neither LBORRES nor LBSTRESC is populated.", "score": 0.3871, "match_basis": "verbatim_token+chapter_route:ch04"}, {"md_atom_id": "md_ch04_a867", "md_file": "knowledge_base/chapters/ch04_general_assumptions.md", "md_atom_type": "LIST_ITEM", "md_parent_section": "§4.5.1.3 [Examples of Original and Standard Units and Test Not Done]", "md_verbatim": "- **Row 7:** At visit 3, there were no ECG results, as indicated by EGTESTCD = \"EGALL\" and EGSTAT = \"NOT DONE\".", "score": 0.3824, "match_basis": "verbatim_token+chapter_route:ch04"}, {"md_atom_id": "md_ch04_a827", "md_file": "knowledge_base/chapters/ch04_general_assumptions.md", "md_atom_type": "LIST_ITEM", "md_parent_section": "§4.5.1 [Original and Standardized Results]", "md_verbatim": "- --ORRESU and --STRESU should also be null", "score": 0.3774, "match_basis": "verbatim_token+chapter_route:ch04"}], "candidate_count": 5, "zero_candidate": false}
{"pdf_atom_id": "ig34_p0052_a026", "pdf_atom_type": "LIST_ITEM", "pdf_source": "SDTMIG_v3.4", "pdf_page": 52, "pdf_parent_section": "§4.5.1.2 [Tests Not Done]", "pdf_verbatim": "LBCAT would be \"URINALYSIS\"", "figure_ref": null, "candidates": [{"md_atom_id": "md_ch04_a852", "md_file": "knowledge_base/chapters/ch04_general_assumptions.md", "md_atom_type": "TABLE_ROW", "md_parent_section": "§4.5.1.3 [Examples of Original and Standard Units and Test Not Done]", "md_verbatim": "| 5 | RBC | URINALYSIS | 2+ | | 2+ | | | | | 1 | 2016-02-01 |", "score": 0.4324, "match_basis": "verbatim_token+chapter_route:ch04"}, {"md_atom_id": "md_ch04_a851", "md_file": "knowledge_base/chapters/ch04_general_assumptions.md", "md_atom_type": "TABLE_ROW", "md_parent_section": "§4.5.1.3 [Examples of Original and Standard Units and Test Not Done]", "md_verbatim": "| 4 | RBC | URINALYSIS | TRACE | | TRACE | | | | | 1 | 2016-02-01 |", "score": 0.39, "match_basis": "verbatim_token+chapter_route:ch04"}, {"md_atom_id": "md_ch04_a830", "md_file": "knowledge_base/chapters/ch04_general_assumptions.md", "md_atom_type": "LIST_ITEM", "md_parent_section": "§4.5.1 [Original and Standardized Results]", "md_verbatim": "- A single record can represent a group of tests not done: --TESTCD = \"--ALL\", --TEST = domain description, --CAT = name of group; for example, if urinalysis tests were not done: LBTESTCD = \"LBALL\", LBTEST = \"Laboratory Test Results\", LBCAT = \"URINALYSIS\", LBORRES = null, LBSTAT = \"NOT DONE\", LBREASND (if collected) = \"Subject could not void\"", "score": 0.3709, "match_basis": "verbatim_token+chapter_route:ch04"}, {"md_atom_id": "md_ch04_a912", "md_file": "knowledge_base/chapters/ch04_general_assumptions.md", "md_atom_type": "LIST_ITEM", "md_parent_section": "§4.5.3.2 [Text Strings Greater than 200 Characters in Other Variables]", "md_verbatim": "- The value for **QLABEL should be the original domain variable label**:", "score": 0.3615, "match_basis": "verbatim_token+chapter_route:ch04"}, {"md_atom_id": "md_ch04_a1022", "md_file": "knowledge_base/chapters/ch04_general_assumptions.md", "md_atom_type": "LIST_ITEM", "md_parent_section": "§4.5.8 [Accounting for Long-term Follow-up]", "md_verbatim": "1. Concomitant medications reported during the contact should be stored in the CM domain.", "score": 0.3556, "match_basis": "verbatim_token+chapter_route:ch04"}], "candidate_count": 5, "zero_candidate": false}
{"pdf_atom_id": "ig34_p0052_a027", "pdf_atom_type": "CODE_LITERAL", "pdf_source": "SDTMIG_v3.4", "pdf_page": 52, "pdf_parent_section": "§4.5.1.2 [Tests Not Done]", "pdf_verbatim": "URINALYSIS", "figure_ref": null, "candidates": [{"md_atom_id": "md_ch04_a852", "md_file": "knowledge_base/chapters/ch04_general_assumptions.md", "md_atom_type": "TABLE_ROW", "md_parent_section": "§4.5.1.3 [Examples of Original and Standard Units and Test Not Done]", "md_verbatim": "| 5 | RBC | URINALYSIS | 2+ | | 2+ | | | | | 1 | 2016-02-01 |", "score": 0.5264, "match_basis": "verbatim_token+chapter_route:ch04"}, {"md_atom_id": "md_ch04_a851", "md_file": "knowledge_base/chapters/ch04_general_assumptions.md", "md_atom_type": "TABLE_ROW", "md_parent_section": "§4.5.1.3 [Examples of Original and Standard Units and Test Not Done]", "md_verbatim": "| 4 | RBC | URINALYSIS | TRACE | | TRACE | | | | | 1 | 2016-02-01 |", "score": 0.4329, "match_basis": "verbatim_token+chapter_route:ch04"}, {"md_atom_id": "md_ch04_a850", "md_file": "knowledge_base/chapters/ch04_general_assumptions.md", "md_atom_type": "TABLE_ROW", "md_parent_section": "§4.5.1.3 [Examples of Original and Standard Units and Test Not Done]", "md_verbatim": "| 3 | BACT | URINALYSIS | MODERATE | | MODERATE | | | | | 1 | 2016-02-01 |", "score": 0.3567, "match_basis": "verbatim_token+chapter_route:ch04"}, {"md_atom_id": "md_ch04_a010", "md_file": "knowledge_base/chapters/ch04_general_assumptions.md", "md_atom_type": "HEADING", "md_parent_section": "§4.1 [General Domain Assumptions]", "md_verbatim": "### 4.1.2 Relationship to Analysis Datasets", "score": 0.21, "match_basis": "verbatim_token+chapter_route:ch04"}, {"md_atom_id": "md_ch04_a638", "md_file": "knowledge_base/chapters/ch04_general_assumptions.md", "md_atom_type": "SENTENCE", "md_parent_section": "§4.4.7 [Use of Relative Timing Variables]", "md_verbatim": "Sponsors wishing to do such derivations are instead encouraged to use analysis datasets for this derived data.", "score": 0.1436, "match_basis": "verbatim_token+chapter_route:ch04"}], "candidate_count": 5, "zero_candidate": false}
{"pdf_atom_id": "ig34_p0052_a028", "pdf_atom_type": "LIST_ITEM", "pdf_source": "SDTMIG_v3.4", "pdf_page": 52, "pdf_parent_section": "§4.5.1.2 [Tests Not Done]", "pdf_verbatim": "LBORRES would be null", "figure_ref": null, "candidates": [{"md_atom_id": "md_ch04_a827", "md_file": "knowledge_base/chapters/ch04_general_assumptions.md", "md_atom_type": "LIST_ITEM", "md_parent_section": "§4.5.1 [Original and Standardized Results]", "md_verbatim": "- --ORRESU and --STRESU should also be null", "score": 0.5333, "match_basis": "verbatim_token+chapter_route:ch04"}, {"md_atom_id": "md_ch04_a826", "md_file": "knowledge_base/chapters/ch04_general_assumptions.md", "md_atom_type": "LIST_ITEM", "md_parent_section": "§4.5.1 [Original and Standardized Results]", "md_verbatim": "- --ORRES, --STRESC, --STRESN must all be null when --STAT = \"NOT DONE\"", "score": 0.425, "match_basis": "verbatim_token+chapter_route:ch04"}, {"md_atom_id": "md_ch04_a838", "md_file": "knowledge_base/chapters/ch04_general_assumptions.md", "md_atom_type": "LIST_ITEM", "md_parent_section": "§4.5.1.3 [Examples of Original and Standard Units and Test Not Done]", "md_verbatim": "- **Rows 3-4:** A character result was copied from LBORRES to LBSTRESC. Since this is not a numeric result, LBSTRESN is null.", "score": 0.3913, "match_basis": "verbatim_token+chapter_route:ch04"}, {"md_atom_id": "md_ch04_a666", "md_file": "knowledge_base/chapters/ch04_general_assumptions.md", "md_atom_type": "LIST_ITEM", "md_parent_section": "§4.4.7 [Use of Relative Timing Variables]", "md_verbatim": "- CMSTDTC is null", "score": 0.38, "match_basis": "verbatim_token+chapter_route:ch04"}, {"md_atom_id": "md_ch04_a667", "md_file": "knowledge_base/chapters/ch04_general_assumptions.md", "md_atom_type": "LIST_ITEM", "md_parent_section": "§4.4.7 [Use of Relative Timing Variables]", "md_verbatim": "- CMENDTC is null", "score": 0.38, "match_basis": "verbatim_token+chapter_route:ch04"}], "candidate_count": 5, "zero_candidate": false}
{"pdf_atom_id": "ig34_p0052_a029", "pdf_atom_type": "LIST_ITEM", "pdf_source": "SDTMIG_v3.4", "pdf_page": 52, "pdf_parent_section": "§4.5.1.2 [Tests Not Done]", "pdf_verbatim": "LBSTAT would be \"NOT DONE\"", "figure_ref": null, "candidates": [{"md_atom_id": "md_ch04_a826", "md_file": "knowledge_base/chapters/ch04_general_assumptions.md", "md_atom_type": "LIST_ITEM", "md_parent_section": "§4.5.1 [Original and Standardized Results]", "md_verbatim": "- --ORRES, --STRESC, --STRESN must all be null when --STAT = \"NOT DONE\"", "score": 0.425, "match_basis": "verbatim_token+chapter_route:ch04"}, {"md_atom_id": "md_ch04_a843", "md_file": "knowledge_base/chapters/ch04_general_assumptions.md", "md_atom_type": "LIST_ITEM", "md_parent_section": "§4.5.1.3 [Examples of Original and Standard Units and Test Not Done]", "md_verbatim": "- **Row 9:** Tests in the category \"HEMATOLOGY\" were not done at visit 3, as indicated by LBTESTCD = \"LBALL\" and LBSTAT = \"NOT DONE\".", "score": 0.3894, "match_basis": "verbatim_token+chapter_route:ch04"}, {"md_atom_id": "md_ch04_a844", "md_file": "knowledge_base/chapters/ch04_general_assumptions.md", "md_atom_type": "LIST_ITEM", "md_parent_section": "§4.5.1.3 [Examples of Original and Standard Units and Test Not Done]", "md_verbatim": "- **Row 10:** None of the tests in the LB domain were done at visit 4, as indicated by LBTESTCD = \"LBALL\", a null LBCAT value, and LBSTAT = \"NOT DONE\".", "score": 0.3894, "match_basis": "verbatim_token+chapter_route:ch04"}, {"md_atom_id": "md_ch04_a842", "md_file": "knowledge_base/chapters/ch04_general_assumptions.md", "md_atom_type": "LIST_ITEM", "md_parent_section": "§4.5.1.3 [Examples of Original and Standard Units and Test Not Done]", "md_verbatim": "- **Row 8:** A result for LBTEST = \"HCT\" is missing for visit 2, as indicated by LBSTAT = \"NOT DONE\"; neither LBORRES nor LBSTRESC is populated.", "score": 0.3778, "match_basis": "verbatim_token+chapter_route:ch04"}, {"md_atom_id": "md_ch04_a1023", "md_file": "knowledge_base/chapters/ch04_general_assumptions.md", "md_atom_type": "LIST_ITEM", "md_parent_section": "§4.5.8 [Accounting for Long-term Follow-up]", "md_verbatim": "2. The subject's survival status should be stored in the Subject Status (SS) domain.", "score": 0.3706, "match_basis": "verbatim_token+chapter_route:ch04"}], "candidate_count": 5, "zero_candidate": false}
{"pdf_atom_id": "ig34_p0052_a030", "pdf_atom_type": "CODE_LITERAL", "pdf_source": "SDTMIG_v3.4", "pdf_page": 52, "pdf_parent_section": "§4.5.1.2 [Tests Not Done]", "pdf_verbatim": "NOT DONE", "figure_ref": null, "candidates": [{"md_atom_id": "md_ch04_a886", "md_file": "knowledge_base/chapters/ch04_general_assumptions.md", "md_atom_type": "TABLE_ROW", "md_parent_section": "§4.5.1.3 [Examples of Original and Standard Units and Test Not Done]", "md_verbatim": "| 3 | HR | | | | | | NOT DONE | | 1 | 2016-07-18 |", "score": 0.45, "match_basis": "verbatim_token+chapter_route:ch04"}, {"md_atom_id": "md_ch04_a824", "md_file": "knowledge_base/chapters/ch04_general_assumptions.md", "md_atom_type": "SENTENCE", "md_parent_section": "§4.5.1 [Original and Standardized Results]", "md_verbatim": "**Tests Not Done (§4.5.1.2):**", "score": 0.39, "match_basis": "verbatim_token+chapter_route:ch04"}, {"md_atom_id": "md_ch04_a857", "md_file": "knowledge_base/chapters/ch04_general_assumptions.md", "md_atom_type": "TABLE_ROW", "md_parent_section": "§4.5.1.3 [Examples of Original and Standard Units and Test Not Done]", "md_verbatim": "| 10 | LBALL | | | | | | | NOT DONE | | 4 | 2016-02-22 |", "score": 0.315, "match_basis": "verbatim_token+chapter_route:ch04"}, {"md_atom_id": "md_ch04_a890", "md_file": "knowledge_base/chapters/ch04_general_assumptions.md", "md_atom_type": "TABLE_ROW", "md_parent_section": "§4.5.1.3 [Examples of Original and Standard Units and Test Not Done]", "md_verbatim": "| 7 | VSALL | | | | | | NOT DONE | | 2 | 2016-07-25 |", "score": 0.315, "match_basis": "verbatim_token+chapter_route:ch04"}, {"md_atom_id": "md_ch04_a855", "md_file": "knowledge_base/chapters/ch04_general_assumptions.md", "md_atom_type": "TABLE_ROW", "md_parent_section": "§4.5.1.3 [Examples of Original and Standard Units and Test Not Done]", "md_verbatim": "| 8 | HCT | HEMATOLOGY | | | | | | NOT DONE | | 2 | 2016-02-08 |", "score": 0.2186, "match_basis": "verbatim_token+chapter_route:ch04"}, {"md_atom_id": "md_ch04_a856", "md_file": "knowledge_base/chapters/ch04_general_assumptions.md", "md_atom_type": "TABLE_ROW", "md_parent_section": "§4.5.1.3 [Examples of Original and Standard Units and Test Not Done]", "md_verbatim": "| 9 | LBALL | HEMATOLOGY | | | | | | NOT DONE | | 3 | 2016-02-29 |", "score": 0.2025, "match_basis": "verbatim_token+chapter_route:ch04"}, {"md_atom_id": "md_ch04_a875", "md_file": "knowledge_base/chapters/ch04_general_assumptions.md", "md_atom_type": "TABLE_ROW", "md_parent_section": "§4.5.1.3 [Examples of Original and Standard Units and Test Not Done]", "md_verbatim": "| 7 | EGALL | ECG Test Results | | | | | | NOT DONE | 3 | 2015-03-21 |", "score": 0.2025, "match_basis": "verbatim_token+chapter_route:ch04"}, {"md_atom_id": "md_ch04_a826", "md_file": "knowledge_base/chapters/ch04_general_assumptions.md", "md_atom_type": "LIST_ITEM", "md_parent_section": "§4.5.1 [Original and Standardized Results]", "md_verbatim": "- --ORRES, --STRESC, --STRESN must all be null when --STAT = \"NOT DONE\"", "score": 0.1847, "match_basis": "verbatim_token+chapter_route:ch04"}, {"md_atom_id": "md_ch04_a874", "md_file": "knowledge_base/chapters/ch04_general_assumptions.md", "md_atom_type": "TABLE_ROW", "md_parent_section": "§4.5.1.3 [Examples of Original and Standard Units and Test Not Done]", "md_verbatim": "| 6 | PRAG | PR Interval, Aggregate | | | | | | NOT DONE | 2 | 2015-03-14 |", "score": 0.18, "match_basis": "verbatim_token+chapter_route:ch04"}, {"md_atom_id": "md_ch04_a1004", "md_file": "knowledge_base/chapters/ch04_general_assumptions.md", "md_atom_type": "TABLE_ROW", "md_parent_section": "§4.5.7 [Presence or Absence of Prespecified Interventions and Events]", "md_verbatim": "| Prespecified event has no response | Y | | NOT DONE |", "score": 0.1757, "match_basis": "verbatim_token+chapter_route:ch04"}], "candidate_count": 10, "zero_candidate": false}
{"pdf_atom_id": "ig34_p0052_a031", "pdf_atom_type": "LIST_ITEM", "pdf_source": "SDTMIG_v3.4", "pdf_page": 52, "pdf_parent_section": "§4.5.1.2 [Tests Not Done]", "pdf_verbatim": "LBREASND, if collected, might be \"Subject could not void\"", "figure_ref": null, "candidates": [{"md_atom_id": "md_ch04_a830", "md_file": "knowledge_base/chapters/ch04_general_assumptions.md", "md_atom_type": "LIST_ITEM", "md_parent_section": "§4.5.1 [Original and Standardized Results]", "md_verbatim": "- A single record can represent a group of tests not done: --TESTCD = \"--ALL\", --TEST = domain description, --CAT = name of group; for example, if urinalysis tests were not done: LBTESTCD = \"LBALL\", LBTEST = \"Laboratory Test Results\", LBCAT = \"URINALYSIS\", LBORRES = null, LBSTAT = \"NOT DONE\", LBREASND (if collected) = \"Subject could not void\"", "score": 0.4232, "match_basis": "verbatim_token+chapter_route:ch04"}, {"md_atom_id": "md_ch04_a825", "md_file": "knowledge_base/chapters/ch04_general_assumptions.md", "md_atom_type": "LIST_ITEM", "md_parent_section": "§4.5.1 [Original and Standardized Results]", "md_verbatim": "- When a test is not performed: --STAT = \"NOT DONE\", --REASND = reason (if explicitly collected; --REASND is populated only if a reason was explicitly collected except for QRS logically skipped items)", "score": 0.39, "match_basis": "verbatim_token+chapter_route:ch04"}, {"md_atom_id": "md_ch04_a1023", "md_file": "knowledge_base/chapters/ch04_general_assumptions.md", "md_atom_type": "LIST_ITEM", "md_parent_section": "§4.5.8 [Accounting for Long-term Follow-up]", "md_verbatim": "2. The subject's survival status should be stored in the Subject Status (SS) domain.", "score": 0.3894, "match_basis": "verbatim_token+chapter_route:ch04"}, {"md_atom_id": "md_ch04_a246", "md_file": "knowledge_base/chapters/ch04_general_assumptions.md", "md_atom_type": "LIST_ITEM", "md_parent_section": "§4.2.6 [Grouping Variables and Categorization]", "md_verbatim": "1. --CAT/--SCAT are known (identified) about the data before it is collected.", "score": 0.384, "match_basis": "verbatim_token+chapter_route:ch04"}, {"md_atom_id": "md_ch04_a819", "md_file": "knowledge_base/chapters/ch04_general_assumptions.md", "md_atom_type": "LIST_ITEM", "md_parent_section": "§4.5.1 [Original and Standardized Results]", "md_verbatim": "- --ORRES: always the originally collected/reported value", "score": 0.384, "match_basis": "verbatim_token+chapter_route:ch04"}], "candidate_count": 5, "zero_candidate": false}
{"pdf_atom_id": "ig34_p0052_a032", "pdf_atom_type": "HEADING", "pdf_source": "SDTMIG_v3.4", "pdf_page": 52, "pdf_parent_section": "§4.5.1.3 [Examples of Original and Standard Units and Test Not Done]", "pdf_verbatim": "4.5.1.3 Examples of Original and Standard Units and Test Not Done", "figure_ref": null, "candidates": [{"md_atom_id": "md_ch04_a831", "md_file": "knowledge_base/chapters/ch04_general_assumptions.md", "md_atom_type": "HEADING", "md_parent_section": "§4.5.1 [Original and Standardized Results]", "md_verbatim": "#### 4.5.1.3 Examples of Original and Standard Units and Test Not Done", "score": 0.9, "match_basis": "verbatim_token+chapter_route:ch04"}, {"md_atom_id": "md_ch04_a815", "md_file": "knowledge_base/chapters/ch04_general_assumptions.md", "md_atom_type": "HEADING", "md_parent_section": "§4.5 [Other Assumptions]", "md_verbatim": "### 4.5.1 Original and Standardized Results", "score": 0.5057, "match_basis": "verbatim_token+chapter_route:ch04"}, {"md_atom_id": "md_ch04_a069", "md_file": "knowledge_base/chapters/ch04_general_assumptions.md", "md_atom_type": "HEADING", "md_parent_section": "§4.1.7 [Splitting Domains]", "md_verbatim": "#### 4.1.7.1 Example of Splitting Questionnaires", "score": 0.3818, "match_basis": "verbatim_token+chapter_route:ch04"}, {"md_atom_id": "md_ch04_a124", "md_file": "knowledge_base/chapters/ch04_general_assumptions.md", "md_atom_type": "HEADING", "md_parent_section": "§4.1.8.1 [Origin Metadata for Variables]", "md_verbatim": "#### 4.1.8.1 Origin Metadata for Variables", "score": 0.3769, "match_basis": "verbatim_token+chapter_route:ch04"}, {"md_atom_id": "md_ch04_a123", "md_file": "knowledge_base/chapters/ch04_general_assumptions.md", "md_atom_type": "HEADING", "md_parent_section": "§4.1.8 [Origin Metadata]", "md_verbatim": "### 4.1.8 Origin Metadata", "score": 0.375, "match_basis": "verbatim_token+chapter_route:ch04"}], "candidate_count": 5, "zero_candidate": false}
{"pdf_atom_id": "ig34_p0052_a033", "pdf_atom_type": "SENTENCE", "pdf_source": "SDTMIG_v3.4", "pdf_page": 52, "pdf_parent_section": "§4.5.1.3 [Examples of Original and Standard Units and Test Not Done]", "pdf_verbatim": "The following examples are meant to illustrate the use of Findings results variables, and are not meant as comprehensive domain examples.", "figure_ref": null, "candidates": [{"md_atom_id": "md_ch04_a832", "md_file": "knowledge_base/chapters/ch04_general_assumptions.md", "md_atom_type": "SENTENCE", "md_parent_section": "§4.5.1.3 [Examples of Original and Standard Units and Test Not Done]", "md_verbatim": "The following examples illustrate the use of Findings results variables and are not meant as comprehensive domain examples.", "score": 0.9, "match_basis": "verbatim_token+chapter_route:ch04"}, {"md_atom_id": "md_ch04_a138", "md_file": "knowledge_base/chapters/ch04_general_assumptions.md", "md_atom_type": "SENTENCE", "md_parent_section": "§4.1.9 [Assigning Natural Keys in the Metadata]", "md_verbatim": "The following example illustrates how to do this, and include a case where a Supplemental Qualifier variable is referenced because it forms part of the natural key.", "score": 0.4554, "match_basis": "verbatim_token+chapter_route:ch04"}, {"md_atom_id": "md_ch04_a1015", "md_file": "knowledge_base/chapters/ch04_general_assumptions.md", "md_atom_type": "SENTENCE", "md_parent_section": "§4.5.8 [Accounting for Long-term Follow-up]", "md_verbatim": "The following example illustrates the recommended SDTM approach to storing these data.", "score": 0.4553, "match_basis": "verbatim_token+chapter_route:ch04"}, {"md_atom_id": "md_ch04_a155", "md_file": "knowledge_base/chapters/ch04_general_assumptions.md", "md_atom_type": "SENTENCE", "md_parent_section": "§4.1.9 [Assigning Natural Keys in the Metadata]", "md_verbatim": "This approach becomes very useful in a Findings domain when --TESTCD values are \"generic\" and rely on other variables to completely describe the test.", "score": 0.45, "match_basis": "verbatim_token+chapter_route:ch04"}, {"md_atom_id": "md_ch04_a255", "md_file": "knowledge_base/chapters/ch04_general_assumptions.md", "md_atom_type": "SENTENCE", "md_parent_section": "§4.2.6 [Grouping Variables and Categorization]", "md_verbatim": "In domains based on the Findings general observation class, the --RESCAT variable can be used to categorize results after the fact.", "score": 0.45, "match_basis": "verbatim_token+chapter_route:ch04"}], "candidate_count": 5, "zero_candidate": false}
{"pdf_atom_id": "ig34_p0052_a034", "pdf_atom_type": "SENTENCE", "pdf_source": "SDTMIG_v3.4", "pdf_page": 52, "pdf_parent_section": "§4.5.1.3 [Examples of Original and Standard Units and Test Not Done]", "pdf_verbatim": "Certain required and expected variables are omitted (e.g., USUBJID), and the samples may represent data for more than 1 subject.", "figure_ref": null, "candidates": [{"md_atom_id": "md_ch04_a833", "md_file": "knowledge_base/chapters/ch04_general_assumptions.md", "md_atom_type": "SENTENCE", "md_parent_section": "§4.5.1.3 [Examples of Original and Standard Units and Test Not Done]", "md_verbatim": "Certain required and expected variables are omitted (e.g., USUBJID), and the samples may represent data from more than 1 subject.", "score": 0.8695, "match_basis": "verbatim_token+chapter_route:ch04"}, {"md_atom_id": "md_ch04_a916", "md_file": "knowledge_base/chapters/ch04_general_assumptions.md", "md_atom_type": "SENTENCE", "md_parent_section": "§4.5.3.2 [Text Strings Greater than 200 Characters in Other Variables]", "md_verbatim": "**Example 1 (mh.xpt / suppmh.xpt):** MHTERM was longer than 200 characters and required 2 supplemental qualifier variables for the text that extended beyond what could be represented in the standard variable.", "score": 0.4565, "match_basis": "verbatim_token+chapter_route:ch04"}, {"md_atom_id": "md_ch04_a482", "md_file": "knowledge_base/chapters/ch04_general_assumptions.md", "md_atom_type": "SENTENCE", "md_parent_section": "§4.4.1 [Formats for Date/Time Variables]", "md_verbatim": "An SDTM DTC variable may include data that is represented in ISO 8601 format as a complete date/time, a partial date/time, or an incomplete date/time.", "score": 0.4465, "match_basis": "verbatim_token+chapter_route:ch04"}, {"md_atom_id": "md_ch04_a926", "md_file": "knowledge_base/chapters/ch04_general_assumptions.md", "md_atom_type": "SENTENCE", "md_parent_section": "§4.5.3.2 [Text Strings Greater than 200 Characters in Other Variables]", "md_verbatim": "**Example 2 (ae.xpt / suppae.xpt):** AEACNOTH was longer than 200 characters, but required only 1 supplemental qualifier for the text that extended beyond what could be represented in the standard variable.", "score": 0.4438, "match_basis": "verbatim_token+chapter_route:ch04"}, {"md_atom_id": "md_ch04_a996", "md_file": "knowledge_base/chapters/ch04_general_assumptions.md", "md_atom_type": "SENTENCE", "md_parent_section": "§4.5.7 [Presence or Absence of Prespecified Interventions and Events]", "md_verbatim": "It is a permissible variable and may be omitted from the dataset if no topic-variable values were prespecified.", "score": 0.4326, "match_basis": "verbatim_token+chapter_route:ch04"}], "candidate_count": 5, "zero_candidate": false}
{"pdf_atom_id": "ig34_p0052_a035", "pdf_atom_type": "HEADING", "pdf_source": "SDTMIG_v3.4", "pdf_page": 52, "pdf_parent_section": "§4.5.1.3 [Examples of Original and Standard Units and Test Not Done]", "pdf_verbatim": "Example 1", "figure_ref": null, "candidates": [{"md_atom_id": "md_ch04_a069", "md_file": "knowledge_base/chapters/ch04_general_assumptions.md", "md_atom_type": "HEADING", "md_parent_section": "§4.1.7 [Splitting Domains]", "md_verbatim": "#### 4.1.7.1 Example of Splitting Questionnaires", "score": 0.425, "match_basis": "verbatim_token+chapter_route:ch04"}, {"md_atom_id": "md_ch04_a831", "md_file": "knowledge_base/chapters/ch04_general_assumptions.md", "md_atom_type": "HEADING", "md_parent_section": "§4.5.1 [Original and Standardized Results]", "md_verbatim": "#### 4.5.1.3 Examples of Original and Standard Units and Test Not Done", "score": 0.4154, "match_basis": "verbatim_token+chapter_route:ch04"}, {"md_atom_id": "md_ch04_a007", "md_file": "knowledge_base/chapters/ch04_general_assumptions.md", "md_atom_type": "HEADING", "md_parent_section": "§4.1 [General Domain Assumptions]", "md_verbatim": "### 4.1.1 Review Study Data Tabulation Model and Implementation Guide", "score": 0.3333, "match_basis": "verbatim_token+chapter_route:ch04"}, {"md_atom_id": "md_ch04_a346", "md_file": "knowledge_base/chapters/ch04_general_assumptions.md", "md_atom_type": "HEADING", "md_parent_section": "§4.2 [General Variable Assumptions]", "md_verbatim": "### 4.2.8 Multiple Values for a Variable", "score": 0.3286, "match_basis": "verbatim_token+chapter_route:ch04"}, {"md_atom_id": "md_ch04_a400", "md_file": "knowledge_base/chapters/ch04_general_assumptions.md", "md_atom_type": "HEADING", "md_parent_section": "§4.2.8 [Multiple Values for a Variable]", "md_verbatim": "#### 4.2.8.4 Multiple Values for a Parameter", "score": 0.3273, "match_basis": "verbatim_token+chapter_route:ch04"}, {"md_atom_id": "md_ch04_a891", "md_file": "knowledge_base/chapters/ch04_general_assumptions.md", "md_atom_type": "HEADING", "md_parent_section": "§4.5 [Other Assumptions]", "md_verbatim": "### 4.5.2 Linking Multiple Observations", "score": 0.324, "match_basis": "verbatim_token+chapter_route:ch04"}, {"md_atom_id": "md_ch04_a975", "md_file": "knowledge_base/chapters/ch04_general_assumptions.md", "md_atom_type": "HEADING", "md_parent_section": "§4.5 [Other Assumptions]", "md_verbatim": "### 4.5.6 Supplemental Reason Variables", "score": 0.324, "match_basis": "verbatim_token+chapter_route:ch04"}, {"md_atom_id": "md_ch04_a352", "md_file": "knowledge_base/chapters/ch04_general_assumptions.md", "md_atom_type": "HEADING", "md_parent_section": "§4.2.8 [Multiple Values for a Variable]", "md_verbatim": "#### 4.2.8.2 Multiple Values for a Findings Result Variable", "score": 0.32, "match_basis": "verbatim_token+chapter_route:ch04"}, {"md_atom_id": "md_ch04_a359", "md_file": "knowledge_base/chapters/ch04_general_assumptions.md", "md_atom_type": "HEADING", "md_parent_section": "§4.2.8 [Multiple Values for a Variable]", "md_verbatim": "#### 4.2.8.3 Multiple Values for a Non-result Qualifier Variable", "score": 0.3187, "match_basis": "verbatim_token+chapter_route:ch04"}, {"md_atom_id": "md_ch04_a347", "md_file": "knowledge_base/chapters/ch04_general_assumptions.md", "md_atom_type": "HEADING", "md_parent_section": "§4.2.8 [Multiple Values for a Variable]", "md_verbatim": "#### 4.2.8.1 Multiple Values for an Intervention or Event Topic Variable", "score": 0.3171, "match_basis": "verbatim_token+chapter_route:ch04"}], "candidate_count": 10, "zero_candidate": false}
{"pdf_atom_id": "ig34_p0052_a036", "pdf_atom_type": "SENTENCE", "pdf_source": "SDTMIG_v3.4", "pdf_page": 52, "pdf_parent_section": "§4.5.1.3 [Examples of Original and Standard Units and Test Not Done]", "pdf_verbatim": "Row 1: A numeric value was converted to the standard unit.", "figure_ref": null, "candidates": [{"md_atom_id": "md_ch04_a836", "md_file": "knowledge_base/chapters/ch04_general_assumptions.md", "md_atom_type": "LIST_ITEM", "md_parent_section": "§4.5.1.3 [Examples of Original and Standard Units and Test Not Done]", "md_verbatim": "- **Row 1:** A numeric value was converted to the standard unit.", "score": 0.81, "match_basis": "verbatim_token+chapter_route:ch04"}, {"md_atom_id": "md_ch04_a878", "md_file": "knowledge_base/chapters/ch04_general_assumptions.md", "md_atom_type": "LIST_ITEM", "md_parent_section": "§4.5.1.3 [Examples of Original and Standard Units and Test Not Done]", "md_verbatim": "- **Rows 1-2:** Numeric values were converted to standard units.", "score": 0.6745, "match_basis": "verbatim_token+chapter_route:ch04"}, {"md_atom_id": "md_ch04_a863", "md_file": "knowledge_base/chapters/ch04_general_assumptions.md", "md_atom_type": "LIST_ITEM", "md_parent_section": "§4.5.1.3 [Examples of Original and Standard Units and Test Not Done]", "md_verbatim": "- **Rows 2-3:** Numeric results were converted to standard units.", "score": 0.57, "match_basis": "verbatim_token+chapter_route:ch04"}, {"md_atom_id": "md_ch04_a837", "md_file": "knowledge_base/chapters/ch04_general_assumptions.md", "md_atom_type": "LIST_ITEM", "md_parent_section": "§4.5.1.3 [Examples of Original and Standard Units and Test Not Done]", "md_verbatim": "- **Row 2:** A numeric value was copied; the original unit was the standard unit so conversion was not needed.", "score": 0.5167, "match_basis": "verbatim_token+chapter_route:ch04"}, {"md_atom_id": "md_ch04_a364", "md_file": "knowledge_base/chapters/ch04_general_assumptions.md", "md_atom_type": "SENTENCE", "md_parent_section": "§4.2.8.3 [Multiple Values for a Non-result Qualifier Variable]", "md_verbatim": "Likewise, the QLABEL value should be similar to the standard label.", "score": 0.4333, "match_basis": "verbatim_token+chapter_route:ch04"}], "candidate_count": 5, "zero_candidate": false}
{"pdf_atom_id": "ig34_p0052_a037", "pdf_atom_type": "SENTENCE", "pdf_source": "SDTMIG_v3.4", "pdf_page": 52, "pdf_parent_section": "§4.5.1.3 [Examples of Original and Standard Units and Test Not Done]", "pdf_verbatim": "Row 2: A numeric value was copied; the original unit was the standard unit so conversion was not needed.", "figure_ref": null, "candidates": [{"md_atom_id": "md_ch04_a837", "md_file": "knowledge_base/chapters/ch04_general_assumptions.md", "md_atom_type": "LIST_ITEM", "md_parent_section": "§4.5.1.3 [Examples of Original and Standard Units and Test Not Done]", "md_verbatim": "- **Row 2:** A numeric value was copied; the original unit was the standard unit so conversion was not needed.", "score": 0.81, "match_basis": "verbatim_token+chapter_route:ch04"}, {"md_atom_id": "md_ch04_a836", "md_file": "knowledge_base/chapters/ch04_general_assumptions.md", "md_atom_type": "LIST_ITEM", "md_parent_section": "§4.5.1.3 [Examples of Original and Standard Units and Test Not Done]", "md_verbatim": "- **Row 1:** A numeric value was converted to the standard unit.", "score": 0.5167, "match_basis": "verbatim_token+chapter_route:ch04"}, {"md_atom_id": "md_ch04_a878", "md_file": "knowledge_base/chapters/ch04_general_assumptions.md", "md_atom_type": "LIST_ITEM", "md_parent_section": "§4.5.1.3 [Examples of Original and Standard Units and Test Not Done]", "md_verbatim": "- **Rows 1-2:** Numeric values were converted to standard units.", "score": 0.462, "match_basis": "verbatim_token+chapter_route:ch04"}, {"md_atom_id": "md_ch04_a862", "md_file": "knowledge_base/chapters/ch04_general_assumptions.md", "md_atom_type": "LIST_ITEM", "md_parent_section": "§4.5.1.3 [Examples of Original and Standard Units and Test Not Done]", "md_verbatim": "- **Row 1:** A numeric value was collected in standard units. Because no conversion was necessary, the result was copied into EGSTRESC and EGSTRESN.", "score": 0.4614, "match_basis": "verbatim_token+chapter_route:ch04"}, {"md_atom_id": "md_ch04_a863", "md_file": "knowledge_base/chapters/ch04_general_assumptions.md", "md_atom_type": "LIST_ITEM", "md_parent_section": "§4.5.1.3 [Examples of Original and Standard Units and Test Not Done]", "md_verbatim": "- **Rows 2-3:** Numeric results were converted to standard units.", "score": 0.41, "match_basis": "verbatim_token+chapter_route:ch04"}], "candidate_count": 5, "zero_candidate": false}
{"pdf_atom_id": "ig34_p0052_a038", "pdf_atom_type": "SENTENCE", "pdf_source": "SDTMIG_v3.4", "pdf_page": 52, "pdf_parent_section": "§4.5.1.3 [Examples of Original and Standard Units and Test Not Done]", "pdf_verbatim": "Rows 3-4: A character result was copied from the LBORRES to LBSTRESC. Since this is not a numeric result, LBSTRESN is null.", "figure_ref": null, "candidates": [{"md_atom_id": "md_ch04_a838", "md_file": "knowledge_base/chapters/ch04_general_assumptions.md", "md_atom_type": "LIST_ITEM", "md_parent_section": "§4.5.1.3 [Examples of Original and Standard Units and Test Not Done]", "md_verbatim": "- **Rows 3-4:** A character result was copied from LBORRES to LBSTRESC. Since this is not a numeric result, LBSTRESN is null.", "score": 0.7964, "match_basis": "verbatim_token+chapter_route:ch04"}, {"md_atom_id": "md_ch04_a864", "md_file": "knowledge_base/chapters/ch04_general_assumptions.md", "md_atom_type": "LIST_ITEM", "md_parent_section": "§4.5.1.3 [Examples of Original and Standard Units and Test Not Done]", "md_verbatim": "- **Row 4:** Character values were copied to EGSTRESC. EGSTRESN is null.", "score": 0.4292, "match_basis": "verbatim_token+chapter_route:ch04"}, {"md_atom_id": "md_ch04_a408", "md_file": "knowledge_base/chapters/ch04_general_assumptions.md", "md_atom_type": "SENTENCE", "md_parent_section": "§4.2.9 [Variable Lengths]", "md_verbatim": "When variable length is referenced in the SDTMIG, this refers to the length in bytes of ASCII character strings.", "score": 0.3923, "match_basis": "verbatim_token+chapter_route:ch04"}, {"md_atom_id": "md_ch04_a821", "md_file": "knowledge_base/chapters/ch04_general_assumptions.md", "md_atom_type": "LIST_ITEM", "md_parent_section": "§4.5.1 [Original and Standardized Results]", "md_verbatim": "- --STRESN: numeric version of --STRESC (null when result is non-numeric)", "score": 0.3831, "match_basis": "verbatim_token+chapter_route:ch04"}, {"md_atom_id": "md_ch04_a496", "md_file": "knowledge_base/chapters/ch04_general_assumptions.md", "md_atom_type": "SENTENCE", "md_parent_section": "§4.4.1 [Formats for Date/Time Variables]", "md_verbatim": "Other characters defined for use within the ISO 8601 standard are:", "score": 0.3806, "match_basis": "verbatim_token+chapter_route:ch04"}], "candidate_count": 5, "zero_candidate": false}
{"pdf_atom_id": "ig34_p0052_a039", "pdf_atom_type": "SENTENCE", "pdf_source": "SDTMIG_v3.4", "pdf_page": 52, "pdf_parent_section": "§4.5.1.3 [Examples of Original and Standard Units and Test Not Done]", "pdf_verbatim": "Row 5: A character result was converted to a standardized format.", "figure_ref": null, "candidates": [{"md_atom_id": "md_ch04_a839", "md_file": "knowledge_base/chapters/ch04_general_assumptions.md", "md_atom_type": "LIST_ITEM", "md_parent_section": "§4.5.1.3 [Examples of Original and Standard Units and Test Not Done]", "md_verbatim": "- **Row 5:** A character result was converted to a standardized format.", "score": 0.81, "match_basis": "verbatim_token+chapter_route:ch04"}, {"md_atom_id": "md_ch04_a496", "md_file": "knowledge_base/chapters/ch04_general_assumptions.md", "md_atom_type": "SENTENCE", "md_parent_section": "§4.4.1 [Formats for Date/Time Variables]", "md_verbatim": "Other characters defined for use within the ISO 8601 standard are:", "score": 0.4615, "match_basis": "verbatim_token+chapter_route:ch04"}, {"md_atom_id": "md_ch04_a863", "md_file": "knowledge_base/chapters/ch04_general_assumptions.md", "md_atom_type": "LIST_ITEM", "md_parent_section": "§4.5.1.3 [Examples of Original and Standard Units and Test Not Done]", "md_verbatim": "- **Rows 2-3:** Numeric results were converted to standard units.", "score": 0.4448, "match_basis": "verbatim_token+chapter_route:ch04"}, {"md_atom_id": "md_ch04_a945", "md_file": "knowledge_base/chapters/ch04_general_assumptions.md", "md_atom_type": "SENTENCE", "md_parent_section": "§4.5.3.2 [Text Strings Greater than 200 Characters in Other Variables]", "md_verbatim": "**Domain-specific conventions for text > 200 characters:**", "score": 0.4222, "match_basis": "verbatim_token+chapter_route:ch04"}, {"md_atom_id": "md_ch04_a836", "md_file": "knowledge_base/chapters/ch04_general_assumptions.md", "md_atom_type": "LIST_ITEM", "md_parent_section": "§4.5.1.3 [Examples of Original and Standard Units and Test Not Done]", "md_verbatim": "- **Row 1:** A numeric value was converted to the standard unit.", "score": 0.41, "match_basis": "verbatim_token+chapter_route:ch04"}], "candidate_count": 5, "zero_candidate": false}
{"pdf_atom_id": "ig34_p0053_a001", "pdf_atom_type": "SENTENCE", "pdf_source": "SDTMIG_v3.4", "pdf_page": 53, "pdf_parent_section": "§4.5.1.3 [Examples of Original and Standard Units and Test Not Done]", "pdf_verbatim": "Row 6: A result of \"BLQ\" was collected and copied to LBSTRESC. Note that the sponsor populated both LBORRESU and LBSTRESU with standard units, but these could have been left null.", "figure_ref": null, "candidates": [{"md_atom_id": "md_ch04_a840", "md_file": "knowledge_base/chapters/ch04_general_assumptions.md", "md_atom_type": "LIST_ITEM", "md_parent_section": "§4.5.1.3 [Examples of Original and Standard Units and Test Not Done]", "md_verbatim": "- **Row 6:** A result of \"BLQ\" was collected and copied to LBSTRESC. Note that the sponsor populated both LBORRESU and LBSTRESU with standard units, but these could have been left null.", "score": 0.81, "match_basis": "verbatim_token+chapter_route:ch04"}, {"md_atom_id": "md_ch04_a846", "md_file": "knowledge_base/chapters/ch04_general_assumptions.md", "md_atom_type": "LIST_ITEM", "md_parent_section": "§4.5.1.3 [Examples of Original and Standard Units and Test Not Done]", "md_verbatim": "- **Row 12:** Shows a result collected as an inequality. In LBSTRESC, the numeric part of LBORRES has been converted to the standard unit, and the less than (<) sign has been retained. LBSTRESN is not populated.", "score": 0.4364, "match_basis": "verbatim_token+chapter_route:ch04"}, {"md_atom_id": "md_ch04_a389", "md_file": "knowledge_base/chapters/ch04_general_assumptions.md", "md_atom_type": "SENTENCE", "md_parent_section": "§4.2.8.3 [Multiple Values for a Non-result Qualifier Variable]", "md_verbatim": "If the sponsor has clearly documented that one response is of primary interest (e.g., in the CRF, protocol, or analysis plan), the standard domain variable may be populated with the primary response and SUPP-- may be used to store the secondary response(s).", "score": 0.4145, "match_basis": "verbatim_token+chapter_route:ch04"}, {"md_atom_id": "md_ch04_a468", "md_file": "knowledge_base/chapters/ch04_general_assumptions.md", "md_atom_type": "SENTENCE", "md_parent_section": "§4.3.7 [Use of \"Yes\" and \"No\" Values]", "md_verbatim": "Variables where the response is \"Yes\" or \"No\" (\"Y\" or \"N\") should normally be populated for both \"Y\" and \"N\" responses.", "score": 0.4097, "match_basis": "verbatim_token+chapter_route:ch04"}, {"md_atom_id": "md_ch04_a845", "md_file": "knowledge_base/chapters/ch04_general_assumptions.md", "md_atom_type": "LIST_ITEM", "md_parent_section": "§4.5.1.3 [Examples of Original and Standard Units and Test Not Done]", "md_verbatim": "- **Row 11:** Shows a result collected as an inequality. The unit collected was the standard unit, so the result required no conversion and was copied to LBSTRESC.", "score": 0.4079, "match_basis": "verbatim_token+chapter_route:ch04"}], "candidate_count": 5, "zero_candidate": false}
{"pdf_atom_id": "ig34_p0053_a002", "pdf_atom_type": "SENTENCE", "pdf_source": "SDTMIG_v3.4", "pdf_page": 53, "pdf_parent_section": "§4.5.1.3 [Examples of Original and Standard Units and Test Not Done]", "pdf_verbatim": "Row 7: A result was derived from multiple results, so LBDRVFL = \"Y\". Note that the original collected data are not shown in this example.", "figure_ref": null, "candidates": [{"md_atom_id": "md_ch04_a841", "md_file": "knowledge_base/chapters/ch04_general_assumptions.md", "md_atom_type": "LIST_ITEM", "md_parent_section": "§4.5.1.3 [Examples of Original and Standard Units and Test Not Done]", "md_verbatim": "- **Row 7:** A result was derived from multiple results, so LBDRVFL = \"Y\". Note that the original collected data are not shown in this example.", "score": 0.81, "match_basis": "verbatim_token+chapter_route:ch04"}, {"md_atom_id": "md_ch04_a127", "md_file": "knowledge_base/chapters/ch04_general_assumptions.md", "md_atom_type": "SENTENCE", "md_parent_section": "§4.1.8.1 [Origin Metadata for Variables]", "md_verbatim": "For example, data could be collected (on the CRF, from a vendor, or from a device), derived, or assigned; CRF data should be traceable to an annotated CRF and derived data should be traceable to some derivation algorithm.", "score": 0.45, "match_basis": "verbatim_token+chapter_route:ch04"}, {"md_atom_id": "md_ch04_a133", "md_file": "knowledge_base/chapters/ch04_general_assumptions.md", "md_atom_type": "SENTENCE", "md_parent_section": "§4.1.8.2 [Origin Metadata for Records]", "md_verbatim": "For example, some records in a Findings dataset such as Questionnaires (QS) contain values collected from the CRF; other records may contain derived values, such as a total score.", "score": 0.4366, "match_basis": "verbatim_token+chapter_route:ch04"}, {"md_atom_id": "md_ch04_a131", "md_file": "knowledge_base/chapters/ch04_general_assumptions.md", "md_atom_type": "SENTENCE", "md_parent_section": "§4.1.8.2 [Origin Metadata for Records]", "md_verbatim": "Sponsors are cautioned to recognize that a derived origin means that all values for that variable were derived, and that collected on the CRF applies to all values as well.", "score": 0.42, "match_basis": "verbatim_token+chapter_route:ch04"}, {"md_atom_id": "md_ch04_a134", "md_file": "knowledge_base/chapters/ch04_general_assumptions.md", "md_atom_type": "SENTENCE", "md_parent_section": "§4.1.8.2 [Origin Metadata for Records]", "md_verbatim": "When both derived and collected values are reported in a variable, the origin is to be described using value-level metadata in the Define-XML document.", "score": 0.4176, "match_basis": "verbatim_token+chapter_route:ch04"}], "candidate_count": 5, "zero_candidate": false}
{"pdf_atom_id": "ig34_p0053_a003", "pdf_atom_type": "SENTENCE", "pdf_source": "SDTMIG_v3.4", "pdf_page": 53, "pdf_parent_section": "§4.5.1.3 [Examples of Original and Standard Units and Test Not Done]", "pdf_verbatim": "Row 8: A result for LBTEST = \"HCT\" is missing for visit 2, as indicated by LBSTAT = \"NOT DONE\"; neither LBORRES nor LBSTRESC is populated.", "figure_ref": null, "candidates": [{"md_atom_id": "md_ch04_a842", "md_file": "knowledge_base/chapters/ch04_general_assumptions.md", "md_atom_type": "LIST_ITEM", "md_parent_section": "§4.5.1.3 [Examples of Original and Standard Units and Test Not Done]", "md_verbatim": "- **Row 8:** A result for LBTEST = \"HCT\" is missing for visit 2, as indicated by LBSTAT = \"NOT DONE\"; neither LBORRES nor LBSTRESC is populated.", "score": 0.81, "match_basis": "verbatim_token+chapter_route:ch04"}, {"md_atom_id": "md_ch04_a866", "md_file": "knowledge_base/chapters/ch04_general_assumptions.md", "md_atom_type": "LIST_ITEM", "md_parent_section": "§4.5.1.3 [Examples of Original and Standard Units and Test Not Done]", "md_verbatim": "- **Row 6:** The result for EGTESTCD = \"PRAG\" was missing at visit 2, as indicated by EGSTAT = \"NOT DONE\"; neither EGORRES nor EGSTRESC is populated.", "score": 0.6358, "match_basis": "verbatim_token+chapter_route:ch04"}, {"md_atom_id": "md_ch04_a879", "md_file": "knowledge_base/chapters/ch04_general_assumptions.md", "md_atom_type": "LIST_ITEM", "md_parent_section": "§4.5.1.3 [Examples of Original and Standard Units and Test Not Done]", "md_verbatim": "- **Row 3:** A result for VSTESTCD = \"HR\" is missing, as indicated by VSSTAT = \"NOT DONE\"; neither VSORRES nor VSSTRESC is populated.", "score": 0.6269, "match_basis": "verbatim_token+chapter_route:ch04"}, {"md_atom_id": "md_ch04_a867", "md_file": "knowledge_base/chapters/ch04_general_assumptions.md", "md_atom_type": "LIST_ITEM", "md_parent_section": "§4.5.1.3 [Examples of Original and Standard Units and Test Not Done]", "md_verbatim": "- **Row 7:** At visit 3, there were no ECG results, as indicated by EGTESTCD = \"EGALL\" and EGSTAT = \"NOT DONE\".", "score": 0.4315, "match_basis": "verbatim_token+chapter_route:ch04"}, {"md_atom_id": "md_ch04_a882", "md_file": "knowledge_base/chapters/ch04_general_assumptions.md", "md_atom_type": "LIST_ITEM", "md_parent_section": "§4.5.1.3 [Examples of Original and Standard Units and Test Not Done]", "md_verbatim": "- **Row 7:** At visit 2, there were no Vital Signs results, as indicated by VSTESTCD = \"VSALL\" and VSSTAT = \"NOT DONE\".", "score": 0.4157, "match_basis": "verbatim_token+chapter_route:ch04"}], "candidate_count": 5, "zero_candidate": false}
{"pdf_atom_id": "ig34_p0053_a004", "pdf_atom_type": "SENTENCE", "pdf_source": "SDTMIG_v3.4", "pdf_page": 53, "pdf_parent_section": "§4.5.1.3 [Examples of Original and Standard Units and Test Not Done]", "pdf_verbatim": "Row 9: Tests in the category \"HEMATOLOGY\" were not done at visit 3, as indicated by LBTESTCD = \"LBALL\" and LBSTAT = \"NOT DONE\".", "figure_ref": null, "candidates": [{"md_atom_id": "md_ch04_a843", "md_file": "knowledge_base/chapters/ch04_general_assumptions.md", "md_atom_type": "LIST_ITEM", "md_parent_section": "§4.5.1.3 [Examples of Original and Standard Units and Test Not Done]", "md_verbatim": "- **Row 9:** Tests in the category \"HEMATOLOGY\" were not done at visit 3, as indicated by LBTESTCD = \"LBALL\" and LBSTAT = \"NOT DONE\".", "score": 0.81, "match_basis": "verbatim_token+chapter_route:ch04"}, {"md_atom_id": "md_ch04_a844", "md_file": "knowledge_base/chapters/ch04_general_assumptions.md", "md_atom_type": "LIST_ITEM", "md_parent_section": "§4.5.1.3 [Examples of Original and Standard Units and Test Not Done]", "md_verbatim": "- **Row 10:** None of the tests in the LB domain were done at visit 4, as indicated by LBTESTCD = \"LBALL\", a null LBCAT value, and LBSTAT = \"NOT DONE\".", "score": 0.5529, "match_basis": "verbatim_token+chapter_route:ch04"}, {"md_atom_id": "md_ch04_a867", "md_file": "knowledge_base/chapters/ch04_general_assumptions.md", "md_atom_type": "LIST_ITEM", "md_parent_section": "§4.5.1.3 [Examples of Original and Standard Units and Test Not Done]", "md_verbatim": "- **Row 7:** At visit 3, there were no ECG results, as indicated by EGTESTCD = \"EGALL\" and EGSTAT = \"NOT DONE\".", "score": 0.4732, "match_basis": "verbatim_token+chapter_route:ch04"}, {"md_atom_id": "md_ch04_a882", "md_file": "knowledge_base/chapters/ch04_general_assumptions.md", "md_atom_type": "LIST_ITEM", "md_parent_section": "§4.5.1.3 [Examples of Original and Standard Units and Test Not Done]", "md_verbatim": "- **Row 7:** At visit 2, there were no Vital Signs results, as indicated by VSTESTCD = \"VSALL\" and VSSTAT = \"NOT DONE\".", "score": 0.4519, "match_basis": "verbatim_token+chapter_route:ch04"}, {"md_atom_id": "md_ch04_a842", "md_file": "knowledge_base/chapters/ch04_general_assumptions.md", "md_atom_type": "LIST_ITEM", "md_parent_section": "§4.5.1.3 [Examples of Original and Standard Units and Test Not Done]", "md_verbatim": "- **Row 8:** A result for LBTEST = \"HCT\" is missing for visit 2, as indicated by LBSTAT = \"NOT DONE\"; neither LBORRES nor LBSTRESC is populated.", "score": 0.4017, "match_basis": "verbatim_token+chapter_route:ch04"}], "candidate_count": 5, "zero_candidate": false}
{"pdf_atom_id": "ig34_p0053_a005", "pdf_atom_type": "SENTENCE", "pdf_source": "SDTMIG_v3.4", "pdf_page": 53, "pdf_parent_section": "§4.5.1.3 [Examples of Original and Standard Units and Test Not Done]", "pdf_verbatim": "Row 10: None of the tests in the LB domain were done at visit 4, as indicated by LBTESTCD = \"LBALL\", a null LBCAT value, and LBSTAT = \"NOT DONE\".", "figure_ref": null, "candidates": [{"md_atom_id": "md_ch04_a844", "md_file": "knowledge_base/chapters/ch04_general_assumptions.md", "md_atom_type": "LIST_ITEM", "md_parent_section": "§4.5.1.3 [Examples of Original and Standard Units and Test Not Done]", "md_verbatim": "- **Row 10:** None of the tests in the LB domain were done at visit 4, as indicated by LBTESTCD = \"LBALL\", a null LBCAT value, and LBSTAT = \"NOT DONE\".", "score": 0.81, "match_basis": "verbatim_token+chapter_route:ch04"}, {"md_atom_id": "md_ch04_a843", "md_file": "knowledge_base/chapters/ch04_general_assumptions.md", "md_atom_type": "LIST_ITEM", "md_parent_section": "§4.5.1.3 [Examples of Original and Standard Units and Test Not Done]", "md_verbatim": "- **Row 9:** Tests in the category \"HEMATOLOGY\" were not done at visit 3, as indicated by LBTESTCD = \"LBALL\" and LBSTAT = \"NOT DONE\".", "score": 0.5529, "match_basis": "verbatim_token+chapter_route:ch04"}, {"md_atom_id": "md_ch04_a867", "md_file": "knowledge_base/chapters/ch04_general_assumptions.md", "md_atom_type": "LIST_ITEM", "md_parent_section": "§4.5.1.3 [Examples of Original and Standard Units and Test Not Done]", "md_verbatim": "- **Row 7:** At visit 3, there were no ECG results, as indicated by EGTESTCD = \"EGALL\" and EGSTAT = \"NOT DONE\".", "score": 0.4732, "match_basis": "verbatim_token+chapter_route:ch04"}, {"md_atom_id": "md_ch04_a882", "md_file": "knowledge_base/chapters/ch04_general_assumptions.md", "md_atom_type": "LIST_ITEM", "md_parent_section": "§4.5.1.3 [Examples of Original and Standard Units and Test Not Done]", "md_verbatim": "- **Row 7:** At visit 2, there were no Vital Signs results, as indicated by VSTESTCD = \"VSALL\" and VSSTAT = \"NOT DONE\".", "score": 0.4519, "match_basis": "verbatim_token+chapter_route:ch04"}, {"md_atom_id": "md_ch04_a234", "md_file": "knowledge_base/chapters/ch04_general_assumptions.md", "md_atom_type": "SENTENCE", "md_parent_section": "§4.2.6 [Grouping Variables and Categorization]", "md_verbatim": "      In such cases, the data collected during the stress tests recorded in 3 separate domains may all have --CAT/--SCAT values (STRESS TEST) that identify that data were collected during the stress test.", "score": 0.4133, "match_basis": "verbatim_token+chapter_route:ch04"}], "candidate_count": 5, "zero_candidate": false}
{"pdf_atom_id": "ig34_p0053_a006", "pdf_atom_type": "SENTENCE", "pdf_source": "SDTMIG_v3.4", "pdf_page": 53, "pdf_parent_section": "§4.5.1.3 [Examples of Original and Standard Units and Test Not Done]", "pdf_verbatim": "Row 11: Shows a result collected as an inequality. The unit collected was the standard unit, so the result required no conversion and was copied to LBSTRESC.", "figure_ref": null, "candidates": [{"md_atom_id": "md_ch04_a845", "md_file": "knowledge_base/chapters/ch04_general_assumptions.md", "md_atom_type": "LIST_ITEM", "md_parent_section": "§4.5.1.3 [Examples of Original and Standard Units and Test Not Done]", "md_verbatim": "- **Row 11:** Shows a result collected as an inequality. The unit collected was the standard unit, so the result required no conversion and was copied to LBSTRESC.", "score": 0.81, "match_basis": "verbatim_token+chapter_route:ch04"}, {"md_atom_id": "md_ch04_a862", "md_file": "knowledge_base/chapters/ch04_general_assumptions.md", "md_atom_type": "LIST_ITEM", "md_parent_section": "§4.5.1.3 [Examples of Original and Standard Units and Test Not Done]", "md_verbatim": "- **Row 1:** A numeric value was collected in standard units. Because no conversion was necessary, the result was copied into EGSTRESC and EGSTRESN.", "score": 0.4841, "match_basis": "verbatim_token+chapter_route:ch04"}, {"md_atom_id": "md_ch04_a846", "md_file": "knowledge_base/chapters/ch04_general_assumptions.md", "md_atom_type": "LIST_ITEM", "md_parent_section": "§4.5.1.3 [Examples of Original and Standard Units and Test Not Done]", "md_verbatim": "- **Row 12:** Shows a result collected as an inequality. In LBSTRESC, the numeric part of LBORRES has been converted to the standard unit, and the less than (<) sign has been retained. LBSTRESN is not populated.", "score": 0.4833, "match_basis": "verbatim_token+chapter_route:ch04"}, {"md_atom_id": "md_ch04_a262", "md_file": "knowledge_base/chapters/ch04_general_assumptions.md", "md_atom_type": "SENTENCE", "md_parent_section": "§4.2.7.1 [\"Specify\" Values for Non-Result Qualifier Variables]", "md_verbatim": "When free-text information is collected to supplement a standard non-result qualifier field, the free-text value should be placed in the SUPP-- dataset described in Section 8.4, Relating Non-standard Variable Values to a Parent Domain.", "score": 0.4143, "match_basis": "verbatim_token+chapter_route:ch04"}, {"md_atom_id": "md_ch04_a840", "md_file": "knowledge_base/chapters/ch04_general_assumptions.md", "md_atom_type": "LIST_ITEM", "md_parent_section": "§4.5.1.3 [Examples of Original and Standard Units and Test Not Done]", "md_verbatim": "- **Row 6:** A result of \"BLQ\" was collected and copied to LBSTRESC. Note that the sponsor populated both LBORRESU and LBSTRESU with standard units, but these could have been left null.", "score": 0.4079, "match_basis": "verbatim_token+chapter_route:ch04"}], "candidate_count": 5, "zero_candidate": false}
{"pdf_atom_id": "ig34_p0053_a007", "pdf_atom_type": "SENTENCE", "pdf_source": "SDTMIG_v3.4", "pdf_page": 53, "pdf_parent_section": "§4.5.1.3 [Examples of Original and Standard Units and Test Not Done]", "pdf_verbatim": "Row 12: Shows a result collected as an inequality. In LBSTRESC, the numeric part of LBORRES has been converted to the standard unit, and the less than (<) sign has been retained. LBSTRESN is not populated.", "figure_ref": null, "candidates": [{"md_atom_id": "md_ch04_a846", "md_file": "knowledge_base/chapters/ch04_general_assumptions.md", "md_atom_type": "LIST_ITEM", "md_parent_section": "§4.5.1.3 [Examples of Original and Standard Units and Test Not Done]", "md_verbatim": "- **Row 12:** Shows a result collected as an inequality. In LBSTRESC, the numeric part of LBORRES has been converted to the standard unit, and the less than (<) sign has been retained. LBSTRESN is not populated.", "score": 0.81, "match_basis": "verbatim_token+chapter_route:ch04"}, {"md_atom_id": "md_ch04_a845", "md_file": "knowledge_base/chapters/ch04_general_assumptions.md", "md_atom_type": "LIST_ITEM", "md_parent_section": "§4.5.1.3 [Examples of Original and Standard Units and Test Not Done]", "md_verbatim": "- **Row 11:** Shows a result collected as an inequality. The unit collected was the standard unit, so the result required no conversion and was copied to LBSTRESC.", "score": 0.4833, "match_basis": "verbatim_token+chapter_route:ch04"}, {"md_atom_id": "md_ch04_a840", "md_file": "knowledge_base/chapters/ch04_general_assumptions.md", "md_atom_type": "LIST_ITEM", "md_parent_section": "§4.5.1.3 [Examples of Original and Standard Units and Test Not Done]", "md_verbatim": "- **Row 6:** A result of \"BLQ\" was collected and copied to LBSTRESC. Note that the sponsor populated both LBORRESU and LBSTRESU with standard units, but these could have been left null.", "score": 0.4364, "match_basis": "verbatim_token+chapter_route:ch04"}, {"md_atom_id": "md_ch04_a862", "md_file": "knowledge_base/chapters/ch04_general_assumptions.md", "md_atom_type": "LIST_ITEM", "md_parent_section": "§4.5.1.3 [Examples of Original and Standard Units and Test Not Done]", "md_verbatim": "- **Row 1:** A numeric value was collected in standard units. Because no conversion was necessary, the result was copied into EGSTRESC and EGSTRESN.", "score": 0.4119, "match_basis": "verbatim_token+chapter_route:ch04"}, {"md_atom_id": "md_ch04_a262", "md_file": "knowledge_base/chapters/ch04_general_assumptions.md", "md_atom_type": "SENTENCE", "md_parent_section": "§4.2.7.1 [\"Specify\" Values for Non-Result Qualifier Variables]", "md_verbatim": "When free-text information is collected to supplement a standard non-result qualifier field, the free-text value should be placed in the SUPP-- dataset described in Section 8.4, Relating Non-standard Variable Values to a Parent Domain.", "score": 0.4076, "match_basis": "verbatim_token+chapter_route:ch04"}], "candidate_count": 5, "zero_candidate": false}
{"pdf_atom_id": "ig34_p0053_a008", "pdf_atom_type": "CODE_LITERAL", "pdf_source": "SDTMIG_v3.4", "pdf_page": 53, "pdf_parent_section": "§4.5.1.3 [Examples of Original and Standard Units and Test Not Done]", "pdf_verbatim": "lb.xpt", "figure_ref": null, "candidates": [{"md_atom_id": "md_ch04_a207", "md_file": "knowledge_base/chapters/ch04_general_assumptions.md", "md_atom_type": "CODE_LITERAL", "md_parent_section": "§4.2.3 [Use of \"Subject\" and USUBJID]", "md_verbatim": "dm.xpt:", "score": 0.69, "match_basis": "verbatim_token+chapter_route:ch04"}, {"md_atom_id": "md_ch04_a210", "md_file": "knowledge_base/chapters/ch04_general_assumptions.md", "md_atom_type": "CODE_LITERAL", "md_parent_section": "§4.2.3 [Use of \"Subject\" and USUBJID]", "md_verbatim": "dm.xpt:", "score": 0.69, "match_basis": "verbatim_token+chapter_route:ch04"}, {"md_atom_id": "md_ch04_a368", "md_file": "knowledge_base/chapters/ch04_general_assumptions.md", "md_atom_type": "CODE_LITERAL", "md_parent_section": "§4.2.8.3 [Multiple Values for a Non-result Qualifier Variable]", "md_verbatim": "ae.xpt:", "score": 0.69, "match_basis": "verbatim_token+chapter_route:ch04"}, {"md_atom_id": "md_ch04_a378", "md_file": "knowledge_base/chapters/ch04_general_assumptions.md", "md_atom_type": "CODE_LITERAL", "md_parent_section": "§4.2.8.3 [Multiple Values for a Non-result Qualifier Variable]", "md_verbatim": "ae.xpt:", "score": 0.69, "match_basis": "verbatim_token+chapter_route:ch04"}, {"md_atom_id": "md_ch04_a391", "md_file": "knowledge_base/chapters/ch04_general_assumptions.md", "md_atom_type": "CODE_LITERAL", "md_parent_section": "§4.2.8.3 [Multiple Values for a Non-result Qualifier Variable]", "md_verbatim": "ae.xpt:", "score": 0.69, "match_basis": "verbatim_token+chapter_route:ch04"}, {"md_atom_id": "md_ch04_a835", "md_file": "knowledge_base/chapters/ch04_general_assumptions.md", "md_atom_type": "CODE_LITERAL", "md_parent_section": "§4.5.1.3 [Examples of Original and Standard Units and Test Not Done]", "md_verbatim": "lb.xpt", "score": 0.69, "match_basis": "verbatim_token+chapter_route:ch04"}, {"md_atom_id": "md_ch04_a861", "md_file": "knowledge_base/chapters/ch04_general_assumptions.md", "md_atom_type": "CODE_LITERAL", "md_parent_section": "§4.5.1.3 [Examples of Original and Standard Units and Test Not Done]", "md_verbatim": "eg.xpt", "score": 0.69, "match_basis": "verbatim_token+chapter_route:ch04"}, {"md_atom_id": "md_ch04_a877", "md_file": "knowledge_base/chapters/ch04_general_assumptions.md", "md_atom_type": "CODE_LITERAL", "md_parent_section": "§4.5.1.3 [Examples of Original and Standard Units and Test Not Done]", "md_verbatim": "vs.xpt", "score": 0.69, "match_basis": "verbatim_token+chapter_route:ch04"}, {"md_atom_id": "md_ch04_a917", "md_file": "knowledge_base/chapters/ch04_general_assumptions.md", "md_atom_type": "CODE_LITERAL", "md_parent_section": "§4.5.3.2 [Text Strings Greater than 200 Characters in Other Variables]", "md_verbatim": "mh.xpt", "score": 0.69, "match_basis": "verbatim_token+chapter_route:ch04"}, {"md_atom_id": "md_ch04_a919", "md_file": "knowledge_base/chapters/ch04_general_assumptions.md", "md_atom_type": "SENTENCE", "md_parent_section": "§4.5.3.2 [Text Strings Greater than 200 Characters in Other Variables]", "md_verbatim": "mh.xpt:", "score": 0.69, "match_basis": "verbatim_token+chapter_route:ch04"}], "candidate_count": 10, "zero_candidate": false}
{"pdf_atom_id": "ig34_p0053_a009", "pdf_atom_type": "TABLE_HEADER", "pdf_source": "SDTMIG_v3.4", "pdf_page": 53, "pdf_parent_section": "§4.5.1.3 [Examples of Original and Standard Units and Test Not Done]", "pdf_verbatim": "Row | LBTESTCD | LBCAT | LBORRES | LBORRESU | LBSTRESC | LBSTRESN | LBSTRESU | LBSTAT | LBLOBXFL | VISITNUM | LBDTC", "figure_ref": null, "candidates": [{"md_atom_id": "md_ch04_a847", "md_file": "knowledge_base/chapters/ch04_general_assumptions.md", "md_atom_type": "TABLE_HEADER", "md_parent_section": "§4.5.1.3 [Examples of Original and Standard Units and Test Not Done]", "md_verbatim": "| Row | LBTESTCD | LBCAT | LBORRES | LBORRESU | LBSTRESC | LBSTRESN | LBSTRESU | LBSTAT | LBLOBXFL | VISITNUM | LBDTC |\n|-----|----------|-------|---------|----------|----------|----------|----------|--------|----------|----------|-------|", "score": 0.9, "match_basis": "verbatim_token+chapter_route:ch04"}, {"md_atom_id": "md_ch04_a868", "md_file": "knowledge_base/chapters/ch04_general_assumptions.md", "md_atom_type": "TABLE_HEADER", "md_parent_section": "§4.5.1.3 [Examples of Original and Standard Units and Test Not Done]", "md_verbatim": "| Row | EGTESTCD | EGTEST | EGORRES | EGORRESU | EGSTRESC | EGSTRESN | EGSTRESU | EGSTAT | VISITNUM | EGDTC |\n|-----|----------|--------|---------|----------|----------|----------|----------|--------|----------|-------|", "score": 0.5809, "match_basis": "verbatim_token+chapter_route:ch04"}, {"md_atom_id": "md_ch04_a883", "md_file": "knowledge_base/chapters/ch04_general_assumptions.md", "md_atom_type": "TABLE_HEADER", "md_parent_section": "§4.5.1.3 [Examples of Original and Standard Units and Test Not Done]", "md_verbatim": "| Row | VSTESTCD | VSORRES | VSORRESU | VSSTRESC | VSSTRESN | VSSTRESU | VSSTAT | VSDRVFL | VISITNUM | VSDTC |\n|-----|----------|---------|----------|----------|----------|----------|--------|---------|----------|-------|", "score": 0.5588, "match_basis": "verbatim_token+chapter_route:ch04"}, {"md_atom_id": "md_ch04_a091", "md_file": "knowledge_base/chapters/ch04_general_assumptions.md", "md_atom_type": "TABLE_HEADER", "md_parent_section": "§4.1.7.1 [Example of Splitting Questionnaires]", "md_verbatim": "| Row | STUDYID | DOMAIN | USUBJID | QSSEQ | QSTESTCD | QSTEST | QSCAT | QSORRES | QSSTRESC | QSSTRESN | QSLOBXFL | VISITNUM | QSDTC | QSDY |", "score": 0.5118, "match_basis": "verbatim_token+chapter_route:ch04"}, {"md_atom_id": "md_ch04_a074", "md_file": "knowledge_base/chapters/ch04_general_assumptions.md", "md_atom_type": "TABLE_HEADER", "md_parent_section": "§4.1.7.1 [Example of Splitting Questionnaires]", "md_verbatim": "| Row | STUDYID | DOMAIN | USUBJID | QSSEQ | QSTESTCD | QSTEST | QSCAT | QSORRES | QSSTRESC | QSSTRESN | QSLOBXFL | VISITNUM | VISIT | VISITDY | QSDTC | QSDY |\n|-----|---------|--------|---------|-------|----------|--------|-------|---------|----------|----------|----------|----------|-------|---------|-------|------|", "score": 0.5057, "match_basis": "verbatim_token+chapter_route:ch04"}], "candidate_count": 5, "zero_candidate": false}
{"pdf_atom_id": "ig34_p0053_a010", "pdf_atom_type": "TABLE_ROW", "pdf_source": "SDTMIG_v3.4", "pdf_page": 53, "pdf_parent_section": "§4.5.1.3 [Examples of Original and Standard Units and Test Not Done]", "pdf_verbatim": "1 | GLUC | CHEMISTRY | 6.0 | mg/dL | 60.0 | 60.0 | mg/L | | | 1 | 2016-02-01", "figure_ref": null, "candidates": [{"md_atom_id": "md_ch04_a848", "md_file": "knowledge_base/chapters/ch04_general_assumptions.md", "md_atom_type": "TABLE_ROW", "md_parent_section": "§4.5.1.3 [Examples of Original and Standard Units and Test Not Done]", "md_verbatim": "| 1 | GLUC | CHEMISTRY | 6.0 | mg/dL | 60.0 | 60.0 | mg/L | | | 1 | 2016-02-01 |", "score": 0.9, "match_basis": "verbatim_token+chapter_route:ch04"}, {"md_atom_id": "md_ch04_a849", "md_file": "knowledge_base/chapters/ch04_general_assumptions.md", "md_atom_type": "TABLE_ROW", "md_parent_section": "§4.5.1.3 [Examples of Original and Standard Units and Test Not Done]", "md_verbatim": "| 2 | ALT | CHEMISTRY | 12.1 | mg/L | 12.1 | 12.1 | mg/L | | | 1 | 2016-02-01 |", "score": 0.75, "match_basis": "verbatim_token+chapter_route:ch04"}, {"md_atom_id": "md_ch04_a859", "md_file": "knowledge_base/chapters/ch04_general_assumptions.md", "md_atom_type": "TABLE_ROW", "md_parent_section": "§4.5.1.3 [Examples of Original and Standard Units and Test Not Done]", "md_verbatim": "| 12 | BILI | CHEMISTRY | <0.1 | mg/dL | <1.71 | | umol/L | | | 6 | 2016-02-07 |", "score": 0.66, "match_basis": "verbatim_token+chapter_route:ch04"}, {"md_atom_id": "md_ch04_a853", "md_file": "knowledge_base/chapters/ch04_general_assumptions.md", "md_atom_type": "TABLE_ROW", "md_parent_section": "§4.5.1.3 [Examples of Original and Standard Units and Test Not Done]", "md_verbatim": "| 6 | KETONES | CHEMISTRY | BLQ | mg/L | BLQ | | mg/L | | | 1 | 2016-02-15 |", "score": 0.6176, "match_basis": "verbatim_token+chapter_route:ch04"}, {"md_atom_id": "md_ch04_a854", "md_file": "knowledge_base/chapters/ch04_general_assumptions.md", "md_atom_type": "TABLE_ROW", "md_parent_section": "§4.5.1.3 [Examples of Original and Standard Units and Test Not Done]", "md_verbatim": "| 7 | MCHC | HEMATOLOGY | | | 33.8 | 33.8 | g/dL | | | 2 | 2016-02-15 |", "score": 0.39, "match_basis": "verbatim_token+chapter_route:ch04"}], "candidate_count": 5, "zero_candidate": false}
{"pdf_atom_id": "ig34_p0053_a011", "pdf_atom_type": "TABLE_ROW", "pdf_source": "SDTMIG_v3.4", "pdf_page": 53, "pdf_parent_section": "§4.5.1.3 [Examples of Original and Standard Units and Test Not Done]", "pdf_verbatim": "2 | ALT | CHEMISTRY | 12.1 | mg/L | 12.1 | 12.1 | mg/L | | | 1 | 2016-02-01", "figure_ref": null, "candidates": [{"md_atom_id": "md_ch04_a849", "md_file": "knowledge_base/chapters/ch04_general_assumptions.md", "md_atom_type": "TABLE_ROW", "md_parent_section": "§4.5.1.3 [Examples of Original and Standard Units and Test Not Done]", "md_verbatim": "| 2 | ALT | CHEMISTRY | 12.1 | mg/L | 12.1 | 12.1 | mg/L | | | 1 | 2016-02-01 |", "score": 0.9, "match_basis": "verbatim_token+chapter_route:ch04"}, {"md_atom_id": "md_ch04_a848", "md_file": "knowledge_base/chapters/ch04_general_assumptions.md", "md_atom_type": "TABLE_ROW", "md_parent_section": "§4.5.1.3 [Examples of Original and Standard Units and Test Not Done]", "md_verbatim": "| 1 | GLUC | CHEMISTRY | 6.0 | mg/dL | 60.0 | 60.0 | mg/L | | | 1 | 2016-02-01 |", "score": 0.75, "match_basis": "verbatim_token+chapter_route:ch04"}, {"md_atom_id": "md_ch04_a859", "md_file": "knowledge_base/chapters/ch04_general_assumptions.md", "md_atom_type": "TABLE_ROW", "md_parent_section": "§4.5.1.3 [Examples of Original and Standard Units and Test Not Done]", "md_verbatim": "| 12 | BILI | CHEMISTRY | <0.1 | mg/dL | <1.71 | | umol/L | | | 6 | 2016-02-07 |", "score": 0.6857, "match_basis": "verbatim_token+chapter_route:ch04"}, {"md_atom_id": "md_ch04_a853", "md_file": "knowledge_base/chapters/ch04_general_assumptions.md", "md_atom_type": "TABLE_ROW", "md_parent_section": "§4.5.1.3 [Examples of Original and Standard Units and Test Not Done]", "md_verbatim": "| 6 | KETONES | CHEMISTRY | BLQ | mg/L | BLQ | | mg/L | | | 1 | 2016-02-15 |", "score": 0.6375, "match_basis": "verbatim_token+chapter_route:ch04"}, {"md_atom_id": "md_ch04_a854", "md_file": "knowledge_base/chapters/ch04_general_assumptions.md", "md_atom_type": "TABLE_ROW", "md_parent_section": "§4.5.1.3 [Examples of Original and Standard Units and Test Not Done]", "md_verbatim": "| 7 | MCHC | HEMATOLOGY | | | 33.8 | 33.8 | g/dL | | | 2 | 2016-02-15 |", "score": 0.3947, "match_basis": "verbatim_token+chapter_route:ch04"}], "candidate_count": 5, "zero_candidate": false}
{"pdf_atom_id": "ig34_p0053_a012", "pdf_atom_type": "TABLE_ROW", "pdf_source": "SDTMIG_v3.4", "pdf_page": 53, "pdf_parent_section": "§4.5.1.3 [Examples of Original and Standard Units and Test Not Done]", "pdf_verbatim": "3 | BACT | URINALYSIS | MODERATE | | MODERATE | | | | | 1 | 2016-02-01", "figure_ref": null, "candidates": [{"md_atom_id": "md_ch04_a850", "md_file": "knowledge_base/chapters/ch04_general_assumptions.md", "md_atom_type": "TABLE_ROW", "md_parent_section": "§4.5.1.3 [Examples of Original and Standard Units and Test Not Done]", "md_verbatim": "| 3 | BACT | URINALYSIS | MODERATE | | MODERATE | | | | | 1 | 2016-02-01 |", "score": 0.9, "match_basis": "verbatim_token+chapter_route:ch04"}, {"md_atom_id": "md_ch04_a852", "md_file": "knowledge_base/chapters/ch04_general_assumptions.md", "md_atom_type": "TABLE_ROW", "md_parent_section": "§4.5.1.3 [Examples of Original and Standard Units and Test Not Done]", "md_verbatim": "| 5 | RBC | URINALYSIS | 2+ | | 2+ | | | | | 1 | 2016-02-01 |", "score": 0.6158, "match_basis": "verbatim_token+chapter_route:ch04"}, {"md_atom_id": "md_ch04_a851", "md_file": "knowledge_base/chapters/ch04_general_assumptions.md", "md_atom_type": "TABLE_ROW", "md_parent_section": "§4.5.1.3 [Examples of Original and Standard Units and Test Not Done]", "md_verbatim": "| 4 | RBC | URINALYSIS | TRACE | | TRACE | | | | | 1 | 2016-02-01 |", "score": 0.5727, "match_basis": "verbatim_token+chapter_route:ch04"}, {"md_atom_id": "md_ch04_a075", "md_file": "knowledge_base/chapters/ch04_general_assumptions.md", "md_atom_type": "TABLE_ROW", "md_parent_section": "§4.1.7.1 [Example of Splitting Questionnaires]", "md_verbatim": "| 1 | CDISC01 | QS | CDISC01.100008 | 1 | CGI0201 | CGI02-Severity | CGI | Moderate | 4 | 4 | | 1 | WEEK 1 | 7 | 2003-04-15 | 1 |", "score": 0.405, "match_basis": "verbatim_token+chapter_route:ch04"}, {"md_atom_id": "md_ch04_a079", "md_file": "knowledge_base/chapters/ch04_general_assumptions.md", "md_atom_type": "TABLE_ROW", "md_parent_section": "§4.1.7.1 [Example of Splitting Questionnaires]", "md_verbatim": "| 5 | CDISC01 | QS | CDISC01.100014 | 1 | CGI0201 | CGI02-Severity | CGI | Moderate | 4 | 4 | | 1 | WEEK 1 | 7 | 2003-04-15 | 1 |", "score": 0.4024, "match_basis": "verbatim_token+chapter_route:ch04"}], "candidate_count": 5, "zero_candidate": false}
{"pdf_atom_id": "ig34_p0053_a013", "pdf_atom_type": "TABLE_ROW", "pdf_source": "SDTMIG_v3.4", "pdf_page": 53, "pdf_parent_section": "§4.5.1.3 [Examples of Original and Standard Units and Test Not Done]", "pdf_verbatim": "4 | RBC | URINALYSIS | TRACE | | TRACE | | | | | 1 | 2016-02-01", "figure_ref": null, "candidates": [{"md_atom_id": "md_ch04_a851", "md_file": "knowledge_base/chapters/ch04_general_assumptions.md", "md_atom_type": "TABLE_ROW", "md_parent_section": "§4.5.1.3 [Examples of Original and Standard Units and Test Not Done]", "md_verbatim": "| 4 | RBC | URINALYSIS | TRACE | | TRACE | | | | | 1 | 2016-02-01 |", "score": 0.9, "match_basis": "verbatim_token+chapter_route:ch04"}, {"md_atom_id": "md_ch04_a852", "md_file": "knowledge_base/chapters/ch04_general_assumptions.md", "md_atom_type": "TABLE_ROW", "md_parent_section": "§4.5.1.3 [Examples of Original and Standard Units and Test Not Done]", "md_verbatim": "| 5 | RBC | URINALYSIS | 2+ | | 2+ | | | | | 1 | 2016-02-01 |", "score": 0.7714, "match_basis": "verbatim_token+chapter_route:ch04"}, {"md_atom_id": "md_ch04_a850", "md_file": "knowledge_base/chapters/ch04_general_assumptions.md", "md_atom_type": "TABLE_ROW", "md_parent_section": "§4.5.1.3 [Examples of Original and Standard Units and Test Not Done]", "md_verbatim": "| 3 | BACT | URINALYSIS | MODERATE | | MODERATE | | | | | 1 | 2016-02-01 |", "score": 0.5727, "match_basis": "verbatim_token+chapter_route:ch04"}, {"md_atom_id": "md_ch04_a886", "md_file": "knowledge_base/chapters/ch04_general_assumptions.md", "md_atom_type": "TABLE_ROW", "md_parent_section": "§4.5.1.3 [Examples of Original and Standard Units and Test Not Done]", "md_verbatim": "| 3 | HR | | | | | | NOT DONE | | 1 | 2016-07-18 |", "score": 0.3706, "match_basis": "verbatim_token+chapter_route:ch04"}, {"md_atom_id": "md_ch04_a884", "md_file": "knowledge_base/chapters/ch04_general_assumptions.md", "md_atom_type": "TABLE_ROW", "md_parent_section": "§4.5.1.3 [Examples of Original and Standard Units and Test Not Done]", "md_verbatim": "| 1 | HEIGHT | 60 | in | 152 | 152 | cm | | | 1 | 2016-07-18 |", "score": 0.3632, "match_basis": "verbatim_token+chapter_route:ch04"}], "candidate_count": 5, "zero_candidate": false}
{"pdf_atom_id": "ig34_p0053_a014", "pdf_atom_type": "TABLE_ROW", "pdf_source": "SDTMIG_v3.4", "pdf_page": 53, "pdf_parent_section": "§4.5.1.3 [Examples of Original and Standard Units and Test Not Done]", "pdf_verbatim": "5 | WBC | URINALYSIS | ++ | | 2+ | | | | | 1 | 2016-02-01", "figure_ref": null, "candidates": [{"md_atom_id": "md_ch04_a852", "md_file": "knowledge_base/chapters/ch04_general_assumptions.md", "md_atom_type": "TABLE_ROW", "md_parent_section": "§4.5.1.3 [Examples of Original and Standard Units and Test Not Done]", "md_verbatim": "| 5 | RBC | URINALYSIS | 2+ | | 2+ | | | | | 1 | 2016-02-01 |", "score": 0.8, "match_basis": "verbatim_token+chapter_route:ch04"}, {"md_atom_id": "md_ch04_a851", "md_file": "knowledge_base/chapters/ch04_general_assumptions.md", "md_atom_type": "TABLE_ROW", "md_parent_section": "§4.5.1.3 [Examples of Original and Standard Units and Test Not Done]", "md_verbatim": "| 4 | RBC | URINALYSIS | TRACE | | TRACE | | | | | 1 | 2016-02-01 |", "score": 0.7, "match_basis": "verbatim_token+chapter_route:ch04"}, {"md_atom_id": "md_ch04_a850", "md_file": "knowledge_base/chapters/ch04_general_assumptions.md", "md_atom_type": "TABLE_ROW", "md_parent_section": "§4.5.1.3 [Examples of Original and Standard Units and Test Not Done]", "md_verbatim": "| 3 | BACT | URINALYSIS | MODERATE | | MODERATE | | | | | 1 | 2016-02-01 |", "score": 0.6158, "match_basis": "verbatim_token+chapter_route:ch04"}, {"md_atom_id": "md_ch04_a858", "md_file": "knowledge_base/chapters/ch04_general_assumptions.md", "md_atom_type": "TABLE_ROW", "md_parent_section": "§4.5.1.3 [Examples of Original and Standard Units and Test Not Done]", "md_verbatim": "| 11 | WBC | HEMATOLOGY | <4, 000 | 10^6/L | <4,000 | | 10^6/L | | | 6 | 2016-02-07 |", "score": 0.39, "match_basis": "verbatim_token+chapter_route:ch04"}, {"md_atom_id": "md_ch04_a886", "md_file": "knowledge_base/chapters/ch04_general_assumptions.md", "md_atom_type": "TABLE_ROW", "md_parent_section": "§4.5.1.3 [Examples of Original and Standard Units and Test Not Done]", "md_verbatim": "| 3 | HR | | | | | | NOT DONE | | 1 | 2016-07-18 |", "score": 0.3857, "match_basis": "verbatim_token+chapter_route:ch04"}], "candidate_count": 5, "zero_candidate": false}
{"pdf_atom_id": "ig34_p0053_a015", "pdf_atom_type": "TABLE_ROW", "pdf_source": "SDTMIG_v3.4", "pdf_page": 53, "pdf_parent_section": "§4.5.1.3 [Examples of Original and Standard Units and Test Not Done]", "pdf_verbatim": "6 | KETONES | CHEMISTRY | BLQ | mg/L | BLQ | | mg/L | | | 1 | 2016-02-01", "figure_ref": null, "candidates": [{"md_atom_id": "md_ch04_a853", "md_file": "knowledge_base/chapters/ch04_general_assumptions.md", "md_atom_type": "TABLE_ROW", "md_parent_section": "§4.5.1.3 [Examples of Original and Standard Units and Test Not Done]", "md_verbatim": "| 6 | KETONES | CHEMISTRY | BLQ | mg/L | BLQ | | mg/L | | | 1 | 2016-02-15 |", "score": 0.9, "match_basis": "verbatim_token+chapter_route:ch04"}, {"md_atom_id": "md_ch04_a849", "md_file": "knowledge_base/chapters/ch04_general_assumptions.md", "md_atom_type": "TABLE_ROW", "md_parent_section": "§4.5.1.3 [Examples of Original and Standard Units and Test Not Done]", "md_verbatim": "| 2 | ALT | CHEMISTRY | 12.1 | mg/L | 12.1 | 12.1 | mg/L | | | 1 | 2016-02-01 |", "score": 0.6375, "match_basis": "verbatim_token+chapter_route:ch04"}, {"md_atom_id": "md_ch04_a848", "md_file": "knowledge_base/chapters/ch04_general_assumptions.md", "md_atom_type": "TABLE_ROW", "md_parent_section": "§4.5.1.3 [Examples of Original and Standard Units and Test Not Done]", "md_verbatim": "| 1 | GLUC | CHEMISTRY | 6.0 | mg/dL | 60.0 | 60.0 | mg/L | | | 1 | 2016-02-01 |", "score": 0.6176, "match_basis": "verbatim_token+chapter_route:ch04"}, {"md_atom_id": "md_ch04_a859", "md_file": "knowledge_base/chapters/ch04_general_assumptions.md", "md_atom_type": "TABLE_ROW", "md_parent_section": "§4.5.1.3 [Examples of Original and Standard Units and Test Not Done]", "md_verbatim": "| 12 | BILI | CHEMISTRY | <0.1 | mg/dL | <1.71 | | umol/L | | | 6 | 2016-02-07 |", "score": 0.5842, "match_basis": "verbatim_token+chapter_route:ch04"}, {"md_atom_id": "md_ch04_a886", "md_file": "knowledge_base/chapters/ch04_general_assumptions.md", "md_atom_type": "TABLE_ROW", "md_parent_section": "§4.5.1.3 [Examples of Original and Standard Units and Test Not Done]", "md_verbatim": "| 3 | HR | | | | | | NOT DONE | | 1 | 2016-07-18 |", "score": 0.4059, "match_basis": "verbatim_token+chapter_route:ch04"}], "candidate_count": 5, "zero_candidate": false}
{"pdf_atom_id": "ig34_p0053_a016", "pdf_atom_type": "TABLE_ROW", "pdf_source": "SDTMIG_v3.4", "pdf_page": 53, "pdf_parent_section": "§4.5.1.3 [Examples of Original and Standard Units and Test Not Done]", "pdf_verbatim": "7 | MCHC | HEMATOLOGY | | | 33.8 | 33.8 | g/dL | | Y | 3 | 2016-02-15", "figure_ref": null, "candidates": [{"md_atom_id": "md_ch04_a854", "md_file": "knowledge_base/chapters/ch04_general_assumptions.md", "md_atom_type": "TABLE_ROW", "md_parent_section": "§4.5.1.3 [Examples of Original and Standard Units and Test Not Done]", "md_verbatim": "| 7 | MCHC | HEMATOLOGY | | | 33.8 | 33.8 | g/dL | | | 2 | 2016-02-15 |", "score": 0.9, "match_basis": "verbatim_token+chapter_route:ch04"}, {"md_atom_id": "md_ch04_a858", "md_file": "knowledge_base/chapters/ch04_general_assumptions.md", "md_atom_type": "TABLE_ROW", "md_parent_section": "§4.5.1.3 [Examples of Original and Standard Units and Test Not Done]", "md_verbatim": "| 11 | WBC | HEMATOLOGY | <4, 000 | 10^6/L | <4,000 | | 10^6/L | | | 6 | 2016-02-07 |", "score": 0.7286, "match_basis": "verbatim_token+chapter_route:ch04"}, {"md_atom_id": "md_ch04_a855", "md_file": "knowledge_base/chapters/ch04_general_assumptions.md", "md_atom_type": "TABLE_ROW", "md_parent_section": "§4.5.1.3 [Examples of Original and Standard Units and Test Not Done]", "md_verbatim": "| 8 | HCT | HEMATOLOGY | | | | | | NOT DONE | | 2 | 2016-02-08 |", "score": 0.675, "match_basis": "verbatim_token+chapter_route:ch04"}, {"md_atom_id": "md_ch04_a856", "md_file": "knowledge_base/chapters/ch04_general_assumptions.md", "md_atom_type": "TABLE_ROW", "md_parent_section": "§4.5.1.3 [Examples of Original and Standard Units and Test Not Done]", "md_verbatim": "| 9 | LBALL | HEMATOLOGY | | | | | | NOT DONE | | 3 | 2016-02-29 |", "score": 0.6333, "match_basis": "verbatim_token+chapter_route:ch04"}, {"md_atom_id": "md_ch04_a849", "md_file": "knowledge_base/chapters/ch04_general_assumptions.md", "md_atom_type": "TABLE_ROW", "md_parent_section": "§4.5.1.3 [Examples of Original and Standard Units and Test Not Done]", "md_verbatim": "| 2 | ALT | CHEMISTRY | 12.1 | mg/L | 12.1 | 12.1 | mg/L | | | 1 | 2016-02-01 |", "score": 0.3947, "match_basis": "verbatim_token+chapter_route:ch04"}], "candidate_count": 5, "zero_candidate": false}
{"pdf_atom_id": "ig34_p0053_a017", "pdf_atom_type": "TABLE_ROW", "pdf_source": "SDTMIG_v3.4", "pdf_page": 53, "pdf_parent_section": "§4.5.1.3 [Examples of Original and Standard Units and Test Not Done]", "pdf_verbatim": "8 | HCT | HEMATOLOGY | | | | | | NOT DONE | | 2 | 2016-02-08", "figure_ref": null, "candidates": [{"md_atom_id": "md_ch04_a855", "md_file": "knowledge_base/chapters/ch04_general_assumptions.md", "md_atom_type": "TABLE_ROW", "md_parent_section": "§4.5.1.3 [Examples of Original and Standard Units and Test Not Done]", "md_verbatim": "| 8 | HCT | HEMATOLOGY | | | | | | NOT DONE | | 2 | 2016-02-08 |", "score": 0.9, "match_basis": "verbatim_token+chapter_route:ch04"}, {"md_atom_id": "md_ch04_a856", "md_file": "knowledge_base/chapters/ch04_general_assumptions.md", "md_atom_type": "TABLE_ROW", "md_parent_section": "§4.5.1.3 [Examples of Original and Standard Units and Test Not Done]", "md_verbatim": "| 9 | LBALL | HEMATOLOGY | | | | | | NOT DONE | | 3 | 2016-02-29 |", "score": 0.7588, "match_basis": "verbatim_token+chapter_route:ch04"}, {"md_atom_id": "md_ch04_a854", "md_file": "knowledge_base/chapters/ch04_general_assumptions.md", "md_atom_type": "TABLE_ROW", "md_parent_section": "§4.5.1.3 [Examples of Original and Standard Units and Test Not Done]", "md_verbatim": "| 7 | MCHC | HEMATOLOGY | | | 33.8 | 33.8 | g/dL | | | 2 | 2016-02-15 |", "score": 0.675, "match_basis": "verbatim_token+chapter_route:ch04"}, {"md_atom_id": "md_ch04_a858", "md_file": "knowledge_base/chapters/ch04_general_assumptions.md", "md_atom_type": "TABLE_ROW", "md_parent_section": "§4.5.1.3 [Examples of Original and Standard Units and Test Not Done]", "md_verbatim": "| 11 | WBC | HEMATOLOGY | <4, 000 | 10^6/L | <4,000 | | 10^6/L | | | 6 | 2016-02-07 |", "score": 0.675, "match_basis": "verbatim_token+chapter_route:ch04"}, {"md_atom_id": "md_ch04_a886", "md_file": "knowledge_base/chapters/ch04_general_assumptions.md", "md_atom_type": "TABLE_ROW", "md_parent_section": "§4.5.1.3 [Examples of Original and Standard Units and Test Not Done]", "md_verbatim": "| 3 | HR | | | | | | NOT DONE | | 1 | 2016-07-18 |", "score": 0.5143, "match_basis": "verbatim_token+chapter_route:ch04"}], "candidate_count": 5, "zero_candidate": false}
{"pdf_atom_id": "ig34_p0053_a018", "pdf_atom_type": "TABLE_ROW", "pdf_source": "SDTMIG_v3.4", "pdf_page": 53, "pdf_parent_section": "§4.5.1.3 [Examples of Original and Standard Units and Test Not Done]", "pdf_verbatim": "9 | LBALL | HEMATOLOGY | | | | | | NOT DONE | | 3 | 2016-02-29", "figure_ref": null, "candidates": [{"md_atom_id": "md_ch04_a856", "md_file": "knowledge_base/chapters/ch04_general_assumptions.md", "md_atom_type": "TABLE_ROW", "md_parent_section": "§4.5.1.3 [Examples of Original and Standard Units and Test Not Done]", "md_verbatim": "| 9 | LBALL | HEMATOLOGY | | | | | | NOT DONE | | 3 | 2016-02-29 |", "score": 0.9, "match_basis": "verbatim_token+chapter_route:ch04"}, {"md_atom_id": "md_ch04_a855", "md_file": "knowledge_base/chapters/ch04_general_assumptions.md", "md_atom_type": "TABLE_ROW", "md_parent_section": "§4.5.1.3 [Examples of Original and Standard Units and Test Not Done]", "md_verbatim": "| 8 | HCT | HEMATOLOGY | | | | | | NOT DONE | | 2 | 2016-02-08 |", "score": 0.7588, "match_basis": "verbatim_token+chapter_route:ch04"}, {"md_atom_id": "md_ch04_a854", "md_file": "knowledge_base/chapters/ch04_general_assumptions.md", "md_atom_type": "TABLE_ROW", "md_parent_section": "§4.5.1.3 [Examples of Original and Standard Units and Test Not Done]", "md_verbatim": "| 7 | MCHC | HEMATOLOGY | | | 33.8 | 33.8 | g/dL | | | 2 | 2016-02-15 |", "score": 0.6333, "match_basis": "verbatim_token+chapter_route:ch04"}, {"md_atom_id": "md_ch04_a858", "md_file": "knowledge_base/chapters/ch04_general_assumptions.md", "md_atom_type": "TABLE_ROW", "md_parent_section": "§4.5.1.3 [Examples of Original and Standard Units and Test Not Done]", "md_verbatim": "| 11 | WBC | HEMATOLOGY | <4, 000 | 10^6/L | <4,000 | | 10^6/L | | | 6 | 2016-02-07 |", "score": 0.6333, "match_basis": "verbatim_token+chapter_route:ch04"}, {"md_atom_id": "md_ch04_a857", "md_file": "knowledge_base/chapters/ch04_general_assumptions.md", "md_atom_type": "TABLE_ROW", "md_parent_section": "§4.5.1.3 [Examples of Original and Standard Units and Test Not Done]", "md_verbatim": "| 10 | LBALL | | | | | | | NOT DONE | | 4 | 2016-02-22 |", "score": 0.6, "match_basis": "verbatim_token+chapter_route:ch04"}], "candidate_count": 5, "zero_candidate": false}
{"pdf_atom_id": "ig34_p0053_a019", "pdf_atom_type": "TABLE_ROW", "pdf_source": "SDTMIG_v3.4", "pdf_page": 53, "pdf_parent_section": "§4.5.1.3 [Examples of Original and Standard Units and Test Not Done]", "pdf_verbatim": "10 | LBALL | | | | | | | NOT DONE | | 4 | 2016-02-22", "figure_ref": null, "candidates": [{"md_atom_id": "md_ch04_a857", "md_file": "knowledge_base/chapters/ch04_general_assumptions.md", "md_atom_type": "TABLE_ROW", "md_parent_section": "§4.5.1.3 [Examples of Original and Standard Units and Test Not Done]", "md_verbatim": "| 10 | LBALL | | | | | | | NOT DONE | | 4 | 2016-02-22 |", "score": 0.9, "match_basis": "verbatim_token+chapter_route:ch04"}, {"md_atom_id": "md_ch04_a886", "md_file": "knowledge_base/chapters/ch04_general_assumptions.md", "md_atom_type": "TABLE_ROW", "md_parent_section": "§4.5.1.3 [Examples of Original and Standard Units and Test Not Done]", "md_verbatim": "| 3 | HR | | | | | | NOT DONE | | 1 | 2016-07-18 |", "score": 0.675, "match_basis": "verbatim_token+chapter_route:ch04"}, {"md_atom_id": "md_ch04_a890", "md_file": "knowledge_base/chapters/ch04_general_assumptions.md", "md_atom_type": "TABLE_ROW", "md_parent_section": "§4.5.1.3 [Examples of Original and Standard Units and Test Not Done]", "md_verbatim": "| 7 | VSALL | | | | | | NOT DONE | | 2 | 2016-07-25 |", "score": 0.66, "match_basis": "verbatim_token+chapter_route:ch04"}, {"md_atom_id": "md_ch04_a856", "md_file": "knowledge_base/chapters/ch04_general_assumptions.md", "md_atom_type": "TABLE_ROW", "md_parent_section": "§4.5.1.3 [Examples of Original and Standard Units and Test Not Done]", "md_verbatim": "| 9 | LBALL | HEMATOLOGY | | | | | | NOT DONE | | 3 | 2016-02-29 |", "score": 0.6, "match_basis": "verbatim_token+chapter_route:ch04"}, {"md_atom_id": "md_ch04_a855", "md_file": "knowledge_base/chapters/ch04_general_assumptions.md", "md_atom_type": "TABLE_ROW", "md_parent_section": "§4.5.1.3 [Examples of Original and Standard Units and Test Not Done]", "md_verbatim": "| 8 | HCT | HEMATOLOGY | | | | | | NOT DONE | | 2 | 2016-02-08 |", "score": 0.4765, "match_basis": "verbatim_token+chapter_route:ch04"}], "candidate_count": 5, "zero_candidate": false}
{"pdf_atom_id": "ig34_p0053_a020", "pdf_atom_type": "TABLE_ROW", "pdf_source": "SDTMIG_v3.4", "pdf_page": 53, "pdf_parent_section": "§4.5.1.3 [Examples of Original and Standard Units and Test Not Done]", "pdf_verbatim": "11 | WBC | HEMATOLOGY | <4,000 | 10^6/L | <4,000 | | 10^6/L | | | 6 | 2016-02-07", "figure_ref": null, "candidates": [{"md_atom_id": "md_ch04_a858", "md_file": "knowledge_base/chapters/ch04_general_assumptions.md", "md_atom_type": "TABLE_ROW", "md_parent_section": "§4.5.1.3 [Examples of Original and Standard Units and Test Not Done]", "md_verbatim": "| 11 | WBC | HEMATOLOGY | <4, 000 | 10^6/L | <4,000 | | 10^6/L | | | 6 | 2016-02-07 |", "score": 0.9, "match_basis": "verbatim_token+chapter_route:ch04"}, {"md_atom_id": "md_ch04_a854", "md_file": "knowledge_base/chapters/ch04_general_assumptions.md", "md_atom_type": "TABLE_ROW", "md_parent_section": "§4.5.1.3 [Examples of Original and Standard Units and Test Not Done]", "md_verbatim": "| 7 | MCHC | HEMATOLOGY | | | 33.8 | 33.8 | g/dL | | | 2 | 2016-02-15 |", "score": 0.7286, "match_basis": "verbatim_token+chapter_route:ch04"}, {"md_atom_id": "md_ch04_a855", "md_file": "knowledge_base/chapters/ch04_general_assumptions.md", "md_atom_type": "TABLE_ROW", "md_parent_section": "§4.5.1.3 [Examples of Original and Standard Units and Test Not Done]", "md_verbatim": "| 8 | HCT | HEMATOLOGY | | | | | | NOT DONE | | 2 | 2016-02-08 |", "score": 0.675, "match_basis": "verbatim_token+chapter_route:ch04"}, {"md_atom_id": "md_ch04_a856", "md_file": "knowledge_base/chapters/ch04_general_assumptions.md", "md_atom_type": "TABLE_ROW", "md_parent_section": "§4.5.1.3 [Examples of Original and Standard Units and Test Not Done]", "md_verbatim": "| 9 | LBALL | HEMATOLOGY | | | | | | NOT DONE | | 3 | 2016-02-29 |", "score": 0.6333, "match_basis": "verbatim_token+chapter_route:ch04"}, {"md_atom_id": "md_ch04_a849", "md_file": "knowledge_base/chapters/ch04_general_assumptions.md", "md_atom_type": "TABLE_ROW", "md_parent_section": "§4.5.1.3 [Examples of Original and Standard Units and Test Not Done]", "md_verbatim": "| 2 | ALT | CHEMISTRY | 12.1 | mg/L | 12.1 | 12.1 | mg/L | | | 1 | 2016-02-01 |", "score": 0.3947, "match_basis": "verbatim_token+chapter_route:ch04"}], "candidate_count": 5, "zero_candidate": false}
{"pdf_atom_id": "ig34_p0053_a021", "pdf_atom_type": "TABLE_ROW", "pdf_source": "SDTMIG_v3.4", "pdf_page": 53, "pdf_parent_section": "§4.5.1.3 [Examples of Original and Standard Units and Test Not Done]", "pdf_verbatim": "12 | BILI | CHEMISTRY | <0.1 | mg/dL | <1.71 | | umol/L | | | 6 | 2016-02-07", "figure_ref": null, "candidates": [{"md_atom_id": "md_ch04_a859", "md_file": "knowledge_base/chapters/ch04_general_assumptions.md", "md_atom_type": "TABLE_ROW", "md_parent_section": "§4.5.1.3 [Examples of Original and Standard Units and Test Not Done]", "md_verbatim": "| 12 | BILI | CHEMISTRY | <0.1 | mg/dL | <1.71 | | umol/L | | | 6 | 2016-02-07 |", "score": 0.9, "match_basis": "verbatim_token+chapter_route:ch04"}, {"md_atom_id": "md_ch04_a849", "md_file": "knowledge_base/chapters/ch04_general_assumptions.md", "md_atom_type": "TABLE_ROW", "md_parent_section": "§4.5.1.3 [Examples of Original and Standard Units and Test Not Done]", "md_verbatim": "| 2 | ALT | CHEMISTRY | 12.1 | mg/L | 12.1 | 12.1 | mg/L | | | 1 | 2016-02-01 |", "score": 0.6857, "match_basis": "verbatim_token+chapter_route:ch04"}, {"md_atom_id": "md_ch04_a848", "md_file": "knowledge_base/chapters/ch04_general_assumptions.md", "md_atom_type": "TABLE_ROW", "md_parent_section": "§4.5.1.3 [Examples of Original and Standard Units and Test Not Done]", "md_verbatim": "| 1 | GLUC | CHEMISTRY | 6.0 | mg/dL | 60.0 | 60.0 | mg/L | | | 1 | 2016-02-01 |", "score": 0.66, "match_basis": "verbatim_token+chapter_route:ch04"}, {"md_atom_id": "md_ch04_a853", "md_file": "knowledge_base/chapters/ch04_general_assumptions.md", "md_atom_type": "TABLE_ROW", "md_parent_section": "§4.5.1.3 [Examples of Original and Standard Units and Test Not Done]", "md_verbatim": "| 6 | KETONES | CHEMISTRY | BLQ | mg/L | BLQ | | mg/L | | | 1 | 2016-02-15 |", "score": 0.5842, "match_basis": "verbatim_token+chapter_route:ch04"}, {"md_atom_id": "md_ch04_a854", "md_file": "knowledge_base/chapters/ch04_general_assumptions.md", "md_atom_type": "TABLE_ROW", "md_parent_section": "§4.5.1.3 [Examples of Original and Standard Units and Test Not Done]", "md_verbatim": "| 7 | MCHC | HEMATOLOGY | | | 33.8 | 33.8 | g/dL | | | 2 | 2016-02-15 |", "score": 0.3818, "match_basis": "verbatim_token+chapter_route:ch04"}], "candidate_count": 5, "zero_candidate": false}
{"pdf_atom_id": "ig34_p0053_a022", "pdf_atom_type": "HEADING", "pdf_source": "SDTMIG_v3.4", "pdf_page": 53, "pdf_parent_section": "§4.5.1.3 [Examples of Original and Standard Units and Test Not Done]", "pdf_verbatim": "Example 2", "figure_ref": null, "candidates": [{"md_atom_id": "md_ch04_a069", "md_file": "knowledge_base/chapters/ch04_general_assumptions.md", "md_atom_type": "HEADING", "md_parent_section": "§4.1.7 [Splitting Domains]", "md_verbatim": "#### 4.1.7.1 Example of Splitting Questionnaires", "score": 0.425, "match_basis": "verbatim_token+chapter_route:ch04"}, {"md_atom_id": "md_ch04_a831", "md_file": "knowledge_base/chapters/ch04_general_assumptions.md", "md_atom_type": "HEADING", "md_parent_section": "§4.5.1 [Original and Standardized Results]", "md_verbatim": "#### 4.5.1.3 Examples of Original and Standard Units and Test Not Done", "score": 0.4154, "match_basis": "verbatim_token+chapter_route:ch04"}, {"md_atom_id": "md_ch04_a007", "md_file": "knowledge_base/chapters/ch04_general_assumptions.md", "md_atom_type": "HEADING", "md_parent_section": "§4.1 [General Domain Assumptions]", "md_verbatim": "### 4.1.1 Review Study Data Tabulation Model and Implementation Guide", "score": 0.3333, "match_basis": "verbatim_token+chapter_route:ch04"}, {"md_atom_id": "md_ch04_a346", "md_file": "knowledge_base/chapters/ch04_general_assumptions.md", "md_atom_type": "HEADING", "md_parent_section": "§4.2 [General Variable Assumptions]", "md_verbatim": "### 4.2.8 Multiple Values for a Variable", "score": 0.3286, "match_basis": "verbatim_token+chapter_route:ch04"}, {"md_atom_id": "md_ch04_a400", "md_file": "knowledge_base/chapters/ch04_general_assumptions.md", "md_atom_type": "HEADING", "md_parent_section": "§4.2.8 [Multiple Values for a Variable]", "md_verbatim": "#### 4.2.8.4 Multiple Values for a Parameter", "score": 0.3273, "match_basis": "verbatim_token+chapter_route:ch04"}, {"md_atom_id": "md_ch04_a891", "md_file": "knowledge_base/chapters/ch04_general_assumptions.md", "md_atom_type": "HEADING", "md_parent_section": "§4.5 [Other Assumptions]", "md_verbatim": "### 4.5.2 Linking Multiple Observations", "score": 0.324, "match_basis": "verbatim_token+chapter_route:ch04"}, {"md_atom_id": "md_ch04_a975", "md_file": "knowledge_base/chapters/ch04_general_assumptions.md", "md_atom_type": "HEADING", "md_parent_section": "§4.5 [Other Assumptions]", "md_verbatim": "### 4.5.6 Supplemental Reason Variables", "score": 0.324, "match_basis": "verbatim_token+chapter_route:ch04"}, {"md_atom_id": "md_ch04_a352", "md_file": "knowledge_base/chapters/ch04_general_assumptions.md", "md_atom_type": "HEADING", "md_parent_section": "§4.2.8 [Multiple Values for a Variable]", "md_verbatim": "#### 4.2.8.2 Multiple Values for a Findings Result Variable", "score": 0.32, "match_basis": "verbatim_token+chapter_route:ch04"}, {"md_atom_id": "md_ch04_a359", "md_file": "knowledge_base/chapters/ch04_general_assumptions.md", "md_atom_type": "HEADING", "md_parent_section": "§4.2.8 [Multiple Values for a Variable]", "md_verbatim": "#### 4.2.8.3 Multiple Values for a Non-result Qualifier Variable", "score": 0.3187, "match_basis": "verbatim_token+chapter_route:ch04"}, {"md_atom_id": "md_ch04_a347", "md_file": "knowledge_base/chapters/ch04_general_assumptions.md", "md_atom_type": "HEADING", "md_parent_section": "§4.2.8 [Multiple Values for a Variable]", "md_verbatim": "#### 4.2.8.1 Multiple Values for an Intervention or Event Topic Variable", "score": 0.3171, "match_basis": "verbatim_token+chapter_route:ch04"}], "candidate_count": 10, "zero_candidate": false}
{"pdf_atom_id": "ig34_p0053_a023", "pdf_atom_type": "SENTENCE", "pdf_source": "SDTMIG_v3.4", "pdf_page": 53, "pdf_parent_section": "§4.5.1.3 [Examples of Original and Standard Units and Test Not Done]", "pdf_verbatim": "Row 1: A numeric result was collected in standard units. Because no conversion was necessary, the result was copied into LBSTRESC and LBSTRESN.", "figure_ref": null, "candidates": [{"md_atom_id": "md_ch04_a862", "md_file": "knowledge_base/chapters/ch04_general_assumptions.md", "md_atom_type": "LIST_ITEM", "md_parent_section": "§4.5.1.3 [Examples of Original and Standard Units and Test Not Done]", "md_verbatim": "- **Row 1:** A numeric value was collected in standard units. Because no conversion was necessary, the result was copied into EGSTRESC and EGSTRESN.", "score": 0.7454, "match_basis": "verbatim_token+chapter_route:ch04"}, {"md_atom_id": "md_ch04_a845", "md_file": "knowledge_base/chapters/ch04_general_assumptions.md", "md_atom_type": "LIST_ITEM", "md_parent_section": "§4.5.1.3 [Examples of Original and Standard Units and Test Not Done]", "md_verbatim": "- **Row 11:** Shows a result collected as an inequality. The unit collected was the standard unit, so the result required no conversion and was copied to LBSTRESC.", "score": 0.5179, "match_basis": "verbatim_token+chapter_route:ch04"}, {"md_atom_id": "md_ch04_a837", "md_file": "knowledge_base/chapters/ch04_general_assumptions.md", "md_atom_type": "LIST_ITEM", "md_parent_section": "§4.5.1.3 [Examples of Original and Standard Units and Test Not Done]", "md_verbatim": "- **Row 2:** A numeric value was copied; the original unit was the standard unit so conversion was not needed.", "score": 0.437, "match_basis": "verbatim_token+chapter_route:ch04"}, {"md_atom_id": "md_ch04_a846", "md_file": "knowledge_base/chapters/ch04_general_assumptions.md", "md_atom_type": "LIST_ITEM", "md_parent_section": "§4.5.1.3 [Examples of Original and Standard Units and Test Not Done]", "md_verbatim": "- **Row 12:** Shows a result collected as an inequality. In LBSTRESC, the numeric part of LBORRES has been converted to the standard unit, and the less than (<) sign has been retained. LBSTRESN is not populated.", "score": 0.4342, "match_basis": "verbatim_token+chapter_route:ch04"}, {"md_atom_id": "md_ch04_a863", "md_file": "knowledge_base/chapters/ch04_general_assumptions.md", "md_atom_type": "LIST_ITEM", "md_parent_section": "§4.5.1.3 [Examples of Original and Standard Units and Test Not Done]", "md_verbatim": "- **Rows 2-3:** Numeric results were converted to standard units.", "score": 0.4282, "match_basis": "verbatim_token+chapter_route:ch04"}], "candidate_count": 5, "zero_candidate": false}
{"pdf_atom_id": "ig34_p0053_a024", "pdf_atom_type": "SENTENCE", "pdf_source": "SDTMIG_v3.4", "pdf_page": 53, "pdf_parent_section": "§4.5.1.3 [Examples of Original and Standard Units and Test Not Done]", "pdf_verbatim": "Rows 2-3: Numeric results were converted to standard units.", "figure_ref": null, "candidates": [{"md_atom_id": "md_ch04_a863", "md_file": "knowledge_base/chapters/ch04_general_assumptions.md", "md_atom_type": "LIST_ITEM", "md_parent_section": "§4.5.1.3 [Examples of Original and Standard Units and Test Not Done]", "md_verbatim": "- **Rows 2-3:** Numeric results were converted to standard units.", "score": 0.81, "match_basis": "verbatim_token+chapter_route:ch04"}, {"md_atom_id": "md_ch04_a878", "md_file": "knowledge_base/chapters/ch04_general_assumptions.md", "md_atom_type": "LIST_ITEM", "md_parent_section": "§4.5.1.3 [Examples of Original and Standard Units and Test Not Done]", "md_verbatim": "- **Rows 1-2:** Numeric values were converted to standard units.", "score": 0.6512, "match_basis": "verbatim_token+chapter_route:ch04"}, {"md_atom_id": "md_ch04_a836", "md_file": "knowledge_base/chapters/ch04_general_assumptions.md", "md_atom_type": "LIST_ITEM", "md_parent_section": "§4.5.1.3 [Examples of Original and Standard Units and Test Not Done]", "md_verbatim": "- **Row 1:** A numeric value was converted to the standard unit.", "score": 0.57, "match_basis": "verbatim_token+chapter_route:ch04"}, {"md_atom_id": "md_ch04_a839", "md_file": "knowledge_base/chapters/ch04_general_assumptions.md", "md_atom_type": "LIST_ITEM", "md_parent_section": "§4.5.1.3 [Examples of Original and Standard Units and Test Not Done]", "md_verbatim": "- **Row 5:** A character result was converted to a standardized format.", "score": 0.4448, "match_basis": "verbatim_token+chapter_route:ch04"}, {"md_atom_id": "md_ch04_a862", "md_file": "knowledge_base/chapters/ch04_general_assumptions.md", "md_atom_type": "LIST_ITEM", "md_parent_section": "§4.5.1.3 [Examples of Original and Standard Units and Test Not Done]", "md_verbatim": "- **Row 1:** A numeric value was collected in standard units. Because no conversion was necessary, the result was copied into EGSTRESC and EGSTRESN.", "score": 0.4187, "match_basis": "verbatim_token+chapter_route:ch04"}], "candidate_count": 5, "zero_candidate": false}
{"pdf_atom_id": "ig34_p0053_a025", "pdf_atom_type": "SENTENCE", "pdf_source": "SDTMIG_v3.4", "pdf_page": 53, "pdf_parent_section": "§4.5.1.3 [Examples of Original and Standard Units and Test Not Done]", "pdf_verbatim": "Row 4: Character values were copied to EGSTRESC. EGSTRESN is null.", "figure_ref": null, "candidates": [{"md_atom_id": "md_ch04_a864", "md_file": "knowledge_base/chapters/ch04_general_assumptions.md", "md_atom_type": "LIST_ITEM", "md_parent_section": "§4.5.1.3 [Examples of Original and Standard Units and Test Not Done]", "md_verbatim": "- **Row 4:** Character values were copied to EGSTRESC. EGSTRESN is null.", "score": 0.81, "match_basis": "verbatim_token+chapter_route:ch04"}, {"md_atom_id": "md_ch04_a838", "md_file": "knowledge_base/chapters/ch04_general_assumptions.md", "md_atom_type": "LIST_ITEM", "md_parent_section": "§4.5.1.3 [Examples of Original and Standard Units and Test Not Done]", "md_verbatim": "- **Rows 3-4:** A character result was copied from LBORRES to LBSTRESC. Since this is not a numeric result, LBSTRESN is null.", "score": 0.4335, "match_basis": "verbatim_token+chapter_route:ch04"}, {"md_atom_id": "md_ch04_a904", "md_file": "knowledge_base/chapters/ch04_general_assumptions.md", "md_atom_type": "SENTENCE", "md_parent_section": "§4.5.3.2 [Text Strings Greater than 200 Characters in Other Variables]", "md_verbatim": "Some sponsors may collect data values longer than 200 characters for some variables.", "score": 0.4119, "match_basis": "verbatim_token+chapter_route:ch04"}, {"md_atom_id": "md_ch04_a408", "md_file": "knowledge_base/chapters/ch04_general_assumptions.md", "md_atom_type": "SENTENCE", "md_parent_section": "§4.2.9 [Variable Lengths]", "md_verbatim": "When variable length is referenced in the SDTMIG, this refers to the length in bytes of ASCII character strings.", "score": 0.3844, "match_basis": "verbatim_token+chapter_route:ch04"}, {"md_atom_id": "md_ch04_a234", "md_file": "knowledge_base/chapters/ch04_general_assumptions.md", "md_atom_type": "SENTENCE", "md_parent_section": "§4.2.6 [Grouping Variables and Categorization]", "md_verbatim": "      In such cases, the data collected during the stress tests recorded in 3 separate domains may all have --CAT/--SCAT values (STRESS TEST) that identify that data were collected during the stress test.", "score": 0.3835, "match_basis": "verbatim_token+chapter_route:ch04"}], "candidate_count": 5, "zero_candidate": false}
{"pdf_atom_id": "ig34_p0053_a026", "pdf_atom_type": "SENTENCE", "pdf_source": "SDTMIG_v3.4", "pdf_page": 53, "pdf_parent_section": "§4.5.1.3 [Examples of Original and Standard Units and Test Not Done]", "pdf_verbatim": "Row 5: The overall interpretation of the ECG is represented as a separate test.", "figure_ref": null, "candidates": [{"md_atom_id": "md_ch04_a865", "md_file": "knowledge_base/chapters/ch04_general_assumptions.md", "md_atom_type": "LIST_ITEM", "md_parent_section": "§4.5.1.3 [Examples of Original and Standard Units and Test Not Done]", "md_verbatim": "- **Row 5:** The overall interpretation of the ECG is represented as a separate test.", "score": 0.81, "match_basis": "verbatim_token+chapter_route:ch04"}, {"md_atom_id": "md_ch04_a551", "md_file": "knowledge_base/chapters/ch04_general_assumptions.md", "md_atom_type": "SENTENCE", "md_parent_section": "§4.4.3.1 [Intervals of Time and Use of Duration]", "md_verbatim": "One representation, shown below, uses 2 dates in the format:", "score": 0.468, "match_basis": "verbatim_token+chapter_route:ch04"}, {"md_atom_id": "md_ch04_a480", "md_file": "knowledge_base/chapters/ch04_general_assumptions.md", "md_atom_type": "SENTENCE", "md_parent_section": "§4.4 [Actual and Relative Time Assumptions]", "md_verbatim": "ISO 8601 provides a text-based representation of dates and/or times, intervals of time, and durations of time.", "score": 0.4645, "match_basis": "verbatim_token+chapter_route:ch04"}, {"md_atom_id": "md_ch04_a1014", "md_file": "knowledge_base/chapters/ch04_general_assumptions.md", "md_atom_type": "SENTENCE", "md_parent_section": "§4.5.8 [Accounting for Long-term Follow-up]", "md_verbatim": "If a study has a clinical treatment phase followed by a long-term follow-up phase, these 2 segments of the study can be represented as separate epochs within the overall study, each with its own epoch disposition record.", "score": 0.4582, "match_basis": "verbatim_token+chapter_route:ch04"}, {"md_atom_id": "md_ch04_a598", "md_file": "knowledge_base/chapters/ch04_general_assumptions.md", "md_atom_type": "SENTENCE", "md_parent_section": "§4.4.3.2 [Interval with Uncertainty]", "md_verbatim": "where the duration \"Pn...\" is represented before the solidus [/], the end date/time is represented following the solidus, and the entire representation is known as an \"interval.\"", "score": 0.4521, "match_basis": "verbatim_token+chapter_route:ch04"}], "candidate_count": 5, "zero_candidate": false}
{"pdf_atom_id": "ig34_p0053_a027", "pdf_atom_type": "SENTENCE", "pdf_source": "SDTMIG_v3.4", "pdf_page": 53, "pdf_parent_section": "§4.5.1.3 [Examples of Original and Standard Units and Test Not Done]", "pdf_verbatim": "Row 6: The result for EGTESTCD = \"PRAG\" was missing at visit 2, as indicated by EGSTAT = \"NOT DONE\"; neither EGORRES nor EGSTRESC is populated.", "figure_ref": null, "candidates": [{"md_atom_id": "md_ch04_a866", "md_file": "knowledge_base/chapters/ch04_general_assumptions.md", "md_atom_type": "LIST_ITEM", "md_parent_section": "§4.5.1.3 [Examples of Original and Standard Units and Test Not Done]", "md_verbatim": "- **Row 6:** The result for EGTESTCD = \"PRAG\" was missing at visit 2, as indicated by EGSTAT = \"NOT DONE\"; neither EGORRES nor EGSTRESC is populated.", "score": 0.81, "match_basis": "verbatim_token+chapter_route:ch04"}, {"md_atom_id": "md_ch04_a842", "md_file": "knowledge_base/chapters/ch04_general_assumptions.md", "md_atom_type": "LIST_ITEM", "md_parent_section": "§4.5.1.3 [Examples of Original and Standard Units and Test Not Done]", "md_verbatim": "- **Row 8:** A result for LBTEST = \"HCT\" is missing for visit 2, as indicated by LBSTAT = \"NOT DONE\"; neither LBORRES nor LBSTRESC is populated.", "score": 0.6358, "match_basis": "verbatim_token+chapter_route:ch04"}, {"md_atom_id": "md_ch04_a879", "md_file": "knowledge_base/chapters/ch04_general_assumptions.md", "md_atom_type": "LIST_ITEM", "md_parent_section": "§4.5.1.3 [Examples of Original and Standard Units and Test Not Done]", "md_verbatim": "- **Row 3:** A result for VSTESTCD = \"HR\" is missing, as indicated by VSSTAT = \"NOT DONE\"; neither VSORRES nor VSSTRESC is populated.", "score": 0.633, "match_basis": "verbatim_token+chapter_route:ch04"}, {"md_atom_id": "md_ch04_a867", "md_file": "knowledge_base/chapters/ch04_general_assumptions.md", "md_atom_type": "LIST_ITEM", "md_parent_section": "§4.5.1.3 [Examples of Original and Standard Units and Test Not Done]", "md_verbatim": "- **Row 7:** At visit 3, there were no ECG results, as indicated by EGTESTCD = \"EGALL\" and EGSTAT = \"NOT DONE\".", "score": 0.4957, "match_basis": "verbatim_token+chapter_route:ch04"}, {"md_atom_id": "md_ch04_a882", "md_file": "knowledge_base/chapters/ch04_general_assumptions.md", "md_atom_type": "LIST_ITEM", "md_parent_section": "§4.5.1.3 [Examples of Original and Standard Units and Test Not Done]", "md_verbatim": "- **Row 7:** At visit 2, there were no Vital Signs results, as indicated by VSTESTCD = \"VSALL\" and VSSTAT = \"NOT DONE\".", "score": 0.4267, "match_basis": "verbatim_token+chapter_route:ch04"}], "candidate_count": 5, "zero_candidate": false}
{"pdf_atom_id": "ig34_p0053_a028", "pdf_atom_type": "SENTENCE", "pdf_source": "SDTMIG_v3.4", "pdf_page": 53, "pdf_parent_section": "§4.5.1.3 [Examples of Original and Standard Units and Test Not Done]", "pdf_verbatim": "Row 7: At visit 3, there were no ECG results, as indicated by EGTESTCD = \"EGALL\" and EGSTAT = \"NOT DONE\".", "figure_ref": null, "candidates": [{"md_atom_id": "md_ch04_a867", "md_file": "knowledge_base/chapters/ch04_general_assumptions.md", "md_atom_type": "LIST_ITEM", "md_parent_section": "§4.5.1.3 [Examples of Original and Standard Units and Test Not Done]", "md_verbatim": "- **Row 7:** At visit 3, there were no ECG results, as indicated by EGTESTCD = \"EGALL\" and EGSTAT = \"NOT DONE\".", "score": 0.81, "match_basis": "verbatim_token+chapter_route:ch04"}, {"md_atom_id": "md_ch04_a882", "md_file": "knowledge_base/chapters/ch04_general_assumptions.md", "md_atom_type": "LIST_ITEM", "md_parent_section": "§4.5.1.3 [Examples of Original and Standard Units and Test Not Done]", "md_verbatim": "- **Row 7:** At visit 2, there were no Vital Signs results, as indicated by VSTESTCD = \"VSALL\" and VSSTAT = \"NOT DONE\".", "score": 0.582, "match_basis": "verbatim_token+chapter_route:ch04"}, {"md_atom_id": "md_ch04_a866", "md_file": "knowledge_base/chapters/ch04_general_assumptions.md", "md_atom_type": "LIST_ITEM", "md_parent_section": "§4.5.1.3 [Examples of Original and Standard Units and Test Not Done]", "md_verbatim": "- **Row 6:** The result for EGTESTCD = \"PRAG\" was missing at visit 2, as indicated by EGSTAT = \"NOT DONE\"; neither EGORRES nor EGSTRESC is populated.", "score": 0.4957, "match_basis": "verbatim_token+chapter_route:ch04"}, {"md_atom_id": "md_ch04_a843", "md_file": "knowledge_base/chapters/ch04_general_assumptions.md", "md_atom_type": "LIST_ITEM", "md_parent_section": "§4.5.1.3 [Examples of Original and Standard Units and Test Not Done]", "md_verbatim": "- **Row 9:** Tests in the category \"HEMATOLOGY\" were not done at visit 3, as indicated by LBTESTCD = \"LBALL\" and LBSTAT = \"NOT DONE\".", "score": 0.4732, "match_basis": "verbatim_token+chapter_route:ch04"}, {"md_atom_id": "md_ch04_a844", "md_file": "knowledge_base/chapters/ch04_general_assumptions.md", "md_atom_type": "LIST_ITEM", "md_parent_section": "§4.5.1.3 [Examples of Original and Standard Units and Test Not Done]", "md_verbatim": "- **Row 10:** None of the tests in the LB domain were done at visit 4, as indicated by LBTESTCD = \"LBALL\", a null LBCAT value, and LBSTAT = \"NOT DONE\".", "score": 0.4732, "match_basis": "verbatim_token+chapter_route:ch04"}], "candidate_count": 5, "zero_candidate": false}
{"pdf_atom_id": "ig34_p0053_a029", "pdf_atom_type": "CODE_LITERAL", "pdf_source": "SDTMIG_v3.4", "pdf_page": 53, "pdf_parent_section": "§4.5.1.3 [Examples of Original and Standard Units and Test Not Done]", "pdf_verbatim": "eg.xpt", "figure_ref": null, "candidates": [{"md_atom_id": "md_ch04_a207", "md_file": "knowledge_base/chapters/ch04_general_assumptions.md", "md_atom_type": "CODE_LITERAL", "md_parent_section": "§4.2.3 [Use of \"Subject\" and USUBJID]", "md_verbatim": "dm.xpt:", "score": 0.69, "match_basis": "verbatim_token+chapter_route:ch04"}, {"md_atom_id": "md_ch04_a210", "md_file": "knowledge_base/chapters/ch04_general_assumptions.md", "md_atom_type": "CODE_LITERAL", "md_parent_section": "§4.2.3 [Use of \"Subject\" and USUBJID]", "md_verbatim": "dm.xpt:", "score": 0.69, "match_basis": "verbatim_token+chapter_route:ch04"}, {"md_atom_id": "md_ch04_a368", "md_file": "knowledge_base/chapters/ch04_general_assumptions.md", "md_atom_type": "CODE_LITERAL", "md_parent_section": "§4.2.8.3 [Multiple Values for a Non-result Qualifier Variable]", "md_verbatim": "ae.xpt:", "score": 0.69, "match_basis": "verbatim_token+chapter_route:ch04"}, {"md_atom_id": "md_ch04_a378", "md_file": "knowledge_base/chapters/ch04_general_assumptions.md", "md_atom_type": "CODE_LITERAL", "md_parent_section": "§4.2.8.3 [Multiple Values for a Non-result Qualifier Variable]", "md_verbatim": "ae.xpt:", "score": 0.69, "match_basis": "verbatim_token+chapter_route:ch04"}, {"md_atom_id": "md_ch04_a391", "md_file": "knowledge_base/chapters/ch04_general_assumptions.md", "md_atom_type": "CODE_LITERAL", "md_parent_section": "§4.2.8.3 [Multiple Values for a Non-result Qualifier Variable]", "md_verbatim": "ae.xpt:", "score": 0.69, "match_basis": "verbatim_token+chapter_route:ch04"}, {"md_atom_id": "md_ch04_a835", "md_file": "knowledge_base/chapters/ch04_general_assumptions.md", "md_atom_type": "CODE_LITERAL", "md_parent_section": "§4.5.1.3 [Examples of Original and Standard Units and Test Not Done]", "md_verbatim": "lb.xpt", "score": 0.69, "match_basis": "verbatim_token+chapter_route:ch04"}, {"md_atom_id": "md_ch04_a861", "md_file": "knowledge_base/chapters/ch04_general_assumptions.md", "md_atom_type": "CODE_LITERAL", "md_parent_section": "§4.5.1.3 [Examples of Original and Standard Units and Test Not Done]", "md_verbatim": "eg.xpt", "score": 0.69, "match_basis": "verbatim_token+chapter_route:ch04"}, {"md_atom_id": "md_ch04_a877", "md_file": "knowledge_base/chapters/ch04_general_assumptions.md", "md_atom_type": "CODE_LITERAL", "md_parent_section": "§4.5.1.3 [Examples of Original and Standard Units and Test Not Done]", "md_verbatim": "vs.xpt", "score": 0.69, "match_basis": "verbatim_token+chapter_route:ch04"}, {"md_atom_id": "md_ch04_a917", "md_file": "knowledge_base/chapters/ch04_general_assumptions.md", "md_atom_type": "CODE_LITERAL", "md_parent_section": "§4.5.3.2 [Text Strings Greater than 200 Characters in Other Variables]", "md_verbatim": "mh.xpt", "score": 0.69, "match_basis": "verbatim_token+chapter_route:ch04"}, {"md_atom_id": "md_ch04_a919", "md_file": "knowledge_base/chapters/ch04_general_assumptions.md", "md_atom_type": "SENTENCE", "md_parent_section": "§4.5.3.2 [Text Strings Greater than 200 Characters in Other Variables]", "md_verbatim": "mh.xpt:", "score": 0.69, "match_basis": "verbatim_token+chapter_route:ch04"}], "candidate_count": 10, "zero_candidate": false}
{"pdf_atom_id": "ig34_p0053_a030", "pdf_atom_type": "TABLE_HEADER", "pdf_source": "SDTMIG_v3.4", "pdf_page": 53, "pdf_parent_section": "§4.5.1.3 [Examples of Original and Standard Units and Test Not Done]", "pdf_verbatim": "Row | EGTESTCD | EGTEST | EGORRES | EGORRESU | EGSTRESC | EGSTRESN | EGSTRESU | EGSTAT | VISITNUM | EGDTC", "figure_ref": null, "candidates": [{"md_atom_id": "md_ch04_a868", "md_file": "knowledge_base/chapters/ch04_general_assumptions.md", "md_atom_type": "TABLE_HEADER", "md_parent_section": "§4.5.1.3 [Examples of Original and Standard Units and Test Not Done]", "md_verbatim": "| Row | EGTESTCD | EGTEST | EGORRES | EGORRESU | EGSTRESC | EGSTRESN | EGSTRESU | EGSTAT | VISITNUM | EGDTC |\n|-----|----------|--------|---------|----------|----------|----------|----------|--------|----------|-------|", "score": 0.9, "match_basis": "verbatim_token+chapter_route:ch04"}, {"md_atom_id": "md_ch04_a883", "md_file": "knowledge_base/chapters/ch04_general_assumptions.md", "md_atom_type": "TABLE_HEADER", "md_parent_section": "§4.5.1.3 [Examples of Original and Standard Units and Test Not Done]", "md_verbatim": "| Row | VSTESTCD | VSORRES | VSORRESU | VSSTRESC | VSSTRESN | VSSTRESU | VSSTAT | VSDRVFL | VISITNUM | VSDTC |\n|-----|----------|---------|----------|----------|----------|----------|--------|---------|----------|-------|", "score": 0.6143, "match_basis": "verbatim_token+chapter_route:ch04"}, {"md_atom_id": "md_ch04_a847", "md_file": "knowledge_base/chapters/ch04_general_assumptions.md", "md_atom_type": "TABLE_HEADER", "md_parent_section": "§4.5.1.3 [Examples of Original and Standard Units and Test Not Done]", "md_verbatim": "| Row | LBTESTCD | LBCAT | LBORRES | LBORRESU | LBSTRESC | LBSTRESN | LBSTRESU | LBSTAT | LBLOBXFL | VISITNUM | LBDTC |\n|-----|----------|-------|---------|----------|----------|----------|----------|--------|----------|----------|-------|", "score": 0.5809, "match_basis": "verbatim_token+chapter_route:ch04"}, {"md_atom_id": "md_ch04_a091", "md_file": "knowledge_base/chapters/ch04_general_assumptions.md", "md_atom_type": "TABLE_HEADER", "md_parent_section": "§4.1.7.1 [Example of Splitting Questionnaires]", "md_verbatim": "| Row | STUDYID | DOMAIN | USUBJID | QSSEQ | QSTESTCD | QSTEST | QSCAT | QSORRES | QSSTRESC | QSSTRESN | QSLOBXFL | VISITNUM | QSDTC | QSDY |", "score": 0.4781, "match_basis": "verbatim_token+chapter_route:ch04"}, {"md_atom_id": "md_ch04_a074", "md_file": "knowledge_base/chapters/ch04_general_assumptions.md", "md_atom_type": "TABLE_HEADER", "md_parent_section": "§4.1.7.1 [Example of Splitting Questionnaires]", "md_verbatim": "| Row | STUDYID | DOMAIN | USUBJID | QSSEQ | QSTESTCD | QSTEST | QSCAT | QSORRES | QSSTRESC | QSSTRESN | QSLOBXFL | VISITNUM | VISIT | VISITDY | QSDTC | QSDY |\n|-----|---------|--------|---------|-------|----------|--------|-------|---------|----------|----------|----------|----------|-------|---------|-------|------|", "score": 0.4727, "match_basis": "verbatim_token+chapter_route:ch04"}], "candidate_count": 5, "zero_candidate": false}
{"pdf_atom_id": "ig34_p0053_a031", "pdf_atom_type": "TABLE_ROW", "pdf_source": "SDTMIG_v3.4", "pdf_page": 53, "pdf_parent_section": "§4.5.1.3 [Examples of Original and Standard Units and Test Not Done]", "pdf_verbatim": "1 | QRSAG | PR Interval, Aggregate | 0.362 | sec | 0.362 | 0.362 | sec | | 1 | 2015-03-07", "figure_ref": null, "candidates": [{"md_atom_id": "md_ch04_a869", "md_file": "knowledge_base/chapters/ch04_general_assumptions.md", "md_atom_type": "TABLE_ROW", "md_parent_section": "§4.5.1.3 [Examples of Original and Standard Units and Test Not Done]", "md_verbatim": "| 1 | QRSAG | PR Interval, Aggregate | 0.362 | sec | 0.362 | 0.362 | sec | | 1 | 2015-03-07 |", "score": 0.9, "match_basis": "verbatim_token+chapter_route:ch04"}, {"md_atom_id": "md_ch04_a870", "md_file": "knowledge_base/chapters/ch04_general_assumptions.md", "md_atom_type": "TABLE_ROW", "md_parent_section": "§4.5.1.3 [Examples of Original and Standard Units and Test Not Done]", "md_verbatim": "| 2 | QTAG | QT Interval, Aggregate | 221 | msec | 0.221 | 0.221 | sec | | 1 | 2015-03-07 |", "score": 0.7, "match_basis": "verbatim_token+chapter_route:ch04"}, {"md_atom_id": "md_ch04_a871", "md_file": "knowledge_base/chapters/ch04_general_assumptions.md", "md_atom_type": "TABLE_ROW", "md_parent_section": "§4.5.1.3 [Examples of Original and Standard Units and Test Not Done]", "md_verbatim": "| 3 | QTCBAG | QTcB Interval, Aggregate | 412 | msec | 0.412 | 0.412 | sec | | 1 | 2015-03-07 |", "score": 0.6692, "match_basis": "verbatim_token+chapter_route:ch04"}, {"md_atom_id": "md_ch04_a874", "md_file": "knowledge_base/chapters/ch04_general_assumptions.md", "md_atom_type": "TABLE_ROW", "md_parent_section": "§4.5.1.3 [Examples of Original and Standard Units and Test Not Done]", "md_verbatim": "| 6 | PRAG | PR Interval, Aggregate | | | | | | NOT DONE | 2 | 2015-03-14 |", "score": 0.66, "match_basis": "verbatim_token+chapter_route:ch04"}, {"md_atom_id": "md_ch04_a691", "md_file": "knowledge_base/chapters/ch04_general_assumptions.md", "md_atom_type": "TABLE_ROW", "md_parent_section": "§4.4.8 [Date and Time Reported in a Domain Based on Findings]", "md_verbatim": "| Interval Collection | X | | X |", "score": 0.4286, "match_basis": "verbatim_token+chapter_route:ch04"}], "candidate_count": 5, "zero_candidate": false}
{"pdf_atom_id": "ig34_p0053_a032", "pdf_atom_type": "TABLE_ROW", "pdf_source": "SDTMIG_v3.4", "pdf_page": 53, "pdf_parent_section": "§4.5.1.3 [Examples of Original and Standard Units and Test Not Done]", "pdf_verbatim": "2 | QTAG | QT Interval, Aggregate | 221 | msec | 0.221 | 0.221 | sec | | 1 | 2015-03-07", "figure_ref": null, "candidates": [{"md_atom_id": "md_ch04_a870", "md_file": "knowledge_base/chapters/ch04_general_assumptions.md", "md_atom_type": "TABLE_ROW", "md_parent_section": "§4.5.1.3 [Examples of Original and Standard Units and Test Not Done]", "md_verbatim": "| 2 | QTAG | QT Interval, Aggregate | 221 | msec | 0.221 | 0.221 | sec | | 1 | 2015-03-07 |", "score": 0.9, "match_basis": "verbatim_token+chapter_route:ch04"}, {"md_atom_id": "md_ch04_a871", "md_file": "knowledge_base/chapters/ch04_general_assumptions.md", "md_atom_type": "TABLE_ROW", "md_parent_section": "§4.5.1.3 [Examples of Original and Standard Units and Test Not Done]", "md_verbatim": "| 3 | QTCBAG | QTcB Interval, Aggregate | 412 | msec | 0.412 | 0.412 | sec | | 1 | 2015-03-07 |", "score": 0.708, "match_basis": "verbatim_token+chapter_route:ch04"}, {"md_atom_id": "md_ch04_a869", "md_file": "knowledge_base/chapters/ch04_general_assumptions.md", "md_atom_type": "TABLE_ROW", "md_parent_section": "§4.5.1.3 [Examples of Original and Standard Units and Test Not Done]", "md_verbatim": "| 1 | QRSAG | PR Interval, Aggregate | 0.362 | sec | 0.362 | 0.362 | sec | | 1 | 2015-03-07 |", "score": 0.7, "match_basis": "verbatim_token+chapter_route:ch04"}, {"md_atom_id": "md_ch04_a874", "md_file": "knowledge_base/chapters/ch04_general_assumptions.md", "md_atom_type": "TABLE_ROW", "md_parent_section": "§4.5.1.3 [Examples of Original and Standard Units and Test Not Done]", "md_verbatim": "| 6 | PRAG | PR Interval, Aggregate | | | | | | NOT DONE | 2 | 2015-03-14 |", "score": 0.66, "match_basis": "verbatim_token+chapter_route:ch04"}, {"md_atom_id": "md_ch04_a691", "md_file": "knowledge_base/chapters/ch04_general_assumptions.md", "md_atom_type": "TABLE_ROW", "md_parent_section": "§4.4.8 [Date and Time Reported in a Domain Based on Findings]", "md_verbatim": "| Interval Collection | X | | X |", "score": 0.4286, "match_basis": "verbatim_token+chapter_route:ch04"}], "candidate_count": 5, "zero_candidate": false}
{"pdf_atom_id": "ig34_p0053_a033", "pdf_atom_type": "TABLE_ROW", "pdf_source": "SDTMIG_v3.4", "pdf_page": 53, "pdf_parent_section": "§4.5.1.3 [Examples of Original and Standard Units and Test Not Done]", "pdf_verbatim": "3 | QTCBAG | QTcB Interval, Aggregate | 412 | msec | 0.412 | 0.412 | sec | | 1 | 2015-03-07", "figure_ref": null, "candidates": [{"md_atom_id": "md_ch04_a871", "md_file": "knowledge_base/chapters/ch04_general_assumptions.md", "md_atom_type": "TABLE_ROW", "md_parent_section": "§4.5.1.3 [Examples of Original and Standard Units and Test Not Done]", "md_verbatim": "| 3 | QTCBAG | QTcB Interval, Aggregate | 412 | msec | 0.412 | 0.412 | sec | | 1 | 2015-03-07 |", "score": 0.9, "match_basis": "verbatim_token+chapter_route:ch04"}, {"md_atom_id": "md_ch04_a870", "md_file": "knowledge_base/chapters/ch04_general_assumptions.md", "md_atom_type": "TABLE_ROW", "md_parent_section": "§4.5.1.3 [Examples of Original and Standard Units and Test Not Done]", "md_verbatim": "| 2 | QTAG | QT Interval, Aggregate | 221 | msec | 0.221 | 0.221 | sec | | 1 | 2015-03-07 |", "score": 0.708, "match_basis": "verbatim_token+chapter_route:ch04"}, {"md_atom_id": "md_ch04_a869", "md_file": "knowledge_base/chapters/ch04_general_assumptions.md", "md_atom_type": "TABLE_ROW", "md_parent_section": "§4.5.1.3 [Examples of Original and Standard Units and Test Not Done]", "md_verbatim": "| 1 | QRSAG | PR Interval, Aggregate | 0.362 | sec | 0.362 | 0.362 | sec | | 1 | 2015-03-07 |", "score": 0.6692, "match_basis": "verbatim_token+chapter_route:ch04"}, {"md_atom_id": "md_ch04_a874", "md_file": "knowledge_base/chapters/ch04_general_assumptions.md", "md_atom_type": "TABLE_ROW", "md_parent_section": "§4.5.1.3 [Examples of Original and Standard Units and Test Not Done]", "md_verbatim": "| 6 | PRAG | PR Interval, Aggregate | | | | | | NOT DONE | 2 | 2015-03-14 |", "score": 0.6333, "match_basis": "verbatim_token+chapter_route:ch04"}, {"md_atom_id": "md_ch04_a691", "md_file": "knowledge_base/chapters/ch04_general_assumptions.md", "md_atom_type": "TABLE_ROW", "md_parent_section": "§4.4.8 [Date and Time Reported in a Domain Based on Findings]", "md_verbatim": "| Interval Collection | X | | X |", "score": 0.42, "match_basis": "verbatim_token+chapter_route:ch04"}], "candidate_count": 5, "zero_candidate": false}
{"pdf_atom_id": "ig34_p0054_a001", "pdf_atom_type": "TABLE_ROW", "pdf_source": "SDTMIG_v3.4", "pdf_page": 54, "pdf_parent_section": "§4.5.1.3 [Examples of Original and Standard Units and Test Not Done]", "pdf_verbatim": "4 | SPRTARRY | Supraventricular Tachyarrhythmias | ATRIAL FLUTTER | | ATRIAL FLUTTER | | | | 1 | 2015-03-07", "figure_ref": null, "candidates": [{"md_atom_id": "md_ch04_a872", "md_file": "knowledge_base/chapters/ch04_general_assumptions.md", "md_atom_type": "TABLE_ROW", "md_parent_section": "§4.5.1.3 [Examples of Original and Standard Units and Test Not Done]", "md_verbatim": "| 4 | SPRTARRY | Supraventricular Tachyarrhythmias | ATRIAL FLUTTER | | ATRIAL FLUTTER | | | | 1 | 2015-03-07 |", "score": 0.9, "match_basis": "verbatim_token+chapter_route:ch04"}, {"md_atom_id": "md_ch04_a356", "md_file": "knowledge_base/chapters/ch04_general_assumptions.md", "md_atom_type": "LIST_ITEM", "md_parent_section": "§4.2.8.2 [Multiple Values for a Findings Result Variable]", "md_verbatim": "- EGTESTCD = \"SPRTARRY\", EGTEST = \"Supraventricular Tachyarrhythmias\", EGORRES = \"ATRIAL FLUTTER\"", "score": 0.5756, "match_basis": "verbatim_token+chapter_route:ch04"}, {"md_atom_id": "md_ch04_a355", "md_file": "knowledge_base/chapters/ch04_general_assumptions.md", "md_atom_type": "LIST_ITEM", "md_parent_section": "§4.2.8.2 [Multiple Values for a Findings Result Variable]", "md_verbatim": "- EGTESTCD = \"SPRTARRY\", EGTEST = \"Supraventricular Tachyarrhythmias\", EGORRES = \"ATRIAL FIBRILLATION\"", "score": 0.4575, "match_basis": "verbatim_token+chapter_route:ch04"}, {"md_atom_id": "md_ch04_a874", "md_file": "knowledge_base/chapters/ch04_general_assumptions.md", "md_atom_type": "TABLE_ROW", "md_parent_section": "§4.5.1.3 [Examples of Original and Standard Units and Test Not Done]", "md_verbatim": "| 6 | PRAG | PR Interval, Aggregate | | | | | | NOT DONE | 2 | 2015-03-14 |", "score": 0.3407, "match_basis": "verbatim_token+chapter_route:ch04"}, {"md_atom_id": "md_ch04_a869", "md_file": "knowledge_base/chapters/ch04_general_assumptions.md", "md_atom_type": "TABLE_ROW", "md_parent_section": "§4.5.1.3 [Examples of Original and Standard Units and Test Not Done]", "md_verbatim": "| 1 | QRSAG | PR Interval, Aggregate | 0.362 | sec | 0.362 | 0.362 | sec | | 1 | 2015-03-07 |", "score": 0.33, "match_basis": "verbatim_token+chapter_route:ch04"}], "candidate_count": 5, "zero_candidate": false}
{"pdf_atom_id": "ig34_p0054_a002", "pdf_atom_type": "TABLE_ROW", "pdf_source": "SDTMIG_v3.4", "pdf_page": 54, "pdf_parent_section": "§4.5.1.3 [Examples of Original and Standard Units and Test Not Done]", "pdf_verbatim": "6 | INTP | Interpretation | ABNORMAL | | ABNORMAL | | | | 1 | 2015-03-07", "figure_ref": null, "candidates": [{"md_atom_id": "md_ch04_a873", "md_file": "knowledge_base/chapters/ch04_general_assumptions.md", "md_atom_type": "TABLE_ROW", "md_parent_section": "§4.5.1.3 [Examples of Original and Standard Units and Test Not Done]", "md_verbatim": "| 5 | INTP | Interpretation | ABNORMAL | | ABNORMAL | | | | 1 | 2015-03-07 |", "score": 0.9, "match_basis": "verbatim_token+chapter_route:ch04"}, {"md_atom_id": "md_ch04_a691", "md_file": "knowledge_base/chapters/ch04_general_assumptions.md", "md_atom_type": "TABLE_ROW", "md_parent_section": "§4.4.8 [Date and Time Reported in a Domain Based on Findings]", "md_verbatim": "| Interval Collection | X | | X |", "score": 0.4, "match_basis": "verbatim_token+chapter_route:ch04"}, {"md_atom_id": "md_ch04_a869", "md_file": "knowledge_base/chapters/ch04_general_assumptions.md", "md_atom_type": "TABLE_ROW", "md_parent_section": "§4.5.1.3 [Examples of Original and Standard Units and Test Not Done]", "md_verbatim": "| 1 | QRSAG | PR Interval, Aggregate | 0.362 | sec | 0.362 | 0.362 | sec | | 1 | 2015-03-07 |", "score": 0.3833, "match_basis": "verbatim_token+chapter_route:ch04"}, {"md_atom_id": "md_ch04_a870", "md_file": "knowledge_base/chapters/ch04_general_assumptions.md", "md_atom_type": "TABLE_ROW", "md_parent_section": "§4.5.1.3 [Examples of Original and Standard Units and Test Not Done]", "md_verbatim": "| 2 | QTAG | QT Interval, Aggregate | 221 | msec | 0.221 | 0.221 | sec | | 1 | 2015-03-07 |", "score": 0.3833, "match_basis": "verbatim_token+chapter_route:ch04"}, {"md_atom_id": "md_ch04_a874", "md_file": "knowledge_base/chapters/ch04_general_assumptions.md", "md_atom_type": "TABLE_ROW", "md_parent_section": "§4.5.1.3 [Examples of Original and Standard Units and Test Not Done]", "md_verbatim": "| 6 | PRAG | PR Interval, Aggregate | | | | | | NOT DONE | 2 | 2015-03-14 |", "score": 0.3833, "match_basis": "verbatim_token+chapter_route:ch04"}], "candidate_count": 5, "zero_candidate": false}
{"pdf_atom_id": "ig34_p0054_a003", "pdf_atom_type": "TABLE_ROW", "pdf_source": "SDTMIG_v3.4", "pdf_page": 54, "pdf_parent_section": "§4.5.1.3 [Examples of Original and Standard Units and Test Not Done]", "pdf_verbatim": "6 | PRAG | PR Interval, Aggregate | | | | | | NOT DONE | 2 | 2015-03-14", "figure_ref": null, "candidates": [{"md_atom_id": "md_ch04_a874", "md_file": "knowledge_base/chapters/ch04_general_assumptions.md", "md_atom_type": "TABLE_ROW", "md_parent_section": "§4.5.1.3 [Examples of Original and Standard Units and Test Not Done]", "md_verbatim": "| 6 | PRAG | PR Interval, Aggregate | | | | | | NOT DONE | 2 | 2015-03-14 |", "score": 0.9, "match_basis": "verbatim_token+chapter_route:ch04"}, {"md_atom_id": "md_ch04_a869", "md_file": "knowledge_base/chapters/ch04_general_assumptions.md", "md_atom_type": "TABLE_ROW", "md_parent_section": "§4.5.1.3 [Examples of Original and Standard Units and Test Not Done]", "md_verbatim": "| 1 | QRSAG | PR Interval, Aggregate | 0.362 | sec | 0.362 | 0.362 | sec | | 1 | 2015-03-07 |", "score": 0.66, "match_basis": "verbatim_token+chapter_route:ch04"}, {"md_atom_id": "md_ch04_a870", "md_file": "knowledge_base/chapters/ch04_general_assumptions.md", "md_atom_type": "TABLE_ROW", "md_parent_section": "§4.5.1.3 [Examples of Original and Standard Units and Test Not Done]", "md_verbatim": "| 2 | QTAG | QT Interval, Aggregate | 221 | msec | 0.221 | 0.221 | sec | | 1 | 2015-03-07 |", "score": 0.66, "match_basis": "verbatim_token+chapter_route:ch04"}, {"md_atom_id": "md_ch04_a871", "md_file": "knowledge_base/chapters/ch04_general_assumptions.md", "md_atom_type": "TABLE_ROW", "md_parent_section": "§4.5.1.3 [Examples of Original and Standard Units and Test Not Done]", "md_verbatim": "| 3 | QTCBAG | QTcB Interval, Aggregate | 412 | msec | 0.412 | 0.412 | sec | | 1 | 2015-03-07 |", "score": 0.6333, "match_basis": "verbatim_token+chapter_route:ch04"}, {"md_atom_id": "md_ch04_a691", "md_file": "knowledge_base/chapters/ch04_general_assumptions.md", "md_atom_type": "TABLE_ROW", "md_parent_section": "§4.4.8 [Date and Time Reported in a Domain Based on Findings]", "md_verbatim": "| Interval Collection | X | | X |", "score": 0.4286, "match_basis": "verbatim_token+chapter_route:ch04"}], "candidate_count": 5, "zero_candidate": false}
{"pdf_atom_id": "ig34_p0054_a004", "pdf_atom_type": "TABLE_ROW", "pdf_source": "SDTMIG_v3.4", "pdf_page": 54, "pdf_parent_section": "§4.5.1.3 [Examples of Original and Standard Units and Test Not Done]", "pdf_verbatim": "7 | EGALL | ECG Test Results | | | | | | NOT DONE | 3 | 2015-03-21", "figure_ref": null, "candidates": [{"md_atom_id": "md_ch04_a875", "md_file": "knowledge_base/chapters/ch04_general_assumptions.md", "md_atom_type": "TABLE_ROW", "md_parent_section": "§4.5.1.3 [Examples of Original and Standard Units and Test Not Done]", "md_verbatim": "| 7 | EGALL | ECG Test Results | | | | | | NOT DONE | 3 | 2015-03-21 |", "score": 0.9, "match_basis": "verbatim_token+chapter_route:ch04"}, {"md_atom_id": "md_ch04_a857", "md_file": "knowledge_base/chapters/ch04_general_assumptions.md", "md_atom_type": "TABLE_ROW", "md_parent_section": "§4.5.1.3 [Examples of Original and Standard Units and Test Not Done]", "md_verbatim": "| 10 | LBALL | | | | | | | NOT DONE | | 4 | 2016-02-22 |", "score": 0.4579, "match_basis": "verbatim_token+chapter_route:ch04"}, {"md_atom_id": "md_ch04_a890", "md_file": "knowledge_base/chapters/ch04_general_assumptions.md", "md_atom_type": "TABLE_ROW", "md_parent_section": "§4.5.1.3 [Examples of Original and Standard Units and Test Not Done]", "md_verbatim": "| 7 | VSALL | | | | | | NOT DONE | | 2 | 2016-07-25 |", "score": 0.4579, "match_basis": "verbatim_token+chapter_route:ch04"}, {"md_atom_id": "md_ch04_a886", "md_file": "knowledge_base/chapters/ch04_general_assumptions.md", "md_atom_type": "TABLE_ROW", "md_parent_section": "§4.5.1.3 [Examples of Original and Standard Units and Test Not Done]", "md_verbatim": "| 3 | HR | | | | | | NOT DONE | | 1 | 2016-07-18 |", "score": 0.4412, "match_basis": "verbatim_token+chapter_route:ch04"}, {"md_atom_id": "md_ch04_a874", "md_file": "knowledge_base/chapters/ch04_general_assumptions.md", "md_atom_type": "TABLE_ROW", "md_parent_section": "§4.5.1.3 [Examples of Original and Standard Units and Test Not Done]", "md_verbatim": "| 6 | PRAG | PR Interval, Aggregate | | | | | | NOT DONE | 2 | 2015-03-14 |", "score": 0.42, "match_basis": "verbatim_token+chapter_route:ch04"}], "candidate_count": 5, "zero_candidate": false}
{"pdf_atom_id": "ig34_p0054_a005", "pdf_atom_type": "HEADING", "pdf_source": "SDTMIG_v3.4", "pdf_page": 54, "pdf_parent_section": "§4.5.1.3 [Examples of Original and Standard Units and Test Not Done]", "pdf_verbatim": "Example 3", "figure_ref": null, "candidates": [{"md_atom_id": "md_ch04_a069", "md_file": "knowledge_base/chapters/ch04_general_assumptions.md", "md_atom_type": "HEADING", "md_parent_section": "§4.1.7 [Splitting Domains]", "md_verbatim": "#### 4.1.7.1 Example of Splitting Questionnaires", "score": 0.425, "match_basis": "verbatim_token+chapter_route:ch04"}, {"md_atom_id": "md_ch04_a831", "md_file": "knowledge_base/chapters/ch04_general_assumptions.md", "md_atom_type": "HEADING", "md_parent_section": "§4.5.1 [Original and Standardized Results]", "md_verbatim": "#### 4.5.1.3 Examples of Original and Standard Units and Test Not Done", "score": 0.4154, "match_basis": "verbatim_token+chapter_route:ch04"}, {"md_atom_id": "md_ch04_a007", "md_file": "knowledge_base/chapters/ch04_general_assumptions.md", "md_atom_type": "HEADING", "md_parent_section": "§4.1 [General Domain Assumptions]", "md_verbatim": "### 4.1.1 Review Study Data Tabulation Model and Implementation Guide", "score": 0.3333, "match_basis": "verbatim_token+chapter_route:ch04"}, {"md_atom_id": "md_ch04_a346", "md_file": "knowledge_base/chapters/ch04_general_assumptions.md", "md_atom_type": "HEADING", "md_parent_section": "§4.2 [General Variable Assumptions]", "md_verbatim": "### 4.2.8 Multiple Values for a Variable", "score": 0.3286, "match_basis": "verbatim_token+chapter_route:ch04"}, {"md_atom_id": "md_ch04_a400", "md_file": "knowledge_base/chapters/ch04_general_assumptions.md", "md_atom_type": "HEADING", "md_parent_section": "§4.2.8 [Multiple Values for a Variable]", "md_verbatim": "#### 4.2.8.4 Multiple Values for a Parameter", "score": 0.3273, "match_basis": "verbatim_token+chapter_route:ch04"}, {"md_atom_id": "md_ch04_a891", "md_file": "knowledge_base/chapters/ch04_general_assumptions.md", "md_atom_type": "HEADING", "md_parent_section": "§4.5 [Other Assumptions]", "md_verbatim": "### 4.5.2 Linking Multiple Observations", "score": 0.324, "match_basis": "verbatim_token+chapter_route:ch04"}, {"md_atom_id": "md_ch04_a975", "md_file": "knowledge_base/chapters/ch04_general_assumptions.md", "md_atom_type": "HEADING", "md_parent_section": "§4.5 [Other Assumptions]", "md_verbatim": "### 4.5.6 Supplemental Reason Variables", "score": 0.324, "match_basis": "verbatim_token+chapter_route:ch04"}, {"md_atom_id": "md_ch04_a352", "md_file": "knowledge_base/chapters/ch04_general_assumptions.md", "md_atom_type": "HEADING", "md_parent_section": "§4.2.8 [Multiple Values for a Variable]", "md_verbatim": "#### 4.2.8.2 Multiple Values for a Findings Result Variable", "score": 0.32, "match_basis": "verbatim_token+chapter_route:ch04"}, {"md_atom_id": "md_ch04_a359", "md_file": "knowledge_base/chapters/ch04_general_assumptions.md", "md_atom_type": "HEADING", "md_parent_section": "§4.2.8 [Multiple Values for a Variable]", "md_verbatim": "#### 4.2.8.3 Multiple Values for a Non-result Qualifier Variable", "score": 0.3187, "match_basis": "verbatim_token+chapter_route:ch04"}, {"md_atom_id": "md_ch04_a347", "md_file": "knowledge_base/chapters/ch04_general_assumptions.md", "md_atom_type": "HEADING", "md_parent_section": "§4.2.8 [Multiple Values for a Variable]", "md_verbatim": "#### 4.2.8.1 Multiple Values for an Intervention or Event Topic Variable", "score": 0.3171, "match_basis": "verbatim_token+chapter_route:ch04"}], "candidate_count": 10, "zero_candidate": false}
{"pdf_atom_id": "ig34_p0054_a006", "pdf_atom_type": "SENTENCE", "pdf_source": "SDTMIG_v3.4", "pdf_page": 54, "pdf_parent_section": "§4.5.1.3 [Examples of Original and Standard Units and Test Not Done]", "pdf_verbatim": "Rows 1-2: Numeric values were converted to standard units.", "figure_ref": null, "candidates": [{"md_atom_id": "md_ch04_a878", "md_file": "knowledge_base/chapters/ch04_general_assumptions.md", "md_atom_type": "LIST_ITEM", "md_parent_section": "§4.5.1.3 [Examples of Original and Standard Units and Test Not Done]", "md_verbatim": "- **Rows 1-2:** Numeric values were converted to standard units.", "score": 0.81, "match_basis": "verbatim_token+chapter_route:ch04"}, {"md_atom_id": "md_ch04_a836", "md_file": "knowledge_base/chapters/ch04_general_assumptions.md", "md_atom_type": "LIST_ITEM", "md_parent_section": "§4.5.1.3 [Examples of Original and Standard Units and Test Not Done]", "md_verbatim": "- **Row 1:** A numeric value was converted to the standard unit.", "score": 0.6745, "match_basis": "verbatim_token+chapter_route:ch04"}, {"md_atom_id": "md_ch04_a863", "md_file": "knowledge_base/chapters/ch04_general_assumptions.md", "md_atom_type": "LIST_ITEM", "md_parent_section": "§4.5.1.3 [Examples of Original and Standard Units and Test Not Done]", "md_verbatim": "- **Rows 2-3:** Numeric results were converted to standard units.", "score": 0.6512, "match_basis": "verbatim_token+chapter_route:ch04"}, {"md_atom_id": "md_ch04_a837", "md_file": "knowledge_base/chapters/ch04_general_assumptions.md", "md_atom_type": "LIST_ITEM", "md_parent_section": "§4.5.1.3 [Examples of Original and Standard Units and Test Not Done]", "md_verbatim": "- **Row 2:** A numeric value was copied; the original unit was the standard unit so conversion was not needed.", "score": 0.462, "match_basis": "verbatim_token+chapter_route:ch04"}, {"md_atom_id": "md_ch04_a959", "md_file": "knowledge_base/chapters/ch04_general_assumptions.md", "md_atom_type": "SENTENCE", "md_parent_section": "§4.5.4 [Evaluators in the Interventions and Events Observation Classes]", "md_verbatim": "The evaluations of the adverse event by the primary investigator were represented in the standard AE dataset.", "score": 0.4114, "match_basis": "verbatim_token+chapter_route:ch04"}], "candidate_count": 5, "zero_candidate": false}
{"pdf_atom_id": "ig34_p0054_a007", "pdf_atom_type": "SENTENCE", "pdf_source": "SDTMIG_v3.4", "pdf_page": 54, "pdf_parent_section": "§4.5.1.3 [Examples of Original and Standard Units and Test Not Done]", "pdf_verbatim": "Row 3: A result for VSTESTCD = \"HR\" is missing, as indicated by VSSTAT = \"NOT DONE\"; neither VSORRES nor VSSTRESC is populated.", "figure_ref": null, "candidates": [{"md_atom_id": "md_ch04_a879", "md_file": "knowledge_base/chapters/ch04_general_assumptions.md", "md_atom_type": "LIST_ITEM", "md_parent_section": "§4.5.1.3 [Examples of Original and Standard Units and Test Not Done]", "md_verbatim": "- **Row 3:** A result for VSTESTCD = \"HR\" is missing, as indicated by VSSTAT = \"NOT DONE\"; neither VSORRES nor VSSTRESC is populated.", "score": 0.81, "match_basis": "verbatim_token+chapter_route:ch04"}, {"md_atom_id": "md_ch04_a866", "md_file": "knowledge_base/chapters/ch04_general_assumptions.md", "md_atom_type": "LIST_ITEM", "md_parent_section": "§4.5.1.3 [Examples of Original and Standard Units and Test Not Done]", "md_verbatim": "- **Row 6:** The result for EGTESTCD = \"PRAG\" was missing at visit 2, as indicated by EGSTAT = \"NOT DONE\"; neither EGORRES nor EGSTRESC is populated.", "score": 0.633, "match_basis": "verbatim_token+chapter_route:ch04"}, {"md_atom_id": "md_ch04_a842", "md_file": "knowledge_base/chapters/ch04_general_assumptions.md", "md_atom_type": "LIST_ITEM", "md_parent_section": "§4.5.1.3 [Examples of Original and Standard Units and Test Not Done]", "md_verbatim": "- **Row 8:** A result for LBTEST = \"HCT\" is missing for visit 2, as indicated by LBSTAT = \"NOT DONE\"; neither LBORRES nor LBSTRESC is populated.", "score": 0.6269, "match_basis": "verbatim_token+chapter_route:ch04"}, {"md_atom_id": "md_ch04_a882", "md_file": "knowledge_base/chapters/ch04_general_assumptions.md", "md_atom_type": "LIST_ITEM", "md_parent_section": "§4.5.1.3 [Examples of Original and Standard Units and Test Not Done]", "md_verbatim": "- **Row 7:** At visit 2, there were no Vital Signs results, as indicated by VSTESTCD = \"VSALL\" and VSSTAT = \"NOT DONE\".", "score": 0.4592, "match_basis": "verbatim_token+chapter_route:ch04"}, {"md_atom_id": "md_ch04_a867", "md_file": "knowledge_base/chapters/ch04_general_assumptions.md", "md_atom_type": "LIST_ITEM", "md_parent_section": "§4.5.1.3 [Examples of Original and Standard Units and Test Not Done]", "md_verbatim": "- **Row 7:** At visit 3, there were no ECG results, as indicated by EGTESTCD = \"EGALL\" and EGSTAT = \"NOT DONE\".", "score": 0.4256, "match_basis": "verbatim_token+chapter_route:ch04"}], "candidate_count": 5, "zero_candidate": false}
{"pdf_atom_id": "ig34_p0054_a008", "pdf_atom_type": "SENTENCE", "pdf_source": "SDTMIG_v3.4", "pdf_page": 54, "pdf_parent_section": "§4.5.1.3 [Examples of Original and Standard Units and Test Not Done]", "pdf_verbatim": "Rows 4-5: Two measurements for VSTESTCD= \"SYSBP\" were done at visit 1.", "figure_ref": null, "candidates": [{"md_atom_id": "md_ch04_a880", "md_file": "knowledge_base/chapters/ch04_general_assumptions.md", "md_atom_type": "LIST_ITEM", "md_parent_section": "§4.5.1.3 [Examples of Original and Standard Units and Test Not Done]", "md_verbatim": "- **Rows 4-5:** Two measurements for VSTESTCD = \"SYSBP\" were done at visit 1.", "score": 0.81, "match_basis": "verbatim_token+chapter_route:ch04"}, {"md_atom_id": "md_ch04_a881", "md_file": "knowledge_base/chapters/ch04_general_assumptions.md", "md_atom_type": "LIST_ITEM", "md_parent_section": "§4.5.1.3 [Examples of Original and Standard Units and Test Not Done]", "md_verbatim": "- **Row 6:** A third measurement for VSTESTCD = \"SYSBP\" at visit 1 was a derived record, as indicated by VSDRVFL = \"Y\".", "score": 0.4609, "match_basis": "verbatim_token+chapter_route:ch04"}, {"md_atom_id": "md_ch04_a824", "md_file": "knowledge_base/chapters/ch04_general_assumptions.md", "md_atom_type": "SENTENCE", "md_parent_section": "§4.5.1 [Original and Standardized Results]", "md_verbatim": "**Tests Not Done (§4.5.1.2):**", "score": 0.375, "match_basis": "verbatim_token+chapter_route:ch04"}, {"md_atom_id": "md_ch04_a619", "md_file": "knowledge_base/chapters/ch04_general_assumptions.md", "md_atom_type": "SENTENCE", "md_parent_section": "§4.4.5 [Clinical Encounters and Visits]", "md_verbatim": "**Example** (lb.xpt sample rows showing how visit identifiers might be used for lab data):", "score": 0.3724, "match_basis": "verbatim_token+chapter_route:ch04"}, {"md_atom_id": "md_ch04_a456", "md_file": "knowledge_base/chapters/ch04_general_assumptions.md", "md_atom_type": "SENTENCE", "md_parent_section": "§4.3.6 [Storing Topic Variables for General Domain Models]", "md_verbatim": "For a Findings domain, the topic variable --TESTCD should use controlled terminology (e.g., \"SYSBP\" for systolic blood pressure).", "score": 0.3714, "match_basis": "verbatim_token+chapter_route:ch04"}], "candidate_count": 5, "zero_candidate": false}
