{"pdf_atom_id": "sv20_p0021_a002", "pdf_atom_type": "TABLE_ROW", "pdf_source": "SDTM_v2.0", "pdf_page": 21, "pdf_parent_section": "§3.1.3 The Findings Observation Class", "pdf_verbatim": "3 | --SBMRKS | Sublineage Marker String | Char | | Variable Qualifier | --TESTCD | CP domain only | | Used to further subset the cell population identified in CPTEST based on the use of additional marker(s) that define a sublineage. The value in CPSBMRKS is used in combination with values in CPTEST and CPCELSTA to fully describe the cell population being measured. As such, it is an essential component of the full test name. | | Three unnamed sublineages of monocytes have been identified: CCR2+CD16-; CCR2-CD16+; and CCR2+CD16+. Whereas the entire monocyte cell population can be defined as CD14+ cells, the additional CCR2 and CD16 markers are used to differentiate one sublineage from another, none of which has yet been given a name by the scientific community. By combining the CPTEST value of \"Monocyte Subset\" with the value of \"CCR2+CD16-\" in CPSBMRKS, the full test is defined to be the CCR2+CD16- monocyte subpopulation.", "figure_ref": null, "candidates": [{"md_atom_id": "md_ch03_a044", "md_file": "knowledge_base/chapters/ch03_submitting_data.md", "md_atom_type": "TABLE_ROW", "md_parent_section": "§3.2.1 [Dataset-level Metadata]", "md_verbatim": "| BS | Biospecimen Findings | Findings | One record per measurement per biospecimen identifier per subject | Tabulation | STUDYID, USUBJID, BSREFID, BSTESTCD | bs.xpt |", "score": 0.3659, "match_basis": "verbatim_token+chapter_route:ch03"}, {"md_atom_id": "md_ch03_a086", "md_file": "knowledge_base/chapters/ch03_submitting_data.md", "md_atom_type": "TABLE_ROW", "md_parent_section": "§3.2.1 [Dataset-level Metadata]", "md_verbatim": "| SUPP-- | Supplemental Qualifiers for [domain name] | Relationship | One record per supplemental qualifier per related parent domain record(s) | Tabulation | STUDYID, RDOMAIN, USUBJID, IDVAR, IDVARVAL, QNAM | supp--.xpt |", "score": 0.3659, "match_basis": "verbatim_token+chapter_route:ch03"}, {"md_atom_id": "md_ch03_a067", "md_file": "knowledge_base/chapters/ch03_submitting_data.md", "md_atom_type": "TABLE_ROW", "md_parent_section": "§3.2.1 [Dataset-level Metadata]", "md_verbatim": "| RS | Disease Response and Clin Classification | Findings | One record per response assessment or clinical classification assessment per time point per visit per subject per assessor per medical evaluator | Tabulation | STUDYID, USUBJID, RSTESTCD, VISITNUM, RSTPTREF, RSEVAL, RSPTPNUM, RSEVALID | rs.xpt |", "score": 0.3587, "match_basis": "verbatim_token+chapter_route:ch03"}, {"md_atom_id": "md_ch03_a070", "md_file": "knowledge_base/chapters/ch03_submitting_data.md", "md_atom_type": "TABLE_ROW", "md_parent_section": "§3.2.1 [Dataset-level Metadata]", "md_verbatim": "| TR | Tumor/Lesion Results | Findings | One record per tumor measurement/assessment per visit per subject per assessor | Tabulation | STUDYID, USUBJID, TRTESTCD, TREVALID, VISITNUM | tr.xpt |", "score": 0.3529, "match_basis": "verbatim_token+chapter_route:ch03"}, {"md_atom_id": "md_ch03_a071", "md_file": "knowledge_base/chapters/ch03_submitting_data.md", "md_atom_type": "TABLE_ROW", "md_parent_section": "§3.2.1 [Dataset-level Metadata]", "md_verbatim": "| TU | Tumor/Lesion Identification | Findings | One record per identified tumor per subject per assessor | Tabulation | STUDYID, USUBJID, TUEVALID, TULNKID | tu.xpt |", "score": 0.3528, "match_basis": "verbatim_token+chapter_route:ch03"}], "candidate_count": 5, "zero_candidate": false}
{"pdf_atom_id": "sv20_p0021_a003", "pdf_atom_type": "TABLE_ROW", "pdf_source": "SDTM_v2.0", "pdf_page": 21, "pdf_parent_section": "§3.1.3 The Findings Observation Class", "pdf_verbatim": "4 | --CELSTA | Cell State | Char | | Variable Qualifier | --TESTCD | CP domain only | | A textual description of a subset of the cell population identified in CPTEST based on a particular functional and/or biological state (e.g., primed, activated, proliferating, senescent, G2-arrested). When populated, the values in CPCELSTA and CPSMRKS, in combination with values in CPTEST and CPSBMRKS, fully describe the cell population being measured. | | ", "figure_ref": null, "candidates": [{"md_atom_id": "md_ch03_a044", "md_file": "knowledge_base/chapters/ch03_submitting_data.md", "md_atom_type": "TABLE_ROW", "md_parent_section": "§3.2.1 [Dataset-level Metadata]", "md_verbatim": "| BS | Biospecimen Findings | Findings | One record per measurement per biospecimen identifier per subject | Tabulation | STUDYID, USUBJID, BSREFID, BSTESTCD | bs.xpt |", "score": 0.3831, "match_basis": "verbatim_token+chapter_route:ch03"}, {"md_atom_id": "md_ch03_a086", "md_file": "knowledge_base/chapters/ch03_submitting_data.md", "md_atom_type": "TABLE_ROW", "md_parent_section": "§3.2.1 [Dataset-level Metadata]", "md_verbatim": "| SUPP-- | Supplemental Qualifiers for [domain name] | Relationship | One record per supplemental qualifier per related parent domain record(s) | Tabulation | STUDYID, RDOMAIN, USUBJID, IDVAR, IDVARVAL, QNAM | supp--.xpt |", "score": 0.3693, "match_basis": "verbatim_token+chapter_route:ch03"}, {"md_atom_id": "md_ch03_a066", "md_file": "knowledge_base/chapters/ch03_submitting_data.md", "md_atom_type": "TABLE_ROW", "md_parent_section": "§3.2.1 [Dataset-level Metadata]", "md_verbatim": "| RP | Reproductive System Findings | Findings | One record per finding or result per time point per visit per subject | Tabulation | STUDYID, DOMAIN, USUBJID, RPTESTCD, VISITNUM | rp.xpt |", "score": 0.3647, "match_basis": "verbatim_token+chapter_route:ch03"}, {"md_atom_id": "md_ch03_a067", "md_file": "knowledge_base/chapters/ch03_submitting_data.md", "md_atom_type": "TABLE_ROW", "md_parent_section": "§3.2.1 [Dataset-level Metadata]", "md_verbatim": "| RS | Disease Response and Clin Classification | Findings | One record per response assessment or clinical classification assessment per time point per visit per subject per assessor per medical evaluator | Tabulation | STUDYID, USUBJID, RSTESTCD, VISITNUM, RSTPTREF, RSEVAL, RSPTPNUM, RSEVALID | rs.xpt |", "score": 0.363, "match_basis": "verbatim_token+chapter_route:ch03"}, {"md_atom_id": "md_ch03_a058", "md_file": "knowledge_base/chapters/ch03_submitting_data.md", "md_atom_type": "TABLE_ROW", "md_parent_section": "§3.2.1 [Dataset-level Metadata]", "md_verbatim": "| MS | Microbiology Susceptibility | Findings | One record per microbiology susceptibility test (or other organism-related finding) per organism found in MB | Tabulation | STUDYID, USUBJID, MSTESTCD, VISITNUM, MSTPTREF, MSTPTNUM | ms.xpt |", "score": 0.3575, "match_basis": "verbatim_token+chapter_route:ch03"}], "candidate_count": 5, "zero_candidate": false}
{"pdf_atom_id": "sv20_p0021_a004", "pdf_atom_type": "TABLE_ROW", "pdf_source": "SDTM_v2.0", "pdf_page": 21, "pdf_parent_section": "§3.1.3 The Findings Observation Class", "pdf_verbatim": "5 | --CSMRKS | Cell State Marker String | Char | | Variable Qualifier | --TESTCD | CP domain only | | Identifies the marker(s) or indicator(s) used to define the cell state (i.e., the value in CPCELSTA). | When Ki67 expression is used to determine that a cell population is in a proliferating state (i.e., CPCELSTA value = \"PROLIFERATING\"), the value \"Ki67+\" in CPCSMRKS indicates that positive expression of Ki67 was used to define the population as proliferating. Similarly, a value of \"Ki67-\" in CPCSMRKS would indicate that lack of expression of Ki67 defined the \"NON-PROLIFERATING\" cell state in CPCELSTA. The CPCSMRKS value is useful for quickly determining which marker(s) were used to classify (i.e., operationally define) a cell population based on a functional/biological state. | ", "figure_ref": null, "candidates": [{"md_atom_id": "md_ch03_a067", "md_file": "knowledge_base/chapters/ch03_submitting_data.md", "md_atom_type": "TABLE_ROW", "md_parent_section": "§3.2.1 [Dataset-level Metadata]", "md_verbatim": "| RS | Disease Response and Clin Classification | Findings | One record per response assessment or clinical classification assessment per time point per visit per subject per assessor per medical evaluator | Tabulation | STUDYID, USUBJID, RSTESTCD, VISITNUM, RSTPTREF, RSEVAL, RSPTPNUM, RSEVALID | rs.xpt |", "score": 0.3871, "match_basis": "verbatim_token+chapter_route:ch03"}, {"md_atom_id": "md_ch03_a071", "md_file": "knowledge_base/chapters/ch03_submitting_data.md", "md_atom_type": "TABLE_ROW", "md_parent_section": "§3.2.1 [Dataset-level Metadata]", "md_verbatim": "| TU | Tumor/Lesion Identification | Findings | One record per identified tumor per subject per assessor | Tabulation | STUDYID, USUBJID, TUEVALID, TULNKID | tu.xpt |", "score": 0.3686, "match_basis": "verbatim_token+chapter_route:ch03"}, {"md_atom_id": "md_ch03_a044", "md_file": "knowledge_base/chapters/ch03_submitting_data.md", "md_atom_type": "TABLE_ROW", "md_parent_section": "§3.2.1 [Dataset-level Metadata]", "md_verbatim": "| BS | Biospecimen Findings | Findings | One record per measurement per biospecimen identifier per subject | Tabulation | STUDYID, USUBJID, BSREFID, BSTESTCD | bs.xpt |", "score": 0.3682, "match_basis": "verbatim_token+chapter_route:ch03"}, {"md_atom_id": "md_ch03_a066", "md_file": "knowledge_base/chapters/ch03_submitting_data.md", "md_atom_type": "TABLE_ROW", "md_parent_section": "§3.2.1 [Dataset-level Metadata]", "md_verbatim": "| RP | Reproductive System Findings | Findings | One record per finding or result per time point per visit per subject | Tabulation | STUDYID, DOMAIN, USUBJID, RPTESTCD, VISITNUM | rp.xpt |", "score": 0.367, "match_basis": "verbatim_token+chapter_route:ch03"}, {"md_atom_id": "md_ch03_a038", "md_file": "knowledge_base/chapters/ch03_submitting_data.md", "md_atom_type": "TABLE_ROW", "md_parent_section": "§3.2.1 [Dataset-level Metadata]", "md_verbatim": "| BE | Biospecimen Events | Events | One record per instance per biospecimen event per biospecimen identifier per subject | Tabulation | STUDYID, USUBJID, BEREFID, BETERM, BESTDTC | be.xpt |", "score": 0.3623, "match_basis": "verbatim_token+chapter_route:ch03"}], "candidate_count": 5, "zero_candidate": false}
{"pdf_atom_id": "sv20_p0022_a001", "pdf_atom_type": "TABLE_ROW", "pdf_source": "SDTM_v2.0", "pdf_page": 22, "pdf_parent_section": "§3.1.3 The Findings Observation Class", "pdf_verbatim": "6 | --CNTMOD | Contact Mode | Char | | Record Qualifier | | | | The way in which the measurement, test, or examination was conducted. | | ", "figure_ref": null, "candidates": [{"md_atom_id": "md_ch03_a044", "md_file": "knowledge_base/chapters/ch03_submitting_data.md", "md_atom_type": "TABLE_ROW", "md_parent_section": "§3.2.1 [Dataset-level Metadata]", "md_verbatim": "| BS | Biospecimen Findings | Findings | One record per measurement per biospecimen identifier per subject | Tabulation | STUDYID, USUBJID, BSREFID, BSTESTCD | bs.xpt |", "score": 0.4223, "match_basis": "verbatim_token+chapter_route:ch03"}, {"md_atom_id": "md_ch03_a086", "md_file": "knowledge_base/chapters/ch03_submitting_data.md", "md_atom_type": "TABLE_ROW", "md_parent_section": "§3.2.1 [Dataset-level Metadata]", "md_verbatim": "| SUPP-- | Supplemental Qualifiers for [domain name] | Relationship | One record per supplemental qualifier per related parent domain record(s) | Tabulation | STUDYID, RDOMAIN, USUBJID, IDVAR, IDVARVAL, QNAM | supp--.xpt |", "score": 0.4086, "match_basis": "verbatim_token+chapter_route:ch03"}, {"md_atom_id": "md_ch03_a073", "md_file": "knowledge_base/chapters/ch03_submitting_data.md", "md_atom_type": "TABLE_ROW", "md_parent_section": "§3.2.1 [Dataset-level Metadata]", "md_verbatim": "| VS | Vital Signs | Findings | One record per vital sign measurement per time point per visit per subject | Tabulation | STUDYID, USUBJID, VSTESTCD, VISITNUM, VSTPTREF, VSTPTNUM | vs.xpt |", "score": 0.3991, "match_basis": "verbatim_token+chapter_route:ch03"}, {"md_atom_id": "md_ch03_a070", "md_file": "knowledge_base/chapters/ch03_submitting_data.md", "md_atom_type": "TABLE_ROW", "md_parent_section": "§3.2.1 [Dataset-level Metadata]", "md_verbatim": "| TR | Tumor/Lesion Results | Findings | One record per tumor measurement/assessment per visit per subject per assessor | Tabulation | STUDYID, USUBJID, TRTESTCD, TREVALID, VISITNUM | tr.xpt |", "score": 0.3983, "match_basis": "verbatim_token+chapter_route:ch03"}, {"md_atom_id": "md_ch03_a062", "md_file": "knowledge_base/chapters/ch03_submitting_data.md", "md_atom_type": "TABLE_ROW", "md_parent_section": "§3.2.1 [Dataset-level Metadata]", "md_verbatim": "| PE | Physical Examination | Findings | One record per body system or abnormality per visit per subject | Tabulation | STUDYID, USUBJID, PETESTCD, VISITNUM | pe.xpt |", "score": 0.3857, "match_basis": "verbatim_token+chapter_route:ch03"}], "candidate_count": 5, "zero_candidate": false}
{"pdf_atom_id": "sv20_p0022_a002", "pdf_atom_type": "TABLE_ROW", "pdf_source": "SDTM_v2.0", "pdf_page": 22, "pdf_parent_section": "§3.1.3 The Findings Observation Class", "pdf_verbatim": "7 | --EPCHGI | Epi/Pandemic Related Change Indicator | Char | | Record Qualifier | | | | Indicates whether the measurement, test, or examination was changed due to an epidemic or pandemic. | | ", "figure_ref": null, "candidates": [{"md_atom_id": "md_ch03_a044", "md_file": "knowledge_base/chapters/ch03_submitting_data.md", "md_atom_type": "TABLE_ROW", "md_parent_section": "§3.2.1 [Dataset-level Metadata]", "md_verbatim": "| BS | Biospecimen Findings | Findings | One record per measurement per biospecimen identifier per subject | Tabulation | STUDYID, USUBJID, BSREFID, BSTESTCD | bs.xpt |", "score": 0.4327, "match_basis": "verbatim_token+chapter_route:ch03"}, {"md_atom_id": "md_ch03_a086", "md_file": "knowledge_base/chapters/ch03_submitting_data.md", "md_atom_type": "TABLE_ROW", "md_parent_section": "§3.2.1 [Dataset-level Metadata]", "md_verbatim": "| SUPP-- | Supplemental Qualifiers for [domain name] | Relationship | One record per supplemental qualifier per related parent domain record(s) | Tabulation | STUDYID, RDOMAIN, USUBJID, IDVAR, IDVARVAL, QNAM | supp--.xpt |", "score": 0.4138, "match_basis": "verbatim_token+chapter_route:ch03"}, {"md_atom_id": "md_ch03_a073", "md_file": "knowledge_base/chapters/ch03_submitting_data.md", "md_atom_type": "TABLE_ROW", "md_parent_section": "§3.2.1 [Dataset-level Metadata]", "md_verbatim": "| VS | Vital Signs | Findings | One record per vital sign measurement per time point per visit per subject | Tabulation | STUDYID, USUBJID, VSTESTCD, VISITNUM, VSTPTREF, VSTPTNUM | vs.xpt |", "score": 0.405, "match_basis": "verbatim_token+chapter_route:ch03"}, {"md_atom_id": "md_ch03_a070", "md_file": "knowledge_base/chapters/ch03_submitting_data.md", "md_atom_type": "TABLE_ROW", "md_parent_section": "§3.2.1 [Dataset-level Metadata]", "md_verbatim": "| TR | Tumor/Lesion Results | Findings | One record per tumor measurement/assessment per visit per subject per assessor | Tabulation | STUDYID, USUBJID, TRTESTCD, TREVALID, VISITNUM | tr.xpt |", "score": 0.4039, "match_basis": "verbatim_token+chapter_route:ch03"}, {"md_atom_id": "md_ch03_a084", "md_file": "knowledge_base/chapters/ch03_submitting_data.md", "md_atom_type": "TABLE_ROW", "md_parent_section": "§3.2.1 [Dataset-level Metadata]", "md_verbatim": "| RELSPEC | Related Specimens | Relationship | One record per specimen identifier per subject | Tabulation | STUDYID, USUBJID, REFID | relspec.xpt |", "score": 0.4009, "match_basis": "verbatim_token+chapter_route:ch03"}], "candidate_count": 5, "zero_candidate": false}
{"pdf_atom_id": "sv20_p0022_a003", "pdf_atom_type": "TABLE_ROW", "pdf_source": "SDTM_v2.0", "pdf_page": 22, "pdf_parent_section": "§3.1.3 The Findings Observation Class", "pdf_verbatim": "8 | --TSTCND | Test Condition | Char | | Variable Qualifier | --TESTCD | CP, IS, and LB domains only | | Identifies any planned condition imposed by the assay system on the specimen at the time the test is performed. | | Stimulating or activating agents, assay temperature, incubation time \"STIMULATED\", \"NON-STIMULATED\", \"25 C\", \"37 C\".", "figure_ref": null, "candidates": [{"md_atom_id": "md_ch03_a044", "md_file": "knowledge_base/chapters/ch03_submitting_data.md", "md_atom_type": "TABLE_ROW", "md_parent_section": "§3.2.1 [Dataset-level Metadata]", "md_verbatim": "| BS | Biospecimen Findings | Findings | One record per measurement per biospecimen identifier per subject | Tabulation | STUDYID, USUBJID, BSREFID, BSTESTCD | bs.xpt |", "score": 0.4135, "match_basis": "verbatim_token+chapter_route:ch03"}, {"md_atom_id": "md_ch03_a084", "md_file": "knowledge_base/chapters/ch03_submitting_data.md", "md_atom_type": "TABLE_ROW", "md_parent_section": "§3.2.1 [Dataset-level Metadata]", "md_verbatim": "| RELSPEC | Related Specimens | Relationship | One record per specimen identifier per subject | Tabulation | STUDYID, USUBJID, REFID | relspec.xpt |", "score": 0.3936, "match_basis": "verbatim_token+chapter_route:ch03"}, {"md_atom_id": "md_ch03_a066", "md_file": "knowledge_base/chapters/ch03_submitting_data.md", "md_atom_type": "TABLE_ROW", "md_parent_section": "§3.2.1 [Dataset-level Metadata]", "md_verbatim": "| RP | Reproductive System Findings | Findings | One record per finding or result per time point per visit per subject | Tabulation | STUDYID, DOMAIN, USUBJID, RPTESTCD, VISITNUM | rp.xpt |", "score": 0.3923, "match_basis": "verbatim_token+chapter_route:ch03"}, {"md_atom_id": "md_ch03_a038", "md_file": "knowledge_base/chapters/ch03_submitting_data.md", "md_atom_type": "TABLE_ROW", "md_parent_section": "§3.2.1 [Dataset-level Metadata]", "md_verbatim": "| BE | Biospecimen Events | Events | One record per instance per biospecimen event per biospecimen identifier per subject | Tabulation | STUDYID, USUBJID, BEREFID, BETERM, BESTDTC | be.xpt |", "score": 0.3908, "match_basis": "verbatim_token+chapter_route:ch03"}, {"md_atom_id": "md_ch03_a086", "md_file": "knowledge_base/chapters/ch03_submitting_data.md", "md_atom_type": "TABLE_ROW", "md_parent_section": "§3.2.1 [Dataset-level Metadata]", "md_verbatim": "| SUPP-- | Supplemental Qualifiers for [domain name] | Relationship | One record per supplemental qualifier per related parent domain record(s) | Tabulation | STUDYID, RDOMAIN, USUBJID, IDVAR, IDVARVAL, QNAM | supp--.xpt |", "score": 0.3902, "match_basis": "verbatim_token+chapter_route:ch03"}], "candidate_count": 5, "zero_candidate": false}
{"pdf_atom_id": "sv20_p0022_a004", "pdf_atom_type": "TABLE_ROW", "pdf_source": "SDTM_v2.0", "pdf_page": 22, "pdf_parent_section": "§3.1.3 The Findings Observation Class", "pdf_verbatim": "9 | --CNDAGT | Test Condition Agent | Char | | Record Qualifier | | CP, IS, and LB domains only | | The textual description of the agent used to impose a test condition identified in CPTSTCND. For example, records might be produced for the same test run under stimulating (CPTSTCND value = \"STIMULATED\") conditions produced by different stimulating agents. | | \"Phorbol myristate acetate\", \"Concanavalin A, PHA-P\", \"TNF-alpha, Ionomycin\", \"Candida antigen\"", "figure_ref": null, "candidates": [{"md_atom_id": "md_ch03_a086", "md_file": "knowledge_base/chapters/ch03_submitting_data.md", "md_atom_type": "TABLE_ROW", "md_parent_section": "§3.2.1 [Dataset-level Metadata]", "md_verbatim": "| SUPP-- | Supplemental Qualifiers for [domain name] | Relationship | One record per supplemental qualifier per related parent domain record(s) | Tabulation | STUDYID, RDOMAIN, USUBJID, IDVAR, IDVARVAL, QNAM | supp--.xpt |", "score": 0.3941, "match_basis": "verbatim_token+chapter_route:ch03"}, {"md_atom_id": "md_ch03_a061", "md_file": "knowledge_base/chapters/ch03_submitting_data.md", "md_atom_type": "TABLE_ROW", "md_parent_section": "§3.2.1 [Dataset-level Metadata]", "md_verbatim": "| PC | Pharmacokinetics Concentrations | Findings | One record per sample characteristic or time-point concentration per reference time point or per analyte per subject | Tabulation | STUDYID, USUBJID, PCTESTCD, VISITNUM, PCTPTREF, PCTPTNUM | pc.xpt |", "score": 0.3921, "match_basis": "verbatim_token+chapter_route:ch03"}, {"md_atom_id": "md_ch03_a066", "md_file": "knowledge_base/chapters/ch03_submitting_data.md", "md_atom_type": "TABLE_ROW", "md_parent_section": "§3.2.1 [Dataset-level Metadata]", "md_verbatim": "| RP | Reproductive System Findings | Findings | One record per finding or result per time point per visit per subject | Tabulation | STUDYID, DOMAIN, USUBJID, RPTESTCD, VISITNUM | rp.xpt |", "score": 0.3708, "match_basis": "verbatim_token+chapter_route:ch03"}, {"md_atom_id": "md_ch03_a038", "md_file": "knowledge_base/chapters/ch03_submitting_data.md", "md_atom_type": "TABLE_ROW", "md_parent_section": "§3.2.1 [Dataset-level Metadata]", "md_verbatim": "| BE | Biospecimen Events | Events | One record per instance per biospecimen event per biospecimen identifier per subject | Tabulation | STUDYID, USUBJID, BEREFID, BETERM, BESTDTC | be.xpt |", "score": 0.3691, "match_basis": "verbatim_token+chapter_route:ch03"}, {"md_atom_id": "md_ch03_a044", "md_file": "knowledge_base/chapters/ch03_submitting_data.md", "md_atom_type": "TABLE_ROW", "md_parent_section": "§3.2.1 [Dataset-level Metadata]", "md_verbatim": "| BS | Biospecimen Findings | Findings | One record per measurement per biospecimen identifier per subject | Tabulation | STUDYID, USUBJID, BSREFID, BSTESTCD | bs.xpt |", "score": 0.3687, "match_basis": "verbatim_token+chapter_route:ch03"}], "candidate_count": 5, "zero_candidate": false}
{"pdf_atom_id": "sv20_p0022_a005", "pdf_atom_type": "TABLE_ROW", "pdf_source": "SDTM_v2.0", "pdf_page": 22, "pdf_parent_section": "§3.1.3 The Findings Observation Class", "pdf_verbatim": "10 | --BDAGNT | Binding Agent | Char | | Variable Qualifier | --TESTCD | CP, IS, and LB domains only | | The textual description of the agent that's binding to the entity in the --TEST variable. The --BDAGNT variable is used to indicate that there is a binding relationship between the entities in the --TEST and --BDAGNT variables, regardless of direction. --BDAGNT is not a method qualifier. It should only be used when the actual interest of the measurement is the binding interaction between the two entities in --TEST and --BDAGNT. In other words, the combination of --TEST and --BDAGNT should describe the thing, the entity, or the analyte being measured, without the need for additional variables. The binding agent may be, but is not limited to, a test article, a portion of the test article, a related compound, an endogenous molecule, an allergen, or an infectious agent. | | ", "figure_ref": null, "candidates": [{"md_atom_id": "md_ch03_a086", "md_file": "knowledge_base/chapters/ch03_submitting_data.md", "md_atom_type": "TABLE_ROW", "md_parent_section": "§3.2.1 [Dataset-level Metadata]", "md_verbatim": "| SUPP-- | Supplemental Qualifiers for [domain name] | Relationship | One record per supplemental qualifier per related parent domain record(s) | Tabulation | STUDYID, RDOMAIN, USUBJID, IDVAR, IDVARVAL, QNAM | supp--.xpt |", "score": 0.3769, "match_basis": "verbatim_token+chapter_route:ch03"}, {"md_atom_id": "md_ch03_a044", "md_file": "knowledge_base/chapters/ch03_submitting_data.md", "md_atom_type": "TABLE_ROW", "md_parent_section": "§3.2.1 [Dataset-level Metadata]", "md_verbatim": "| BS | Biospecimen Findings | Findings | One record per measurement per biospecimen identifier per subject | Tabulation | STUDYID, USUBJID, BSREFID, BSTESTCD | bs.xpt |", "score": 0.3712, "match_basis": "verbatim_token+chapter_route:ch03"}, {"md_atom_id": "md_ch03_a070", "md_file": "knowledge_base/chapters/ch03_submitting_data.md", "md_atom_type": "TABLE_ROW", "md_parent_section": "§3.2.1 [Dataset-level Metadata]", "md_verbatim": "| TR | Tumor/Lesion Results | Findings | One record per tumor measurement/assessment per visit per subject per assessor | Tabulation | STUDYID, USUBJID, TRTESTCD, TREVALID, VISITNUM | tr.xpt |", "score": 0.368, "match_basis": "verbatim_token+chapter_route:ch03"}, {"md_atom_id": "md_ch03_a061", "md_file": "knowledge_base/chapters/ch03_submitting_data.md", "md_atom_type": "TABLE_ROW", "md_parent_section": "§3.2.1 [Dataset-level Metadata]", "md_verbatim": "| PC | Pharmacokinetics Concentrations | Findings | One record per sample characteristic or time-point concentration per reference time point or per analyte per subject | Tabulation | STUDYID, USUBJID, PCTESTCD, VISITNUM, PCTPTREF, PCTPTNUM | pc.xpt |", "score": 0.3672, "match_basis": "verbatim_token+chapter_route:ch03"}, {"md_atom_id": "md_ch03_a060", "md_file": "knowledge_base/chapters/ch03_submitting_data.md", "md_atom_type": "TABLE_ROW", "md_parent_section": "§3.2.1 [Dataset-level Metadata]", "md_verbatim": "| OE | Ophthalmic Examinations | Findings | One record per ophthalmic finding per method per location, per time point per visit per subject | Tabulation | STUDYID, USUBJID, FOCID, OETESTCD, OETSTDTL, OEMETHOD, OELOC, OELAT, OEDIR, VISITNUM, OEDTC, OETPTREF, OETPTNUM, OEREPNUM | oe.xpt |", "score": 0.3649, "match_basis": "verbatim_token+chapter_route:ch03"}], "candidate_count": 5, "zero_candidate": false}
{"pdf_atom_id": "sv20_p0022_a006", "pdf_atom_type": "TABLE_ROW", "pdf_source": "SDTM_v2.0", "pdf_page": 22, "pdf_parent_section": "§3.1.3 The Findings Observation Class", "pdf_verbatim": "11 | --ABCLID | Antibody Clone Identifier | Char | | Record Qualifier | | CP domain only | | Identifies the antibody clone (e.g., supplier-provided catalog name) used to confer specificity for the binding agent specified in CPBDAGNT. | | ", "figure_ref": null, "candidates": [{"md_atom_id": "md_ch03_a086", "md_file": "knowledge_base/chapters/ch03_submitting_data.md", "md_atom_type": "TABLE_ROW", "md_parent_section": "§3.2.1 [Dataset-level Metadata]", "md_verbatim": "| SUPP-- | Supplemental Qualifiers for [domain name] | Relationship | One record per supplemental qualifier per related parent domain record(s) | Tabulation | STUDYID, RDOMAIN, USUBJID, IDVAR, IDVARVAL, QNAM | supp--.xpt |", "score": 0.4116, "match_basis": "verbatim_token+chapter_route:ch03"}, {"md_atom_id": "md_ch03_a071", "md_file": "knowledge_base/chapters/ch03_submitting_data.md", "md_atom_type": "TABLE_ROW", "md_parent_section": "§3.2.1 [Dataset-level Metadata]", "md_verbatim": "| TU | Tumor/Lesion Identification | Findings | One record per identified tumor per subject per assessor | Tabulation | STUDYID, USUBJID, TUEVALID, TULNKID | tu.xpt |", "score": 0.3962, "match_basis": "verbatim_token+chapter_route:ch03"}, {"md_atom_id": "md_ch03_a044", "md_file": "knowledge_base/chapters/ch03_submitting_data.md", "md_atom_type": "TABLE_ROW", "md_parent_section": "§3.2.1 [Dataset-level Metadata]", "md_verbatim": "| BS | Biospecimen Findings | Findings | One record per measurement per biospecimen identifier per subject | Tabulation | STUDYID, USUBJID, BSREFID, BSTESTCD | bs.xpt |", "score": 0.3902, "match_basis": "verbatim_token+chapter_route:ch03"}, {"md_atom_id": "md_ch03_a053", "md_file": "knowledge_base/chapters/ch03_submitting_data.md", "md_atom_type": "TABLE_ROW", "md_parent_section": "§3.2.1 [Dataset-level Metadata]", "md_verbatim": "| IS | Immunogenicity Specimen Assessments | Findings | One record per test per visit per subject | Tabulation | STUDYID, USUBJID, ISTESTCD, ISBDAGNT, ISSCMBDL, ISSTOPO, VISITNUM | is.xpt |", "score": 0.3834, "match_basis": "verbatim_token+chapter_route:ch03"}, {"md_atom_id": "md_ch03_a084", "md_file": "knowledge_base/chapters/ch03_submitting_data.md", "md_atom_type": "TABLE_ROW", "md_parent_section": "§3.2.1 [Dataset-level Metadata]", "md_verbatim": "| RELSPEC | Related Specimens | Relationship | One record per specimen identifier per subject | Tabulation | STUDYID, USUBJID, REFID | relspec.xpt |", "score": 0.3774, "match_basis": "verbatim_token+chapter_route:ch03"}], "candidate_count": 5, "zero_candidate": false}
{"pdf_atom_id": "sv20_p0022_a007", "pdf_atom_type": "TABLE_ROW", "pdf_source": "SDTM_v2.0", "pdf_page": 22, "pdf_parent_section": "§3.1.3 The Findings Observation Class", "pdf_verbatim": "12 | --MRKSTR | Marker String | Char | | Record Qualifier | | CP domain only | | The text string identifying the full set of markers/indicators used by the laboratory to operationally define the complete test. Because laboratories often use different markers/indicators to identify a cell population, the relationship between a named cell population in CPTEST (as combined with CPSBMRKS and CPCELSTA values) and the set of markers used to identify that population is many-to-one. To ensure nuances important for accurately interpreting the data are accounted for and which arise from the use of different sets of markers, it is necessary to operationally define the test in terms of the markers/indicators used to perform that test. | | ", "figure_ref": null, "candidates": [{"md_atom_id": "md_ch03_a086", "md_file": "knowledge_base/chapters/ch03_submitting_data.md", "md_atom_type": "TABLE_ROW", "md_parent_section": "§3.2.1 [Dataset-level Metadata]", "md_verbatim": "| SUPP-- | Supplemental Qualifiers for [domain name] | Relationship | One record per supplemental qualifier per related parent domain record(s) | Tabulation | STUDYID, RDOMAIN, USUBJID, IDVAR, IDVARVAL, QNAM | supp--.xpt |", "score": 0.3983, "match_basis": "verbatim_token+chapter_route:ch03"}, {"md_atom_id": "md_ch03_a084", "md_file": "knowledge_base/chapters/ch03_submitting_data.md", "md_atom_type": "TABLE_ROW", "md_parent_section": "§3.2.1 [Dataset-level Metadata]", "md_verbatim": "| RELSPEC | Related Specimens | Relationship | One record per specimen identifier per subject | Tabulation | STUDYID, USUBJID, REFID | relspec.xpt |", "score": 0.3769, "match_basis": "verbatim_token+chapter_route:ch03"}, {"md_atom_id": "md_ch03_a061", "md_file": "knowledge_base/chapters/ch03_submitting_data.md", "md_atom_type": "TABLE_ROW", "md_parent_section": "§3.2.1 [Dataset-level Metadata]", "md_verbatim": "| PC | Pharmacokinetics Concentrations | Findings | One record per sample characteristic or time-point concentration per reference time point or per analyte per subject | Tabulation | STUDYID, USUBJID, PCTESTCD, VISITNUM, PCTPTREF, PCTPTNUM | pc.xpt |", "score": 0.3736, "match_basis": "verbatim_token+chapter_route:ch03"}, {"md_atom_id": "md_ch03_a038", "md_file": "knowledge_base/chapters/ch03_submitting_data.md", "md_atom_type": "TABLE_ROW", "md_parent_section": "§3.2.1 [Dataset-level Metadata]", "md_verbatim": "| BE | Biospecimen Events | Events | One record per instance per biospecimen event per biospecimen identifier per subject | Tabulation | STUDYID, USUBJID, BEREFID, BETERM, BESTDTC | be.xpt |", "score": 0.3732, "match_basis": "verbatim_token+chapter_route:ch03"}, {"md_atom_id": "md_ch03_a031", "md_file": "knowledge_base/chapters/ch03_submitting_data.md", "md_atom_type": "TABLE_ROW", "md_parent_section": "§3.2.1 [Dataset-level Metadata]", "md_verbatim": "| CM | Concomitant/Prior Medications | Interventions | One record per recorded intervention occurrence or constant-dosing interval per subject | Tabulation | STUDYID, USUBJID, CMTRT, CMSTDTC | cm.xpt |", "score": 0.3724, "match_basis": "verbatim_token+chapter_route:ch03"}], "candidate_count": 5, "zero_candidate": false}
{"pdf_atom_id": "sv20_p0023_a001", "pdf_atom_type": "TABLE_ROW", "pdf_source": "SDTM_v2.0", "pdf_page": 23, "pdf_parent_section": "§3.1.3 The Findings Observation Class", "pdf_verbatim": "13 | --GATE | Gate | Char | | Record Qualifier | | CP domain only | | The sponsor-defined name assigned to a gate. Gates are electronic (device setting or software-defined) boundaries set by a user to virtually parse a specimen into discrete populations based on a set of defined characteristics (e.g., presence, absence, or intensity of expression of various markers; physical size; internal complexity or granularity). Gates are used to constrain data collection or analysis to a specific cell population or region of interest within the specimen. | | ", "figure_ref": null, "candidates": [{"md_atom_id": "md_ch03_a061", "md_file": "knowledge_base/chapters/ch03_submitting_data.md", "md_atom_type": "TABLE_ROW", "md_parent_section": "§3.2.1 [Dataset-level Metadata]", "md_verbatim": "| PC | Pharmacokinetics Concentrations | Findings | One record per sample characteristic or time-point concentration per reference time point or per analyte per subject | Tabulation | STUDYID, USUBJID, PCTESTCD, VISITNUM, PCTPTREF, PCTPTNUM | pc.xpt |", "score": 0.3977, "match_basis": "verbatim_token+chapter_route:ch03"}, {"md_atom_id": "md_ch03_a067", "md_file": "knowledge_base/chapters/ch03_submitting_data.md", "md_atom_type": "TABLE_ROW", "md_parent_section": "§3.2.1 [Dataset-level Metadata]", "md_verbatim": "| RS | Disease Response and Clin Classification | Findings | One record per response assessment or clinical classification assessment per time point per visit per subject per assessor per medical evaluator | Tabulation | STUDYID, USUBJID, RSTESTCD, VISITNUM, RSTPTREF, RSEVAL, RSPTPNUM, RSEVALID | rs.xpt |", "score": 0.3772, "match_basis": "verbatim_token+chapter_route:ch03"}, {"md_atom_id": "md_ch03_a086", "md_file": "knowledge_base/chapters/ch03_submitting_data.md", "md_atom_type": "TABLE_ROW", "md_parent_section": "§3.2.1 [Dataset-level Metadata]", "md_verbatim": "| SUPP-- | Supplemental Qualifiers for [domain name] | Relationship | One record per supplemental qualifier per related parent domain record(s) | Tabulation | STUDYID, RDOMAIN, USUBJID, IDVAR, IDVARVAL, QNAM | supp--.xpt |", "score": 0.3763, "match_basis": "verbatim_token+chapter_route:ch03"}, {"md_atom_id": "md_ch03_a068", "md_file": "knowledge_base/chapters/ch03_submitting_data.md", "md_atom_type": "TABLE_ROW", "md_parent_section": "§3.2.1 [Dataset-level Metadata]", "md_verbatim": "| SC | Subject Characteristics | Findings | One record per characteristic per visit per subject. | Tabulation | STUDYID, USUBJID, SCTESTCD, VISITNUM | sc.xpt |", "score": 0.374, "match_basis": "verbatim_token+chapter_route:ch03"}, {"md_atom_id": "md_ch03_a032", "md_file": "knowledge_base/chapters/ch03_submitting_data.md", "md_atom_type": "TABLE_ROW", "md_parent_section": "§3.2.1 [Dataset-level Metadata]", "md_verbatim": "| EC | Exposure as Collected | Interventions | One record per protocol-specified study treatment, collected-dosing interval, per subject, per mood | Tabulation | STUDYID, USUBJID, ECTRT, ECSTDTC, ECMOOD | ec.xpt |", "score": 0.369, "match_basis": "verbatim_token+chapter_route:ch03"}], "candidate_count": 5, "zero_candidate": false}
{"pdf_atom_id": "sv20_p0023_a002", "pdf_atom_type": "TABLE_ROW", "pdf_source": "SDTM_v2.0", "pdf_page": 23, "pdf_parent_section": "§3.1.3 The Findings Observation Class", "pdf_verbatim": "14 | --GATDEF | Gate Definition | Char | | Record Qualifier | | CP domain only | | The text string identifying the set of parameters and the order in which they are applied to define the gating strategy. In practice, a series of 2-dimensional subgates based on 2 different cell characteristics (i.e., markers/indicators/physical properties) are most often combined until the cell population of interest is sufficiently resolved (i.e., electronically isolated) from other cell populations contained within the specimen. For complex analyses, differences in gating strategies can produce subtle differences in results obtained for a test. To ensure nuances important for accurately interpreting the data are accounted for and which arise from the use of different gating strategies, it is often necessary to qualify the test in terms of the gating strategy. For some purposes, however, and at the discretion of the sponsor, only the ultimate or penultimate gate is identified. When specifying the gating strategy in CPGATDEF, each subgate should be listed in the order it was applied and separated from the next sub-gate using the vertical line or pipe character (\"|\"). | | ", "figure_ref": null, "candidates": [{"md_atom_id": "md_ch03_a061", "md_file": "knowledge_base/chapters/ch03_submitting_data.md", "md_atom_type": "TABLE_ROW", "md_parent_section": "§3.2.1 [Dataset-level Metadata]", "md_verbatim": "| PC | Pharmacokinetics Concentrations | Findings | One record per sample characteristic or time-point concentration per reference time point or per analyte per subject | Tabulation | STUDYID, USUBJID, PCTESTCD, VISITNUM, PCTPTREF, PCTPTNUM | pc.xpt |", "score": 0.3823, "match_basis": "verbatim_token+chapter_route:ch03"}, {"md_atom_id": "md_ch03_a067", "md_file": "knowledge_base/chapters/ch03_submitting_data.md", "md_atom_type": "TABLE_ROW", "md_parent_section": "§3.2.1 [Dataset-level Metadata]", "md_verbatim": "| RS | Disease Response and Clin Classification | Findings | One record per response assessment or clinical classification assessment per time point per visit per subject per assessor per medical evaluator | Tabulation | STUDYID, USUBJID, RSTESTCD, VISITNUM, RSTPTREF, RSEVAL, RSPTPNUM, RSEVALID | rs.xpt |", "score": 0.3736, "match_basis": "verbatim_token+chapter_route:ch03"}, {"md_atom_id": "md_ch03_a063", "md_file": "knowledge_base/chapters/ch03_submitting_data.md", "md_atom_type": "TABLE_ROW", "md_parent_section": "§3.2.1 [Dataset-level Metadata]", "md_verbatim": "| PP | Pharmacokinetics Parameters | Findings | One record per PK parameter per time-concentration profile per modeling method per subject | Tabulation | STUDYID, USUBJID, PPTESTCD, PPCAT, VISITNUM, PPRFTDTC | pp.xpt |", "score": 0.3649, "match_basis": "verbatim_token+chapter_route:ch03"}, {"md_atom_id": "md_ch03_a038", "md_file": "knowledge_base/chapters/ch03_submitting_data.md", "md_atom_type": "TABLE_ROW", "md_parent_section": "§3.2.1 [Dataset-level Metadata]", "md_verbatim": "| BE | Biospecimen Events | Events | One record per instance per biospecimen event per biospecimen identifier per subject | Tabulation | STUDYID, USUBJID, BEREFID, BETERM, BESTDTC | be.xpt |", "score": 0.3614, "match_basis": "verbatim_token+chapter_route:ch03"}, {"md_atom_id": "md_ch03_a044", "md_file": "knowledge_base/chapters/ch03_submitting_data.md", "md_atom_type": "TABLE_ROW", "md_parent_section": "§3.2.1 [Dataset-level Metadata]", "md_verbatim": "| BS | Biospecimen Findings | Findings | One record per measurement per biospecimen identifier per subject | Tabulation | STUDYID, USUBJID, BSREFID, BSTESTCD | bs.xpt |", "score": 0.3612, "match_basis": "verbatim_token+chapter_route:ch03"}], "candidate_count": 5, "zero_candidate": false}
{"pdf_atom_id": "sv20_p0024_a001", "pdf_atom_type": "TABLE_ROW", "pdf_source": "SDTM_v2.0", "pdf_page": 24, "pdf_parent_section": "§3.1.3 The Findings Observation Class", "pdf_verbatim": "15 | --TSTOPO | Test Operational Objective | Char | | Variable Qualifier | --TESTCD | | | The textual description of the high-level purpose of the test at the operational level. | | \"SCREEN\", \"CONFIRM\", \"QUANTIFY\"", "figure_ref": null, "candidates": [{"md_atom_id": "md_ch03_a027", "md_file": "knowledge_base/chapters/ch03_submitting_data.md", "md_atom_type": "TABLE_ROW", "md_parent_section": "§3.2.1 [Dataset-level Metadata]", "md_verbatim": "| SE | Subject Elements | Special Purpose | One record per actual Element per subject | Tabulation | STUDYID, USUBJID, ETCD, SESTDTC | se.xpt |", "score": 0.385, "match_basis": "verbatim_token+chapter_route:ch03"}, {"md_atom_id": "md_ch03_a044", "md_file": "knowledge_base/chapters/ch03_submitting_data.md", "md_atom_type": "TABLE_ROW", "md_parent_section": "§3.2.1 [Dataset-level Metadata]", "md_verbatim": "| BS | Biospecimen Findings | Findings | One record per measurement per biospecimen identifier per subject | Tabulation | STUDYID, USUBJID, BSREFID, BSTESTCD | bs.xpt |", "score": 0.3756, "match_basis": "verbatim_token+chapter_route:ch03"}, {"md_atom_id": "md_ch03_a028", "md_file": "knowledge_base/chapters/ch03_submitting_data.md", "md_atom_type": "TABLE_ROW", "md_parent_section": "§3.2.1 [Dataset-level Metadata]", "md_verbatim": "| SM | Subject Disease Milestones | Special Purpose | One record per Disease Milestone per subject | Tabulation | STUDYID, USUBJID, MIDS | sm.xpt |", "score": 0.375, "match_basis": "verbatim_token+chapter_route:ch03"}, {"md_atom_id": "md_ch03_a029", "md_file": "knowledge_base/chapters/ch03_submitting_data.md", "md_atom_type": "TABLE_ROW", "md_parent_section": "§3.2.1 [Dataset-level Metadata]", "md_verbatim": "| SV | Subject Visits | Special Purpose | One record per actual or planned visit per subject | Tabulation | STUDYID, USUBJID, SVTERM | sv.xpt |", "score": 0.373, "match_basis": "verbatim_token+chapter_route:ch03"}, {"md_atom_id": "md_ch03_a025", "md_file": "knowledge_base/chapters/ch03_submitting_data.md", "md_atom_type": "TABLE_ROW", "md_parent_section": "§3.2.1 [Dataset-level Metadata]", "md_verbatim": "| CO | Comments | Special Purpose | One record per comment per subject | Tabulation | STUDYID, USUBJID, IDVAR, COREF, COOTC | co.xpt |", "score": 0.369, "match_basis": "verbatim_token+chapter_route:ch03"}], "candidate_count": 5, "zero_candidate": false}
{"pdf_atom_id": "sv20_p0024_a002", "pdf_atom_type": "TABLE_ROW", "pdf_source": "SDTM_v2.0", "pdf_page": 24, "pdf_parent_section": "§3.1.3 The Findings Observation Class", "pdf_verbatim": "16 | --MSCBCE | Molecule Secreted by Cells | Char | | Variable Qualifier | --TESTCD | IS domain only | | The textual description of the entity secreted by the cells represented in --TEST. The combination of --TEST and --MSBCE should describe the thing, the entity, or the analyte being measured, without the need for additional variables. | | ", "figure_ref": null, "candidates": [{"md_atom_id": "md_ch03_a044", "md_file": "knowledge_base/chapters/ch03_submitting_data.md", "md_atom_type": "TABLE_ROW", "md_parent_section": "§3.2.1 [Dataset-level Metadata]", "md_verbatim": "| BS | Biospecimen Findings | Findings | One record per measurement per biospecimen identifier per subject | Tabulation | STUDYID, USUBJID, BSREFID, BSTESTCD | bs.xpt |", "score": 0.3655, "match_basis": "verbatim_token+chapter_route:ch03"}, {"md_atom_id": "md_ch03_a086", "md_file": "knowledge_base/chapters/ch03_submitting_data.md", "md_atom_type": "TABLE_ROW", "md_parent_section": "§3.2.1 [Dataset-level Metadata]", "md_verbatim": "| SUPP-- | Supplemental Qualifiers for [domain name] | Relationship | One record per supplemental qualifier per related parent domain record(s) | Tabulation | STUDYID, RDOMAIN, USUBJID, IDVAR, IDVARVAL, QNAM | supp--.xpt |", "score": 0.3655, "match_basis": "verbatim_token+chapter_route:ch03"}, {"md_atom_id": "md_ch03_a070", "md_file": "knowledge_base/chapters/ch03_submitting_data.md", "md_atom_type": "TABLE_ROW", "md_parent_section": "§3.2.1 [Dataset-level Metadata]", "md_verbatim": "| TR | Tumor/Lesion Results | Findings | One record per tumor measurement/assessment per visit per subject per assessor | Tabulation | STUDYID, USUBJID, TRTESTCD, TREVALID, VISITNUM | tr.xpt |", "score": 0.3576, "match_basis": "verbatim_token+chapter_route:ch03"}, {"md_atom_id": "md_ch03_a066", "md_file": "knowledge_base/chapters/ch03_submitting_data.md", "md_atom_type": "TABLE_ROW", "md_parent_section": "§3.2.1 [Dataset-level Metadata]", "md_verbatim": "| RP | Reproductive System Findings | Findings | One record per finding or result per time point per visit per subject | Tabulation | STUDYID, DOMAIN, USUBJID, RPTESTCD, VISITNUM | rp.xpt |", "score": 0.3523, "match_basis": "verbatim_token+chapter_route:ch03"}, {"md_atom_id": "md_ch03_a073", "md_file": "knowledge_base/chapters/ch03_submitting_data.md", "md_atom_type": "TABLE_ROW", "md_parent_section": "§3.2.1 [Dataset-level Metadata]", "md_verbatim": "| VS | Vital Signs | Findings | One record per vital sign measurement per time point per visit per subject | Tabulation | STUDYID, USUBJID, VSTESTCD, VISITNUM, VSTPTREF, VSTPTNUM | vs.xpt |", "score": 0.3488, "match_basis": "verbatim_token+chapter_route:ch03"}], "candidate_count": 5, "zero_candidate": false}
{"pdf_atom_id": "sv20_p0024_a003", "pdf_atom_type": "TABLE_ROW", "pdf_source": "SDTM_v2.0", "pdf_page": 24, "pdf_parent_section": "§3.1.3 The Findings Observation Class", "pdf_verbatim": "17 | --AGENT | Agent Name | Char | | Record Qualifier | | MS Domain only | | The name of the drug or other material for which resistance is tested. The agent may be used for in vitro testing or may be used in tests for genetic markers or in direct phenotypic drug-sensitivity testing. | | ", "figure_ref": null, "candidates": [{"md_atom_id": "md_ch03_a086", "md_file": "knowledge_base/chapters/ch03_submitting_data.md", "md_atom_type": "TABLE_ROW", "md_parent_section": "§3.2.1 [Dataset-level Metadata]", "md_verbatim": "| SUPP-- | Supplemental Qualifiers for [domain name] | Relationship | One record per supplemental qualifier per related parent domain record(s) | Tabulation | STUDYID, RDOMAIN, USUBJID, IDVAR, IDVARVAL, QNAM | supp--.xpt |", "score": 0.3971, "match_basis": "verbatim_token+chapter_route:ch03"}, {"md_atom_id": "md_ch03_a068", "md_file": "knowledge_base/chapters/ch03_submitting_data.md", "md_atom_type": "TABLE_ROW", "md_parent_section": "§3.2.1 [Dataset-level Metadata]", "md_verbatim": "| SC | Subject Characteristics | Findings | One record per characteristic per visit per subject. | Tabulation | STUDYID, USUBJID, SCTESTCD, VISITNUM | sc.xpt |", "score": 0.3733, "match_basis": "verbatim_token+chapter_route:ch03"}, {"md_atom_id": "md_ch03_a061", "md_file": "knowledge_base/chapters/ch03_submitting_data.md", "md_atom_type": "TABLE_ROW", "md_parent_section": "§3.2.1 [Dataset-level Metadata]", "md_verbatim": "| PC | Pharmacokinetics Concentrations | Findings | One record per sample characteristic or time-point concentration per reference time point or per analyte per subject | Tabulation | STUDYID, USUBJID, PCTESTCD, VISITNUM, PCTPTREF, PCTPTNUM | pc.xpt |", "score": 0.3698, "match_basis": "verbatim_token+chapter_route:ch03"}, {"md_atom_id": "md_ch03_a066", "md_file": "knowledge_base/chapters/ch03_submitting_data.md", "md_atom_type": "TABLE_ROW", "md_parent_section": "§3.2.1 [Dataset-level Metadata]", "md_verbatim": "| RP | Reproductive System Findings | Findings | One record per finding or result per time point per visit per subject | Tabulation | STUDYID, DOMAIN, USUBJID, RPTESTCD, VISITNUM | rp.xpt |", "score": 0.3658, "match_basis": "verbatim_token+chapter_route:ch03"}, {"md_atom_id": "md_ch03_a038", "md_file": "knowledge_base/chapters/ch03_submitting_data.md", "md_atom_type": "TABLE_ROW", "md_parent_section": "§3.2.1 [Dataset-level Metadata]", "md_verbatim": "| BE | Biospecimen Events | Events | One record per instance per biospecimen event per biospecimen identifier per subject | Tabulation | STUDYID, USUBJID, BEREFID, BETERM, BESTDTC | be.xpt |", "score": 0.3634, "match_basis": "verbatim_token+chapter_route:ch03"}], "candidate_count": 5, "zero_candidate": false}
{"pdf_atom_id": "sv20_p0024_a004", "pdf_atom_type": "TABLE_ROW", "pdf_source": "SDTM_v2.0", "pdf_page": 24, "pdf_parent_section": "§3.1.3 The Findings Observation Class", "pdf_verbatim": "18 | --CONC | Agent Concentration | Num | | Variable Qualifier | --AGENT | MS Domain only | | The amount of drug or other material listed in MSAGENT per unit volume or weight. Used when the agent is part of the prespecified test. Not to be used when the concentration is a result of a test such as minimal inhibitory concentration, IC50, or EC50. | | ", "figure_ref": null, "candidates": [{"md_atom_id": "md_ch03_a086", "md_file": "knowledge_base/chapters/ch03_submitting_data.md", "md_atom_type": "TABLE_ROW", "md_parent_section": "§3.2.1 [Dataset-level Metadata]", "md_verbatim": "| SUPP-- | Supplemental Qualifiers for [domain name] | Relationship | One record per supplemental qualifier per related parent domain record(s) | Tabulation | STUDYID, RDOMAIN, USUBJID, IDVAR, IDVARVAL, QNAM | supp--.xpt |", "score": 0.3795, "match_basis": "verbatim_token+chapter_route:ch03"}, {"md_atom_id": "md_ch03_a066", "md_file": "knowledge_base/chapters/ch03_submitting_data.md", "md_atom_type": "TABLE_ROW", "md_parent_section": "§3.2.1 [Dataset-level Metadata]", "md_verbatim": "| RP | Reproductive System Findings | Findings | One record per finding or result per time point per visit per subject | Tabulation | STUDYID, DOMAIN, USUBJID, RPTESTCD, VISITNUM | rp.xpt |", "score": 0.3604, "match_basis": "verbatim_token+chapter_route:ch03"}, {"md_atom_id": "md_ch03_a054", "md_file": "knowledge_base/chapters/ch03_submitting_data.md", "md_atom_type": "TABLE_ROW", "md_parent_section": "§3.2.1 [Dataset-level Metadata]", "md_verbatim": "| LB | Laboratory Test Results | Findings | One record per lab test per time point per visit per subject | Tabulation | STUDYID, USUBJID, LBTESTCD, LBSPEC, VISITNUM, LBTPTREF, LBTPTNUM | lb.xpt |", "score": 0.36, "match_basis": "verbatim_token+chapter_route:ch03"}, {"md_atom_id": "md_ch03_a065", "md_file": "knowledge_base/chapters/ch03_submitting_data.md", "md_atom_type": "TABLE_ROW", "md_parent_section": "§3.2.1 [Dataset-level Metadata]", "md_verbatim": "| RE | Respiratory System Findings | Findings | One record per finding or result per time point per visit per subject | Tabulation | STUDYID, USUBJID, VISITNUM, RETESTCD, RETPTNUM, REREPNUM | re.xpt |", "score": 0.3596, "match_basis": "verbatim_token+chapter_route:ch03"}, {"md_atom_id": "md_ch03_a061", "md_file": "knowledge_base/chapters/ch03_submitting_data.md", "md_atom_type": "TABLE_ROW", "md_parent_section": "§3.2.1 [Dataset-level Metadata]", "md_verbatim": "| PC | Pharmacokinetics Concentrations | Findings | One record per sample characteristic or time-point concentration per reference time point or per analyte per subject | Tabulation | STUDYID, USUBJID, PCTESTCD, VISITNUM, PCTPTREF, PCTPTNUM | pc.xpt |", "score": 0.3578, "match_basis": "verbatim_token+chapter_route:ch03"}], "candidate_count": 5, "zero_candidate": false}
{"pdf_atom_id": "sv20_p0024_a005", "pdf_atom_type": "TABLE_ROW", "pdf_source": "SDTM_v2.0", "pdf_page": 24, "pdf_parent_section": "§3.1.3 The Findings Observation Class", "pdf_verbatim": "19 | --CONCU | Agent Concentration Units | Char | | Variable Qualifier | --CONC | MS Domain only | | Unit of measure for MSCONC. | | ", "figure_ref": null, "candidates": [{"md_atom_id": "md_ch03_a086", "md_file": "knowledge_base/chapters/ch03_submitting_data.md", "md_atom_type": "TABLE_ROW", "md_parent_section": "§3.2.1 [Dataset-level Metadata]", "md_verbatim": "| SUPP-- | Supplemental Qualifiers for [domain name] | Relationship | One record per supplemental qualifier per related parent domain record(s) | Tabulation | STUDYID, RDOMAIN, USUBJID, IDVAR, IDVARVAL, QNAM | supp--.xpt |", "score": 0.4041, "match_basis": "verbatim_token+chapter_route:ch03"}, {"md_atom_id": "md_ch03_a044", "md_file": "knowledge_base/chapters/ch03_submitting_data.md", "md_atom_type": "TABLE_ROW", "md_parent_section": "§3.2.1 [Dataset-level Metadata]", "md_verbatim": "| BS | Biospecimen Findings | Findings | One record per measurement per biospecimen identifier per subject | Tabulation | STUDYID, USUBJID, BSREFID, BSTESTCD | bs.xpt |", "score": 0.3699, "match_basis": "verbatim_token+chapter_route:ch03"}, {"md_atom_id": "md_ch03_a061", "md_file": "knowledge_base/chapters/ch03_submitting_data.md", "md_atom_type": "TABLE_ROW", "md_parent_section": "§3.2.1 [Dataset-level Metadata]", "md_verbatim": "| PC | Pharmacokinetics Concentrations | Findings | One record per sample characteristic or time-point concentration per reference time point or per analyte per subject | Tabulation | STUDYID, USUBJID, PCTESTCD, VISITNUM, PCTPTREF, PCTPTNUM | pc.xpt |", "score": 0.3574, "match_basis": "verbatim_token+chapter_route:ch03"}, {"md_atom_id": "md_ch03_a063", "md_file": "knowledge_base/chapters/ch03_submitting_data.md", "md_atom_type": "TABLE_ROW", "md_parent_section": "§3.2.1 [Dataset-level Metadata]", "md_verbatim": "| PP | Pharmacokinetics Parameters | Findings | One record per PK parameter per time-concentration profile per modeling method per subject | Tabulation | STUDYID, USUBJID, PPTESTCD, PPCAT, VISITNUM, PPRFTDTC | pp.xpt |", "score": 0.3537, "match_basis": "verbatim_token+chapter_route:ch03"}, {"md_atom_id": "md_ch03_a087", "md_file": "knowledge_base/chapters/ch03_submitting_data.md", "md_atom_type": "TABLE_ROW", "md_parent_section": "§3.2.1 [Dataset-level Metadata]", "md_verbatim": "| OI | Non-host Organism Identifiers | Study Reference | One record per taxon per non-host organism | Tabulation | NHOID, OISEQ | oi.xpt |", "score": 0.3533, "match_basis": "verbatim_token+chapter_route:ch03"}], "candidate_count": 5, "zero_candidate": false}
{"pdf_atom_id": "sv20_p0024_a006", "pdf_atom_type": "TABLE_ROW", "pdf_source": "SDTM_v2.0", "pdf_page": 24, "pdf_parent_section": "§3.1.3 The Findings Observation Class", "pdf_verbatim": "20 | --MODIFY | Modified Result Term | Char | | Synonym Qualifier | --ORRES | | C170998 | A value which represents an alteration to a collected value for coding purposes. | | ", "figure_ref": null, "candidates": [{"md_atom_id": "md_ch03_a032", "md_file": "knowledge_base/chapters/ch03_submitting_data.md", "md_atom_type": "TABLE_ROW", "md_parent_section": "§3.2.1 [Dataset-level Metadata]", "md_verbatim": "| EC | Exposure as Collected | Interventions | One record per protocol-specified study treatment, collected-dosing interval, per subject, per mood | Tabulation | STUDYID, USUBJID, ECTRT, ECSTDTC, ECMOOD | ec.xpt |", "score": 0.38, "match_basis": "verbatim_token+chapter_route:ch03"}, {"md_atom_id": "md_ch03_a027", "md_file": "knowledge_base/chapters/ch03_submitting_data.md", "md_atom_type": "TABLE_ROW", "md_parent_section": "§3.2.1 [Dataset-level Metadata]", "md_verbatim": "| SE | Subject Elements | Special Purpose | One record per actual Element per subject | Tabulation | STUDYID, USUBJID, ETCD, SESTDTC | se.xpt |", "score": 0.3703, "match_basis": "verbatim_token+chapter_route:ch03"}, {"md_atom_id": "md_ch03_a086", "md_file": "knowledge_base/chapters/ch03_submitting_data.md", "md_atom_type": "TABLE_ROW", "md_parent_section": "§3.2.1 [Dataset-level Metadata]", "md_verbatim": "| SUPP-- | Supplemental Qualifiers for [domain name] | Relationship | One record per supplemental qualifier per related parent domain record(s) | Tabulation | STUDYID, RDOMAIN, USUBJID, IDVAR, IDVARVAL, QNAM | supp--.xpt |", "score": 0.3677, "match_basis": "verbatim_token+chapter_route:ch03"}, {"md_atom_id": "md_ch03_a029", "md_file": "knowledge_base/chapters/ch03_submitting_data.md", "md_atom_type": "TABLE_ROW", "md_parent_section": "§3.2.1 [Dataset-level Metadata]", "md_verbatim": "| SV | Subject Visits | Special Purpose | One record per actual or planned visit per subject | Tabulation | STUDYID, USUBJID, SVTERM | sv.xpt |", "score": 0.3643, "match_basis": "verbatim_token+chapter_route:ch03"}, {"md_atom_id": "md_ch03_a071", "md_file": "knowledge_base/chapters/ch03_submitting_data.md", "md_atom_type": "TABLE_ROW", "md_parent_section": "§3.2.1 [Dataset-level Metadata]", "md_verbatim": "| TU | Tumor/Lesion Identification | Findings | One record per identified tumor per subject per assessor | Tabulation | STUDYID, USUBJID, TUEVALID, TULNKID | tu.xpt |", "score": 0.3629, "match_basis": "verbatim_token+chapter_route:ch03"}], "candidate_count": 5, "zero_candidate": false}
{"pdf_atom_id": "sv20_p0024_a007", "pdf_atom_type": "TABLE_ROW", "pdf_source": "SDTM_v2.0", "pdf_page": 24, "pdf_parent_section": "§3.1.3 The Findings Observation Class", "pdf_verbatim": "21 | --TSTDTL | Measurement, Test, or Examination Detail | Char | | Variable Qualifier | --TESTCD | | | Further description of --TESTCD and --TEST. | | \"STAINING INTENSITY\" when MITEST=\"Human Epidermal Growth Factor Receptor 2\"", "figure_ref": null, "candidates": [{"md_atom_id": "md_ch03_a044", "md_file": "knowledge_base/chapters/ch03_submitting_data.md", "md_atom_type": "TABLE_ROW", "md_parent_section": "§3.2.1 [Dataset-level Metadata]", "md_verbatim": "| BS | Biospecimen Findings | Findings | One record per measurement per biospecimen identifier per subject | Tabulation | STUDYID, USUBJID, BSREFID, BSTESTCD | bs.xpt |", "score": 0.3917, "match_basis": "verbatim_token+chapter_route:ch03"}, {"md_atom_id": "md_ch03_a073", "md_file": "knowledge_base/chapters/ch03_submitting_data.md", "md_atom_type": "TABLE_ROW", "md_parent_section": "§3.2.1 [Dataset-level Metadata]", "md_verbatim": "| VS | Vital Signs | Findings | One record per vital sign measurement per time point per visit per subject | Tabulation | STUDYID, USUBJID, VSTESTCD, VISITNUM, VSTPTREF, VSTPTNUM | vs.xpt |", "score": 0.3805, "match_basis": "verbatim_token+chapter_route:ch03"}, {"md_atom_id": "md_ch03_a062", "md_file": "knowledge_base/chapters/ch03_submitting_data.md", "md_atom_type": "TABLE_ROW", "md_parent_section": "§3.2.1 [Dataset-level Metadata]", "md_verbatim": "| PE | Physical Examination | Findings | One record per body system or abnormality per visit per subject | Tabulation | STUDYID, USUBJID, PETESTCD, VISITNUM | pe.xpt |", "score": 0.38, "match_basis": "verbatim_token+chapter_route:ch03"}, {"md_atom_id": "md_ch03_a070", "md_file": "knowledge_base/chapters/ch03_submitting_data.md", "md_atom_type": "TABLE_ROW", "md_parent_section": "§3.2.1 [Dataset-level Metadata]", "md_verbatim": "| TR | Tumor/Lesion Results | Findings | One record per tumor measurement/assessment per visit per subject per assessor | Tabulation | STUDYID, USUBJID, TRTESTCD, TREVALID, VISITNUM | tr.xpt |", "score": 0.3764, "match_basis": "verbatim_token+chapter_route:ch03"}, {"md_atom_id": "md_ch03_a060", "md_file": "knowledge_base/chapters/ch03_submitting_data.md", "md_atom_type": "TABLE_ROW", "md_parent_section": "§3.2.1 [Dataset-level Metadata]", "md_verbatim": "| OE | Ophthalmic Examinations | Findings | One record per ophthalmic finding per method per location, per time point per visit per subject | Tabulation | STUDYID, USUBJID, FOCID, OETESTCD, OETSTDTL, OEMETHOD, OELOC, OELAT, OEDIR, VISITNUM, OEDTC, OETPTREF, OETPTNUM, OEREPNUM | oe.xpt |", "score": 0.3746, "match_basis": "verbatim_token+chapter_route:ch03"}], "candidate_count": 5, "zero_candidate": false}
{"pdf_atom_id": "sv20_p0024_a008", "pdf_atom_type": "TABLE_ROW", "pdf_source": "SDTM_v2.0", "pdf_page": 24, "pdf_parent_section": "§3.1.3 The Findings Observation Class", "pdf_verbatim": "22 | --SPTSTD | Sponsor Test Description | Char | | Record Qualifier | | CP domain only | | Sponsor's description of a test. This variable is particularly valuable for identifying the cell population on which certain tests are conducted when it is not identified in the Test Name (CPTEST; e.g., tests for quantitative expression of a particular marker). | | ", "figure_ref": null, "candidates": [{"md_atom_id": "md_ch03_a086", "md_file": "knowledge_base/chapters/ch03_submitting_data.md", "md_atom_type": "TABLE_ROW", "md_parent_section": "§3.2.1 [Dataset-level Metadata]", "md_verbatim": "| SUPP-- | Supplemental Qualifiers for [domain name] | Relationship | One record per supplemental qualifier per related parent domain record(s) | Tabulation | STUDYID, RDOMAIN, USUBJID, IDVAR, IDVARVAL, QNAM | supp--.xpt |", "score": 0.4125, "match_basis": "verbatim_token+chapter_route:ch03"}, {"md_atom_id": "md_ch03_a071", "md_file": "knowledge_base/chapters/ch03_submitting_data.md", "md_atom_type": "TABLE_ROW", "md_parent_section": "§3.2.1 [Dataset-level Metadata]", "md_verbatim": "| TU | Tumor/Lesion Identification | Findings | One record per identified tumor per subject per assessor | Tabulation | STUDYID, USUBJID, TUEVALID, TULNKID | tu.xpt |", "score": 0.3831, "match_basis": "verbatim_token+chapter_route:ch03"}, {"md_atom_id": "md_ch03_a066", "md_file": "knowledge_base/chapters/ch03_submitting_data.md", "md_atom_type": "TABLE_ROW", "md_parent_section": "§3.2.1 [Dataset-level Metadata]", "md_verbatim": "| RP | Reproductive System Findings | Findings | One record per finding or result per time point per visit per subject | Tabulation | STUDYID, DOMAIN, USUBJID, RPTESTCD, VISITNUM | rp.xpt |", "score": 0.3767, "match_basis": "verbatim_token+chapter_route:ch03"}, {"md_atom_id": "md_ch03_a067", "md_file": "knowledge_base/chapters/ch03_submitting_data.md", "md_atom_type": "TABLE_ROW", "md_parent_section": "§3.2.1 [Dataset-level Metadata]", "md_verbatim": "| RS | Disease Response and Clin Classification | Findings | One record per response assessment or clinical classification assessment per time point per visit per subject per assessor per medical evaluator | Tabulation | STUDYID, USUBJID, RSTESTCD, VISITNUM, RSTPTREF, RSEVAL, RSPTPNUM, RSEVALID | rs.xpt |", "score": 0.3761, "match_basis": "verbatim_token+chapter_route:ch03"}, {"md_atom_id": "md_ch03_a084", "md_file": "knowledge_base/chapters/ch03_submitting_data.md", "md_atom_type": "TABLE_ROW", "md_parent_section": "§3.2.1 [Dataset-level Metadata]", "md_verbatim": "| RELSPEC | Related Specimens | Relationship | One record per specimen identifier per subject | Tabulation | STUDYID, USUBJID, REFID | relspec.xpt |", "score": 0.3722, "match_basis": "verbatim_token+chapter_route:ch03"}], "candidate_count": 5, "zero_candidate": false}
{"pdf_atom_id": "sv20_p0024_a009", "pdf_atom_type": "TABLE_ROW", "pdf_source": "SDTM_v2.0", "pdf_page": 24, "pdf_parent_section": "§3.1.3 The Findings Observation Class", "pdf_verbatim": "23 | --CAT | Category | Char | | Grouping Qualifier | | | C25372 | A grouping or classification of the topic of the finding, event, or intervention. | | \"HEMATOLOGY\", \"URINALYSIS\", \"CHEMISTRY\", \"HAMD 17\", \"SF36 V2.0 ACUTE\", \"EGFR MUTATION ANALYSIS\"", "figure_ref": null, "candidates": [{"md_atom_id": "md_ch03_a074", "md_file": "knowledge_base/chapters/ch03_submitting_data.md", "md_atom_type": "TABLE_ROW", "md_parent_section": "§3.2.1 [Dataset-level Metadata]", "md_verbatim": "| FA | Findings About Events or Interventions | Findings About | One record per finding, per object, per time point, per visit per subject | Tabulation | STUDYID, USUBJID, FATESTCD, FAOBJ, VISITNUM, FATPTREF, FATPTNUM | fa.xpt |", "score": 0.3761, "match_basis": "verbatim_token+chapter_route:ch03"}, {"md_atom_id": "md_ch03_a071", "md_file": "knowledge_base/chapters/ch03_submitting_data.md", "md_atom_type": "TABLE_ROW", "md_parent_section": "§3.2.1 [Dataset-level Metadata]", "md_verbatim": "| TU | Tumor/Lesion Identification | Findings | One record per identified tumor per subject per assessor | Tabulation | STUDYID, USUBJID, TUEVALID, TULNKID | tu.xpt |", "score": 0.3739, "match_basis": "verbatim_token+chapter_route:ch03"}, {"md_atom_id": "md_ch03_a067", "md_file": "knowledge_base/chapters/ch03_submitting_data.md", "md_atom_type": "TABLE_ROW", "md_parent_section": "§3.2.1 [Dataset-level Metadata]", "md_verbatim": "| RS | Disease Response and Clin Classification | Findings | One record per response assessment or clinical classification assessment per time point per visit per subject per assessor per medical evaluator | Tabulation | STUDYID, USUBJID, RSTESTCD, VISITNUM, RSTPTREF, RSEVAL, RSPTPNUM, RSEVALID | rs.xpt |", "score": 0.3716, "match_basis": "verbatim_token+chapter_route:ch03"}, {"md_atom_id": "md_ch03_a061", "md_file": "knowledge_base/chapters/ch03_submitting_data.md", "md_atom_type": "TABLE_ROW", "md_parent_section": "§3.2.1 [Dataset-level Metadata]", "md_verbatim": "| PC | Pharmacokinetics Concentrations | Findings | One record per sample characteristic or time-point concentration per reference time point or per analyte per subject | Tabulation | STUDYID, USUBJID, PCTESTCD, VISITNUM, PCTPTREF, PCTPTNUM | pc.xpt |", "score": 0.359, "match_basis": "verbatim_token+chapter_route:ch03"}, {"md_atom_id": "md_ch03_a031", "md_file": "knowledge_base/chapters/ch03_submitting_data.md", "md_atom_type": "TABLE_ROW", "md_parent_section": "§3.2.1 [Dataset-level Metadata]", "md_verbatim": "| CM | Concomitant/Prior Medications | Interventions | One record per recorded intervention occurrence or constant-dosing interval per subject | Tabulation | STUDYID, USUBJID, CMTRT, CMSTDTC | cm.xpt |", "score": 0.3549, "match_basis": "verbatim_token+chapter_route:ch03"}], "candidate_count": 5, "zero_candidate": false}
{"pdf_atom_id": "sv20_p0024_a010", "pdf_atom_type": "TABLE_ROW", "pdf_source": "SDTM_v2.0", "pdf_page": 24, "pdf_parent_section": "§3.1.3 The Findings Observation Class", "pdf_verbatim": "24 | --SCAT | Subcategory | Char | | Grouping Qualifier | | | | A further grouping or classification of the category for the topic of the finding, event, or intervention. | The category is in --CAT. | \"WBC DIFFERENTIAL\"", "figure_ref": null, "candidates": [{"md_atom_id": "md_ch03_a074", "md_file": "knowledge_base/chapters/ch03_submitting_data.md", "md_atom_type": "TABLE_ROW", "md_parent_section": "§3.2.1 [Dataset-level Metadata]", "md_verbatim": "| FA | Findings About Events or Interventions | Findings About | One record per finding, per object, per time point, per visit per subject | Tabulation | STUDYID, USUBJID, FATESTCD, FAOBJ, VISITNUM, FATPTREF, FATPTNUM | fa.xpt |", "score": 0.395, "match_basis": "verbatim_token+chapter_route:ch03"}, {"md_atom_id": "md_ch03_a071", "md_file": "knowledge_base/chapters/ch03_submitting_data.md", "md_atom_type": "TABLE_ROW", "md_parent_section": "§3.2.1 [Dataset-level Metadata]", "md_verbatim": "| TU | Tumor/Lesion Identification | Findings | One record per identified tumor per subject per assessor | Tabulation | STUDYID, USUBJID, TUEVALID, TULNKID | tu.xpt |", "score": 0.3931, "match_basis": "verbatim_token+chapter_route:ch03"}, {"md_atom_id": "md_ch03_a067", "md_file": "knowledge_base/chapters/ch03_submitting_data.md", "md_atom_type": "TABLE_ROW", "md_parent_section": "§3.2.1 [Dataset-level Metadata]", "md_verbatim": "| RS | Disease Response and Clin Classification | Findings | One record per response assessment or clinical classification assessment per time point per visit per subject per assessor per medical evaluator | Tabulation | STUDYID, USUBJID, RSTESTCD, VISITNUM, RSTPTREF, RSEVAL, RSPTPNUM, RSEVALID | rs.xpt |", "score": 0.3813, "match_basis": "verbatim_token+chapter_route:ch03"}, {"md_atom_id": "md_ch03_a086", "md_file": "knowledge_base/chapters/ch03_submitting_data.md", "md_atom_type": "TABLE_ROW", "md_parent_section": "§3.2.1 [Dataset-level Metadata]", "md_verbatim": "| SUPP-- | Supplemental Qualifiers for [domain name] | Relationship | One record per supplemental qualifier per related parent domain record(s) | Tabulation | STUDYID, RDOMAIN, USUBJID, IDVAR, IDVARVAL, QNAM | supp--.xpt |", "score": 0.375, "match_basis": "verbatim_token+chapter_route:ch03"}, {"md_atom_id": "md_ch03_a031", "md_file": "knowledge_base/chapters/ch03_submitting_data.md", "md_atom_type": "TABLE_ROW", "md_parent_section": "§3.2.1 [Dataset-level Metadata]", "md_verbatim": "| CM | Concomitant/Prior Medications | Interventions | One record per recorded intervention occurrence or constant-dosing interval per subject | Tabulation | STUDYID, USUBJID, CMTRT, CMSTDTC | cm.xpt |", "score": 0.3738, "match_basis": "verbatim_token+chapter_route:ch03"}], "candidate_count": 5, "zero_candidate": false}
{"pdf_atom_id": "sv20_p0024_a011", "pdf_atom_type": "TABLE_ROW", "pdf_source": "SDTM_v2.0", "pdf_page": 24, "pdf_parent_section": "§3.1.3 The Findings Observation Class", "pdf_verbatim": "25 | --TSTPNL | Test Panel | Char | | Grouping Qualifier | | CP domain only | | Sponsor-defined textual description used to group tests run together as part of a test panel. Can be used with --GRPID to ensure that relationships between associated tests are accurately identified. | | ", "figure_ref": null, "candidates": [{"md_atom_id": "md_ch03_a086", "md_file": "knowledge_base/chapters/ch03_submitting_data.md", "md_atom_type": "TABLE_ROW", "md_parent_section": "§3.2.1 [Dataset-level Metadata]", "md_verbatim": "| SUPP-- | Supplemental Qualifiers for [domain name] | Relationship | One record per supplemental qualifier per related parent domain record(s) | Tabulation | STUDYID, RDOMAIN, USUBJID, IDVAR, IDVARVAL, QNAM | supp--.xpt |", "score": 0.4006, "match_basis": "verbatim_token+chapter_route:ch03"}, {"md_atom_id": "md_ch03_a084", "md_file": "knowledge_base/chapters/ch03_submitting_data.md", "md_atom_type": "TABLE_ROW", "md_parent_section": "§3.2.1 [Dataset-level Metadata]", "md_verbatim": "| RELSPEC | Related Specimens | Relationship | One record per specimen identifier per subject | Tabulation | STUDYID, USUBJID, REFID | relspec.xpt |", "score": 0.3904, "match_basis": "verbatim_token+chapter_route:ch03"}, {"md_atom_id": "md_ch03_a083", "md_file": "knowledge_base/chapters/ch03_submitting_data.md", "md_atom_type": "TABLE_ROW", "md_parent_section": "§3.2.1 [Dataset-level Metadata]", "md_verbatim": "| RELREC | Related Records | Relationship | One record per related record, group of records or dataset | Tabulation | STUDYID, RDOMAIN, USUBJID, IDVAR, IDVARVAL, RELID | relrec.xpt |", "score": 0.376, "match_basis": "verbatim_token+chapter_route:ch03"}, {"md_atom_id": "md_ch03_a044", "md_file": "knowledge_base/chapters/ch03_submitting_data.md", "md_atom_type": "TABLE_ROW", "md_parent_section": "§3.2.1 [Dataset-level Metadata]", "md_verbatim": "| BS | Biospecimen Findings | Findings | One record per measurement per biospecimen identifier per subject | Tabulation | STUDYID, USUBJID, BSREFID, BSTESTCD | bs.xpt |", "score": 0.3704, "match_basis": "verbatim_token+chapter_route:ch03"}, {"md_atom_id": "md_ch03_a071", "md_file": "knowledge_base/chapters/ch03_submitting_data.md", "md_atom_type": "TABLE_ROW", "md_parent_section": "§3.2.1 [Dataset-level Metadata]", "md_verbatim": "| TU | Tumor/Lesion Identification | Findings | One record per identified tumor per subject per assessor | Tabulation | STUDYID, USUBJID, TUEVALID, TULNKID | tu.xpt |", "score": 0.3667, "match_basis": "verbatim_token+chapter_route:ch03"}], "candidate_count": 5, "zero_candidate": false}
{"pdf_atom_id": "sv20_p0025_a001", "pdf_atom_type": "TABLE_ROW", "pdf_source": "SDTM_v2.0", "pdf_page": 25, "pdf_parent_section": "§3.1.3 The Findings Observation Class", "pdf_verbatim": "26 | --POS | Position of Subject During Observation | Char | | Record Qualifier | | | C171002 | The particular way that a subject's body is placed or situated during an assessment. | | \"SUPINE\", \"STANDING\", \"SITTING\"", "figure_ref": null, "candidates": [{"md_atom_id": "md_ch03_a057", "md_file": "knowledge_base/chapters/ch03_submitting_data.md", "md_atom_type": "TABLE_ROW", "md_parent_section": "§3.2.1 [Dataset-level Metadata]", "md_verbatim": "| MK | Musculoskeletal System Findings | Findings | One record per assessment per visit per subject | Tabulation | STUDYID, USUBJID, VISITNUM, MKTESTCD, MKLOC, MKLAT | mk.xpt |", "score": 0.4182, "match_basis": "verbatim_token+chapter_route:ch03"}, {"md_atom_id": "md_ch03_a070", "md_file": "knowledge_base/chapters/ch03_submitting_data.md", "md_atom_type": "TABLE_ROW", "md_parent_section": "§3.2.1 [Dataset-level Metadata]", "md_verbatim": "| TR | Tumor/Lesion Results | Findings | One record per tumor measurement/assessment per visit per subject per assessor | Tabulation | STUDYID, USUBJID, TRTESTCD, TREVALID, VISITNUM | tr.xpt |", "score": 0.4139, "match_basis": "verbatim_token+chapter_route:ch03"}, {"md_atom_id": "md_ch03_a071", "md_file": "knowledge_base/chapters/ch03_submitting_data.md", "md_atom_type": "TABLE_ROW", "md_parent_section": "§3.2.1 [Dataset-level Metadata]", "md_verbatim": "| TU | Tumor/Lesion Identification | Findings | One record per identified tumor per subject per assessor | Tabulation | STUDYID, USUBJID, TUEVALID, TULNKID | tu.xpt |", "score": 0.4134, "match_basis": "verbatim_token+chapter_route:ch03"}, {"md_atom_id": "md_ch03_a086", "md_file": "knowledge_base/chapters/ch03_submitting_data.md", "md_atom_type": "TABLE_ROW", "md_parent_section": "§3.2.1 [Dataset-level Metadata]", "md_verbatim": "| SUPP-- | Supplemental Qualifiers for [domain name] | Relationship | One record per supplemental qualifier per related parent domain record(s) | Tabulation | STUDYID, RDOMAIN, USUBJID, IDVAR, IDVARVAL, QNAM | supp--.xpt |", "score": 0.4125, "match_basis": "verbatim_token+chapter_route:ch03"}, {"md_atom_id": "md_ch03_a051", "md_file": "knowledge_base/chapters/ch03_submitting_data.md", "md_atom_type": "TABLE_ROW", "md_parent_section": "§3.2.1 [Dataset-level Metadata]", "md_verbatim": "| GF | Genomics Findings | Findings | One record per finding per observation per biospecimen per subject | Tabulation | STUDYID, USUBJID, GFTESTCD, GFSPEC, VISITNUM, GFTPTREF, GFTPTNUM | gf.xpt |", "score": 0.4075, "match_basis": "verbatim_token+chapter_route:ch03"}], "candidate_count": 5, "zero_candidate": false}
{"pdf_atom_id": "sv20_p0025_a002", "pdf_atom_type": "TABLE_ROW", "pdf_source": "SDTM_v2.0", "pdf_page": 25, "pdf_parent_section": "§3.1.3 The Findings Observation Class", "pdf_verbatim": "27 | --BODSYS | Body System or Organ Class | Char | | Record Qualifier | | | C170986 | A standardized or dictionary-derived name for the body system or organ class. | | MedDRA SOC", "figure_ref": null, "candidates": [{"md_atom_id": "md_ch03_a086", "md_file": "knowledge_base/chapters/ch03_submitting_data.md", "md_atom_type": "TABLE_ROW", "md_parent_section": "§3.2.1 [Dataset-level Metadata]", "md_verbatim": "| SUPP-- | Supplemental Qualifiers for [domain name] | Relationship | One record per supplemental qualifier per related parent domain record(s) | Tabulation | STUDYID, RDOMAIN, USUBJID, IDVAR, IDVARVAL, QNAM | supp--.xpt |", "score": 0.3821, "match_basis": "verbatim_token+chapter_route:ch03"}, {"md_atom_id": "md_ch03_a087", "md_file": "knowledge_base/chapters/ch03_submitting_data.md", "md_atom_type": "TABLE_ROW", "md_parent_section": "§3.2.1 [Dataset-level Metadata]", "md_verbatim": "| OI | Non-host Organism Identifiers | Study Reference | One record per taxon per non-host organism | Tabulation | NHOID, OISEQ | oi.xpt |", "score": 0.3692, "match_basis": "verbatim_token+chapter_route:ch03"}, {"md_atom_id": "md_ch03_a072", "md_file": "knowledge_base/chapters/ch03_submitting_data.md", "md_atom_type": "TABLE_ROW", "md_parent_section": "§3.2.1 [Dataset-level Metadata]", "md_verbatim": "| UR | Urinary System Findings | Findings | One record per finding per location per visit per subject | Tabulation | STUDYID, USUBJID, VISITNUM, URTESTCD, URLOC, URLAT, URDIR | ur.xpt |", "score": 0.3678, "match_basis": "verbatim_token+chapter_route:ch03"}, {"md_atom_id": "md_ch03_a062", "md_file": "knowledge_base/chapters/ch03_submitting_data.md", "md_atom_type": "TABLE_ROW", "md_parent_section": "§3.2.1 [Dataset-level Metadata]", "md_verbatim": "| PE | Physical Examination | Findings | One record per body system or abnormality per visit per subject | Tabulation | STUDYID, USUBJID, PETESTCD, VISITNUM | pe.xpt |", "score": 0.3629, "match_basis": "verbatim_token+chapter_route:ch03"}, {"md_atom_id": "md_ch03_a077", "md_file": "knowledge_base/chapters/ch03_submitting_data.md", "md_atom_type": "TABLE_ROW", "md_parent_section": "§3.2.1 [Dataset-level Metadata]", "md_verbatim": "| TD | Trial Disease Assessments | Trial Design | One record per planned constant assessment period | Tabulation | STUDYID, TDORDER | td.xpt |", "score": 0.3589, "match_basis": "verbatim_token+chapter_route:ch03"}], "candidate_count": 5, "zero_candidate": false}
{"pdf_atom_id": "sv20_p0025_a003", "pdf_atom_type": "TABLE_ROW", "pdf_source": "SDTM_v2.0", "pdf_page": 25, "pdf_parent_section": "§3.1.3 The Findings Observation Class", "pdf_verbatim": "28 | --ORRES | Result or Finding in Original Units | Char | | Result Qualifier | | | C117221 | The result of the measurement, test, or examination, as originally received or collected. | | \"120\", \"<1\", \"POS\"", "figure_ref": null, "candidates": [{"md_atom_id": "md_ch03_a070", "md_file": "knowledge_base/chapters/ch03_submitting_data.md", "md_atom_type": "TABLE_ROW", "md_parent_section": "§3.2.1 [Dataset-level Metadata]", "md_verbatim": "| TR | Tumor/Lesion Results | Findings | One record per tumor measurement/assessment per visit per subject per assessor | Tabulation | STUDYID, USUBJID, TRTESTCD, TREVALID, VISITNUM | tr.xpt |", "score": 0.4248, "match_basis": "verbatim_token+chapter_route:ch03"}, {"md_atom_id": "md_ch03_a044", "md_file": "knowledge_base/chapters/ch03_submitting_data.md", "md_atom_type": "TABLE_ROW", "md_parent_section": "§3.2.1 [Dataset-level Metadata]", "md_verbatim": "| BS | Biospecimen Findings | Findings | One record per measurement per biospecimen identifier per subject | Tabulation | STUDYID, USUBJID, BSREFID, BSTESTCD | bs.xpt |", "score": 0.4241, "match_basis": "verbatim_token+chapter_route:ch03"}, {"md_atom_id": "md_ch03_a073", "md_file": "knowledge_base/chapters/ch03_submitting_data.md", "md_atom_type": "TABLE_ROW", "md_parent_section": "§3.2.1 [Dataset-level Metadata]", "md_verbatim": "| VS | Vital Signs | Findings | One record per vital sign measurement per time point per visit per subject | Tabulation | STUDYID, USUBJID, VSTESTCD, VISITNUM, VSTPTREF, VSTPTNUM | vs.xpt |", "score": 0.4033, "match_basis": "verbatim_token+chapter_route:ch03"}, {"md_atom_id": "md_ch03_a062", "md_file": "knowledge_base/chapters/ch03_submitting_data.md", "md_atom_type": "TABLE_ROW", "md_parent_section": "§3.2.1 [Dataset-level Metadata]", "md_verbatim": "| PE | Physical Examination | Findings | One record per body system or abnormality per visit per subject | Tabulation | STUDYID, USUBJID, PETESTCD, VISITNUM | pe.xpt |", "score": 0.3912, "match_basis": "verbatim_token+chapter_route:ch03"}, {"md_atom_id": "md_ch03_a032", "md_file": "knowledge_base/chapters/ch03_submitting_data.md", "md_atom_type": "TABLE_ROW", "md_parent_section": "§3.2.1 [Dataset-level Metadata]", "md_verbatim": "| EC | Exposure as Collected | Interventions | One record per protocol-specified study treatment, collected-dosing interval, per subject, per mood | Tabulation | STUDYID, USUBJID, ECTRT, ECSTDTC, ECMOOD | ec.xpt |", "score": 0.3838, "match_basis": "verbatim_token+chapter_route:ch03"}], "candidate_count": 5, "zero_candidate": false}
{"pdf_atom_id": "sv20_p0025_a004", "pdf_atom_type": "TABLE_ROW", "pdf_source": "SDTM_v2.0", "pdf_page": 25, "pdf_parent_section": "§3.1.3 The Findings Observation Class", "pdf_verbatim": "29 | --ORRESU | Original Units | Char | | Variable Qualifier | --ORRES; --ORNRLO; --ORNRHI; --ORREF | | C82586 | The unit of measure for the result (as originally received or collected) of the measurement, test, or examination. | Unit for --ORRES and --ORREF. | \"in\", \"LB\", \"kg/L\"", "figure_ref": null, "candidates": [{"md_atom_id": "md_ch03_a044", "md_file": "knowledge_base/chapters/ch03_submitting_data.md", "md_atom_type": "TABLE_ROW", "md_parent_section": "§3.2.1 [Dataset-level Metadata]", "md_verbatim": "| BS | Biospecimen Findings | Findings | One record per measurement per biospecimen identifier per subject | Tabulation | STUDYID, USUBJID, BSREFID, BSTESTCD | bs.xpt |", "score": 0.3945, "match_basis": "verbatim_token+chapter_route:ch03"}, {"md_atom_id": "md_ch03_a070", "md_file": "knowledge_base/chapters/ch03_submitting_data.md", "md_atom_type": "TABLE_ROW", "md_parent_section": "§3.2.1 [Dataset-level Metadata]", "md_verbatim": "| TR | Tumor/Lesion Results | Findings | One record per tumor measurement/assessment per visit per subject per assessor | Tabulation | STUDYID, USUBJID, TRTESTCD, TREVALID, VISITNUM | tr.xpt |", "score": 0.392, "match_basis": "verbatim_token+chapter_route:ch03"}, {"md_atom_id": "md_ch03_a086", "md_file": "knowledge_base/chapters/ch03_submitting_data.md", "md_atom_type": "TABLE_ROW", "md_parent_section": "§3.2.1 [Dataset-level Metadata]", "md_verbatim": "| SUPP-- | Supplemental Qualifiers for [domain name] | Relationship | One record per supplemental qualifier per related parent domain record(s) | Tabulation | STUDYID, RDOMAIN, USUBJID, IDVAR, IDVARVAL, QNAM | supp--.xpt |", "score": 0.3785, "match_basis": "verbatim_token+chapter_route:ch03"}, {"md_atom_id": "md_ch03_a073", "md_file": "knowledge_base/chapters/ch03_submitting_data.md", "md_atom_type": "TABLE_ROW", "md_parent_section": "§3.2.1 [Dataset-level Metadata]", "md_verbatim": "| VS | Vital Signs | Findings | One record per vital sign measurement per time point per visit per subject | Tabulation | STUDYID, USUBJID, VSTESTCD, VISITNUM, VSTPTREF, VSTPTNUM | vs.xpt |", "score": 0.3767, "match_basis": "verbatim_token+chapter_route:ch03"}, {"md_atom_id": "md_ch03_a032", "md_file": "knowledge_base/chapters/ch03_submitting_data.md", "md_atom_type": "TABLE_ROW", "md_parent_section": "§3.2.1 [Dataset-level Metadata]", "md_verbatim": "| EC | Exposure as Collected | Interventions | One record per protocol-specified study treatment, collected-dosing interval, per subject, per mood | Tabulation | STUDYID, USUBJID, ECTRT, ECSTDTC, ECMOOD | ec.xpt |", "score": 0.3703, "match_basis": "verbatim_token+chapter_route:ch03"}], "candidate_count": 5, "zero_candidate": false}
{"pdf_atom_id": "sv20_p0025_a005", "pdf_atom_type": "TABLE_ROW", "pdf_source": "SDTM_v2.0", "pdf_page": 25, "pdf_parent_section": "§3.1.3 The Findings Observation Class", "pdf_verbatim": "30 | --RESSCL | Result Scale | Char | | Record Qualifier | | | | Classifies the scale of the original result value with respect to whether the result is, for example, ordinal, nominal, quantitative, or narrative. | | \"NARRATIVE\", \"NOMINAL\", \"ORDINAL\", \"QUANTITATIVE\"", "figure_ref": null, "candidates": [{"md_atom_id": "md_ch03_a067", "md_file": "knowledge_base/chapters/ch03_submitting_data.md", "md_atom_type": "TABLE_ROW", "md_parent_section": "§3.2.1 [Dataset-level Metadata]", "md_verbatim": "| RS | Disease Response and Clin Classification | Findings | One record per response assessment or clinical classification assessment per time point per visit per subject per assessor per medical evaluator | Tabulation | STUDYID, USUBJID, RSTESTCD, VISITNUM, RSTPTREF, RSEVAL, RSPTPNUM, RSEVALID | rs.xpt |", "score": 0.3736, "match_basis": "verbatim_token+chapter_route:ch03"}, {"md_atom_id": "md_ch03_a086", "md_file": "knowledge_base/chapters/ch03_submitting_data.md", "md_atom_type": "TABLE_ROW", "md_parent_section": "§3.2.1 [Dataset-level Metadata]", "md_verbatim": "| SUPP-- | Supplemental Qualifiers for [domain name] | Relationship | One record per supplemental qualifier per related parent domain record(s) | Tabulation | STUDYID, RDOMAIN, USUBJID, IDVAR, IDVARVAL, QNAM | supp--.xpt |", "score": 0.3709, "match_basis": "verbatim_token+chapter_route:ch03"}, {"md_atom_id": "md_ch03_a071", "md_file": "knowledge_base/chapters/ch03_submitting_data.md", "md_atom_type": "TABLE_ROW", "md_parent_section": "§3.2.1 [Dataset-level Metadata]", "md_verbatim": "| TU | Tumor/Lesion Identification | Findings | One record per identified tumor per subject per assessor | Tabulation | STUDYID, USUBJID, TUEVALID, TULNKID | tu.xpt |", "score": 0.3661, "match_basis": "verbatim_token+chapter_route:ch03"}, {"md_atom_id": "md_ch03_a070", "md_file": "knowledge_base/chapters/ch03_submitting_data.md", "md_atom_type": "TABLE_ROW", "md_parent_section": "§3.2.1 [Dataset-level Metadata]", "md_verbatim": "| TR | Tumor/Lesion Results | Findings | One record per tumor measurement/assessment per visit per subject per assessor | Tabulation | STUDYID, USUBJID, TRTESTCD, TREVALID, VISITNUM | tr.xpt |", "score": 0.3652, "match_basis": "verbatim_token+chapter_route:ch03"}, {"md_atom_id": "md_ch03_a054", "md_file": "knowledge_base/chapters/ch03_submitting_data.md", "md_atom_type": "TABLE_ROW", "md_parent_section": "§3.2.1 [Dataset-level Metadata]", "md_verbatim": "| LB | Laboratory Test Results | Findings | One record per lab test per time point per visit per subject | Tabulation | STUDYID, USUBJID, LBTESTCD, LBSPEC, VISITNUM, LBTPTREF, LBTPTNUM | lb.xpt |", "score": 0.3632, "match_basis": "verbatim_token+chapter_route:ch03"}], "candidate_count": 5, "zero_candidate": false}
{"pdf_atom_id": "sv20_p0025_a006", "pdf_atom_type": "TABLE_ROW", "pdf_source": "SDTM_v2.0", "pdf_page": 25, "pdf_parent_section": "§3.1.3 The Findings Observation Class", "pdf_verbatim": "31 | --RESTYP | Result Type | Char | | Record Qualifier | | | | Classifies the kind of result (i.e., property type) originally reported for the test. | | \"SUBSTANCE CONCENTRATION\", \"MASS RATE\", \"ARBITRARY CONCENTRATION\"", "figure_ref": null, "candidates": [{"md_atom_id": "md_ch03_a036", "md_file": "knowledge_base/chapters/ch03_submitting_data.md", "md_atom_type": "TABLE_ROW", "md_parent_section": "§3.2.1 [Dataset-level Metadata]", "md_verbatim": "| SU | Substance Use | Interventions | One record per substance type per reported occurrence per subject | Tabulation | STUDYID, USUBJID, SUTRT, SUSTDTC | su.xpt |", "score": 0.42, "match_basis": "verbatim_token+chapter_route:ch03"}, {"md_atom_id": "md_ch03_a086", "md_file": "knowledge_base/chapters/ch03_submitting_data.md", "md_atom_type": "TABLE_ROW", "md_parent_section": "§3.2.1 [Dataset-level Metadata]", "md_verbatim": "| SUPP-- | Supplemental Qualifiers for [domain name] | Relationship | One record per supplemental qualifier per related parent domain record(s) | Tabulation | STUDYID, RDOMAIN, USUBJID, IDVAR, IDVARVAL, QNAM | supp--.xpt |", "score": 0.3952, "match_basis": "verbatim_token+chapter_route:ch03"}, {"md_atom_id": "md_ch03_a061", "md_file": "knowledge_base/chapters/ch03_submitting_data.md", "md_atom_type": "TABLE_ROW", "md_parent_section": "§3.2.1 [Dataset-level Metadata]", "md_verbatim": "| PC | Pharmacokinetics Concentrations | Findings | One record per sample characteristic or time-point concentration per reference time point or per analyte per subject | Tabulation | STUDYID, USUBJID, PCTESTCD, VISITNUM, PCTPTREF, PCTPTNUM | pc.xpt |", "score": 0.3923, "match_basis": "verbatim_token+chapter_route:ch03"}, {"md_atom_id": "md_ch03_a063", "md_file": "knowledge_base/chapters/ch03_submitting_data.md", "md_atom_type": "TABLE_ROW", "md_parent_section": "§3.2.1 [Dataset-level Metadata]", "md_verbatim": "| PP | Pharmacokinetics Parameters | Findings | One record per PK parameter per time-concentration profile per modeling method per subject | Tabulation | STUDYID, USUBJID, PPTESTCD, PPCAT, VISITNUM, PPRFTDTC | pp.xpt |", "score": 0.3896, "match_basis": "verbatim_token+chapter_route:ch03"}, {"md_atom_id": "md_ch03_a070", "md_file": "knowledge_base/chapters/ch03_submitting_data.md", "md_atom_type": "TABLE_ROW", "md_parent_section": "§3.2.1 [Dataset-level Metadata]", "md_verbatim": "| TR | Tumor/Lesion Results | Findings | One record per tumor measurement/assessment per visit per subject per assessor | Tabulation | STUDYID, USUBJID, TRTESTCD, TREVALID, VISITNUM | tr.xpt |", "score": 0.3876, "match_basis": "verbatim_token+chapter_route:ch03"}], "candidate_count": 5, "zero_candidate": false}
{"pdf_atom_id": "sv20_p0025_a007", "pdf_atom_type": "TABLE_ROW", "pdf_source": "SDTM_v2.0", "pdf_page": 25, "pdf_parent_section": "§3.1.3 The Findings Observation Class", "pdf_verbatim": "32 | --COLSRT | Collected Summary Result Type | Char | | Variable Qualifier | --TESTCD | | | Used to indicate the type of a collected summary result. This is used for summary results collected on a CRF or provided by an external vendor (e.g., central lab). If the summary result is derived by the sponsor using individual source data records, the summary result is represented in ADaM. If a sponsor has both a collected or vendor-provided summary result and a derived summary result, the collected or vendor-provided summary result is represented in SDTM and the derived summary result is represented in ADaM. | | \"MAXIMUM\", \"MINIMUM\", \"MEAN\", \"MEDIAN\", \"NADIR\"", "figure_ref": null, "candidates": [{"md_atom_id": "md_ch03_a067", "md_file": "knowledge_base/chapters/ch03_submitting_data.md", "md_atom_type": "TABLE_ROW", "md_parent_section": "§3.2.1 [Dataset-level Metadata]", "md_verbatim": "| RS | Disease Response and Clin Classification | Findings | One record per response assessment or clinical classification assessment per time point per visit per subject per assessor per medical evaluator | Tabulation | STUDYID, USUBJID, RSTESTCD, VISITNUM, RSTPTREF, RSEVAL, RSPTPNUM, RSEVALID | rs.xpt |", "score": 0.3743, "match_basis": "verbatim_token+chapter_route:ch03"}, {"md_atom_id": "md_ch03_a070", "md_file": "knowledge_base/chapters/ch03_submitting_data.md", "md_atom_type": "TABLE_ROW", "md_parent_section": "§3.2.1 [Dataset-level Metadata]", "md_verbatim": "| TR | Tumor/Lesion Results | Findings | One record per tumor measurement/assessment per visit per subject per assessor | Tabulation | STUDYID, USUBJID, TRTESTCD, TREVALID, VISITNUM | tr.xpt |", "score": 0.3649, "match_basis": "verbatim_token+chapter_route:ch03"}, {"md_atom_id": "md_ch03_a049", "md_file": "knowledge_base/chapters/ch03_submitting_data.md", "md_atom_type": "TABLE_ROW", "md_parent_section": "§3.2.1 [Dataset-level Metadata]", "md_verbatim": "| EG | ECG Test Results | Findings | One record per ECG observation per replicate per time point or one record per ECG observation per beat per visit per subject | Tabulation | STUDYID, USUBJID, EGTESTCD, VISITNUM, EGTPTREF, EGTPTNUM, EGREPNUM | eg.xpt |", "score": 0.3643, "match_basis": "verbatim_token+chapter_route:ch03"}, {"md_atom_id": "md_ch03_a061", "md_file": "knowledge_base/chapters/ch03_submitting_data.md", "md_atom_type": "TABLE_ROW", "md_parent_section": "§3.2.1 [Dataset-level Metadata]", "md_verbatim": "| PC | Pharmacokinetics Concentrations | Findings | One record per sample characteristic or time-point concentration per reference time point or per analyte per subject | Tabulation | STUDYID, USUBJID, PCTESTCD, VISITNUM, PCTPTREF, PCTPTNUM | pc.xpt |", "score": 0.3642, "match_basis": "verbatim_token+chapter_route:ch03"}, {"md_atom_id": "md_ch03_a066", "md_file": "knowledge_base/chapters/ch03_submitting_data.md", "md_atom_type": "TABLE_ROW", "md_parent_section": "§3.2.1 [Dataset-level Metadata]", "md_verbatim": "| RP | Reproductive System Findings | Findings | One record per finding or result per time point per visit per subject | Tabulation | STUDYID, DOMAIN, USUBJID, RPTESTCD, VISITNUM | rp.xpt |", "score": 0.3638, "match_basis": "verbatim_token+chapter_route:ch03"}], "candidate_count": 5, "zero_candidate": false}
{"pdf_atom_id": "sv20_p0025_a008", "pdf_atom_type": "TABLE_ROW", "pdf_source": "SDTM_v2.0", "pdf_page": 25, "pdf_parent_section": "§3.1.3 The Findings Observation Class", "pdf_verbatim": "33 | --ORNRLO | Normal Range Lower Limit-Original Units | Char | | Variable Qualifier | --ORRES | | C82580 | The lowest value in a normal or reference range for the result (as originally received or collected) of the measurement, test, or examination. | | ", "figure_ref": null, "candidates": [{"md_atom_id": "md_ch03_a070", "md_file": "knowledge_base/chapters/ch03_submitting_data.md", "md_atom_type": "TABLE_ROW", "md_parent_section": "§3.2.1 [Dataset-level Metadata]", "md_verbatim": "| TR | Tumor/Lesion Results | Findings | One record per tumor measurement/assessment per visit per subject per assessor | Tabulation | STUDYID, USUBJID, TRTESTCD, TREVALID, VISITNUM | tr.xpt |", "score": 0.3846, "match_basis": "verbatim_token+chapter_route:ch03"}, {"md_atom_id": "md_ch03_a044", "md_file": "knowledge_base/chapters/ch03_submitting_data.md", "md_atom_type": "TABLE_ROW", "md_parent_section": "§3.2.1 [Dataset-level Metadata]", "md_verbatim": "| BS | Biospecimen Findings | Findings | One record per measurement per biospecimen identifier per subject | Tabulation | STUDYID, USUBJID, BSREFID, BSTESTCD | bs.xpt |", "score": 0.3816, "match_basis": "verbatim_token+chapter_route:ch03"}, {"md_atom_id": "md_ch03_a086", "md_file": "knowledge_base/chapters/ch03_submitting_data.md", "md_atom_type": "TABLE_ROW", "md_parent_section": "§3.2.1 [Dataset-level Metadata]", "md_verbatim": "| SUPP-- | Supplemental Qualifiers for [domain name] | Relationship | One record per supplemental qualifier per related parent domain record(s) | Tabulation | STUDYID, RDOMAIN, USUBJID, IDVAR, IDVARVAL, QNAM | supp--.xpt |", "score": 0.377, "match_basis": "verbatim_token+chapter_route:ch03"}, {"md_atom_id": "md_ch03_a062", "md_file": "knowledge_base/chapters/ch03_submitting_data.md", "md_atom_type": "TABLE_ROW", "md_parent_section": "§3.2.1 [Dataset-level Metadata]", "md_verbatim": "| PE | Physical Examination | Findings | One record per body system or abnormality per visit per subject | Tabulation | STUDYID, USUBJID, PETESTCD, VISITNUM | pe.xpt |", "score": 0.3706, "match_basis": "verbatim_token+chapter_route:ch03"}, {"md_atom_id": "md_ch03_a073", "md_file": "knowledge_base/chapters/ch03_submitting_data.md", "md_atom_type": "TABLE_ROW", "md_parent_section": "§3.2.1 [Dataset-level Metadata]", "md_verbatim": "| VS | Vital Signs | Findings | One record per vital sign measurement per time point per visit per subject | Tabulation | STUDYID, USUBJID, VSTESTCD, VISITNUM, VSTPTREF, VSTPTNUM | vs.xpt |", "score": 0.3667, "match_basis": "verbatim_token+chapter_route:ch03"}], "candidate_count": 5, "zero_candidate": false}
{"pdf_atom_id": "sv20_p0026_a001", "pdf_atom_type": "TABLE_ROW", "pdf_source": "SDTM_v2.0", "pdf_page": 26, "pdf_parent_section": "§3.1.3 The Findings Observation Class", "pdf_verbatim": "34 | --ORNRHI | Normal Range Upper Limit-Original Units | Char | | Variable Qualifier | --ORRES | | C70933 | The highest value in a normal or reference range for the result (as originally received or collected) of the measurement, test, or examination. | | ", "figure_ref": null, "candidates": [{"md_atom_id": "md_ch03_a070", "md_file": "knowledge_base/chapters/ch03_submitting_data.md", "md_atom_type": "TABLE_ROW", "md_parent_section": "§3.2.1 [Dataset-level Metadata]", "md_verbatim": "| TR | Tumor/Lesion Results | Findings | One record per tumor measurement/assessment per visit per subject per assessor | Tabulation | STUDYID, USUBJID, TRTESTCD, TREVALID, VISITNUM | tr.xpt |", "score": 0.3873, "match_basis": "verbatim_token+chapter_route:ch03"}, {"md_atom_id": "md_ch03_a044", "md_file": "knowledge_base/chapters/ch03_submitting_data.md", "md_atom_type": "TABLE_ROW", "md_parent_section": "§3.2.1 [Dataset-level Metadata]", "md_verbatim": "| BS | Biospecimen Findings | Findings | One record per measurement per biospecimen identifier per subject | Tabulation | STUDYID, USUBJID, BSREFID, BSTESTCD | bs.xpt |", "score": 0.3846, "match_basis": "verbatim_token+chapter_route:ch03"}, {"md_atom_id": "md_ch03_a086", "md_file": "knowledge_base/chapters/ch03_submitting_data.md", "md_atom_type": "TABLE_ROW", "md_parent_section": "§3.2.1 [Dataset-level Metadata]", "md_verbatim": "| SUPP-- | Supplemental Qualifiers for [domain name] | Relationship | One record per supplemental qualifier per related parent domain record(s) | Tabulation | STUDYID, RDOMAIN, USUBJID, IDVAR, IDVARVAL, QNAM | supp--.xpt |", "score": 0.3846, "match_basis": "verbatim_token+chapter_route:ch03"}, {"md_atom_id": "md_ch03_a062", "md_file": "knowledge_base/chapters/ch03_submitting_data.md", "md_atom_type": "TABLE_ROW", "md_parent_section": "§3.2.1 [Dataset-level Metadata]", "md_verbatim": "| PE | Physical Examination | Findings | One record per body system or abnormality per visit per subject | Tabulation | STUDYID, USUBJID, PETESTCD, VISITNUM | pe.xpt |", "score": 0.3735, "match_basis": "verbatim_token+chapter_route:ch03"}, {"md_atom_id": "md_ch03_a087", "md_file": "knowledge_base/chapters/ch03_submitting_data.md", "md_atom_type": "TABLE_ROW", "md_parent_section": "§3.2.1 [Dataset-level Metadata]", "md_verbatim": "| OI | Non-host Organism Identifiers | Study Reference | One record per taxon per non-host organism | Tabulation | NHOID, OISEQ | oi.xpt |", "score": 0.3701, "match_basis": "verbatim_token+chapter_route:ch03"}], "candidate_count": 5, "zero_candidate": false}
{"pdf_atom_id": "sv20_p0026_a002", "pdf_atom_type": "TABLE_ROW", "pdf_source": "SDTM_v2.0", "pdf_page": 26, "pdf_parent_section": "§3.1.3 The Findings Observation Class", "pdf_verbatim": "35 | --ORREF | Reference Result in Original Units | Char | | Variable Qualifier | --ORRES | | | Reference value for the result or finding as originally received or collected. --ORREF uses the same units as --ORRES, if applicable. | | Value from predicted normal value in spirometry tests.", "figure_ref": null, "candidates": [{"md_atom_id": "md_ch03_a061", "md_file": "knowledge_base/chapters/ch03_submitting_data.md", "md_atom_type": "TABLE_ROW", "md_parent_section": "§3.2.1 [Dataset-level Metadata]", "md_verbatim": "| PC | Pharmacokinetics Concentrations | Findings | One record per sample characteristic or time-point concentration per reference time point or per analyte per subject | Tabulation | STUDYID, USUBJID, PCTESTCD, VISITNUM, PCTPTREF, PCTPTNUM | pc.xpt |", "score": 0.3759, "match_basis": "verbatim_token+chapter_route:ch03"}, {"md_atom_id": "md_ch03_a049", "md_file": "knowledge_base/chapters/ch03_submitting_data.md", "md_atom_type": "TABLE_ROW", "md_parent_section": "§3.2.1 [Dataset-level Metadata]", "md_verbatim": "| EG | ECG Test Results | Findings | One record per ECG observation per replicate per time point or one record per ECG observation per beat per visit per subject | Tabulation | STUDYID, USUBJID, EGTESTCD, VISITNUM, EGTPTREF, EGTPTNUM, EGREPNUM | eg.xpt |", "score": 0.3646, "match_basis": "verbatim_token+chapter_route:ch03"}, {"md_atom_id": "md_ch03_a062", "md_file": "knowledge_base/chapters/ch03_submitting_data.md", "md_atom_type": "TABLE_ROW", "md_parent_section": "§3.2.1 [Dataset-level Metadata]", "md_verbatim": "| PE | Physical Examination | Findings | One record per body system or abnormality per visit per subject | Tabulation | STUDYID, USUBJID, PETESTCD, VISITNUM | pe.xpt |", "score": 0.364, "match_basis": "verbatim_token+chapter_route:ch03"}, {"md_atom_id": "md_ch03_a065", "md_file": "knowledge_base/chapters/ch03_submitting_data.md", "md_atom_type": "TABLE_ROW", "md_parent_section": "§3.2.1 [Dataset-level Metadata]", "md_verbatim": "| RE | Respiratory System Findings | Findings | One record per finding or result per time point per visit per subject | Tabulation | STUDYID, USUBJID, VISITNUM, RETESTCD, RETPTNUM, REREPNUM | re.xpt |", "score": 0.3632, "match_basis": "verbatim_token+chapter_route:ch03"}, {"md_atom_id": "md_ch03_a067", "md_file": "knowledge_base/chapters/ch03_submitting_data.md", "md_atom_type": "TABLE_ROW", "md_parent_section": "§3.2.1 [Dataset-level Metadata]", "md_verbatim": "| RS | Disease Response and Clin Classification | Findings | One record per response assessment or clinical classification assessment per time point per visit per subject per assessor per medical evaluator | Tabulation | STUDYID, USUBJID, RSTESTCD, VISITNUM, RSTPTREF, RSEVAL, RSPTPNUM, RSEVALID | rs.xpt |", "score": 0.362, "match_basis": "verbatim_token+chapter_route:ch03"}], "candidate_count": 5, "zero_candidate": false}
{"pdf_atom_id": "sv20_p0026_a003", "pdf_atom_type": "TABLE_ROW", "pdf_source": "SDTM_v2.0", "pdf_page": 26, "pdf_parent_section": "§3.1.3 The Findings Observation Class", "pdf_verbatim": "36 | --LLOD | Lower Limit of Detection | Char | | Variable Qualifier | --TESTCD | | | The lowest threshold (as originally received or collected) for reliably detecting the presence or absence of substance measured by a specific test. The value for the field will be as described in documentation from the instrument or lab vendor. | | ", "figure_ref": null, "candidates": [{"md_atom_id": "md_ch03_a044", "md_file": "knowledge_base/chapters/ch03_submitting_data.md", "md_atom_type": "TABLE_ROW", "md_parent_section": "§3.2.1 [Dataset-level Metadata]", "md_verbatim": "| BS | Biospecimen Findings | Findings | One record per measurement per biospecimen identifier per subject | Tabulation | STUDYID, USUBJID, BSREFID, BSTESTCD | bs.xpt |", "score": 0.3867, "match_basis": "verbatim_token+chapter_route:ch03"}, {"md_atom_id": "md_ch03_a032", "md_file": "knowledge_base/chapters/ch03_submitting_data.md", "md_atom_type": "TABLE_ROW", "md_parent_section": "§3.2.1 [Dataset-level Metadata]", "md_verbatim": "| EC | Exposure as Collected | Interventions | One record per protocol-specified study treatment, collected-dosing interval, per subject, per mood | Tabulation | STUDYID, USUBJID, ECTRT, ECSTDTC, ECMOOD | ec.xpt |", "score": 0.3798, "match_basis": "verbatim_token+chapter_route:ch03"}, {"md_atom_id": "md_ch03_a038", "md_file": "knowledge_base/chapters/ch03_submitting_data.md", "md_atom_type": "TABLE_ROW", "md_parent_section": "§3.2.1 [Dataset-level Metadata]", "md_verbatim": "| BE | Biospecimen Events | Events | One record per instance per biospecimen event per biospecimen identifier per subject | Tabulation | STUDYID, USUBJID, BEREFID, BETERM, BESTDTC | be.xpt |", "score": 0.3793, "match_basis": "verbatim_token+chapter_route:ch03"}, {"md_atom_id": "md_ch03_a033", "md_file": "knowledge_base/chapters/ch03_submitting_data.md", "md_atom_type": "TABLE_ROW", "md_parent_section": "§3.2.1 [Dataset-level Metadata]", "md_verbatim": "| EX | Exposure | Interventions | One record per protocol-specified study treatment, constant-dosing interval, per subject | Tabulation | STUDYID, USUBJID, EXTRT, EXSTDTC | ex.xpt |", "score": 0.3738, "match_basis": "verbatim_token+chapter_route:ch03"}, {"md_atom_id": "md_ch03_a086", "md_file": "knowledge_base/chapters/ch03_submitting_data.md", "md_atom_type": "TABLE_ROW", "md_parent_section": "§3.2.1 [Dataset-level Metadata]", "md_verbatim": "| SUPP-- | Supplemental Qualifiers for [domain name] | Relationship | One record per supplemental qualifier per related parent domain record(s) | Tabulation | STUDYID, RDOMAIN, USUBJID, IDVAR, IDVARVAL, QNAM | supp--.xpt |", "score": 0.3674, "match_basis": "verbatim_token+chapter_route:ch03"}], "candidate_count": 5, "zero_candidate": false}
{"pdf_atom_id": "sv20_p0026_a004", "pdf_atom_type": "TABLE_ROW", "pdf_source": "SDTM_v2.0", "pdf_page": 26, "pdf_parent_section": "§3.1.3 The Findings Observation Class", "pdf_verbatim": "37 | --STRESC | Result or Finding in Standard Format | Char | | Result Qualifier | | | C117222 | The standardized result of the measurement, test, or examination, in character format. | --STRESC should store all results or findings in character format; if results are numeric, they should also be stored in numeric format in --STRESN. | If various tests have results \"NONE\", \"NEG\", and \"NEGATIVE\" in --ORRES and these results effectively have the same meaning, they could be represented in standard format in --STRESC as \"NEGATIVE\".", "figure_ref": null, "candidates": [{"md_atom_id": "md_ch03_a070", "md_file": "knowledge_base/chapters/ch03_submitting_data.md", "md_atom_type": "TABLE_ROW", "md_parent_section": "§3.2.1 [Dataset-level Metadata]", "md_verbatim": "| TR | Tumor/Lesion Results | Findings | One record per tumor measurement/assessment per visit per subject per assessor | Tabulation | STUDYID, USUBJID, TRTESTCD, TREVALID, VISITNUM | tr.xpt |", "score": 0.4029, "match_basis": "verbatim_token+chapter_route:ch03"}, {"md_atom_id": "md_ch03_a044", "md_file": "knowledge_base/chapters/ch03_submitting_data.md", "md_atom_type": "TABLE_ROW", "md_parent_section": "§3.2.1 [Dataset-level Metadata]", "md_verbatim": "| BS | Biospecimen Findings | Findings | One record per measurement per biospecimen identifier per subject | Tabulation | STUDYID, USUBJID, BSREFID, BSTESTCD | bs.xpt |", "score": 0.3888, "match_basis": "verbatim_token+chapter_route:ch03"}, {"md_atom_id": "md_ch03_a073", "md_file": "knowledge_base/chapters/ch03_submitting_data.md", "md_atom_type": "TABLE_ROW", "md_parent_section": "§3.2.1 [Dataset-level Metadata]", "md_verbatim": "| VS | Vital Signs | Findings | One record per vital sign measurement per time point per visit per subject | Tabulation | STUDYID, USUBJID, VSTESTCD, VISITNUM, VSTPTREF, VSTPTNUM | vs.xpt |", "score": 0.3832, "match_basis": "verbatim_token+chapter_route:ch03"}, {"md_atom_id": "md_ch03_a068", "md_file": "knowledge_base/chapters/ch03_submitting_data.md", "md_atom_type": "TABLE_ROW", "md_parent_section": "§3.2.1 [Dataset-level Metadata]", "md_verbatim": "| SC | Subject Characteristics | Findings | One record per characteristic per visit per subject. | Tabulation | STUDYID, USUBJID, SCTESTCD, VISITNUM | sc.xpt |", "score": 0.382, "match_basis": "verbatim_token+chapter_route:ch03"}, {"md_atom_id": "md_ch03_a062", "md_file": "knowledge_base/chapters/ch03_submitting_data.md", "md_atom_type": "TABLE_ROW", "md_parent_section": "§3.2.1 [Dataset-level Metadata]", "md_verbatim": "| PE | Physical Examination | Findings | One record per body system or abnormality per visit per subject | Tabulation | STUDYID, USUBJID, PETESTCD, VISITNUM | pe.xpt |", "score": 0.3789, "match_basis": "verbatim_token+chapter_route:ch03"}], "candidate_count": 5, "zero_candidate": false}
{"pdf_atom_id": "sv20_p0026_a005", "pdf_atom_type": "TABLE_ROW", "pdf_source": "SDTM_v2.0", "pdf_page": 26, "pdf_parent_section": "§3.1.3 The Findings Observation Class", "pdf_verbatim": "38 | --IMPLBL | Implantation Site Label | Char | | Record Qualifier | | Not in human clinical trials; IC Domain only | | Label or identifier that describes the location or position of a fetal implantation site in the uterus (or uterine horn) when classifying implantations during a uterine examination in a reproductive toxicology study. | | ", "figure_ref": null, "candidates": [{"md_atom_id": "md_ch03_a066", "md_file": "knowledge_base/chapters/ch03_submitting_data.md", "md_atom_type": "TABLE_ROW", "md_parent_section": "§3.2.1 [Dataset-level Metadata]", "md_verbatim": "| RP | Reproductive System Findings | Findings | One record per finding or result per time point per visit per subject | Tabulation | STUDYID, DOMAIN, USUBJID, RPTESTCD, VISITNUM | rp.xpt |", "score": 0.3912, "match_basis": "verbatim_token+chapter_route:ch03"}, {"md_atom_id": "md_ch03_a086", "md_file": "knowledge_base/chapters/ch03_submitting_data.md", "md_atom_type": "TABLE_ROW", "md_parent_section": "§3.2.1 [Dataset-level Metadata]", "md_verbatim": "| SUPP-- | Supplemental Qualifiers for [domain name] | Relationship | One record per supplemental qualifier per related parent domain record(s) | Tabulation | STUDYID, RDOMAIN, USUBJID, IDVAR, IDVARVAL, QNAM | supp--.xpt |", "score": 0.3893, "match_basis": "verbatim_token+chapter_route:ch03"}, {"md_atom_id": "md_ch03_a067", "md_file": "knowledge_base/chapters/ch03_submitting_data.md", "md_atom_type": "TABLE_ROW", "md_parent_section": "§3.2.1 [Dataset-level Metadata]", "md_verbatim": "| RS | Disease Response and Clin Classification | Findings | One record per response assessment or clinical classification assessment per time point per visit per subject per assessor per medical evaluator | Tabulation | STUDYID, USUBJID, RSTESTCD, VISITNUM, RSTPTREF, RSEVAL, RSPTPNUM, RSEVALID | rs.xpt |", "score": 0.3816, "match_basis": "verbatim_token+chapter_route:ch03"}, {"md_atom_id": "md_ch03_a077", "md_file": "knowledge_base/chapters/ch03_submitting_data.md", "md_atom_type": "TABLE_ROW", "md_parent_section": "§3.2.1 [Dataset-level Metadata]", "md_verbatim": "| TD | Trial Disease Assessments | Trial Design | One record per planned constant assessment period | Tabulation | STUDYID, TDORDER | td.xpt |", "score": 0.3778, "match_basis": "verbatim_token+chapter_route:ch03"}, {"md_atom_id": "md_ch03_a071", "md_file": "knowledge_base/chapters/ch03_submitting_data.md", "md_atom_type": "TABLE_ROW", "md_parent_section": "§3.2.1 [Dataset-level Metadata]", "md_verbatim": "| TU | Tumor/Lesion Identification | Findings | One record per identified tumor per subject per assessor | Tabulation | STUDYID, USUBJID, TUEVALID, TULNKID | tu.xpt |", "score": 0.3776, "match_basis": "verbatim_token+chapter_route:ch03"}], "candidate_count": 5, "zero_candidate": false}
{"pdf_atom_id": "sv20_p0026_a006", "pdf_atom_type": "TABLE_ROW", "pdf_source": "SDTM_v2.0", "pdf_page": 26, "pdf_parent_section": "§3.1.3 The Findings Observation Class", "pdf_verbatim": "39 | --STRESN | Numeric Result/Finding in Standard Units | Num | | Result Qualifier | | | C171009 | The standardized result of the measurement, test, or examination in numeric format. | Copied in numeric format from --STRESC. --STRESN should store all numeric test results or findings. | ", "figure_ref": null, "candidates": [{"md_atom_id": "md_ch03_a070", "md_file": "knowledge_base/chapters/ch03_submitting_data.md", "md_atom_type": "TABLE_ROW", "md_parent_section": "§3.2.1 [Dataset-level Metadata]", "md_verbatim": "| TR | Tumor/Lesion Results | Findings | One record per tumor measurement/assessment per visit per subject per assessor | Tabulation | STUDYID, USUBJID, TRTESTCD, TREVALID, VISITNUM | tr.xpt |", "score": 0.4235, "match_basis": "verbatim_token+chapter_route:ch03"}, {"md_atom_id": "md_ch03_a044", "md_file": "knowledge_base/chapters/ch03_submitting_data.md", "md_atom_type": "TABLE_ROW", "md_parent_section": "§3.2.1 [Dataset-level Metadata]", "md_verbatim": "| BS | Biospecimen Findings | Findings | One record per measurement per biospecimen identifier per subject | Tabulation | STUDYID, USUBJID, BSREFID, BSTESTCD | bs.xpt |", "score": 0.4062, "match_basis": "verbatim_token+chapter_route:ch03"}, {"md_atom_id": "md_ch03_a073", "md_file": "knowledge_base/chapters/ch03_submitting_data.md", "md_atom_type": "TABLE_ROW", "md_parent_section": "§3.2.1 [Dataset-level Metadata]", "md_verbatim": "| VS | Vital Signs | Findings | One record per vital sign measurement per time point per visit per subject | Tabulation | STUDYID, USUBJID, VSTESTCD, VISITNUM, VSTPTREF, VSTPTNUM | vs.xpt |", "score": 0.3985, "match_basis": "verbatim_token+chapter_route:ch03"}, {"md_atom_id": "md_ch03_a062", "md_file": "knowledge_base/chapters/ch03_submitting_data.md", "md_atom_type": "TABLE_ROW", "md_parent_section": "§3.2.1 [Dataset-level Metadata]", "md_verbatim": "| PE | Physical Examination | Findings | One record per body system or abnormality per visit per subject | Tabulation | STUDYID, USUBJID, PETESTCD, VISITNUM | pe.xpt |", "score": 0.3926, "match_basis": "verbatim_token+chapter_route:ch03"}, {"md_atom_id": "md_ch03_a054", "md_file": "knowledge_base/chapters/ch03_submitting_data.md", "md_atom_type": "TABLE_ROW", "md_parent_section": "§3.2.1 [Dataset-level Metadata]", "md_verbatim": "| LB | Laboratory Test Results | Findings | One record per lab test per time point per visit per subject | Tabulation | STUDYID, USUBJID, LBTESTCD, LBSPEC, VISITNUM, LBTPTREF, LBTPTNUM | lb.xpt |", "score": 0.382, "match_basis": "verbatim_token+chapter_route:ch03"}], "candidate_count": 5, "zero_candidate": false}
{"pdf_atom_id": "sv20_p0026_a007", "pdf_atom_type": "TABLE_ROW", "pdf_source": "SDTM_v2.0", "pdf_page": 26, "pdf_parent_section": "§3.1.3 The Findings Observation Class", "pdf_verbatim": "40 | --STRESU | Standard Units | Char | | Variable Qualifier | --STRESC; --STRESN; --STNRLO; --STNRHI; --STREFC; --STREFN; --LLOQ; --ULOQ | | C82587 | The unit of measure for the standardized result of the measurement, test, or examination. | | \"mol/L\"", "figure_ref": null, "candidates": [{"md_atom_id": "md_ch03_a070", "md_file": "knowledge_base/chapters/ch03_submitting_data.md", "md_atom_type": "TABLE_ROW", "md_parent_section": "§3.2.1 [Dataset-level Metadata]", "md_verbatim": "| TR | Tumor/Lesion Results | Findings | One record per tumor measurement/assessment per visit per subject per assessor | Tabulation | STUDYID, USUBJID, TRTESTCD, TREVALID, VISITNUM | tr.xpt |", "score": 0.3889, "match_basis": "verbatim_token+chapter_route:ch03"}, {"md_atom_id": "md_ch03_a044", "md_file": "knowledge_base/chapters/ch03_submitting_data.md", "md_atom_type": "TABLE_ROW", "md_parent_section": "§3.2.1 [Dataset-level Metadata]", "md_verbatim": "| BS | Biospecimen Findings | Findings | One record per measurement per biospecimen identifier per subject | Tabulation | STUDYID, USUBJID, BSREFID, BSTESTCD | bs.xpt |", "score": 0.3857, "match_basis": "verbatim_token+chapter_route:ch03"}, {"md_atom_id": "md_ch03_a073", "md_file": "knowledge_base/chapters/ch03_submitting_data.md", "md_atom_type": "TABLE_ROW", "md_parent_section": "§3.2.1 [Dataset-level Metadata]", "md_verbatim": "| VS | Vital Signs | Findings | One record per vital sign measurement per time point per visit per subject | Tabulation | STUDYID, USUBJID, VSTESTCD, VISITNUM, VSTPTREF, VSTPTNUM | vs.xpt |", "score": 0.3733, "match_basis": "verbatim_token+chapter_route:ch03"}, {"md_atom_id": "md_ch03_a086", "md_file": "knowledge_base/chapters/ch03_submitting_data.md", "md_atom_type": "TABLE_ROW", "md_parent_section": "§3.2.1 [Dataset-level Metadata]", "md_verbatim": "| SUPP-- | Supplemental Qualifiers for [domain name] | Relationship | One record per supplemental qualifier per related parent domain record(s) | Tabulation | STUDYID, RDOMAIN, USUBJID, IDVAR, IDVARVAL, QNAM | supp--.xpt |", "score": 0.3698, "match_basis": "verbatim_token+chapter_route:ch03"}, {"md_atom_id": "md_ch03_a046", "md_file": "knowledge_base/chapters/ch03_submitting_data.md", "md_atom_type": "TABLE_ROW", "md_parent_section": "§3.2.1 [Dataset-level Metadata]", "md_verbatim": "| CV | Cardiovascular System Findings | Findings | One record per finding or result per time point per visit per subject | Tabulation | STUDYID, USUBJID, VISITNUM, CVTESTCD, CVTPTREF, CVTPTNUM | cv.xpt |", "score": 0.3565, "match_basis": "verbatim_token+chapter_route:ch03"}], "candidate_count": 5, "zero_candidate": false}
{"pdf_atom_id": "sv20_p0027_a001", "pdf_atom_type": "TABLE_ROW", "pdf_source": "SDTM_v2.0", "pdf_page": 27, "pdf_parent_section": "§3.1.3 The Findings Observation Class", "pdf_verbatim": "41 | --STNRLO | Normal Range Lower Limit-Standard Units | Num | | Variable Qualifier | --STRESC; --STRESN | | C171008 | The lowest value in a normal or reference range for the standardized result of the measurement, test, or examination. | | ", "figure_ref": null, "candidates": [{"md_atom_id": "md_ch03_a070", "md_file": "knowledge_base/chapters/ch03_submitting_data.md", "md_atom_type": "TABLE_ROW", "md_parent_section": "§3.2.1 [Dataset-level Metadata]", "md_verbatim": "| TR | Tumor/Lesion Results | Findings | One record per tumor measurement/assessment per visit per subject per assessor | Tabulation | STUDYID, USUBJID, TRTESTCD, TREVALID, VISITNUM | tr.xpt |", "score": 0.3892, "match_basis": "verbatim_token+chapter_route:ch03"}, {"md_atom_id": "md_ch03_a044", "md_file": "knowledge_base/chapters/ch03_submitting_data.md", "md_atom_type": "TABLE_ROW", "md_parent_section": "§3.2.1 [Dataset-level Metadata]", "md_verbatim": "| BS | Biospecimen Findings | Findings | One record per measurement per biospecimen identifier per subject | Tabulation | STUDYID, USUBJID, BSREFID, BSTESTCD | bs.xpt |", "score": 0.3766, "match_basis": "verbatim_token+chapter_route:ch03"}, {"md_atom_id": "md_ch03_a086", "md_file": "knowledge_base/chapters/ch03_submitting_data.md", "md_atom_type": "TABLE_ROW", "md_parent_section": "§3.2.1 [Dataset-level Metadata]", "md_verbatim": "| SUPP-- | Supplemental Qualifiers for [domain name] | Relationship | One record per supplemental qualifier per related parent domain record(s) | Tabulation | STUDYID, RDOMAIN, USUBJID, IDVAR, IDVARVAL, QNAM | supp--.xpt |", "score": 0.3718, "match_basis": "verbatim_token+chapter_route:ch03"}, {"md_atom_id": "md_ch03_a073", "md_file": "knowledge_base/chapters/ch03_submitting_data.md", "md_atom_type": "TABLE_ROW", "md_parent_section": "§3.2.1 [Dataset-level Metadata]", "md_verbatim": "| VS | Vital Signs | Findings | One record per vital sign measurement per time point per visit per subject | Tabulation | STUDYID, USUBJID, VSTESTCD, VISITNUM, VSTPTREF, VSTPTNUM | vs.xpt |", "score": 0.3703, "match_basis": "verbatim_token+chapter_route:ch03"}, {"md_atom_id": "md_ch03_a062", "md_file": "knowledge_base/chapters/ch03_submitting_data.md", "md_atom_type": "TABLE_ROW", "md_parent_section": "§3.2.1 [Dataset-level Metadata]", "md_verbatim": "| PE | Physical Examination | Findings | One record per body system or abnormality per visit per subject | Tabulation | STUDYID, USUBJID, PETESTCD, VISITNUM | pe.xpt |", "score": 0.3699, "match_basis": "verbatim_token+chapter_route:ch03"}], "candidate_count": 5, "zero_candidate": false}
{"pdf_atom_id": "sv20_p0027_a002", "pdf_atom_type": "TABLE_ROW", "pdf_source": "SDTM_v2.0", "pdf_page": 27, "pdf_parent_section": "§3.1.3 The Findings Observation Class", "pdf_verbatim": "42 | --STNRHI | Normal Range Upper Limit-Standard Units | Num | | Variable Qualifier | --STRESC; --STRESN | | C171007 | The highest value in a normal or reference range for the standardized result of the measurement, test, or examination. | | ", "figure_ref": null, "candidates": [{"md_atom_id": "md_ch03_a070", "md_file": "knowledge_base/chapters/ch03_submitting_data.md", "md_atom_type": "TABLE_ROW", "md_parent_section": "§3.2.1 [Dataset-level Metadata]", "md_verbatim": "| TR | Tumor/Lesion Results | Findings | One record per tumor measurement/assessment per visit per subject per assessor | Tabulation | STUDYID, USUBJID, TRTESTCD, TREVALID, VISITNUM | tr.xpt |", "score": 0.392, "match_basis": "verbatim_token+chapter_route:ch03"}, {"md_atom_id": "md_ch03_a044", "md_file": "knowledge_base/chapters/ch03_submitting_data.md", "md_atom_type": "TABLE_ROW", "md_parent_section": "§3.2.1 [Dataset-level Metadata]", "md_verbatim": "| BS | Biospecimen Findings | Findings | One record per measurement per biospecimen identifier per subject | Tabulation | STUDYID, USUBJID, BSREFID, BSTESTCD | bs.xpt |", "score": 0.3797, "match_basis": "verbatim_token+chapter_route:ch03"}, {"md_atom_id": "md_ch03_a086", "md_file": "knowledge_base/chapters/ch03_submitting_data.md", "md_atom_type": "TABLE_ROW", "md_parent_section": "§3.2.1 [Dataset-level Metadata]", "md_verbatim": "| SUPP-- | Supplemental Qualifiers for [domain name] | Relationship | One record per supplemental qualifier per related parent domain record(s) | Tabulation | STUDYID, RDOMAIN, USUBJID, IDVAR, IDVARVAL, QNAM | supp--.xpt |", "score": 0.3797, "match_basis": "verbatim_token+chapter_route:ch03"}, {"md_atom_id": "md_ch03_a073", "md_file": "knowledge_base/chapters/ch03_submitting_data.md", "md_atom_type": "TABLE_ROW", "md_parent_section": "§3.2.1 [Dataset-level Metadata]", "md_verbatim": "| VS | Vital Signs | Findings | One record per vital sign measurement per time point per visit per subject | Tabulation | STUDYID, USUBJID, VSTESTCD, VISITNUM, VSTPTREF, VSTPTNUM | vs.xpt |", "score": 0.3735, "match_basis": "verbatim_token+chapter_route:ch03"}, {"md_atom_id": "md_ch03_a062", "md_file": "knowledge_base/chapters/ch03_submitting_data.md", "md_atom_type": "TABLE_ROW", "md_parent_section": "§3.2.1 [Dataset-level Metadata]", "md_verbatim": "| PE | Physical Examination | Findings | One record per body system or abnormality per visit per subject | Tabulation | STUDYID, USUBJID, PETESTCD, VISITNUM | pe.xpt |", "score": 0.373, "match_basis": "verbatim_token+chapter_route:ch03"}], "candidate_count": 5, "zero_candidate": false}
{"pdf_atom_id": "sv20_p0027_a003", "pdf_atom_type": "TABLE_ROW", "pdf_source": "SDTM_v2.0", "pdf_page": 27, "pdf_parent_section": "§3.1.3 The Findings Observation Class", "pdf_verbatim": "43 | --STNRC | Normal Range for Character Results | Char | | Variable Qualifier | --STRESC | | C171006 | A set of normal or reference values for the standardized character result, in an ordinal scale or categorical grouping. | | \"Negative to Trace\"", "figure_ref": null, "candidates": [{"md_atom_id": "md_ch03_a061", "md_file": "knowledge_base/chapters/ch03_submitting_data.md", "md_atom_type": "TABLE_ROW", "md_parent_section": "§3.2.1 [Dataset-level Metadata]", "md_verbatim": "| PC | Pharmacokinetics Concentrations | Findings | One record per sample characteristic or time-point concentration per reference time point or per analyte per subject | Tabulation | STUDYID, USUBJID, PCTESTCD, VISITNUM, PCTPTREF, PCTPTNUM | pc.xpt |", "score": 0.3746, "match_basis": "verbatim_token+chapter_route:ch03"}, {"md_atom_id": "md_ch03_a086", "md_file": "knowledge_base/chapters/ch03_submitting_data.md", "md_atom_type": "TABLE_ROW", "md_parent_section": "§3.2.1 [Dataset-level Metadata]", "md_verbatim": "| SUPP-- | Supplemental Qualifiers for [domain name] | Relationship | One record per supplemental qualifier per related parent domain record(s) | Tabulation | STUDYID, RDOMAIN, USUBJID, IDVAR, IDVARVAL, QNAM | supp--.xpt |", "score": 0.3556, "match_basis": "verbatim_token+chapter_route:ch03"}, {"md_atom_id": "md_ch03_a087", "md_file": "knowledge_base/chapters/ch03_submitting_data.md", "md_atom_type": "TABLE_ROW", "md_parent_section": "§3.2.1 [Dataset-level Metadata]", "md_verbatim": "| OI | Non-host Organism Identifiers | Study Reference | One record per taxon per non-host organism | Tabulation | NHOID, OISEQ | oi.xpt |", "score": 0.3529, "match_basis": "verbatim_token+chapter_route:ch03"}, {"md_atom_id": "md_ch03_a049", "md_file": "knowledge_base/chapters/ch03_submitting_data.md", "md_atom_type": "TABLE_ROW", "md_parent_section": "§3.2.1 [Dataset-level Metadata]", "md_verbatim": "| EG | ECG Test Results | Findings | One record per ECG observation per replicate per time point or one record per ECG observation per beat per visit per subject | Tabulation | STUDYID, USUBJID, EGTESTCD, VISITNUM, EGTPTREF, EGTPTNUM, EGREPNUM | eg.xpt |", "score": 0.3512, "match_basis": "verbatim_token+chapter_route:ch03"}, {"md_atom_id": "md_ch03_a067", "md_file": "knowledge_base/chapters/ch03_submitting_data.md", "md_atom_type": "TABLE_ROW", "md_parent_section": "§3.2.1 [Dataset-level Metadata]", "md_verbatim": "| RS | Disease Response and Clin Classification | Findings | One record per response assessment or clinical classification assessment per time point per visit per subject per assessor per medical evaluator | Tabulation | STUDYID, USUBJID, RSTESTCD, VISITNUM, RSTPTREF, RSEVAL, RSPTPNUM, RSEVALID | rs.xpt |", "score": 0.3471, "match_basis": "verbatim_token+chapter_route:ch03"}], "candidate_count": 5, "zero_candidate": false}
{"pdf_atom_id": "sv20_p0027_a004", "pdf_atom_type": "TABLE_ROW", "pdf_source": "SDTM_v2.0", "pdf_page": 27, "pdf_parent_section": "§3.1.3 The Findings Observation Class", "pdf_verbatim": "44 | --STREFC | Reference Result in Standard Format | Char | | Variable Qualifier | --STRESC | | | Reference value for the result or finding copied or derived from --ORREF in a standard format. | | ", "figure_ref": null, "candidates": [{"md_atom_id": "md_ch03_a061", "md_file": "knowledge_base/chapters/ch03_submitting_data.md", "md_atom_type": "TABLE_ROW", "md_parent_section": "§3.2.1 [Dataset-level Metadata]", "md_verbatim": "| PC | Pharmacokinetics Concentrations | Findings | One record per sample characteristic or time-point concentration per reference time point or per analyte per subject | Tabulation | STUDYID, USUBJID, PCTESTCD, VISITNUM, PCTPTREF, PCTPTNUM | pc.xpt |", "score": 0.3689, "match_basis": "verbatim_token+chapter_route:ch03"}, {"md_atom_id": "md_ch03_a087", "md_file": "knowledge_base/chapters/ch03_submitting_data.md", "md_atom_type": "TABLE_ROW", "md_parent_section": "§3.2.1 [Dataset-level Metadata]", "md_verbatim": "| OI | Non-host Organism Identifiers | Study Reference | One record per taxon per non-host organism | Tabulation | NHOID, OISEQ | oi.xpt |", "score": 0.3577, "match_basis": "verbatim_token+chapter_route:ch03"}, {"md_atom_id": "md_ch03_a046", "md_file": "knowledge_base/chapters/ch03_submitting_data.md", "md_atom_type": "TABLE_ROW", "md_parent_section": "§3.2.1 [Dataset-level Metadata]", "md_verbatim": "| CV | Cardiovascular System Findings | Findings | One record per finding or result per time point per visit per subject | Tabulation | STUDYID, USUBJID, VISITNUM, CVTESTCD, CVTPTREF, CVTPTNUM | cv.xpt |", "score": 0.3571, "match_basis": "verbatim_token+chapter_route:ch03"}, {"md_atom_id": "md_ch03_a070", "md_file": "knowledge_base/chapters/ch03_submitting_data.md", "md_atom_type": "TABLE_ROW", "md_parent_section": "§3.2.1 [Dataset-level Metadata]", "md_verbatim": "| TR | Tumor/Lesion Results | Findings | One record per tumor measurement/assessment per visit per subject per assessor | Tabulation | STUDYID, USUBJID, TRTESTCD, TREVALID, VISITNUM | tr.xpt |", "score": 0.3554, "match_basis": "verbatim_token+chapter_route:ch03"}, {"md_atom_id": "md_ch03_a086", "md_file": "knowledge_base/chapters/ch03_submitting_data.md", "md_atom_type": "TABLE_ROW", "md_parent_section": "§3.2.1 [Dataset-level Metadata]", "md_verbatim": "| SUPP-- | Supplemental Qualifiers for [domain name] | Relationship | One record per supplemental qualifier per related parent domain record(s) | Tabulation | STUDYID, RDOMAIN, USUBJID, IDVAR, IDVARVAL, QNAM | supp--.xpt |", "score": 0.355, "match_basis": "verbatim_token+chapter_route:ch03"}], "candidate_count": 5, "zero_candidate": false}
{"pdf_atom_id": "sv20_p0027_a005", "pdf_atom_type": "TABLE_ROW", "pdf_source": "SDTM_v2.0", "pdf_page": 27, "pdf_parent_section": "§3.1.3 The Findings Observation Class", "pdf_verbatim": "45 | --STREFN | Numeric Reference Result in Std Units | Num | | Variable Qualifier | --STRESN | | | Reference value for continuous or numeric results or findings in standard format or in standard units. --STREFN uses the same units as --STRESN, if applicable. | | ", "figure_ref": null, "candidates": [{"md_atom_id": "md_ch03_a049", "md_file": "knowledge_base/chapters/ch03_submitting_data.md", "md_atom_type": "TABLE_ROW", "md_parent_section": "§3.2.1 [Dataset-level Metadata]", "md_verbatim": "| EG | ECG Test Results | Findings | One record per ECG observation per replicate per time point or one record per ECG observation per beat per visit per subject | Tabulation | STUDYID, USUBJID, EGTESTCD, VISITNUM, EGTPTREF, EGTPTNUM, EGREPNUM | eg.xpt |", "score": 0.3723, "match_basis": "verbatim_token+chapter_route:ch03"}, {"md_atom_id": "md_ch03_a061", "md_file": "knowledge_base/chapters/ch03_submitting_data.md", "md_atom_type": "TABLE_ROW", "md_parent_section": "§3.2.1 [Dataset-level Metadata]", "md_verbatim": "| PC | Pharmacokinetics Concentrations | Findings | One record per sample characteristic or time-point concentration per reference time point or per analyte per subject | Tabulation | STUDYID, USUBJID, PCTESTCD, VISITNUM, PCTPTREF, PCTPTNUM | pc.xpt |", "score": 0.3712, "match_basis": "verbatim_token+chapter_route:ch03"}, {"md_atom_id": "md_ch03_a070", "md_file": "knowledge_base/chapters/ch03_submitting_data.md", "md_atom_type": "TABLE_ROW", "md_parent_section": "§3.2.1 [Dataset-level Metadata]", "md_verbatim": "| TR | Tumor/Lesion Results | Findings | One record per tumor measurement/assessment per visit per subject per assessor | Tabulation | STUDYID, USUBJID, TRTESTCD, TREVALID, VISITNUM | tr.xpt |", "score": 0.3686, "match_basis": "verbatim_token+chapter_route:ch03"}, {"md_atom_id": "md_ch03_a054", "md_file": "knowledge_base/chapters/ch03_submitting_data.md", "md_atom_type": "TABLE_ROW", "md_parent_section": "§3.2.1 [Dataset-level Metadata]", "md_verbatim": "| LB | Laboratory Test Results | Findings | One record per lab test per time point per visit per subject | Tabulation | STUDYID, USUBJID, LBTESTCD, LBSPEC, VISITNUM, LBTPTREF, LBTPTNUM | lb.xpt |", "score": 0.3618, "match_basis": "verbatim_token+chapter_route:ch03"}, {"md_atom_id": "md_ch03_a046", "md_file": "knowledge_base/chapters/ch03_submitting_data.md", "md_atom_type": "TABLE_ROW", "md_parent_section": "§3.2.1 [Dataset-level Metadata]", "md_verbatim": "| CV | Cardiovascular System Findings | Findings | One record per finding or result per time point per visit per subject | Tabulation | STUDYID, USUBJID, VISITNUM, CVTESTCD, CVTPTREF, CVTPTNUM | cv.xpt |", "score": 0.3609, "match_basis": "verbatim_token+chapter_route:ch03"}], "candidate_count": 5, "zero_candidate": false}
{"pdf_atom_id": "sv20_p0027_a006", "pdf_atom_type": "TABLE_ROW", "pdf_source": "SDTM_v2.0", "pdf_page": 27, "pdf_parent_section": "§3.1.3 The Findings Observation Class", "pdf_verbatim": "46 | --NRIND | Normal/Reference Range Indicator | Char | | Variable Qualifier | --ORRES; --STRESC; --STRESN | | C170999 | A classification of the original or standardized result as it relates to a normal or reference result range. | May be defined by --ORNRLO and --ORNRHI or other objective criteria. | \"Y\", \"N\"; \"HIGH\", \"LOW\"; \"NORMAL\", \"ABNORMAL\"", "figure_ref": null, "candidates": [{"md_atom_id": "md_ch03_a067", "md_file": "knowledge_base/chapters/ch03_submitting_data.md", "md_atom_type": "TABLE_ROW", "md_parent_section": "§3.2.1 [Dataset-level Metadata]", "md_verbatim": "| RS | Disease Response and Clin Classification | Findings | One record per response assessment or clinical classification assessment per time point per visit per subject per assessor per medical evaluator | Tabulation | STUDYID, USUBJID, RSTESTCD, VISITNUM, RSTPTREF, RSEVAL, RSPTPNUM, RSEVALID | rs.xpt |", "score": 0.3853, "match_basis": "verbatim_token+chapter_route:ch03"}, {"md_atom_id": "md_ch03_a061", "md_file": "knowledge_base/chapters/ch03_submitting_data.md", "md_atom_type": "TABLE_ROW", "md_parent_section": "§3.2.1 [Dataset-level Metadata]", "md_verbatim": "| PC | Pharmacokinetics Concentrations | Findings | One record per sample characteristic or time-point concentration per reference time point or per analyte per subject | Tabulation | STUDYID, USUBJID, PCTESTCD, VISITNUM, PCTPTREF, PCTPTNUM | pc.xpt |", "score": 0.3812, "match_basis": "verbatim_token+chapter_route:ch03"}, {"md_atom_id": "md_ch03_a062", "md_file": "knowledge_base/chapters/ch03_submitting_data.md", "md_atom_type": "TABLE_ROW", "md_parent_section": "§3.2.1 [Dataset-level Metadata]", "md_verbatim": "| PE | Physical Examination | Findings | One record per body system or abnormality per visit per subject | Tabulation | STUDYID, USUBJID, PETESTCD, VISITNUM | pe.xpt |", "score": 0.3714, "match_basis": "verbatim_token+chapter_route:ch03"}, {"md_atom_id": "md_ch03_a049", "md_file": "knowledge_base/chapters/ch03_submitting_data.md", "md_atom_type": "TABLE_ROW", "md_parent_section": "§3.2.1 [Dataset-level Metadata]", "md_verbatim": "| EG | ECG Test Results | Findings | One record per ECG observation per replicate per time point or one record per ECG observation per beat per visit per subject | Tabulation | STUDYID, USUBJID, EGTESTCD, VISITNUM, EGTPTREF, EGTPTNUM, EGREPNUM | eg.xpt |", "score": 0.3678, "match_basis": "verbatim_token+chapter_route:ch03"}, {"md_atom_id": "md_ch03_a054", "md_file": "knowledge_base/chapters/ch03_submitting_data.md", "md_atom_type": "TABLE_ROW", "md_parent_section": "§3.2.1 [Dataset-level Metadata]", "md_verbatim": "| LB | Laboratory Test Results | Findings | One record per lab test per time point per visit per subject | Tabulation | STUDYID, USUBJID, LBTESTCD, LBSPEC, VISITNUM, LBTPTREF, LBTPTNUM | lb.xpt |", "score": 0.3671, "match_basis": "verbatim_token+chapter_route:ch03"}], "candidate_count": 5, "zero_candidate": false}
{"pdf_atom_id": "sv20_p0027_a007", "pdf_atom_type": "TABLE_ROW", "pdf_source": "SDTM_v2.0", "pdf_page": 27, "pdf_parent_section": "§3.1.3 The Findings Observation Class", "pdf_verbatim": "47 | --RESCAT | Result Category | Char | | Variable Qualifier | --ORRES; --STRESC; --STRESN | | C82498 | A grouping or classification of the results of an assessment. | The result is in --STRESC. | \"MALIGNANT\" or \"BENIGN\" for tumor findings", "figure_ref": null, "candidates": [{"md_atom_id": "md_ch03_a070", "md_file": "knowledge_base/chapters/ch03_submitting_data.md", "md_atom_type": "TABLE_ROW", "md_parent_section": "§3.2.1 [Dataset-level Metadata]", "md_verbatim": "| TR | Tumor/Lesion Results | Findings | One record per tumor measurement/assessment per visit per subject per assessor | Tabulation | STUDYID, USUBJID, TRTESTCD, TREVALID, VISITNUM | tr.xpt |", "score": 0.4227, "match_basis": "verbatim_token+chapter_route:ch03"}, {"md_atom_id": "md_ch03_a071", "md_file": "knowledge_base/chapters/ch03_submitting_data.md", "md_atom_type": "TABLE_ROW", "md_parent_section": "§3.2.1 [Dataset-level Metadata]", "md_verbatim": "| TU | Tumor/Lesion Identification | Findings | One record per identified tumor per subject per assessor | Tabulation | STUDYID, USUBJID, TUEVALID, TULNKID | tu.xpt |", "score": 0.4113, "match_basis": "verbatim_token+chapter_route:ch03"}, {"md_atom_id": "md_ch03_a067", "md_file": "knowledge_base/chapters/ch03_submitting_data.md", "md_atom_type": "TABLE_ROW", "md_parent_section": "§3.2.1 [Dataset-level Metadata]", "md_verbatim": "| RS | Disease Response and Clin Classification | Findings | One record per response assessment or clinical classification assessment per time point per visit per subject per assessor per medical evaluator | Tabulation | STUDYID, USUBJID, RSTESTCD, VISITNUM, RSTPTREF, RSEVAL, RSPTPNUM, RSEVALID | rs.xpt |", "score": 0.4043, "match_basis": "verbatim_token+chapter_route:ch03"}, {"md_atom_id": "md_ch03_a049", "md_file": "knowledge_base/chapters/ch03_submitting_data.md", "md_atom_type": "TABLE_ROW", "md_parent_section": "§3.2.1 [Dataset-level Metadata]", "md_verbatim": "| EG | ECG Test Results | Findings | One record per ECG observation per replicate per time point or one record per ECG observation per beat per visit per subject | Tabulation | STUDYID, USUBJID, EGTESTCD, VISITNUM, EGTPTREF, EGTPTNUM, EGREPNUM | eg.xpt |", "score": 0.3755, "match_basis": "verbatim_token+chapter_route:ch03"}, {"md_atom_id": "md_ch03_a057", "md_file": "knowledge_base/chapters/ch03_submitting_data.md", "md_atom_type": "TABLE_ROW", "md_parent_section": "§3.2.1 [Dataset-level Metadata]", "md_verbatim": "| MK | Musculoskeletal System Findings | Findings | One record per assessment per visit per subject | Tabulation | STUDYID, USUBJID, VISITNUM, MKTESTCD, MKLOC, MKLAT | mk.xpt |", "score": 0.3745, "match_basis": "verbatim_token+chapter_route:ch03"}], "candidate_count": 5, "zero_candidate": false}
{"pdf_atom_id": "sv20_p0027_a008", "pdf_atom_type": "TABLE_ROW", "pdf_source": "SDTM_v2.0", "pdf_page": 27, "pdf_parent_section": "§3.1.3 The Findings Observation Class", "pdf_verbatim": "48 | --INHERT | Inheritability | Char | | Variable Qualifier | --ORRES; --STRESC; --STRESN | GF domain only | | Identifies whether the variation can be passed to the next generation. | | ", "figure_ref": null, "candidates": [{"md_atom_id": "md_ch03_a086", "md_file": "knowledge_base/chapters/ch03_submitting_data.md", "md_atom_type": "TABLE_ROW", "md_parent_section": "§3.2.1 [Dataset-level Metadata]", "md_verbatim": "| SUPP-- | Supplemental Qualifiers for [domain name] | Relationship | One record per supplemental qualifier per related parent domain record(s) | Tabulation | STUDYID, RDOMAIN, USUBJID, IDVAR, IDVARVAL, QNAM | supp--.xpt |", "score": 0.3857, "match_basis": "verbatim_token+chapter_route:ch03"}, {"md_atom_id": "md_ch03_a071", "md_file": "knowledge_base/chapters/ch03_submitting_data.md", "md_atom_type": "TABLE_ROW", "md_parent_section": "§3.2.1 [Dataset-level Metadata]", "md_verbatim": "| TU | Tumor/Lesion Identification | Findings | One record per identified tumor per subject per assessor | Tabulation | STUDYID, USUBJID, TUEVALID, TULNKID | tu.xpt |", "score": 0.3694, "match_basis": "verbatim_token+chapter_route:ch03"}, {"md_atom_id": "md_ch03_a087", "md_file": "knowledge_base/chapters/ch03_submitting_data.md", "md_atom_type": "TABLE_ROW", "md_parent_section": "§3.2.1 [Dataset-level Metadata]", "md_verbatim": "| OI | Non-host Organism Identifiers | Study Reference | One record per taxon per non-host organism | Tabulation | NHOID, OISEQ | oi.xpt |", "score": 0.3673, "match_basis": "verbatim_token+chapter_route:ch03"}, {"md_atom_id": "md_ch03_a084", "md_file": "knowledge_base/chapters/ch03_submitting_data.md", "md_atom_type": "TABLE_ROW", "md_parent_section": "§3.2.1 [Dataset-level Metadata]", "md_verbatim": "| RELSPEC | Related Specimens | Relationship | One record per specimen identifier per subject | Tabulation | STUDYID, USUBJID, REFID | relspec.xpt |", "score": 0.3649, "match_basis": "verbatim_token+chapter_route:ch03"}, {"md_atom_id": "md_ch03_a038", "md_file": "knowledge_base/chapters/ch03_submitting_data.md", "md_atom_type": "TABLE_ROW", "md_parent_section": "§3.2.1 [Dataset-level Metadata]", "md_verbatim": "| BE | Biospecimen Events | Events | One record per instance per biospecimen event per biospecimen identifier per subject | Tabulation | STUDYID, USUBJID, BEREFID, BETERM, BESTDTC | be.xpt |", "score": 0.3585, "match_basis": "verbatim_token+chapter_route:ch03"}], "candidate_count": 5, "zero_candidate": false}
{"pdf_atom_id": "sv20_p0027_a009", "pdf_atom_type": "TABLE_ROW", "pdf_source": "SDTM_v2.0", "pdf_page": 27, "pdf_parent_section": "§3.1.3 The Findings Observation Class", "pdf_verbatim": "49 | --GENREF | Genome Reference | Char | | Variable Qualifier | --METHOD | GF domain only | | An identifier for the genome reference used to generate the reported result. | | For example, Genome Reference Consortium Human Build 38 patch release 13 may be represented as GRCh38.p13.", "figure_ref": null, "candidates": [{"md_atom_id": "md_ch03_a086", "md_file": "knowledge_base/chapters/ch03_submitting_data.md", "md_atom_type": "TABLE_ROW", "md_parent_section": "§3.2.1 [Dataset-level Metadata]", "md_verbatim": "| SUPP-- | Supplemental Qualifiers for [domain name] | Relationship | One record per supplemental qualifier per related parent domain record(s) | Tabulation | STUDYID, RDOMAIN, USUBJID, IDVAR, IDVARVAL, QNAM | supp--.xpt |", "score": 0.3811, "match_basis": "verbatim_token+chapter_route:ch03"}, {"md_atom_id": "md_ch03_a087", "md_file": "knowledge_base/chapters/ch03_submitting_data.md", "md_atom_type": "TABLE_ROW", "md_parent_section": "§3.2.1 [Dataset-level Metadata]", "md_verbatim": "| OI | Non-host Organism Identifiers | Study Reference | One record per taxon per non-host organism | Tabulation | NHOID, OISEQ | oi.xpt |", "score": 0.3662, "match_basis": "verbatim_token+chapter_route:ch03"}, {"md_atom_id": "md_ch03_a036", "md_file": "knowledge_base/chapters/ch03_submitting_data.md", "md_atom_type": "TABLE_ROW", "md_parent_section": "§3.2.1 [Dataset-level Metadata]", "md_verbatim": "| SU | Substance Use | Interventions | One record per substance type per reported occurrence per subject | Tabulation | STUDYID, USUBJID, SUTRT, SUSTDTC | su.xpt |", "score": 0.3553, "match_basis": "verbatim_token+chapter_route:ch03"}, {"md_atom_id": "md_ch03_a084", "md_file": "knowledge_base/chapters/ch03_submitting_data.md", "md_atom_type": "TABLE_ROW", "md_parent_section": "§3.2.1 [Dataset-level Metadata]", "md_verbatim": "| RELSPEC | Related Specimens | Relationship | One record per specimen identifier per subject | Tabulation | STUDYID, USUBJID, REFID | relspec.xpt |", "score": 0.3549, "match_basis": "verbatim_token+chapter_route:ch03"}, {"md_atom_id": "md_ch03_a061", "md_file": "knowledge_base/chapters/ch03_submitting_data.md", "md_atom_type": "TABLE_ROW", "md_parent_section": "§3.2.1 [Dataset-level Metadata]", "md_verbatim": "| PC | Pharmacokinetics Concentrations | Findings | One record per sample characteristic or time-point concentration per reference time point or per analyte per subject | Tabulation | STUDYID, USUBJID, PCTESTCD, VISITNUM, PCTPTREF, PCTPTNUM | pc.xpt |", "score": 0.3516, "match_basis": "verbatim_token+chapter_route:ch03"}], "candidate_count": 5, "zero_candidate": false}
{"pdf_atom_id": "sv20_p0027_a010", "pdf_atom_type": "TABLE_ROW", "pdf_source": "SDTM_v2.0", "pdf_page": 27, "pdf_parent_section": "§3.1.3 The Findings Observation Class", "pdf_verbatim": "50 | --CHROM | Chromosome Identifier | Char | | Variable Qualifier | --ORRES; --STRESC; --STRESN | GF domain only | | The designation (name or number) of the chromosome or contig on which the variant or other feature appears. | | \"17\", \"X\"", "figure_ref": null, "candidates": [{"md_atom_id": "md_ch03_a086", "md_file": "knowledge_base/chapters/ch03_submitting_data.md", "md_atom_type": "TABLE_ROW", "md_parent_section": "§3.2.1 [Dataset-level Metadata]", "md_verbatim": "| SUPP-- | Supplemental Qualifiers for [domain name] | Relationship | One record per supplemental qualifier per related parent domain record(s) | Tabulation | STUDYID, RDOMAIN, USUBJID, IDVAR, IDVARVAL, QNAM | supp--.xpt |", "score": 0.3844, "match_basis": "verbatim_token+chapter_route:ch03"}, {"md_atom_id": "md_ch03_a087", "md_file": "knowledge_base/chapters/ch03_submitting_data.md", "md_atom_type": "TABLE_ROW", "md_parent_section": "§3.2.1 [Dataset-level Metadata]", "md_verbatim": "| OI | Non-host Organism Identifiers | Study Reference | One record per taxon per non-host organism | Tabulation | NHOID, OISEQ | oi.xpt |", "score": 0.3559, "match_basis": "verbatim_token+chapter_route:ch03"}, {"md_atom_id": "md_ch03_a038", "md_file": "knowledge_base/chapters/ch03_submitting_data.md", "md_atom_type": "TABLE_ROW", "md_parent_section": "§3.2.1 [Dataset-level Metadata]", "md_verbatim": "| BE | Biospecimen Events | Events | One record per instance per biospecimen event per biospecimen identifier per subject | Tabulation | STUDYID, USUBJID, BEREFID, BETERM, BESTDTC | be.xpt |", "score": 0.3541, "match_basis": "verbatim_token+chapter_route:ch03"}, {"md_atom_id": "md_ch03_a071", "md_file": "knowledge_base/chapters/ch03_submitting_data.md", "md_atom_type": "TABLE_ROW", "md_parent_section": "§3.2.1 [Dataset-level Metadata]", "md_verbatim": "| TU | Tumor/Lesion Identification | Findings | One record per identified tumor per subject per assessor | Tabulation | STUDYID, USUBJID, TUEVALID, TULNKID | tu.xpt |", "score": 0.3541, "match_basis": "verbatim_token+chapter_route:ch03"}, {"md_atom_id": "md_ch03_a084", "md_file": "knowledge_base/chapters/ch03_submitting_data.md", "md_atom_type": "TABLE_ROW", "md_parent_section": "§3.2.1 [Dataset-level Metadata]", "md_verbatim": "| RELSPEC | Related Specimens | Relationship | One record per specimen identifier per subject | Tabulation | STUDYID, USUBJID, REFID | relspec.xpt |", "score": 0.3541, "match_basis": "verbatim_token+chapter_route:ch03"}], "candidate_count": 5, "zero_candidate": false}
{"pdf_atom_id": "sv20_p0028_a001", "pdf_atom_type": "TABLE_ROW", "pdf_source": "SDTM_v2.0", "pdf_page": 28, "pdf_parent_section": "§3.1.3 The Findings Observation Class", "pdf_verbatim": "51 | --SYM | Genomic Symbol | Char | | Variable Qualifier | --ORRES; --STRESC; --STRESN | GF domain only | | A published symbol for the portion of the genome serving as a locus for the experiment/test. | | ", "figure_ref": null, "candidates": [{"md_atom_id": "md_ch03_a086", "md_file": "knowledge_base/chapters/ch03_submitting_data.md", "md_atom_type": "TABLE_ROW", "md_parent_section": "§3.2.1 [Dataset-level Metadata]", "md_verbatim": "| SUPP-- | Supplemental Qualifiers for [domain name] | Relationship | One record per supplemental qualifier per related parent domain record(s) | Tabulation | STUDYID, RDOMAIN, USUBJID, IDVAR, IDVARVAL, QNAM | supp--.xpt |", "score": 0.3893, "match_basis": "verbatim_token+chapter_route:ch03"}, {"md_atom_id": "md_ch03_a051", "md_file": "knowledge_base/chapters/ch03_submitting_data.md", "md_atom_type": "TABLE_ROW", "md_parent_section": "§3.2.1 [Dataset-level Metadata]", "md_verbatim": "| GF | Genomics Findings | Findings | One record per finding per observation per biospecimen per subject | Tabulation | STUDYID, USUBJID, GFTESTCD, GFSPEC, VISITNUM, GFTPTREF, GFTPTNUM | gf.xpt |", "score": 0.3744, "match_basis": "verbatim_token+chapter_route:ch03"}, {"md_atom_id": "md_ch03_a044", "md_file": "knowledge_base/chapters/ch03_submitting_data.md", "md_atom_type": "TABLE_ROW", "md_parent_section": "§3.2.1 [Dataset-level Metadata]", "md_verbatim": "| BS | Biospecimen Findings | Findings | One record per measurement per biospecimen identifier per subject | Tabulation | STUDYID, USUBJID, BSREFID, BSTESTCD | bs.xpt |", "score": 0.3567, "match_basis": "verbatim_token+chapter_route:ch03"}, {"md_atom_id": "md_ch03_a066", "md_file": "knowledge_base/chapters/ch03_submitting_data.md", "md_atom_type": "TABLE_ROW", "md_parent_section": "§3.2.1 [Dataset-level Metadata]", "md_verbatim": "| RP | Reproductive System Findings | Findings | One record per finding or result per time point per visit per subject | Tabulation | STUDYID, DOMAIN, USUBJID, RPTESTCD, VISITNUM | rp.xpt |", "score": 0.355, "match_basis": "verbatim_token+chapter_route:ch03"}, {"md_atom_id": "md_ch03_a070", "md_file": "knowledge_base/chapters/ch03_submitting_data.md", "md_atom_type": "TABLE_ROW", "md_parent_section": "§3.2.1 [Dataset-level Metadata]", "md_verbatim": "| TR | Tumor/Lesion Results | Findings | One record per tumor measurement/assessment per visit per subject per assessor | Tabulation | STUDYID, USUBJID, TRTESTCD, TREVALID, VISITNUM | tr.xpt |", "score": 0.3475, "match_basis": "verbatim_token+chapter_route:ch03"}], "candidate_count": 5, "zero_candidate": false}
{"pdf_atom_id": "sv20_p0028_a002", "pdf_atom_type": "TABLE_ROW", "pdf_source": "SDTM_v2.0", "pdf_page": 28, "pdf_parent_section": "§3.1.3 The Findings Observation Class", "pdf_verbatim": "52 | --SYMTYP | Genomic Symbol Type | Char | | Variable Qualifier | --SYM | GF domain only | | A description of the type of genomic entity that is represented by the published symbol in --SYM. | | ", "figure_ref": null, "candidates": [{"md_atom_id": "md_ch03_a086", "md_file": "knowledge_base/chapters/ch03_submitting_data.md", "md_atom_type": "TABLE_ROW", "md_parent_section": "§3.2.1 [Dataset-level Metadata]", "md_verbatim": "| SUPP-- | Supplemental Qualifiers for [domain name] | Relationship | One record per supplemental qualifier per related parent domain record(s) | Tabulation | STUDYID, RDOMAIN, USUBJID, IDVAR, IDVARVAL, QNAM | supp--.xpt |", "score": 0.3814, "match_basis": "verbatim_token+chapter_route:ch03"}, {"md_atom_id": "md_ch03_a036", "md_file": "knowledge_base/chapters/ch03_submitting_data.md", "md_atom_type": "TABLE_ROW", "md_parent_section": "§3.2.1 [Dataset-level Metadata]", "md_verbatim": "| SU | Substance Use | Interventions | One record per substance type per reported occurrence per subject | Tabulation | STUDYID, USUBJID, SUTRT, SUSTDTC | su.xpt |", "score": 0.3439, "match_basis": "verbatim_token+chapter_route:ch03"}, {"md_atom_id": "md_ch03_a084", "md_file": "knowledge_base/chapters/ch03_submitting_data.md", "md_atom_type": "TABLE_ROW", "md_parent_section": "§3.2.1 [Dataset-level Metadata]", "md_verbatim": "| RELSPEC | Related Specimens | Relationship | One record per specimen identifier per subject | Tabulation | STUDYID, USUBJID, REFID | relspec.xpt |", "score": 0.3425, "match_basis": "verbatim_token+chapter_route:ch03"}, {"md_atom_id": "md_ch03_a083", "md_file": "knowledge_base/chapters/ch03_submitting_data.md", "md_atom_type": "TABLE_ROW", "md_parent_section": "§3.2.1 [Dataset-level Metadata]", "md_verbatim": "| RELREC | Related Records | Relationship | One record per related record, group of records or dataset | Tabulation | STUDYID, RDOMAIN, USUBJID, IDVAR, IDVARVAL, RELID | relrec.xpt |", "score": 0.3421, "match_basis": "verbatim_token+chapter_route:ch03"}, {"md_atom_id": "md_ch03_a066", "md_file": "knowledge_base/chapters/ch03_submitting_data.md", "md_atom_type": "TABLE_ROW", "md_parent_section": "§3.2.1 [Dataset-level Metadata]", "md_verbatim": "| RP | Reproductive System Findings | Findings | One record per finding or result per time point per visit per subject | Tabulation | STUDYID, DOMAIN, USUBJID, RPTESTCD, VISITNUM | rp.xpt |", "score": 0.3419, "match_basis": "verbatim_token+chapter_route:ch03"}], "candidate_count": 5, "zero_candidate": false}
{"pdf_atom_id": "sv20_p0028_a003", "pdf_atom_type": "TABLE_ROW", "pdf_source": "SDTM_v2.0", "pdf_page": 28, "pdf_parent_section": "§3.1.3 The Findings Observation Class", "pdf_verbatim": "53 | --GENLOC | Genetic Location | Char | | Variable Qualifier | --ORRES; --STRESC; --STRESN | GF domain only | | Specifies the location within a sequence for the observed value in --ORRES. | | ", "figure_ref": null, "candidates": [{"md_atom_id": "md_ch03_a086", "md_file": "knowledge_base/chapters/ch03_submitting_data.md", "md_atom_type": "TABLE_ROW", "md_parent_section": "§3.2.1 [Dataset-level Metadata]", "md_verbatim": "| SUPP-- | Supplemental Qualifiers for [domain name] | Relationship | One record per supplemental qualifier per related parent domain record(s) | Tabulation | STUDYID, RDOMAIN, USUBJID, IDVAR, IDVARVAL, QNAM | supp--.xpt |", "score": 0.3857, "match_basis": "verbatim_token+chapter_route:ch03"}, {"md_atom_id": "md_ch03_a033", "md_file": "knowledge_base/chapters/ch03_submitting_data.md", "md_atom_type": "TABLE_ROW", "md_parent_section": "§3.2.1 [Dataset-level Metadata]", "md_verbatim": "| EX | Exposure | Interventions | One record per protocol-specified study treatment, constant-dosing interval, per subject | Tabulation | STUDYID, USUBJID, EXTRT, EXSTDTC | ex.xpt |", "score": 0.3578, "match_basis": "verbatim_token+chapter_route:ch03"}, {"md_atom_id": "md_ch03_a032", "md_file": "knowledge_base/chapters/ch03_submitting_data.md", "md_atom_type": "TABLE_ROW", "md_parent_section": "§3.2.1 [Dataset-level Metadata]", "md_verbatim": "| EC | Exposure as Collected | Interventions | One record per protocol-specified study treatment, collected-dosing interval, per subject, per mood | Tabulation | STUDYID, USUBJID, ECTRT, ECSTDTC, ECMOOD | ec.xpt |", "score": 0.3565, "match_basis": "verbatim_token+chapter_route:ch03"}, {"md_atom_id": "md_ch03_a051", "md_file": "knowledge_base/chapters/ch03_submitting_data.md", "md_atom_type": "TABLE_ROW", "md_parent_section": "§3.2.1 [Dataset-level Metadata]", "md_verbatim": "| GF | Genomics Findings | Findings | One record per finding per observation per biospecimen per subject | Tabulation | STUDYID, USUBJID, GFTESTCD, GFSPEC, VISITNUM, GFTPTREF, GFTPTNUM | gf.xpt |", "score": 0.3554, "match_basis": "verbatim_token+chapter_route:ch03"}, {"md_atom_id": "md_ch03_a087", "md_file": "knowledge_base/chapters/ch03_submitting_data.md", "md_atom_type": "TABLE_ROW", "md_parent_section": "§3.2.1 [Dataset-level Metadata]", "md_verbatim": "| OI | Non-host Organism Identifiers | Study Reference | One record per taxon per non-host organism | Tabulation | NHOID, OISEQ | oi.xpt |", "score": 0.3491, "match_basis": "verbatim_token+chapter_route:ch03"}], "candidate_count": 5, "zero_candidate": false}
{"pdf_atom_id": "sv20_p0028_a004", "pdf_atom_type": "TABLE_ROW", "pdf_source": "SDTM_v2.0", "pdf_page": 28, "pdf_parent_section": "§3.1.3 The Findings Observation Class", "pdf_verbatim": "54 | --GENSR | Genetic Sub-Region | Char | | Variable Qualifier | --ORRES; --STRESC; --STRESN | GF domain only | | The portion of the locus in which the variation was found. | | \"Exon 15\", \"Kinase domain\"", "figure_ref": null, "candidates": [{"md_atom_id": "md_ch03_a086", "md_file": "knowledge_base/chapters/ch03_submitting_data.md", "md_atom_type": "TABLE_ROW", "md_parent_section": "§3.2.1 [Dataset-level Metadata]", "md_verbatim": "| SUPP-- | Supplemental Qualifiers for [domain name] | Relationship | One record per supplemental qualifier per related parent domain record(s) | Tabulation | STUDYID, RDOMAIN, USUBJID, IDVAR, IDVARVAL, QNAM | supp--.xpt |", "score": 0.3828, "match_basis": "verbatim_token+chapter_route:ch03"}, {"md_atom_id": "md_ch03_a083", "md_file": "knowledge_base/chapters/ch03_submitting_data.md", "md_atom_type": "TABLE_ROW", "md_parent_section": "§3.2.1 [Dataset-level Metadata]", "md_verbatim": "| RELREC | Related Records | Relationship | One record per related record, group of records or dataset | Tabulation | STUDYID, RDOMAIN, USUBJID, IDVAR, IDVARVAL, RELID | relrec.xpt |", "score": 0.3545, "match_basis": "verbatim_token+chapter_route:ch03"}, {"md_atom_id": "md_ch03_a084", "md_file": "knowledge_base/chapters/ch03_submitting_data.md", "md_atom_type": "TABLE_ROW", "md_parent_section": "§3.2.1 [Dataset-level Metadata]", "md_verbatim": "| RELSPEC | Related Specimens | Relationship | One record per specimen identifier per subject | Tabulation | STUDYID, USUBJID, REFID | relspec.xpt |", "score": 0.3432, "match_basis": "verbatim_token+chapter_route:ch03"}, {"md_atom_id": "md_ch03_a061", "md_file": "knowledge_base/chapters/ch03_submitting_data.md", "md_atom_type": "TABLE_ROW", "md_parent_section": "§3.2.1 [Dataset-level Metadata]", "md_verbatim": "| PC | Pharmacokinetics Concentrations | Findings | One record per sample characteristic or time-point concentration per reference time point or per analyte per subject | Tabulation | STUDYID, USUBJID, PCTESTCD, VISITNUM, PCTPTREF, PCTPTNUM | pc.xpt |", "score": 0.3426, "match_basis": "verbatim_token+chapter_route:ch03"}, {"md_atom_id": "md_ch03_a066", "md_file": "knowledge_base/chapters/ch03_submitting_data.md", "md_atom_type": "TABLE_ROW", "md_parent_section": "§3.2.1 [Dataset-level Metadata]", "md_verbatim": "| RP | Reproductive System Findings | Findings | One record per finding or result per time point per visit per subject | Tabulation | STUDYID, DOMAIN, USUBJID, RPTESTCD, VISITNUM | rp.xpt |", "score": 0.3425, "match_basis": "verbatim_token+chapter_route:ch03"}], "candidate_count": 5, "zero_candidate": false}
{"pdf_atom_id": "sv20_p0028_a005", "pdf_atom_type": "TABLE_ROW", "pdf_source": "SDTM_v2.0", "pdf_page": 28, "pdf_parent_section": "§3.1.3 The Findings Observation Class", "pdf_verbatim": "55 | --SEQID | Sequence Identifier | Char | | Variable Qualifier | --ORRES; --STRESC; --STRESN | GF domain only | | A unique identifier for the sequence used as the reference to identify the genetic variation in the result. | | \"NM_001234\", \"ENSG00000182533\", \"ENST00000343849.2\"", "figure_ref": null, "candidates": [{"md_atom_id": "md_ch03_a087", "md_file": "knowledge_base/chapters/ch03_submitting_data.md", "md_atom_type": "TABLE_ROW", "md_parent_section": "§3.2.1 [Dataset-level Metadata]", "md_verbatim": "| OI | Non-host Organism Identifiers | Study Reference | One record per taxon per non-host organism | Tabulation | NHOID, OISEQ | oi.xpt |", "score": 0.3934, "match_basis": "verbatim_token+chapter_route:ch03"}, {"md_atom_id": "md_ch03_a086", "md_file": "knowledge_base/chapters/ch03_submitting_data.md", "md_atom_type": "TABLE_ROW", "md_parent_section": "§3.2.1 [Dataset-level Metadata]", "md_verbatim": "| SUPP-- | Supplemental Qualifiers for [domain name] | Relationship | One record per supplemental qualifier per related parent domain record(s) | Tabulation | STUDYID, RDOMAIN, USUBJID, IDVAR, IDVARVAL, QNAM | supp--.xpt |", "score": 0.3771, "match_basis": "verbatim_token+chapter_route:ch03"}, {"md_atom_id": "md_ch03_a038", "md_file": "knowledge_base/chapters/ch03_submitting_data.md", "md_atom_type": "TABLE_ROW", "md_parent_section": "§3.2.1 [Dataset-level Metadata]", "md_verbatim": "| BE | Biospecimen Events | Events | One record per instance per biospecimen event per biospecimen identifier per subject | Tabulation | STUDYID, USUBJID, BEREFID, BETERM, BESTDTC | be.xpt |", "score": 0.3634, "match_basis": "verbatim_token+chapter_route:ch03"}, {"md_atom_id": "md_ch03_a084", "md_file": "knowledge_base/chapters/ch03_submitting_data.md", "md_atom_type": "TABLE_ROW", "md_parent_section": "§3.2.1 [Dataset-level Metadata]", "md_verbatim": "| RELSPEC | Related Specimens | Relationship | One record per specimen identifier per subject | Tabulation | STUDYID, USUBJID, REFID | relspec.xpt |", "score": 0.3591, "match_basis": "verbatim_token+chapter_route:ch03"}, {"md_atom_id": "md_ch03_a061", "md_file": "knowledge_base/chapters/ch03_submitting_data.md", "md_atom_type": "TABLE_ROW", "md_parent_section": "§3.2.1 [Dataset-level Metadata]", "md_verbatim": "| PC | Pharmacokinetics Concentrations | Findings | One record per sample characteristic or time-point concentration per reference time point or per analyte per subject | Tabulation | STUDYID, USUBJID, PCTESTCD, VISITNUM, PCTPTREF, PCTPTNUM | pc.xpt |", "score": 0.3583, "match_basis": "verbatim_token+chapter_route:ch03"}], "candidate_count": 5, "zero_candidate": false}
{"pdf_atom_id": "sv20_p0028_a006", "pdf_atom_type": "TABLE_ROW", "pdf_source": "SDTM_v2.0", "pdf_page": 28, "pdf_parent_section": "§3.1.3 The Findings Observation Class", "pdf_verbatim": "56 | --PVRID | Published Variant Identifier | Char | | Variable Qualifier | --ORRES; --STRESC; --STRESN | GF domain only | | A unique identifier for the variation that has been publicly characterized in an external database. | | \"rs2231142\", \"COSM41596\"", "figure_ref": null, "candidates": [{"md_atom_id": "md_ch03_a086", "md_file": "knowledge_base/chapters/ch03_submitting_data.md", "md_atom_type": "TABLE_ROW", "md_parent_section": "§3.2.1 [Dataset-level Metadata]", "md_verbatim": "| SUPP-- | Supplemental Qualifiers for [domain name] | Relationship | One record per supplemental qualifier per related parent domain record(s) | Tabulation | STUDYID, RDOMAIN, USUBJID, IDVAR, IDVARVAL, QNAM | supp--.xpt |", "score": 0.373, "match_basis": "verbatim_token+chapter_route:ch03"}, {"md_atom_id": "md_ch03_a087", "md_file": "knowledge_base/chapters/ch03_submitting_data.md", "md_atom_type": "TABLE_ROW", "md_parent_section": "§3.2.1 [Dataset-level Metadata]", "md_verbatim": "| OI | Non-host Organism Identifiers | Study Reference | One record per taxon per non-host organism | Tabulation | NHOID, OISEQ | oi.xpt |", "score": 0.3526, "match_basis": "verbatim_token+chapter_route:ch03"}, {"md_atom_id": "md_ch03_a038", "md_file": "knowledge_base/chapters/ch03_submitting_data.md", "md_atom_type": "TABLE_ROW", "md_parent_section": "§3.2.1 [Dataset-level Metadata]", "md_verbatim": "| BE | Biospecimen Events | Events | One record per instance per biospecimen event per biospecimen identifier per subject | Tabulation | STUDYID, USUBJID, BEREFID, BETERM, BESTDTC | be.xpt |", "score": 0.3513, "match_basis": "verbatim_token+chapter_route:ch03"}, {"md_atom_id": "md_ch03_a084", "md_file": "knowledge_base/chapters/ch03_submitting_data.md", "md_atom_type": "TABLE_ROW", "md_parent_section": "§3.2.1 [Dataset-level Metadata]", "md_verbatim": "| RELSPEC | Related Specimens | Relationship | One record per specimen identifier per subject | Tabulation | STUDYID, USUBJID, REFID | relspec.xpt |", "score": 0.3511, "match_basis": "verbatim_token+chapter_route:ch03"}, {"md_atom_id": "md_ch03_a083", "md_file": "knowledge_base/chapters/ch03_submitting_data.md", "md_atom_type": "TABLE_ROW", "md_parent_section": "§3.2.1 [Dataset-level Metadata]", "md_verbatim": "| RELREC | Related Records | Relationship | One record per related record, group of records or dataset | Tabulation | STUDYID, RDOMAIN, USUBJID, IDVAR, IDVARVAL, RELID | relrec.xpt |", "score": 0.3507, "match_basis": "verbatim_token+chapter_route:ch03"}], "candidate_count": 5, "zero_candidate": false}
{"pdf_atom_id": "sv20_p0028_a007", "pdf_atom_type": "TABLE_ROW", "pdf_source": "SDTM_v2.0", "pdf_page": 28, "pdf_parent_section": "§3.1.3 The Findings Observation Class", "pdf_verbatim": "57 | --COPYID | Copy Identifier | Char | | Variable Qualifier | --ORRES; --STRESC; --STRESN | GF domain only | | An arbitrary identifier used to differentiate between copies of a genetic target of interest present on homologous chromosomes. | | ", "figure_ref": null, "candidates": [{"md_atom_id": "md_ch03_a086", "md_file": "knowledge_base/chapters/ch03_submitting_data.md", "md_atom_type": "TABLE_ROW", "md_parent_section": "§3.2.1 [Dataset-level Metadata]", "md_verbatim": "| SUPP-- | Supplemental Qualifiers for [domain name] | Relationship | One record per supplemental qualifier per related parent domain record(s) | Tabulation | STUDYID, RDOMAIN, USUBJID, IDVAR, IDVARVAL, QNAM | supp--.xpt |", "score": 0.3649, "match_basis": "verbatim_token+chapter_route:ch03"}, {"md_atom_id": "md_ch03_a038", "md_file": "knowledge_base/chapters/ch03_submitting_data.md", "md_atom_type": "TABLE_ROW", "md_parent_section": "§3.2.1 [Dataset-level Metadata]", "md_verbatim": "| BE | Biospecimen Events | Events | One record per instance per biospecimen event per biospecimen identifier per subject | Tabulation | STUDYID, USUBJID, BEREFID, BETERM, BESTDTC | be.xpt |", "score": 0.352, "match_basis": "verbatim_token+chapter_route:ch03"}, {"md_atom_id": "md_ch03_a061", "md_file": "knowledge_base/chapters/ch03_submitting_data.md", "md_atom_type": "TABLE_ROW", "md_parent_section": "§3.2.1 [Dataset-level Metadata]", "md_verbatim": "| PC | Pharmacokinetics Concentrations | Findings | One record per sample characteristic or time-point concentration per reference time point or per analyte per subject | Tabulation | STUDYID, USUBJID, PCTESTCD, VISITNUM, PCTPTREF, PCTPTNUM | pc.xpt |", "score": 0.3492, "match_basis": "verbatim_token+chapter_route:ch03"}, {"md_atom_id": "md_ch03_a087", "md_file": "knowledge_base/chapters/ch03_submitting_data.md", "md_atom_type": "TABLE_ROW", "md_parent_section": "§3.2.1 [Dataset-level Metadata]", "md_verbatim": "| OI | Non-host Organism Identifiers | Study Reference | One record per taxon per non-host organism | Tabulation | NHOID, OISEQ | oi.xpt |", "score": 0.3485, "match_basis": "verbatim_token+chapter_route:ch03"}, {"md_atom_id": "md_ch03_a084", "md_file": "knowledge_base/chapters/ch03_submitting_data.md", "md_atom_type": "TABLE_ROW", "md_parent_section": "§3.2.1 [Dataset-level Metadata]", "md_verbatim": "| RELSPEC | Related Specimens | Relationship | One record per specimen identifier per subject | Tabulation | STUDYID, USUBJID, REFID | relspec.xpt |", "score": 0.3426, "match_basis": "verbatim_token+chapter_route:ch03"}], "candidate_count": 5, "zero_candidate": false}
{"pdf_atom_id": "sv20_p0028_a008", "pdf_atom_type": "TABLE_ROW", "pdf_source": "SDTM_v2.0", "pdf_page": 28, "pdf_parent_section": "§3.1.3 The Findings Observation Class", "pdf_verbatim": "58 | --CHRON | Chronicity of Finding | Char | | Variable Qualifier | --STRESC | | | Characterization of the duration of a biological process resulting in a particular finding. | | \"ACUTE\", \"CHRONIC\", \"SUBACUTE\"", "figure_ref": null, "candidates": [{"md_atom_id": "md_ch03_a068", "md_file": "knowledge_base/chapters/ch03_submitting_data.md", "md_atom_type": "TABLE_ROW", "md_parent_section": "§3.2.1 [Dataset-level Metadata]", "md_verbatim": "| SC | Subject Characteristics | Findings | One record per characteristic per visit per subject. | Tabulation | STUDYID, USUBJID, SCTESTCD, VISITNUM | sc.xpt |", "score": 0.3958, "match_basis": "verbatim_token+chapter_route:ch03"}, {"md_atom_id": "md_ch03_a061", "md_file": "knowledge_base/chapters/ch03_submitting_data.md", "md_atom_type": "TABLE_ROW", "md_parent_section": "§3.2.1 [Dataset-level Metadata]", "md_verbatim": "| PC | Pharmacokinetics Concentrations | Findings | One record per sample characteristic or time-point concentration per reference time point or per analyte per subject | Tabulation | STUDYID, USUBJID, PCTESTCD, VISITNUM, PCTPTREF, PCTPTNUM | pc.xpt |", "score": 0.3778, "match_basis": "verbatim_token+chapter_route:ch03"}, {"md_atom_id": "md_ch03_a046", "md_file": "knowledge_base/chapters/ch03_submitting_data.md", "md_atom_type": "TABLE_ROW", "md_parent_section": "§3.2.1 [Dataset-level Metadata]", "md_verbatim": "| CV | Cardiovascular System Findings | Findings | One record per finding or result per time point per visit per subject | Tabulation | STUDYID, USUBJID, VISITNUM, CVTESTCD, CVTPTREF, CVTPTNUM | cv.xpt |", "score": 0.3734, "match_basis": "verbatim_token+chapter_route:ch03"}, {"md_atom_id": "md_ch03_a070", "md_file": "knowledge_base/chapters/ch03_submitting_data.md", "md_atom_type": "TABLE_ROW", "md_parent_section": "§3.2.1 [Dataset-level Metadata]", "md_verbatim": "| TR | Tumor/Lesion Results | Findings | One record per tumor measurement/assessment per visit per subject per assessor | Tabulation | STUDYID, USUBJID, TRTESTCD, TREVALID, VISITNUM | tr.xpt |", "score": 0.3713, "match_basis": "verbatim_token+chapter_route:ch03"}, {"md_atom_id": "md_ch03_a054", "md_file": "knowledge_base/chapters/ch03_submitting_data.md", "md_atom_type": "TABLE_ROW", "md_parent_section": "§3.2.1 [Dataset-level Metadata]", "md_verbatim": "| LB | Laboratory Test Results | Findings | One record per lab test per time point per visit per subject | Tabulation | STUDYID, USUBJID, LBTESTCD, LBSPEC, VISITNUM, LBTPTREF, LBTPTNUM | lb.xpt |", "score": 0.3696, "match_basis": "verbatim_token+chapter_route:ch03"}], "candidate_count": 5, "zero_candidate": false}
{"pdf_atom_id": "sv20_p0028_a009", "pdf_atom_type": "TABLE_ROW", "pdf_source": "SDTM_v2.0", "pdf_page": 28, "pdf_parent_section": "§3.1.3 The Findings Observation Class", "pdf_verbatim": "59 | --DISTR | Distribution Pattern of Finding | Char | | Variable Qualifier | --STRESC | | | Description of the distribution pattern of a finding within the examined area. | | \"FOCAL\", \"MULTIFOCAL\", \"DIFFUSE\"", "figure_ref": null, "candidates": [{"md_atom_id": "md_ch03_a062", "md_file": "knowledge_base/chapters/ch03_submitting_data.md", "md_atom_type": "TABLE_ROW", "md_parent_section": "§3.2.1 [Dataset-level Metadata]", "md_verbatim": "| PE | Physical Examination | Findings | One record per body system or abnormality per visit per subject | Tabulation | STUDYID, USUBJID, PETESTCD, VISITNUM | pe.xpt |", "score": 0.36, "match_basis": "verbatim_token+chapter_route:ch03"}, {"md_atom_id": "md_ch03_a068", "md_file": "knowledge_base/chapters/ch03_submitting_data.md", "md_atom_type": "TABLE_ROW", "md_parent_section": "§3.2.1 [Dataset-level Metadata]", "md_verbatim": "| SC | Subject Characteristics | Findings | One record per characteristic per visit per subject. | Tabulation | STUDYID, USUBJID, SCTESTCD, VISITNUM | sc.xpt |", "score": 0.3564, "match_basis": "verbatim_token+chapter_route:ch03"}, {"md_atom_id": "md_ch03_a060", "md_file": "knowledge_base/chapters/ch03_submitting_data.md", "md_atom_type": "TABLE_ROW", "md_parent_section": "§3.2.1 [Dataset-level Metadata]", "md_verbatim": "| OE | Ophthalmic Examinations | Findings | One record per ophthalmic finding per method per location, per time point per visit per subject | Tabulation | STUDYID, USUBJID, FOCID, OETESTCD, OETSTDTL, OEMETHOD, OELOC, OELAT, OEDIR, VISITNUM, OEDTC, OETPTREF, OETPTNUM, OEREPNUM | oe.xpt |", "score": 0.3532, "match_basis": "verbatim_token+chapter_route:ch03"}, {"md_atom_id": "md_ch03_a071", "md_file": "knowledge_base/chapters/ch03_submitting_data.md", "md_atom_type": "TABLE_ROW", "md_parent_section": "§3.2.1 [Dataset-level Metadata]", "md_verbatim": "| TU | Tumor/Lesion Identification | Findings | One record per identified tumor per subject per assessor | Tabulation | STUDYID, USUBJID, TUEVALID, TULNKID | tu.xpt |", "score": 0.352, "match_basis": "verbatim_token+chapter_route:ch03"}, {"md_atom_id": "md_ch03_a044", "md_file": "knowledge_base/chapters/ch03_submitting_data.md", "md_atom_type": "TABLE_ROW", "md_parent_section": "§3.2.1 [Dataset-level Metadata]", "md_verbatim": "| BS | Biospecimen Findings | Findings | One record per measurement per biospecimen identifier per subject | Tabulation | STUDYID, USUBJID, BSREFID, BSTESTCD | bs.xpt |", "score": 0.3516, "match_basis": "verbatim_token+chapter_route:ch03"}], "candidate_count": 5, "zero_candidate": false}
{"pdf_atom_id": "sv20_p0028_a010", "pdf_atom_type": "TABLE_ROW", "pdf_source": "SDTM_v2.0", "pdf_page": 28, "pdf_parent_section": "§3.1.3 The Findings Observation Class", "pdf_verbatim": "60 | --RESLOC | Result Location of Finding | Char | | Record Qualifier | | Not in human clinical trials | C170500 | Anatomical location where the result was observed. | Location where the result was observed (as opposed to the location specified for examination). This location may have a higher degree of specificity than the location specified for examination. | \"PINNA\" when --LOC is \"EAR\" \"LUNG, LEFT LOWER LOBE\" where --LOC is \"CHEST\" \"CORTEX\" when --SPEC is \"KIDNEY\"", "figure_ref": null, "candidates": [{"md_atom_id": "md_ch03_a049", "md_file": "knowledge_base/chapters/ch03_submitting_data.md", "md_atom_type": "TABLE_ROW", "md_parent_section": "§3.2.1 [Dataset-level Metadata]", "md_verbatim": "| EG | ECG Test Results | Findings | One record per ECG observation per replicate per time point or one record per ECG observation per beat per visit per subject | Tabulation | STUDYID, USUBJID, EGTESTCD, VISITNUM, EGTPTREF, EGTPTNUM, EGREPNUM | eg.xpt |", "score": 0.3829, "match_basis": "verbatim_token+chapter_route:ch03"}, {"md_atom_id": "md_ch03_a062", "md_file": "knowledge_base/chapters/ch03_submitting_data.md", "md_atom_type": "TABLE_ROW", "md_parent_section": "§3.2.1 [Dataset-level Metadata]", "md_verbatim": "| PE | Physical Examination | Findings | One record per body system or abnormality per visit per subject | Tabulation | STUDYID, USUBJID, PETESTCD, VISITNUM | pe.xpt |", "score": 0.3793, "match_basis": "verbatim_token+chapter_route:ch03"}, {"md_atom_id": "md_ch03_a060", "md_file": "knowledge_base/chapters/ch03_submitting_data.md", "md_atom_type": "TABLE_ROW", "md_parent_section": "§3.2.1 [Dataset-level Metadata]", "md_verbatim": "| OE | Ophthalmic Examinations | Findings | One record per ophthalmic finding per method per location, per time point per visit per subject | Tabulation | STUDYID, USUBJID, FOCID, OETESTCD, OETSTDTL, OEMETHOD, OELOC, OELAT, OEDIR, VISITNUM, OEDTC, OETPTREF, OETPTNUM, OEREPNUM | oe.xpt |", "score": 0.3746, "match_basis": "verbatim_token+chapter_route:ch03"}, {"md_atom_id": "md_ch03_a051", "md_file": "knowledge_base/chapters/ch03_submitting_data.md", "md_atom_type": "TABLE_ROW", "md_parent_section": "§3.2.1 [Dataset-level Metadata]", "md_verbatim": "| GF | Genomics Findings | Findings | One record per finding per observation per biospecimen per subject | Tabulation | STUDYID, USUBJID, GFTESTCD, GFSPEC, VISITNUM, GFTPTREF, GFTPTNUM | gf.xpt |", "score": 0.3746, "match_basis": "verbatim_token+chapter_route:ch03"}, {"md_atom_id": "md_ch03_a067", "md_file": "knowledge_base/chapters/ch03_submitting_data.md", "md_atom_type": "TABLE_ROW", "md_parent_section": "§3.2.1 [Dataset-level Metadata]", "md_verbatim": "| RS | Disease Response and Clin Classification | Findings | One record per response assessment or clinical classification assessment per time point per visit per subject per assessor per medical evaluator | Tabulation | STUDYID, USUBJID, RSTESTCD, VISITNUM, RSTPTREF, RSEVAL, RSPTPNUM, RSEVALID | rs.xpt |", "score": 0.3718, "match_basis": "verbatim_token+chapter_route:ch03"}], "candidate_count": 5, "zero_candidate": false}
{"pdf_atom_id": "sv20_p0028_a011", "pdf_atom_type": "TABLE_ROW", "pdf_source": "SDTM_v2.0", "pdf_page": 28, "pdf_parent_section": "§3.1.3 The Findings Observation Class", "pdf_verbatim": "61 | --STAT | Completion Status | Char | | Record Qualifier | | | | Used to indicate that a question was not asked or a test was not done, or a test was attempted but did not generate a result. Should be null or have a value of \"NOT DONE\". | | ", "figure_ref": null, "candidates": [{"md_atom_id": "md_ch03_a086", "md_file": "knowledge_base/chapters/ch03_submitting_data.md", "md_atom_type": "TABLE_ROW", "md_parent_section": "§3.2.1 [Dataset-level Metadata]", "md_verbatim": "| SUPP-- | Supplemental Qualifiers for [domain name] | Relationship | One record per supplemental qualifier per related parent domain record(s) | Tabulation | STUDYID, RDOMAIN, USUBJID, IDVAR, IDVARVAL, QNAM | supp--.xpt |", "score": 0.385, "match_basis": "verbatim_token+chapter_route:ch03"}, {"md_atom_id": "md_ch03_a069", "md_file": "knowledge_base/chapters/ch03_submitting_data.md", "md_atom_type": "TABLE_ROW", "md_parent_section": "§3.2.1 [Dataset-level Metadata]", "md_verbatim": "| SS | Subject Status | Findings | One record per status per visit per subject | Tabulation | STUDYID, USUBJID, SSTESTCD, VISITNUM | ss.xpt |", "score": 0.3811, "match_basis": "verbatim_token+chapter_route:ch03"}, {"md_atom_id": "md_ch03_a066", "md_file": "knowledge_base/chapters/ch03_submitting_data.md", "md_atom_type": "TABLE_ROW", "md_parent_section": "§3.2.1 [Dataset-level Metadata]", "md_verbatim": "| RP | Reproductive System Findings | Findings | One record per finding or result per time point per visit per subject | Tabulation | STUDYID, DOMAIN, USUBJID, RPTESTCD, VISITNUM | rp.xpt |", "score": 0.3773, "match_basis": "verbatim_token+chapter_route:ch03"}, {"md_atom_id": "md_ch03_a049", "md_file": "knowledge_base/chapters/ch03_submitting_data.md", "md_atom_type": "TABLE_ROW", "md_parent_section": "§3.2.1 [Dataset-level Metadata]", "md_verbatim": "| EG | ECG Test Results | Findings | One record per ECG observation per replicate per time point or one record per ECG observation per beat per visit per subject | Tabulation | STUDYID, USUBJID, EGTESTCD, VISITNUM, EGTPTREF, EGTPTNUM, EGREPNUM | eg.xpt |", "score": 0.3771, "match_basis": "verbatim_token+chapter_route:ch03"}, {"md_atom_id": "md_ch03_a064", "md_file": "knowledge_base/chapters/ch03_submitting_data.md", "md_atom_type": "TABLE_ROW", "md_parent_section": "§3.2.1 [Dataset-level Metadata]", "md_verbatim": "| QS | Questionnaires | Findings | One record per questionnaire per question per time point per visit per subject | Tabulation | STUDYID, USUBJID, QSCAT, QSSCAT, VISITNUM, QSTESTCD | qs.xpt |", "score": 0.3768, "match_basis": "verbatim_token+chapter_route:ch03"}], "candidate_count": 5, "zero_candidate": false}
{"pdf_atom_id": "sv20_p0028_a012", "pdf_atom_type": "TABLE_ROW", "pdf_source": "SDTM_v2.0", "pdf_page": 28, "pdf_parent_section": "§3.1.3 The Findings Observation Class", "pdf_verbatim": "62 | --REASND | Reason Not Done | Char | | Record Qualifier | | | C82556 | The explanation for why requested information was not available. | Used in conjunction with --STAT when value is \"NOT DONE\". | ", "figure_ref": null, "candidates": [{"md_atom_id": "md_ch03_a086", "md_file": "knowledge_base/chapters/ch03_submitting_data.md", "md_atom_type": "TABLE_ROW", "md_parent_section": "§3.2.1 [Dataset-level Metadata]", "md_verbatim": "| SUPP-- | Supplemental Qualifiers for [domain name] | Relationship | One record per supplemental qualifier per related parent domain record(s) | Tabulation | STUDYID, RDOMAIN, USUBJID, IDVAR, IDVARVAL, QNAM | supp--.xpt |", "score": 0.385, "match_basis": "verbatim_token+chapter_route:ch03"}, {"md_atom_id": "md_ch03_a044", "md_file": "knowledge_base/chapters/ch03_submitting_data.md", "md_atom_type": "TABLE_ROW", "md_parent_section": "§3.2.1 [Dataset-level Metadata]", "md_verbatim": "| BS | Biospecimen Findings | Findings | One record per measurement per biospecimen identifier per subject | Tabulation | STUDYID, USUBJID, BSREFID, BSTESTCD | bs.xpt |", "score": 0.3641, "match_basis": "verbatim_token+chapter_route:ch03"}, {"md_atom_id": "md_ch03_a077", "md_file": "knowledge_base/chapters/ch03_submitting_data.md", "md_atom_type": "TABLE_ROW", "md_parent_section": "§3.2.1 [Dataset-level Metadata]", "md_verbatim": "| TD | Trial Disease Assessments | Trial Design | One record per planned constant assessment period | Tabulation | STUDYID, TDORDER | td.xpt |", "score": 0.3639, "match_basis": "verbatim_token+chapter_route:ch03"}, {"md_atom_id": "md_ch03_a033", "md_file": "knowledge_base/chapters/ch03_submitting_data.md", "md_atom_type": "TABLE_ROW", "md_parent_section": "§3.2.1 [Dataset-level Metadata]", "md_verbatim": "| EX | Exposure | Interventions | One record per protocol-specified study treatment, constant-dosing interval, per subject | Tabulation | STUDYID, USUBJID, EXTRT, EXSTDTC | ex.xpt |", "score": 0.3634, "match_basis": "verbatim_token+chapter_route:ch03"}, {"md_atom_id": "md_ch03_a069", "md_file": "knowledge_base/chapters/ch03_submitting_data.md", "md_atom_type": "TABLE_ROW", "md_parent_section": "§3.2.1 [Dataset-level Metadata]", "md_verbatim": "| SS | Subject Status | Findings | One record per status per visit per subject | Tabulation | STUDYID, USUBJID, SSTESTCD, VISITNUM | ss.xpt |", "score": 0.3632, "match_basis": "verbatim_token+chapter_route:ch03"}], "candidate_count": 5, "zero_candidate": false}
{"pdf_atom_id": "sv20_p0028_a013", "pdf_atom_type": "TABLE_ROW", "pdf_source": "SDTM_v2.0", "pdf_page": 28, "pdf_parent_section": "§3.1.3 The Findings Observation Class", "pdf_verbatim": "63 | --XFN | External File Path | Char | | Record Qualifier | | | C82536 | The filename and/or path to external data not stored in the same format and possibly not the same location as the other data for a study. | | A filename and/or path for an ECG waveform or a medical image.", "figure_ref": null, "candidates": [{"md_atom_id": "md_ch03_a043", "md_file": "knowledge_base/chapters/ch03_submitting_data.md", "md_atom_type": "TABLE_ROW", "md_parent_section": "§3.2.1 [Dataset-level Metadata]", "md_verbatim": "| MH | Medical History | Events | One record per medical history event per subject | Tabulation | STUDYID, USUBJID, MHDECOD | mh.xpt |", "score": 0.3971, "match_basis": "verbatim_token+chapter_route:ch03"}, {"md_atom_id": "md_ch03_a086", "md_file": "knowledge_base/chapters/ch03_submitting_data.md", "md_atom_type": "TABLE_ROW", "md_parent_section": "§3.2.1 [Dataset-level Metadata]", "md_verbatim": "| SUPP-- | Supplemental Qualifiers for [domain name] | Relationship | One record per supplemental qualifier per related parent domain record(s) | Tabulation | STUDYID, RDOMAIN, USUBJID, IDVAR, IDVARVAL, QNAM | supp--.xpt |", "score": 0.396, "match_basis": "verbatim_token+chapter_route:ch03"}, {"md_atom_id": "md_ch03_a067", "md_file": "knowledge_base/chapters/ch03_submitting_data.md", "md_atom_type": "TABLE_ROW", "md_parent_section": "§3.2.1 [Dataset-level Metadata]", "md_verbatim": "| RS | Disease Response and Clin Classification | Findings | One record per response assessment or clinical classification assessment per time point per visit per subject per assessor per medical evaluator | Tabulation | STUDYID, USUBJID, RSTESTCD, VISITNUM, RSTPTREF, RSEVAL, RSPTPNUM, RSEVALID | rs.xpt |", "score": 0.3764, "match_basis": "verbatim_token+chapter_route:ch03"}, {"md_atom_id": "md_ch03_a039", "md_file": "knowledge_base/chapters/ch03_submitting_data.md", "md_atom_type": "TABLE_ROW", "md_parent_section": "§3.2.1 [Dataset-level Metadata]", "md_verbatim": "| CE | Clinical Events | Events | One record per event per subject | Tabulation | STUDYID, USUBJID, CETERM, CESTDTC | ce.xpt |", "score": 0.3709, "match_basis": "verbatim_token+chapter_route:ch03"}, {"md_atom_id": "md_ch03_a071", "md_file": "knowledge_base/chapters/ch03_submitting_data.md", "md_atom_type": "TABLE_ROW", "md_parent_section": "§3.2.1 [Dataset-level Metadata]", "md_verbatim": "| TU | Tumor/Lesion Identification | Findings | One record per identified tumor per subject per assessor | Tabulation | STUDYID, USUBJID, TUEVALID, TULNKID | tu.xpt |", "score": 0.3698, "match_basis": "verbatim_token+chapter_route:ch03"}], "candidate_count": 5, "zero_candidate": false}
{"pdf_atom_id": "sv20_p0028_a014", "pdf_atom_type": "TABLE_ROW", "pdf_source": "SDTM_v2.0", "pdf_page": 28, "pdf_parent_section": "§3.1.3 The Findings Observation Class", "pdf_verbatim": "64 | --NAM | Laboratory/Vendor Name | Char | | Record Qualifier | | | C117200 | The name of the vendor performing an assessment. | | A laboratory name.", "figure_ref": null, "candidates": [{"md_atom_id": "md_ch03_a086", "md_file": "knowledge_base/chapters/ch03_submitting_data.md", "md_atom_type": "TABLE_ROW", "md_parent_section": "§3.2.1 [Dataset-level Metadata]", "md_verbatim": "| SUPP-- | Supplemental Qualifiers for [domain name] | Relationship | One record per supplemental qualifier per related parent domain record(s) | Tabulation | STUDYID, RDOMAIN, USUBJID, IDVAR, IDVARVAL, QNAM | supp--.xpt |", "score": 0.401, "match_basis": "verbatim_token+chapter_route:ch03"}, {"md_atom_id": "md_ch03_a077", "md_file": "knowledge_base/chapters/ch03_submitting_data.md", "md_atom_type": "TABLE_ROW", "md_parent_section": "§3.2.1 [Dataset-level Metadata]", "md_verbatim": "| TD | Trial Disease Assessments | Trial Design | One record per planned constant assessment period | Tabulation | STUDYID, TDORDER | td.xpt |", "score": 0.3894, "match_basis": "verbatim_token+chapter_route:ch03"}, {"md_atom_id": "md_ch03_a071", "md_file": "knowledge_base/chapters/ch03_submitting_data.md", "md_atom_type": "TABLE_ROW", "md_parent_section": "§3.2.1 [Dataset-level Metadata]", "md_verbatim": "| TU | Tumor/Lesion Identification | Findings | One record per identified tumor per subject per assessor | Tabulation | STUDYID, USUBJID, TUEVALID, TULNKID | tu.xpt |", "score": 0.3816, "match_basis": "verbatim_token+chapter_route:ch03"}, {"md_atom_id": "md_ch03_a070", "md_file": "knowledge_base/chapters/ch03_submitting_data.md", "md_atom_type": "TABLE_ROW", "md_parent_section": "§3.2.1 [Dataset-level Metadata]", "md_verbatim": "| TR | Tumor/Lesion Results | Findings | One record per tumor measurement/assessment per visit per subject per assessor | Tabulation | STUDYID, USUBJID, TRTESTCD, TREVALID, VISITNUM | tr.xpt |", "score": 0.3789, "match_basis": "verbatim_token+chapter_route:ch03"}, {"md_atom_id": "md_ch03_a054", "md_file": "knowledge_base/chapters/ch03_submitting_data.md", "md_atom_type": "TABLE_ROW", "md_parent_section": "§3.2.1 [Dataset-level Metadata]", "md_verbatim": "| LB | Laboratory Test Results | Findings | One record per lab test per time point per visit per subject | Tabulation | STUDYID, USUBJID, LBTESTCD, LBSPEC, VISITNUM, LBTPTREF, LBTPTNUM | lb.xpt |", "score": 0.3771, "match_basis": "verbatim_token+chapter_route:ch03"}], "candidate_count": 5, "zero_candidate": false}
{"pdf_atom_id": "sv20_p0029_a001", "pdf_atom_type": "TABLE_ROW", "pdf_source": "SDTM_v2.0", "pdf_page": 29, "pdf_parent_section": "§3.1.3 The Findings Observation Class", "pdf_verbatim": "65 | --LOINC | LOINC Code | Char | | Record Qualifier | | | C82502 | A short sequence of characters used to represent laboratory and clinical tests within the Logical Observation Identifiers Names and Codes (LOINC) database. | | ", "figure_ref": null, "candidates": [{"md_atom_id": "md_ch03_a087", "md_file": "knowledge_base/chapters/ch03_submitting_data.md", "md_atom_type": "TABLE_ROW", "md_parent_section": "§3.2.1 [Dataset-level Metadata]", "md_verbatim": "| OI | Non-host Organism Identifiers | Study Reference | One record per taxon per non-host organism | Tabulation | NHOID, OISEQ | oi.xpt |", "score": 0.3945, "match_basis": "verbatim_token+chapter_route:ch03"}, {"md_atom_id": "md_ch03_a067", "md_file": "knowledge_base/chapters/ch03_submitting_data.md", "md_atom_type": "TABLE_ROW", "md_parent_section": "§3.2.1 [Dataset-level Metadata]", "md_verbatim": "| RS | Disease Response and Clin Classification | Findings | One record per response assessment or clinical classification assessment per time point per visit per subject per assessor per medical evaluator | Tabulation | STUDYID, USUBJID, RSTESTCD, VISITNUM, RSTPTREF, RSEVAL, RSPTPNUM, RSEVALID | rs.xpt |", "score": 0.3833, "match_basis": "verbatim_token+chapter_route:ch03"}, {"md_atom_id": "md_ch03_a086", "md_file": "knowledge_base/chapters/ch03_submitting_data.md", "md_atom_type": "TABLE_ROW", "md_parent_section": "§3.2.1 [Dataset-level Metadata]", "md_verbatim": "| SUPP-- | Supplemental Qualifiers for [domain name] | Relationship | One record per supplemental qualifier per related parent domain record(s) | Tabulation | STUDYID, RDOMAIN, USUBJID, IDVAR, IDVARVAL, QNAM | supp--.xpt |", "score": 0.3833, "match_basis": "verbatim_token+chapter_route:ch03"}, {"md_atom_id": "md_ch03_a039", "md_file": "knowledge_base/chapters/ch03_submitting_data.md", "md_atom_type": "TABLE_ROW", "md_parent_section": "§3.2.1 [Dataset-level Metadata]", "md_verbatim": "| CE | Clinical Events | Events | One record per event per subject | Tabulation | STUDYID, USUBJID, CETERM, CESTDTC | ce.xpt |", "score": 0.3816, "match_basis": "verbatim_token+chapter_route:ch03"}, {"md_atom_id": "md_ch03_a054", "md_file": "knowledge_base/chapters/ch03_submitting_data.md", "md_atom_type": "TABLE_ROW", "md_parent_section": "§3.2.1 [Dataset-level Metadata]", "md_verbatim": "| LB | Laboratory Test Results | Findings | One record per lab test per time point per visit per subject | Tabulation | STUDYID, USUBJID, LBTESTCD, LBSPEC, VISITNUM, LBTPTREF, LBTPTNUM | lb.xpt |", "score": 0.3805, "match_basis": "verbatim_token+chapter_route:ch03"}], "candidate_count": 5, "zero_candidate": false}
{"pdf_atom_id": "sv20_p0029_a002", "pdf_atom_type": "TABLE_ROW", "pdf_source": "SDTM_v2.0", "pdf_page": 29, "pdf_parent_section": "§3.1.3 The Findings Observation Class", "pdf_verbatim": "66 | --SPEC | Specimen Material Type | Char | | Record Qualifier | | | C70713 | The type of sample material taken from a biological entity. | | \"SERUM\", \"PLASMA\", \"URINE\", \"DNA\", \"RNA\"", "figure_ref": null, "candidates": [{"md_atom_id": "md_ch03_a084", "md_file": "knowledge_base/chapters/ch03_submitting_data.md", "md_atom_type": "TABLE_ROW", "md_parent_section": "§3.2.1 [Dataset-level Metadata]", "md_verbatim": "| RELSPEC | Related Specimens | Relationship | One record per specimen identifier per subject | Tabulation | STUDYID, USUBJID, REFID | relspec.xpt |", "score": 0.3914, "match_basis": "verbatim_token+chapter_route:ch03"}, {"md_atom_id": "md_ch03_a038", "md_file": "knowledge_base/chapters/ch03_submitting_data.md", "md_atom_type": "TABLE_ROW", "md_parent_section": "§3.2.1 [Dataset-level Metadata]", "md_verbatim": "| BE | Biospecimen Events | Events | One record per instance per biospecimen event per biospecimen identifier per subject | Tabulation | STUDYID, USUBJID, BEREFID, BETERM, BESTDTC | be.xpt |", "score": 0.3879, "match_basis": "verbatim_token+chapter_route:ch03"}, {"md_atom_id": "md_ch03_a044", "md_file": "knowledge_base/chapters/ch03_submitting_data.md", "md_atom_type": "TABLE_ROW", "md_parent_section": "§3.2.1 [Dataset-level Metadata]", "md_verbatim": "| BS | Biospecimen Findings | Findings | One record per measurement per biospecimen identifier per subject | Tabulation | STUDYID, USUBJID, BSREFID, BSTESTCD | bs.xpt |", "score": 0.3814, "match_basis": "verbatim_token+chapter_route:ch03"}, {"md_atom_id": "md_ch03_a086", "md_file": "knowledge_base/chapters/ch03_submitting_data.md", "md_atom_type": "TABLE_ROW", "md_parent_section": "§3.2.1 [Dataset-level Metadata]", "md_verbatim": "| SUPP-- | Supplemental Qualifiers for [domain name] | Relationship | One record per supplemental qualifier per related parent domain record(s) | Tabulation | STUDYID, RDOMAIN, USUBJID, IDVAR, IDVARVAL, QNAM | supp--.xpt |", "score": 0.3756, "match_basis": "verbatim_token+chapter_route:ch03"}, {"md_atom_id": "md_ch03_a055", "md_file": "knowledge_base/chapters/ch03_submitting_data.md", "md_atom_type": "TABLE_ROW", "md_parent_section": "§3.2.1 [Dataset-level Metadata]", "md_verbatim": "| MB | Microbiology Specimen | Findings | One record per microbiology specimen finding per time point per visit per subject | Tabulation | STUDYID, USUBJID, MBTESTCD, VISITNUM, MBTPTREF, MBTPTNUM | mb.xpt |", "score": 0.3683, "match_basis": "verbatim_token+chapter_route:ch03"}], "candidate_count": 5, "zero_candidate": false}
{"pdf_atom_id": "sv20_p0029_a003", "pdf_atom_type": "TABLE_ROW", "pdf_source": "SDTM_v2.0", "pdf_page": 29, "pdf_parent_section": "§3.1.3 The Findings Observation Class", "pdf_verbatim": "67 | --ANTREG | Anatomical Region | Char | | Variable Qualifier | --SPEC | | C170983 | The specific anatomical or biological region of a tissue or organ specimen. | As defined in the protocol. | A section or part of what is described in the --SPEC variable \"CORTEX\", \"MEDULLA\", \"MUCOSA\"", "figure_ref": null, "candidates": [{"md_atom_id": "md_ch03_a033", "md_file": "knowledge_base/chapters/ch03_submitting_data.md", "md_atom_type": "TABLE_ROW", "md_parent_section": "§3.2.1 [Dataset-level Metadata]", "md_verbatim": "| EX | Exposure | Interventions | One record per protocol-specified study treatment, constant-dosing interval, per subject | Tabulation | STUDYID, USUBJID, EXTRT, EXSTDTC | ex.xpt |", "score": 0.3722, "match_basis": "verbatim_token+chapter_route:ch03"}, {"md_atom_id": "md_ch03_a055", "md_file": "knowledge_base/chapters/ch03_submitting_data.md", "md_atom_type": "TABLE_ROW", "md_parent_section": "§3.2.1 [Dataset-level Metadata]", "md_verbatim": "| MB | Microbiology Specimen | Findings | One record per microbiology specimen finding per time point per visit per subject | Tabulation | STUDYID, USUBJID, MBTESTCD, VISITNUM, MBTPTREF, MBTPTNUM | mb.xpt |", "score": 0.3675, "match_basis": "verbatim_token+chapter_route:ch03"}, {"md_atom_id": "md_ch03_a032", "md_file": "knowledge_base/chapters/ch03_submitting_data.md", "md_atom_type": "TABLE_ROW", "md_parent_section": "§3.2.1 [Dataset-level Metadata]", "md_verbatim": "| EC | Exposure as Collected | Interventions | One record per protocol-specified study treatment, collected-dosing interval, per subject, per mood | Tabulation | STUDYID, USUBJID, ECTRT, ECSTDTC, ECMOOD | ec.xpt |", "score": 0.3667, "match_basis": "verbatim_token+chapter_route:ch03"}, {"md_atom_id": "md_ch03_a044", "md_file": "knowledge_base/chapters/ch03_submitting_data.md", "md_atom_type": "TABLE_ROW", "md_parent_section": "§3.2.1 [Dataset-level Metadata]", "md_verbatim": "| BS | Biospecimen Findings | Findings | One record per measurement per biospecimen identifier per subject | Tabulation | STUDYID, USUBJID, BSREFID, BSTESTCD | bs.xpt |", "score": 0.3644, "match_basis": "verbatim_token+chapter_route:ch03"}, {"md_atom_id": "md_ch03_a084", "md_file": "knowledge_base/chapters/ch03_submitting_data.md", "md_atom_type": "TABLE_ROW", "md_parent_section": "§3.2.1 [Dataset-level Metadata]", "md_verbatim": "| RELSPEC | Related Specimens | Relationship | One record per specimen identifier per subject | Tabulation | STUDYID, USUBJID, REFID | relspec.xpt |", "score": 0.3609, "match_basis": "verbatim_token+chapter_route:ch03"}], "candidate_count": 5, "zero_candidate": false}
{"pdf_atom_id": "sv20_p0029_a004", "pdf_atom_type": "TABLE_ROW", "pdf_source": "SDTM_v2.0", "pdf_page": 29, "pdf_parent_section": "§3.1.3 The Findings Observation Class", "pdf_verbatim": "68 | --SPCCND | Specimen Condition | Char | | Record Qualifier | | | C70714 | The physical state or quality of a sample for assessment. | | \"CLOUDY\"", "figure_ref": null, "candidates": [{"md_atom_id": "md_ch03_a084", "md_file": "knowledge_base/chapters/ch03_submitting_data.md", "md_atom_type": "TABLE_ROW", "md_parent_section": "§3.2.1 [Dataset-level Metadata]", "md_verbatim": "| RELSPEC | Related Specimens | Relationship | One record per specimen identifier per subject | Tabulation | STUDYID, USUBJID, REFID | relspec.xpt |", "score": 0.408, "match_basis": "verbatim_token+chapter_route:ch03"}, {"md_atom_id": "md_ch03_a053", "md_file": "knowledge_base/chapters/ch03_submitting_data.md", "md_atom_type": "TABLE_ROW", "md_parent_section": "§3.2.1 [Dataset-level Metadata]", "md_verbatim": "| IS | Immunogenicity Specimen Assessments | Findings | One record per test per visit per subject | Tabulation | STUDYID, USUBJID, ISTESTCD, ISBDAGNT, ISSCMBDL, ISSTOPO, VISITNUM | is.xpt |", "score": 0.4031, "match_basis": "verbatim_token+chapter_route:ch03"}, {"md_atom_id": "md_ch03_a086", "md_file": "knowledge_base/chapters/ch03_submitting_data.md", "md_atom_type": "TABLE_ROW", "md_parent_section": "§3.2.1 [Dataset-level Metadata]", "md_verbatim": "| SUPP-- | Supplemental Qualifiers for [domain name] | Relationship | One record per supplemental qualifier per related parent domain record(s) | Tabulation | STUDYID, RDOMAIN, USUBJID, IDVAR, IDVARVAL, QNAM | supp--.xpt |", "score": 0.4018, "match_basis": "verbatim_token+chapter_route:ch03"}, {"md_atom_id": "md_ch03_a077", "md_file": "knowledge_base/chapters/ch03_submitting_data.md", "md_atom_type": "TABLE_ROW", "md_parent_section": "§3.2.1 [Dataset-level Metadata]", "md_verbatim": "| TD | Trial Disease Assessments | Trial Design | One record per planned constant assessment period | Tabulation | STUDYID, TDORDER | td.xpt |", "score": 0.3981, "match_basis": "verbatim_token+chapter_route:ch03"}, {"md_atom_id": "md_ch03_a038", "md_file": "knowledge_base/chapters/ch03_submitting_data.md", "md_atom_type": "TABLE_ROW", "md_parent_section": "§3.2.1 [Dataset-level Metadata]", "md_verbatim": "| BE | Biospecimen Events | Events | One record per instance per biospecimen event per biospecimen identifier per subject | Tabulation | STUDYID, USUBJID, BEREFID, BETERM, BESTDTC | be.xpt |", "score": 0.3964, "match_basis": "verbatim_token+chapter_route:ch03"}], "candidate_count": 5, "zero_candidate": false}
{"pdf_atom_id": "sv20_p0029_a005", "pdf_atom_type": "TABLE_ROW", "pdf_source": "SDTM_v2.0", "pdf_page": 29, "pdf_parent_section": "§3.1.3 The Findings Observation Class", "pdf_verbatim": "69 | --SPCUFL | Specimen Usability for the Test | Char | | Record Qualifier | | | C171004 | An indication as to whether a sample is suitable for testing. | The value will be \"N\" if the specimen is not usable, and null if the specimen is usable. | ", "figure_ref": null, "candidates": [{"md_atom_id": "md_ch03_a044", "md_file": "knowledge_base/chapters/ch03_submitting_data.md", "md_atom_type": "TABLE_ROW", "md_parent_section": "§3.2.1 [Dataset-level Metadata]", "md_verbatim": "| BS | Biospecimen Findings | Findings | One record per measurement per biospecimen identifier per subject | Tabulation | STUDYID, USUBJID, BSREFID, BSTESTCD | bs.xpt |", "score": 0.41, "match_basis": "verbatim_token+chapter_route:ch03"}, {"md_atom_id": "md_ch03_a056", "md_file": "knowledge_base/chapters/ch03_submitting_data.md", "md_atom_type": "TABLE_ROW", "md_parent_section": "§3.2.1 [Dataset-level Metadata]", "md_verbatim": "| MI | Microscopic Findings | Findings | One record per finding per specimen per subject | Tabulation | STUDYID, USUBJID, MISPEC, MITESTCD | mi.xpt |", "score": 0.4027, "match_basis": "verbatim_token+chapter_route:ch03"}, {"md_atom_id": "md_ch03_a047", "md_file": "knowledge_base/chapters/ch03_submitting_data.md", "md_atom_type": "TABLE_ROW", "md_parent_section": "§3.2.1 [Dataset-level Metadata]", "md_verbatim": "| DA | Product Accountability | Findings | One record per product accountability finding per subject | Tabulation | STUDYID, USUBJID, DATESTCD, DADTC | da.xpt |", "score": 0.3947, "match_basis": "verbatim_token+chapter_route:ch03"}, {"md_atom_id": "md_ch03_a045", "md_file": "knowledge_base/chapters/ch03_submitting_data.md", "md_atom_type": "TABLE_ROW", "md_parent_section": "§3.2.1 [Dataset-level Metadata]", "md_verbatim": "| CP | Cell Phenotype Findings | Findings | One record per test per specimen per timepoint per visit per subject | Tabulation | STUDYID, USUBJID, CPTESTCD, CPSPEC, VISITNUM, CPTPTREF, CPTPTNUM | cp.xpt |", "score": 0.3937, "match_basis": "verbatim_token+chapter_route:ch03"}, {"md_atom_id": "md_ch03_a086", "md_file": "knowledge_base/chapters/ch03_submitting_data.md", "md_atom_type": "TABLE_ROW", "md_parent_section": "§3.2.1 [Dataset-level Metadata]", "md_verbatim": "| SUPP-- | Supplemental Qualifiers for [domain name] | Relationship | One record per supplemental qualifier per related parent domain record(s) | Tabulation | STUDYID, RDOMAIN, USUBJID, IDVAR, IDVARVAL, QNAM | supp--.xpt |", "score": 0.3927, "match_basis": "verbatim_token+chapter_route:ch03"}], "candidate_count": 5, "zero_candidate": false}
{"pdf_atom_id": "sv20_p0029_a006", "pdf_atom_type": "TABLE_ROW", "pdf_source": "SDTM_v2.0", "pdf_page": 29, "pdf_parent_section": "§3.1.3 The Findings Observation Class", "pdf_verbatim": "70 | --LOC | Location Used for the Measurement | Char | | Record Qualifier | | | | Anatomical location of the subject relevant to the collection of the measurement. | | \"RECTUM\" for temperature, \"ARM\" for blood pressure", "figure_ref": null, "candidates": [{"md_atom_id": "md_ch03_a070", "md_file": "knowledge_base/chapters/ch03_submitting_data.md", "md_atom_type": "TABLE_ROW", "md_parent_section": "§3.2.1 [Dataset-level Metadata]", "md_verbatim": "| TR | Tumor/Lesion Results | Findings | One record per tumor measurement/assessment per visit per subject per assessor | Tabulation | STUDYID, USUBJID, TRTESTCD, TREVALID, VISITNUM | tr.xpt |", "score": 0.4276, "match_basis": "verbatim_token+chapter_route:ch03"}, {"md_atom_id": "md_ch03_a044", "md_file": "knowledge_base/chapters/ch03_submitting_data.md", "md_atom_type": "TABLE_ROW", "md_parent_section": "§3.2.1 [Dataset-level Metadata]", "md_verbatim": "| BS | Biospecimen Findings | Findings | One record per measurement per biospecimen identifier per subject | Tabulation | STUDYID, USUBJID, BSREFID, BSTESTCD | bs.xpt |", "score": 0.4271, "match_basis": "verbatim_token+chapter_route:ch03"}, {"md_atom_id": "md_ch03_a071", "md_file": "knowledge_base/chapters/ch03_submitting_data.md", "md_atom_type": "TABLE_ROW", "md_parent_section": "§3.2.1 [Dataset-level Metadata]", "md_verbatim": "| TU | Tumor/Lesion Identification | Findings | One record per identified tumor per subject per assessor | Tabulation | STUDYID, USUBJID, TUEVALID, TULNKID | tu.xpt |", "score": 0.41, "match_basis": "verbatim_token+chapter_route:ch03"}, {"md_atom_id": "md_ch03_a086", "md_file": "knowledge_base/chapters/ch03_submitting_data.md", "md_atom_type": "TABLE_ROW", "md_parent_section": "§3.2.1 [Dataset-level Metadata]", "md_verbatim": "| SUPP-- | Supplemental Qualifiers for [domain name] | Relationship | One record per supplemental qualifier per related parent domain record(s) | Tabulation | STUDYID, RDOMAIN, USUBJID, IDVAR, IDVARVAL, QNAM | supp--.xpt |", "score": 0.4091, "match_basis": "verbatim_token+chapter_route:ch03"}, {"md_atom_id": "md_ch03_a032", "md_file": "knowledge_base/chapters/ch03_submitting_data.md", "md_atom_type": "TABLE_ROW", "md_parent_section": "§3.2.1 [Dataset-level Metadata]", "md_verbatim": "| EC | Exposure as Collected | Interventions | One record per protocol-specified study treatment, collected-dosing interval, per subject, per mood | Tabulation | STUDYID, USUBJID, ECTRT, ECSTDTC, ECMOOD | ec.xpt |", "score": 0.4075, "match_basis": "verbatim_token+chapter_route:ch03"}], "candidate_count": 5, "zero_candidate": false}
