{"pdf_atom_id": "ig34_p0096_a003", "pdf_atom_type": "TABLE_ROW", "pdf_source": "SDTMIG_v3.4", "pdf_page": 96, "pdf_parent_section": "§6.1.1 [Procedure Agents (AG)]", "pdf_verbatim": "1 | XYZ | AG | XYZ-001-001 | 1 | SALINE | Y | Y | 0 | SQ-u/mL | RESPIRATORY (INHALATION) | SCREENING | 2010-11-07T10:56:00", "figure_ref": null, "candidates": [{"md_atom_id": "md_dmAG_ex_a013", "md_file": "knowledge_base/domains/AG/examples.md", "md_atom_type": "TABLE_ROW", "md_parent_section": "§AG.1 [Example 1]", "md_verbatim": "| 1 | XYZ | AG | XYZ-001-001 | 1 | SALINE | Y | Y | 0 | SQ-u/mL | RESPIRATORY (INHALATION) | SCREENING | 2010-11-07T10:56:00 |", "score": 1.0, "match_basis": "verbatim_token+domain_route:AG"}, {"md_atom_id": "md_dmAG_ex_a014", "md_file": "knowledge_base/domains/AG/examples.md", "md_atom_type": "TABLE_ROW", "md_parent_section": "§AG.1 [Example 1]", "md_verbatim": "| 2 | XYZ | AG | XYZ-001-001 | 2 | GRASS | Y | Y | 250 | SQ-u/mL | RESPIRATORY (INHALATION) | SCREENING | 2010-11-07T11:19:00 |", "score": 0.85, "match_basis": "verbatim_token+domain_route:AG"}, {"md_atom_id": "md_dmAG_ex_a015", "md_file": "knowledge_base/domains/AG/examples.md", "md_atom_type": "TABLE_ROW", "md_parent_section": "§AG.1 [Example 1]", "md_verbatim": "| 3 | XYZ | AG | XYZ-001-001 | 3 | GRASS | Y | Y | 1000 | SQ-u/mL | RESPIRATORY (INHALATION) | SCREENING | 2010-11-07T11:43:00 |", "score": 0.839, "match_basis": "verbatim_token+domain_route:AG"}, {"md_atom_id": "md_dmAG_ex_a016", "md_file": "knowledge_base/domains/AG/examples.md", "md_atom_type": "TABLE_ROW", "md_parent_section": "§AG.1 [Example 1]", "md_verbatim": "| 4 | XYZ | AG | XYZ-001-001 | 4 | GRASS | Y | Y | 2000 | SQ-u/mL | RESPIRATORY (INHALATION) | SCREENING | 2010-11-07T12:06:00 |", "score": 0.839, "match_basis": "verbatim_token+domain_route:AG"}, {"md_atom_id": "md_dmAG_ex_a032", "md_file": "knowledge_base/domains/AG/examples.md", "md_atom_type": "TABLE_ROW", "md_parent_section": "§AG.2 [Example 2]", "md_verbatim": "| 1 | XYZ | AG | XYZ-001-001 | 1 | RV1 | ALBUTEROL | Y | Y | 2 | PUFF | AEROSOL | ONCE | RESPIRATORY (INHALATION) | VISIT 2 | 2013-06-18T10:05 |", "score": 0.6211, "match_basis": "verbatim_token+domain_route:AG"}], "candidate_count": 5, "zero_candidate": false}
{"pdf_atom_id": "ig34_p0096_a004", "pdf_atom_type": "TABLE_ROW", "pdf_source": "SDTMIG_v3.4", "pdf_page": 96, "pdf_parent_section": "§6.1.1 [Procedure Agents (AG)]", "pdf_verbatim": "2 | XYZ | AG | XYZ-001-001 | 2 | GRASS | Y | Y | 250 | SQ-u/mL | RESPIRATORY (INHALATION) | SCREENING | 2010-11-07T11:19:00", "figure_ref": null, "candidates": [{"md_atom_id": "md_dmAG_ex_a014", "md_file": "knowledge_base/domains/AG/examples.md", "md_atom_type": "TABLE_ROW", "md_parent_section": "§AG.1 [Example 1]", "md_verbatim": "| 2 | XYZ | AG | XYZ-001-001 | 2 | GRASS | Y | Y | 250 | SQ-u/mL | RESPIRATORY (INHALATION) | SCREENING | 2010-11-07T11:19:00 |", "score": 1.0, "match_basis": "verbatim_token+domain_route:AG"}, {"md_atom_id": "md_dmAG_ex_a015", "md_file": "knowledge_base/domains/AG/examples.md", "md_atom_type": "TABLE_ROW", "md_parent_section": "§AG.1 [Example 1]", "md_verbatim": "| 3 | XYZ | AG | XYZ-001-001 | 3 | GRASS | Y | Y | 1000 | SQ-u/mL | RESPIRATORY (INHALATION) | SCREENING | 2010-11-07T11:43:00 |", "score": 0.9514, "match_basis": "verbatim_token+domain_route:AG"}, {"md_atom_id": "md_dmAG_ex_a016", "md_file": "knowledge_base/domains/AG/examples.md", "md_atom_type": "TABLE_ROW", "md_parent_section": "§AG.1 [Example 1]", "md_verbatim": "| 4 | XYZ | AG | XYZ-001-001 | 4 | GRASS | Y | Y | 2000 | SQ-u/mL | RESPIRATORY (INHALATION) | SCREENING | 2010-11-07T12:06:00 |", "score": 0.9211, "match_basis": "verbatim_token+domain_route:AG"}, {"md_atom_id": "md_dmAG_ex_a013", "md_file": "knowledge_base/domains/AG/examples.md", "md_atom_type": "TABLE_ROW", "md_parent_section": "§AG.1 [Example 1]", "md_verbatim": "| 1 | XYZ | AG | XYZ-001-001 | 1 | SALINE | Y | Y | 0 | SQ-u/mL | RESPIRATORY (INHALATION) | SCREENING | 2010-11-07T10:56:00 |", "score": 0.85, "match_basis": "verbatim_token+domain_route:AG"}, {"md_atom_id": "md_dmAG_ex_a032", "md_file": "knowledge_base/domains/AG/examples.md", "md_atom_type": "TABLE_ROW", "md_parent_section": "§AG.2 [Example 2]", "md_verbatim": "| 1 | XYZ | AG | XYZ-001-001 | 1 | RV1 | ALBUTEROL | Y | Y | 2 | PUFF | AEROSOL | ONCE | RESPIRATORY (INHALATION) | VISIT 2 | 2013-06-18T10:05 |", "score": 0.6069, "match_basis": "verbatim_token+domain_route:AG"}], "candidate_count": 5, "zero_candidate": false}
{"pdf_atom_id": "ig34_p0096_a005", "pdf_atom_type": "TABLE_ROW", "pdf_source": "SDTMIG_v3.4", "pdf_page": 96, "pdf_parent_section": "§6.1.1 [Procedure Agents (AG)]", "pdf_verbatim": "3 | XYZ | AG | XYZ-001-001 | 3 | GRASS | Y | Y | 1000 | SQ-u/mL | RESPIRATORY (INHALATION) | SCREENING | 2010-11-07T11:43:00", "figure_ref": null, "candidates": [{"md_atom_id": "md_dmAG_ex_a015", "md_file": "knowledge_base/domains/AG/examples.md", "md_atom_type": "TABLE_ROW", "md_parent_section": "§AG.1 [Example 1]", "md_verbatim": "| 3 | XYZ | AG | XYZ-001-001 | 3 | GRASS | Y | Y | 1000 | SQ-u/mL | RESPIRATORY (INHALATION) | SCREENING | 2010-11-07T11:43:00 |", "score": 1.0, "match_basis": "verbatim_token+domain_route:AG"}, {"md_atom_id": "md_dmAG_ex_a014", "md_file": "knowledge_base/domains/AG/examples.md", "md_atom_type": "TABLE_ROW", "md_parent_section": "§AG.1 [Example 1]", "md_verbatim": "| 2 | XYZ | AG | XYZ-001-001 | 2 | GRASS | Y | Y | 250 | SQ-u/mL | RESPIRATORY (INHALATION) | SCREENING | 2010-11-07T11:19:00 |", "score": 0.9514, "match_basis": "verbatim_token+domain_route:AG"}, {"md_atom_id": "md_dmAG_ex_a016", "md_file": "knowledge_base/domains/AG/examples.md", "md_atom_type": "TABLE_ROW", "md_parent_section": "§AG.1 [Example 1]", "md_verbatim": "| 4 | XYZ | AG | XYZ-001-001 | 4 | GRASS | Y | Y | 2000 | SQ-u/mL | RESPIRATORY (INHALATION) | SCREENING | 2010-11-07T12:06:00 |", "score": 0.9368, "match_basis": "verbatim_token+domain_route:AG"}, {"md_atom_id": "md_dmAG_ex_a013", "md_file": "knowledge_base/domains/AG/examples.md", "md_atom_type": "TABLE_ROW", "md_parent_section": "§AG.1 [Example 1]", "md_verbatim": "| 1 | XYZ | AG | XYZ-001-001 | 1 | SALINE | Y | Y | 0 | SQ-u/mL | RESPIRATORY (INHALATION) | SCREENING | 2010-11-07T10:56:00 |", "score": 0.839, "match_basis": "verbatim_token+domain_route:AG"}, {"md_atom_id": "md_dmAG_ex_a032", "md_file": "knowledge_base/domains/AG/examples.md", "md_atom_type": "TABLE_ROW", "md_parent_section": "§AG.2 [Example 2]", "md_verbatim": "| 1 | XYZ | AG | XYZ-001-001 | 1 | RV1 | ALBUTEROL | Y | Y | 2 | PUFF | AEROSOL | ONCE | RESPIRATORY (INHALATION) | VISIT 2 | 2013-06-18T10:05 |", "score": 0.6034, "match_basis": "verbatim_token+domain_route:AG"}], "candidate_count": 5, "zero_candidate": false}
{"pdf_atom_id": "ig34_p0096_a006", "pdf_atom_type": "TABLE_ROW", "pdf_source": "SDTMIG_v3.4", "pdf_page": 96, "pdf_parent_section": "§6.1.1 [Procedure Agents (AG)]", "pdf_verbatim": "4 | XYZ | AG | XYZ-001-001 | 4 | GRASS | Y | Y | 2000 | SQ-u/mL | RESPIRATORY (INHALATION) | SCREENING | 2010-11-07T12:06:00", "figure_ref": null, "candidates": [{"md_atom_id": "md_dmAG_ex_a016", "md_file": "knowledge_base/domains/AG/examples.md", "md_atom_type": "TABLE_ROW", "md_parent_section": "§AG.1 [Example 1]", "md_verbatim": "| 4 | XYZ | AG | XYZ-001-001 | 4 | GRASS | Y | Y | 2000 | SQ-u/mL | RESPIRATORY (INHALATION) | SCREENING | 2010-11-07T12:06:00 |", "score": 1.0, "match_basis": "verbatim_token+domain_route:AG"}, {"md_atom_id": "md_dmAG_ex_a015", "md_file": "knowledge_base/domains/AG/examples.md", "md_atom_type": "TABLE_ROW", "md_parent_section": "§AG.1 [Example 1]", "md_verbatim": "| 3 | XYZ | AG | XYZ-001-001 | 3 | GRASS | Y | Y | 1000 | SQ-u/mL | RESPIRATORY (INHALATION) | SCREENING | 2010-11-07T11:43:00 |", "score": 0.9368, "match_basis": "verbatim_token+domain_route:AG"}, {"md_atom_id": "md_dmAG_ex_a014", "md_file": "knowledge_base/domains/AG/examples.md", "md_atom_type": "TABLE_ROW", "md_parent_section": "§AG.1 [Example 1]", "md_verbatim": "| 2 | XYZ | AG | XYZ-001-001 | 2 | GRASS | Y | Y | 250 | SQ-u/mL | RESPIRATORY (INHALATION) | SCREENING | 2010-11-07T11:19:00 |", "score": 0.9211, "match_basis": "verbatim_token+domain_route:AG"}, {"md_atom_id": "md_dmAG_ex_a013", "md_file": "knowledge_base/domains/AG/examples.md", "md_atom_type": "TABLE_ROW", "md_parent_section": "§AG.1 [Example 1]", "md_verbatim": "| 1 | XYZ | AG | XYZ-001-001 | 1 | SALINE | Y | Y | 0 | SQ-u/mL | RESPIRATORY (INHALATION) | SCREENING | 2010-11-07T10:56:00 |", "score": 0.839, "match_basis": "verbatim_token+domain_route:AG"}, {"md_atom_id": "md_dmAG_ex_a032", "md_file": "knowledge_base/domains/AG/examples.md", "md_atom_type": "TABLE_ROW", "md_parent_section": "§AG.2 [Example 2]", "md_verbatim": "| 1 | XYZ | AG | XYZ-001-001 | 1 | RV1 | ALBUTEROL | Y | Y | 2 | PUFF | AEROSOL | ONCE | RESPIRATORY (INHALATION) | VISIT 2 | 2013-06-18T10:05 |", "score": 0.6034, "match_basis": "verbatim_token+domain_route:AG"}], "candidate_count": 5, "zero_candidate": false}
{"pdf_atom_id": "ig34_p0096_a007", "pdf_atom_type": "HEADING", "pdf_source": "SDTMIG_v3.4", "pdf_page": 96, "pdf_parent_section": "§6.1.1 [Procedure Agents (AG)]", "pdf_verbatim": "Example 2", "figure_ref": null, "candidates": [{"md_atom_id": "md_dmAG_ex_a002", "md_file": "knowledge_base/domains/AG/examples.md", "md_atom_type": "HEADING", "md_parent_section": "§AG.1 [Example 1]", "md_verbatim": "## Example 1", "score": 1.0, "match_basis": "verbatim_token+domain_route:AG"}, {"md_atom_id": "md_dmAG_ex_a017", "md_file": "knowledge_base/domains/AG/examples.md", "md_atom_type": "HEADING", "md_parent_section": "§AG.2 [Example 2]", "md_verbatim": "## Example 2", "score": 1.0, "match_basis": "verbatim_token+domain_route:AG"}, {"md_atom_id": "md_dmAG_ex_a001", "md_file": "knowledge_base/domains/AG/examples.md", "md_atom_type": "HEADING", "md_parent_section": "§AG [AG — Examples]", "md_verbatim": "# AG — Examples", "score": 0.9, "match_basis": "verbatim_token+domain_route:AG"}, {"md_atom_id": "md_dmAG_assn_a001", "md_file": "knowledge_base/domains/AG/assumptions.md", "md_atom_type": "HEADING", "md_parent_section": "§AG [AG — Assumptions]", "md_verbatim": "# AG — Assumptions", "score": 0.4, "match_basis": "verbatim_token+domain_route:AG"}], "candidate_count": 4, "zero_candidate": false}
{"pdf_atom_id": "ig34_p0096_a008", "pdf_atom_type": "SENTENCE", "pdf_source": "SDTMIG_v3.4", "pdf_page": 96, "pdf_parent_section": "§6.1.1 [Procedure Agents (AG)]", "pdf_verbatim": "In this example, first there was a check that the subject had not taken a short-acting bronchodilator in the previous 4 hours (Concomitant/Prior Medications (CM) domain). Then the procedure agent (AG domain) was given as part of a reversibility assessment. Spirometry measurements (RE domain) were obtained before and after agent administration. An identifier was assigned to the reversibility test and this identifier was used to be link data across the multiple SDTM domains in which the data are represented.", "figure_ref": null, "candidates": [{"md_atom_id": "md_dmAG_ex_a018", "md_file": "knowledge_base/domains/AG/examples.md", "md_atom_type": "SENTENCE", "md_parent_section": "§AG.2 [Example 2]", "md_verbatim": "In this example, first there was a check that the subject had not taken a short-acting bronchodilator in the previous 4 hours (Concomitant/Prior Medications (CM) domain).", "score": 0.6505, "match_basis": "verbatim_token+domain_route:AG"}, {"md_atom_id": "md_dmAG_ex_a022", "md_file": "knowledge_base/domains/AG/examples.md", "md_atom_type": "SENTENCE", "md_parent_section": "§AG.2 [Example 2]", "md_verbatim": "The question as to whether a short-acting bronchodilator was administered in the 4 hours prior to the reversibility assessment is represented in the CM domain because this prior administration would have been for therapeutic effect, not as part of the procedure.", "score": 0.6395, "match_basis": "verbatim_token+domain_route:AG"}, {"md_atom_id": "md_dmAG_ex_a021", "md_file": "knowledge_base/domains/AG/examples.md", "md_atom_type": "SENTENCE", "md_parent_section": "§AG.2 [Example 2]", "md_verbatim": "An identifier was assigned to the reversibility test and this identifier was used to be link data across the multiple SDTM domains in which the data are represented.", "score": 0.6072, "match_basis": "verbatim_token+domain_route:AG"}, {"md_atom_id": "md_dmAG_ex_a049", "md_file": "knowledge_base/domains/AG/examples.md", "md_atom_type": "SENTENCE", "md_parent_section": "§AG.2 [Example 2]", "md_verbatim": "The relationship of the test agent to the spirometry measurements obtained before and after its administration and to the prior occurrence of short acting bronchodilator administration is recorded by means of a relationship in RELREC.", "score": 0.5982, "match_basis": "verbatim_token+domain_route:AG"}, {"md_atom_id": "md_dmAG_ex_a020", "md_file": "knowledge_base/domains/AG/examples.md", "md_atom_type": "SENTENCE", "md_parent_section": "§AG.2 [Example 2]", "md_verbatim": "Spirometry measurements (RE domain) were obtained before and after agent administration.", "score": 0.5577, "match_basis": "verbatim_token+domain_route:AG"}], "candidate_count": 5, "zero_candidate": false}
{"pdf_atom_id": "ig34_p0096_a009", "pdf_atom_type": "SENTENCE", "pdf_source": "SDTMIG_v3.4", "pdf_page": 96, "pdf_parent_section": "§6.1.1 [Procedure Agents (AG)]", "pdf_verbatim": "The question as to whether a short-acting bronchodilator was administered in the 4 hours prior to the reversibility assessment is represented in the CM domain because this prior administration would have been for therapeutic effect, not as part of the procedure. The question asked was about the administration of any short-acting bronchodilator, rather than a specific medication, so both CMTRT and CMCAT are populated with \"SHORT-ACTING BRONCHODILATOR\", which describes a group of medications. The CMSPID value RV1 was used to indicate that this question was associated with the reversibility test.", "figure_ref": null, "candidates": [{"md_atom_id": "md_dmAG_ex_a022", "md_file": "knowledge_base/domains/AG/examples.md", "md_atom_type": "SENTENCE", "md_parent_section": "§AG.2 [Example 2]", "md_verbatim": "The question as to whether a short-acting bronchodilator was administered in the 4 hours prior to the reversibility assessment is represented in the CM domain because this prior administration would have been for therapeutic effect, not as part of the procedure.", "score": 0.7786, "match_basis": "verbatim_token+domain_route:AG"}, {"md_atom_id": "md_dmAG_ex_a023", "md_file": "knowledge_base/domains/AG/examples.md", "md_atom_type": "SENTENCE", "md_parent_section": "§AG.2 [Example 2]", "md_verbatim": "The question asked was about the administration of any short-acting bronchodilator, rather than a specific medication, so both CMTRT and CMCAT are populated with \"SHORT-ACTING BRONCHODILATOR\", which describes a group of medications.", "score": 0.6888, "match_basis": "verbatim_token+domain_route:AG"}, {"md_atom_id": "md_dmAG_ex_a029", "md_file": "knowledge_base/domains/AG/examples.md", "md_atom_type": "SENTENCE", "md_parent_section": "§AG.2 [Example 2]", "md_verbatim": "The AGSPID value RV1 was used to indicate that this administration was associated with the reversibility test.", "score": 0.5714, "match_basis": "verbatim_token+domain_route:AG"}, {"md_atom_id": "md_dmAG_ex_a024", "md_file": "knowledge_base/domains/AG/examples.md", "md_atom_type": "SENTENCE", "md_parent_section": "§AG.2 [Example 2]", "md_verbatim": "The CMSPID value RV1 was used to indicate that this question was associated with the reversibility test.", "score": 0.5572, "match_basis": "verbatim_token+domain_route:AG"}, {"md_atom_id": "md_dmAG_ex_a028", "md_file": "knowledge_base/domains/AG/examples.md", "md_atom_type": "SENTENCE", "md_parent_section": "§AG.2 [Example 2]", "md_verbatim": "The administration of albuterol as part of the reversibility procedure is represented in the AG domain.", "score": 0.5461, "match_basis": "verbatim_token+domain_route:AG"}], "candidate_count": 5, "zero_candidate": false}
{"pdf_atom_id": "ig34_p0096_a010", "pdf_atom_type": "CODE_LITERAL", "pdf_source": "SDTMIG_v3.4", "pdf_page": 96, "pdf_parent_section": "§6.1.1 [Procedure Agents (AG)]", "pdf_verbatim": "cm.xpt", "figure_ref": null, "candidates": [{"md_atom_id": "md_dmAG_ex_a011", "md_file": "knowledge_base/domains/AG/examples.md", "md_atom_type": "SENTENCE", "md_parent_section": "§AG.1 [Example 1]", "md_verbatim": "**ag.xpt**", "score": 0.79, "match_basis": "verbatim_token+domain_route:AG"}, {"md_atom_id": "md_dmAG_ex_a025", "md_file": "knowledge_base/domains/AG/examples.md", "md_atom_type": "SENTENCE", "md_parent_section": "§AG.2 [Example 2]", "md_verbatim": "**cm.xpt**", "score": 0.79, "match_basis": "verbatim_token+domain_route:AG"}, {"md_atom_id": "md_dmAG_ex_a030", "md_file": "knowledge_base/domains/AG/examples.md", "md_atom_type": "SENTENCE", "md_parent_section": "§AG.2 [Example 2]", "md_verbatim": "**ag.xpt**", "score": 0.79, "match_basis": "verbatim_token+domain_route:AG"}, {"md_atom_id": "md_dmAG_ex_a040", "md_file": "knowledge_base/domains/AG/examples.md", "md_atom_type": "SENTENCE", "md_parent_section": "§AG.2 [Example 2]", "md_verbatim": "**re.xpt**", "score": 0.79, "match_basis": "verbatim_token+domain_route:AG"}, {"md_atom_id": "md_dmAG_ex_a046", "md_file": "knowledge_base/domains/AG/examples.md", "md_atom_type": "SENTENCE", "md_parent_section": "§AG.2 [Example 2]", "md_verbatim": "**di.xpt**", "score": 0.79, "match_basis": "verbatim_token+domain_route:AG"}, {"md_atom_id": "md_dmAG_ex_a050", "md_file": "knowledge_base/domains/AG/examples.md", "md_atom_type": "SENTENCE", "md_parent_section": "§AG.2 [Example 2]", "md_verbatim": "**relrec.xpt**", "score": 0.31, "match_basis": "verbatim_token+domain_route:AG"}, {"md_atom_id": "md_dmAG_assn_a001", "md_file": "knowledge_base/domains/AG/assumptions.md", "md_atom_type": "HEADING", "md_parent_section": "§AG [AG — Assumptions]", "md_verbatim": "# AG — Assumptions", "score": 0.19, "match_basis": "verbatim_token+domain_route:AG"}, {"md_atom_id": "md_dmAG_assn_a002", "md_file": "knowledge_base/domains/AG/assumptions.md", "md_atom_type": "LIST_ITEM", "md_parent_section": "§AG [AG — Assumptions]", "md_verbatim": "1. Purpose of the domain: Some tests involve administration of substances, and it has been unclear in which domain these should be represented.", "score": 0.19, "match_basis": "verbatim_token+domain_route:AG"}, {"md_atom_id": "md_dmAG_assn_a003", "md_file": "knowledge_base/domains/AG/assumptions.md", "md_atom_type": "LIST_ITEM", "md_parent_section": "§AG [AG — Assumptions]", "md_verbatim": "   a. The Concomitant/Prior Medications (CM) domain seemed particularly inappropriate when the substance was one that would never be given as a medication. Even substances that are medications are not being used as such when they are given as part of a testing procedure.", "score": 0.19, "match_basis": "verbatim_token+domain_route:AG"}, {"md_atom_id": "md_dmAG_assn_a004", "md_file": "knowledge_base/domains/AG/assumptions.md", "md_atom_type": "LIST_ITEM", "md_parent_section": "§AG [AG — Assumptions]", "md_verbatim": "   b. The Exposure (EX) domain also seemed inappropriate; although the testing procedure might be part of the study plan, these data would not be used or analyzed in the same way as data about study treatments. The AG domain was created to fill this gap.", "score": 0.19, "match_basis": "verbatim_token+domain_route:AG"}], "candidate_count": 10, "zero_candidate": false}
{"pdf_atom_id": "ig34_p0096_a011", "pdf_atom_type": "TABLE_HEADER", "pdf_source": "SDTMIG_v3.4", "pdf_page": 96, "pdf_parent_section": "§6.1.1 [Procedure Agents (AG)]", "pdf_verbatim": "Row | STUDYID | DOMAIN | USUBJID | CMSEQ | CMSPID | CMTRT | CMCAT | CMPRESP | CMOCCUR | CMEVLINT", "figure_ref": null, "candidates": [{"md_atom_id": "md_dmAG_ex_a026", "md_file": "knowledge_base/domains/AG/examples.md", "md_atom_type": "TABLE_HEADER", "md_parent_section": "§AG.2 [Example 2]", "md_verbatim": "| Row | STUDYID | DOMAIN | USUBJID | CMSEQ | CMSPID | CMTRT | CMCAT | CMPRESP | CMOCCUR | CMEVLINT |\n|-----|---------|--------|---------|-------|--------|-------|-------|---------|---------|----------|", "score": 1.0, "match_basis": "verbatim_token+domain_route:AG"}, {"md_atom_id": "md_dmAG_ex_a031", "md_file": "knowledge_base/domains/AG/examples.md", "md_atom_type": "TABLE_HEADER", "md_parent_section": "§AG.2 [Example 2]", "md_verbatim": "| Row | STUDYID | DOMAIN | USUBJID | AGSEQ | AGSPID | AGTRT | AGPRESP | AGOCCUR | AGDOSE | AGDOSU | AGDOSFRM | AGDOSFRQ | AGROUTE | VISIT | AGSTDTC |\n|-----|---------|--------|---------|-------|--------|-------|---------|---------|--------|--------|----------|----------|---------|-------|---------|", "score": 0.6055, "match_basis": "verbatim_token+domain_route:AG"}, {"md_atom_id": "md_dmAG_ex_a012", "md_file": "knowledge_base/domains/AG/examples.md", "md_atom_type": "TABLE_HEADER", "md_parent_section": "§AG.1 [Example 1]", "md_verbatim": "| Row | STUDYID | DOMAIN | USUBJID | AGSEQ | AGTRT | AGPRESP | AGOCCUR | AGDOSE | AGDOSU | AGROUTE | VISIT | AGENDTC |\n|-----|---------|--------|---------|-------|-------|---------|---------|--------|--------|---------|-------|---------|", "score": 0.6, "match_basis": "verbatim_token+domain_route:AG"}, {"md_atom_id": "md_dmAG_ex_a051", "md_file": "knowledge_base/domains/AG/examples.md", "md_atom_type": "TABLE_HEADER", "md_parent_section": "§AG.2 [Example 2]", "md_verbatim": "| Row | STUDYID | RDOMAIN | USUBJID | IDVAR | IDVARVAL | RELTYPE | RELID |\n|-----|---------|---------|---------|-------|----------|---------|-------|", "score": 0.5579, "match_basis": "verbatim_token+domain_route:AG"}, {"md_atom_id": "md_dmAG_ex_a041", "md_file": "knowledge_base/domains/AG/examples.md", "md_atom_type": "TABLE_HEADER", "md_parent_section": "§AG.2 [Example 2]", "md_verbatim": "| Row | STUDYID | DOMAIN | USUBJID | SPDEVID | RESEQ | REGRPID | RETESTCD | RETEST | REORRES | REORRESU | RESTRESC | RESTRESN | RESTRESU | VISIT | REDTC | RETPT | RETPTNUM | REELTM | RETPTREF | RERFTDTC |\n|-----|---------|--------|---------|---------|-------|---------|----------|--------|---------|----------|----------|----------|----------|-------|-------|-------|----------|--------|----------|----------|", "score": 0.52, "match_basis": "verbatim_token+domain_route:AG"}], "candidate_count": 5, "zero_candidate": false}
{"pdf_atom_id": "ig34_p0096_a012", "pdf_atom_type": "TABLE_ROW", "pdf_source": "SDTMIG_v3.4", "pdf_page": 96, "pdf_parent_section": "§6.1.1 [Procedure Agents (AG)]", "pdf_verbatim": "1 | XYZ | CM | XYZ-001-001 | 1 | RV1 | SHORT-ACTING BRONCHODILATOR | SHORT-ACTING BRONCHODILATOR | Y | N | -PT4H", "figure_ref": null, "candidates": [{"md_atom_id": "md_dmAG_ex_a027", "md_file": "knowledge_base/domains/AG/examples.md", "md_atom_type": "TABLE_ROW", "md_parent_section": "§AG.2 [Example 2]", "md_verbatim": "| 1 | XYZ | CM | XYZ-001-001 | 1 | RV1 | SHORT-ACTING BRONCHODILATOR | SHORT-ACTING BRONCHODILATOR | Y | N | -PT4H |", "score": 1.0, "match_basis": "verbatim_token+domain_route:AG"}, {"md_atom_id": "md_dmAG_ex_a042", "md_file": "knowledge_base/domains/AG/examples.md", "md_atom_type": "TABLE_ROW", "md_parent_section": "§AG.2 [Example 2]", "md_verbatim": "| 1 | XYZ | RE | XYZ-001-001 | ABC001 | 1 | RV1 | FEV1 | Forced Expiratory Volume in 1 Second | 2.43 | L | 2.43 | 2.43 | L | VISIT 2 | 2013-06-18T10:00 | PRE-BRONCHODILATOR ADMINISTRATION | 1 | -PT5M | BRONCHODILATOR ADMINISTRATION | 2013-06-18T10:05 |", "score": 0.5304, "match_basis": "verbatim_token+domain_route:AG"}, {"md_atom_id": "md_dmAG_ex_a044", "md_file": "knowledge_base/domains/AG/examples.md", "md_atom_type": "TABLE_ROW", "md_parent_section": "§AG.2 [Example 2]", "md_verbatim": "| 3 | XYZ | RE | XYZ-001-001 | ABC001 | 3 | RV1 | PTCREV | Percentage Reversibility | 13.99 | % | 13.99 | 13.99 | % | VISIT 2 | 2013-06-18T10:00 | | | | BRONCHODILATOR ADMINISTRATION | 2013-06-18T10:05 |", "score": 0.5304, "match_basis": "verbatim_token+domain_route:AG"}, {"md_atom_id": "md_dmAG_ex_a043", "md_file": "knowledge_base/domains/AG/examples.md", "md_atom_type": "TABLE_ROW", "md_parent_section": "§AG.2 [Example 2]", "md_verbatim": "| 2 | XYZ | RE | XYZ-001-001 | ABC001 | 2 | RV1 | FEV1 | Forced Expiratory Volume in 1 Second | 2.77 | L | 2.77 | 2.77 | L | VISIT 2 | 2013-06-18T10:00 | POST-BRONCHODILATOR ADMINISTRATION | 2 | PT20M | BRONCHODILATOR ADMINISTRATION | 2013-06-18T10:05 |", "score": 0.5268, "match_basis": "verbatim_token+domain_route:AG"}, {"md_atom_id": "md_dmAG_ex_a032", "md_file": "knowledge_base/domains/AG/examples.md", "md_atom_type": "TABLE_ROW", "md_parent_section": "§AG.2 [Example 2]", "md_verbatim": "| 1 | XYZ | AG | XYZ-001-001 | 1 | RV1 | ALBUTEROL | Y | Y | 2 | PUFF | AEROSOL | ONCE | RESPIRATORY (INHALATION) | VISIT 2 | 2013-06-18T10:05 |", "score": 0.47, "match_basis": "verbatim_token+domain_route:AG"}], "candidate_count": 5, "zero_candidate": false}
{"pdf_atom_id": "ig34_p0096_a013", "pdf_atom_type": "SENTENCE", "pdf_source": "SDTMIG_v3.4", "pdf_page": 96, "pdf_parent_section": "§6.1.1 [Procedure Agents (AG)]", "pdf_verbatim": "The administration of albuterol as part of the reversibility procedure is represented in the AG domain. The AGSPID value RV1 was used to indicate that this administration was associated with the reversibility test.", "figure_ref": null, "candidates": [{"md_atom_id": "md_dmAG_ex_a029", "md_file": "knowledge_base/domains/AG/examples.md", "md_atom_type": "SENTENCE", "md_parent_section": "§AG.2 [Example 2]", "md_verbatim": "The AGSPID value RV1 was used to indicate that this administration was associated with the reversibility test.", "score": 0.8, "match_basis": "verbatim_token+domain_route:AG"}, {"md_atom_id": "md_dmAG_ex_a028", "md_file": "knowledge_base/domains/AG/examples.md", "md_atom_type": "SENTENCE", "md_parent_section": "§AG.2 [Example 2]", "md_verbatim": "The administration of albuterol as part of the reversibility procedure is represented in the AG domain.", "score": 0.7786, "match_basis": "verbatim_token+domain_route:AG"}, {"md_atom_id": "md_dmAG_ex_a024", "md_file": "knowledge_base/domains/AG/examples.md", "md_atom_type": "SENTENCE", "md_parent_section": "§AG.2 [Example 2]", "md_verbatim": "The CMSPID value RV1 was used to indicate that this question was associated with the reversibility test.", "score": 0.6966, "match_basis": "verbatim_token+domain_route:AG"}, {"md_atom_id": "md_dmAG_ex_a022", "md_file": "knowledge_base/domains/AG/examples.md", "md_atom_type": "SENTENCE", "md_parent_section": "§AG.2 [Example 2]", "md_verbatim": "The question as to whether a short-acting bronchodilator was administered in the 4 hours prior to the reversibility assessment is represented in the CM domain because this prior administration would have been for therapeutic effect, not as part of the procedure.", "score": 0.6134, "match_basis": "verbatim_token+domain_route:AG"}, {"md_atom_id": "md_dmAG_ex_a033", "md_file": "knowledge_base/domains/AG/examples.md", "md_atom_type": "SENTENCE", "md_parent_section": "§AG.2 [Example 2]", "md_verbatim": "The sponsor populated REGRPID with RV1 to indicate that these pulmonary function tests were associated with the reversibility test.", "score": 0.5929, "match_basis": "verbatim_token+domain_route:AG"}], "candidate_count": 5, "zero_candidate": false}
{"pdf_atom_id": "ig34_p0096_a014", "pdf_atom_type": "CODE_LITERAL", "pdf_source": "SDTMIG_v3.4", "pdf_page": 96, "pdf_parent_section": "§6.1.1 [Procedure Agents (AG)]", "pdf_verbatim": "ag.xpt", "figure_ref": null, "candidates": [{"md_atom_id": "md_dmAG_ex_a011", "md_file": "knowledge_base/domains/AG/examples.md", "md_atom_type": "SENTENCE", "md_parent_section": "§AG.1 [Example 1]", "md_verbatim": "**ag.xpt**", "score": 0.79, "match_basis": "verbatim_token+domain_route:AG"}, {"md_atom_id": "md_dmAG_ex_a025", "md_file": "knowledge_base/domains/AG/examples.md", "md_atom_type": "SENTENCE", "md_parent_section": "§AG.2 [Example 2]", "md_verbatim": "**cm.xpt**", "score": 0.79, "match_basis": "verbatim_token+domain_route:AG"}, {"md_atom_id": "md_dmAG_ex_a030", "md_file": "knowledge_base/domains/AG/examples.md", "md_atom_type": "SENTENCE", "md_parent_section": "§AG.2 [Example 2]", "md_verbatim": "**ag.xpt**", "score": 0.79, "match_basis": "verbatim_token+domain_route:AG"}, {"md_atom_id": "md_dmAG_ex_a040", "md_file": "knowledge_base/domains/AG/examples.md", "md_atom_type": "SENTENCE", "md_parent_section": "§AG.2 [Example 2]", "md_verbatim": "**re.xpt**", "score": 0.79, "match_basis": "verbatim_token+domain_route:AG"}, {"md_atom_id": "md_dmAG_ex_a046", "md_file": "knowledge_base/domains/AG/examples.md", "md_atom_type": "SENTENCE", "md_parent_section": "§AG.2 [Example 2]", "md_verbatim": "**di.xpt**", "score": 0.79, "match_basis": "verbatim_token+domain_route:AG"}, {"md_atom_id": "md_dmAG_ex_a050", "md_file": "knowledge_base/domains/AG/examples.md", "md_atom_type": "SENTENCE", "md_parent_section": "§AG.2 [Example 2]", "md_verbatim": "**relrec.xpt**", "score": 0.31, "match_basis": "verbatim_token+domain_route:AG"}, {"md_atom_id": "md_dmAG_assn_a001", "md_file": "knowledge_base/domains/AG/assumptions.md", "md_atom_type": "HEADING", "md_parent_section": "§AG [AG — Assumptions]", "md_verbatim": "# AG — Assumptions", "score": 0.19, "match_basis": "verbatim_token+domain_route:AG"}, {"md_atom_id": "md_dmAG_assn_a002", "md_file": "knowledge_base/domains/AG/assumptions.md", "md_atom_type": "LIST_ITEM", "md_parent_section": "§AG [AG — Assumptions]", "md_verbatim": "1. Purpose of the domain: Some tests involve administration of substances, and it has been unclear in which domain these should be represented.", "score": 0.19, "match_basis": "verbatim_token+domain_route:AG"}, {"md_atom_id": "md_dmAG_assn_a003", "md_file": "knowledge_base/domains/AG/assumptions.md", "md_atom_type": "LIST_ITEM", "md_parent_section": "§AG [AG — Assumptions]", "md_verbatim": "   a. The Concomitant/Prior Medications (CM) domain seemed particularly inappropriate when the substance was one that would never be given as a medication. Even substances that are medications are not being used as such when they are given as part of a testing procedure.", "score": 0.19, "match_basis": "verbatim_token+domain_route:AG"}, {"md_atom_id": "md_dmAG_assn_a004", "md_file": "knowledge_base/domains/AG/assumptions.md", "md_atom_type": "LIST_ITEM", "md_parent_section": "§AG [AG — Assumptions]", "md_verbatim": "   b. The Exposure (EX) domain also seemed inappropriate; although the testing procedure might be part of the study plan, these data would not be used or analyzed in the same way as data about study treatments. The AG domain was created to fill this gap.", "score": 0.19, "match_basis": "verbatim_token+domain_route:AG"}], "candidate_count": 10, "zero_candidate": false}
{"pdf_atom_id": "ig34_p0096_a015", "pdf_atom_type": "TABLE_HEADER", "pdf_source": "SDTMIG_v3.4", "pdf_page": 96, "pdf_parent_section": "§6.1.1 [Procedure Agents (AG)]", "pdf_verbatim": "Row | STUDYID | DOMAIN | USUBJID | AGSEQ | AGSPID | AGTRT | AGPRESP | AGOCCUR | AGDOSE | AGDOSU | AGDOSFRM | AGDOSFRQ | AGROUTE | VISIT | AGSTDTC", "figure_ref": null, "candidates": [{"md_atom_id": "md_dmAG_ex_a031", "md_file": "knowledge_base/domains/AG/examples.md", "md_atom_type": "TABLE_HEADER", "md_parent_section": "§AG.2 [Example 2]", "md_verbatim": "| Row | STUDYID | DOMAIN | USUBJID | AGSEQ | AGSPID | AGTRT | AGPRESP | AGOCCUR | AGDOSE | AGDOSU | AGDOSFRM | AGDOSFRQ | AGROUTE | VISIT | AGSTDTC |\n|-----|---------|--------|---------|-------|--------|-------|---------|---------|--------|--------|----------|----------|---------|-------|---------|", "score": 1.0, "match_basis": "verbatim_token+domain_route:AG"}, {"md_atom_id": "md_dmAG_ex_a012", "md_file": "knowledge_base/domains/AG/examples.md", "md_atom_type": "TABLE_HEADER", "md_parent_section": "§AG.1 [Example 1]", "md_verbatim": "| Row | STUDYID | DOMAIN | USUBJID | AGSEQ | AGTRT | AGPRESP | AGOCCUR | AGDOSE | AGDOSU | AGROUTE | VISIT | AGENDTC |\n|-----|---------|--------|---------|-------|-------|---------|---------|--------|--------|---------|-------|---------|", "score": 0.8576, "match_basis": "verbatim_token+domain_route:AG"}, {"md_atom_id": "md_dmAG_ex_a026", "md_file": "knowledge_base/domains/AG/examples.md", "md_atom_type": "TABLE_HEADER", "md_parent_section": "§AG.2 [Example 2]", "md_verbatim": "| Row | STUDYID | DOMAIN | USUBJID | CMSEQ | CMSPID | CMTRT | CMCAT | CMPRESP | CMOCCUR | CMEVLINT |\n|-----|---------|--------|---------|-------|--------|-------|-------|---------|---------|----------|", "score": 0.6055, "match_basis": "verbatim_token+domain_route:AG"}, {"md_atom_id": "md_dmAG_ex_a041", "md_file": "knowledge_base/domains/AG/examples.md", "md_atom_type": "TABLE_HEADER", "md_parent_section": "§AG.2 [Example 2]", "md_verbatim": "| Row | STUDYID | DOMAIN | USUBJID | SPDEVID | RESEQ | REGRPID | RETESTCD | RETEST | REORRES | REORRESU | RESTRESC | RESTRESN | RESTRESU | VISIT | REDTC | RETPT | RETPTNUM | REELTM | RETPTREF | RERFTDTC |\n|-----|---------|--------|---------|---------|-------|---------|----------|--------|---------|----------|----------|----------|----------|-------|-------|-------|----------|--------|----------|----------|", "score": 0.5423, "match_basis": "verbatim_token+domain_route:AG"}, {"md_atom_id": "md_dmAG_ex_a051", "md_file": "knowledge_base/domains/AG/examples.md", "md_atom_type": "TABLE_HEADER", "md_parent_section": "§AG.2 [Example 2]", "md_verbatim": "| Row | STUDYID | RDOMAIN | USUBJID | IDVAR | IDVARVAL | RELTYPE | RELID |\n|-----|---------|---------|---------|-------|----------|---------|-------|", "score": 0.5304, "match_basis": "verbatim_token+domain_route:AG"}], "candidate_count": 5, "zero_candidate": false}
{"pdf_atom_id": "ig34_p0096_a016", "pdf_atom_type": "TABLE_ROW", "pdf_source": "SDTMIG_v3.4", "pdf_page": 96, "pdf_parent_section": "§6.1.1 [Procedure Agents (AG)]", "pdf_verbatim": "1 | XYZ | AG | XYZ-001-001 | 1 | RV1 | ALBUTEROL | Y | Y | 2 | PUFF | AEROSOL | ONCE | RESPIRATORY (INHALATION) | VISIT 2 | 2013-06-18T10:05", "figure_ref": null, "candidates": [{"md_atom_id": "md_dmAG_ex_a032", "md_file": "knowledge_base/domains/AG/examples.md", "md_atom_type": "TABLE_ROW", "md_parent_section": "§AG.2 [Example 2]", "md_verbatim": "| 1 | XYZ | AG | XYZ-001-001 | 1 | RV1 | ALBUTEROL | Y | Y | 2 | PUFF | AEROSOL | ONCE | RESPIRATORY (INHALATION) | VISIT 2 | 2013-06-18T10:05 |", "score": 1.0, "match_basis": "verbatim_token+domain_route:AG"}, {"md_atom_id": "md_dmAG_ex_a013", "md_file": "knowledge_base/domains/AG/examples.md", "md_atom_type": "TABLE_ROW", "md_parent_section": "§AG.1 [Example 1]", "md_verbatim": "| 1 | XYZ | AG | XYZ-001-001 | 1 | SALINE | Y | Y | 0 | SQ-u/mL | RESPIRATORY (INHALATION) | SCREENING | 2010-11-07T10:56:00 |", "score": 0.6211, "match_basis": "verbatim_token+domain_route:AG"}, {"md_atom_id": "md_dmAG_ex_a014", "md_file": "knowledge_base/domains/AG/examples.md", "md_atom_type": "TABLE_ROW", "md_parent_section": "§AG.1 [Example 1]", "md_verbatim": "| 2 | XYZ | AG | XYZ-001-001 | 2 | GRASS | Y | Y | 250 | SQ-u/mL | RESPIRATORY (INHALATION) | SCREENING | 2010-11-07T11:19:00 |", "score": 0.6069, "match_basis": "verbatim_token+domain_route:AG"}, {"md_atom_id": "md_dmAG_ex_a015", "md_file": "knowledge_base/domains/AG/examples.md", "md_atom_type": "TABLE_ROW", "md_parent_section": "§AG.1 [Example 1]", "md_verbatim": "| 3 | XYZ | AG | XYZ-001-001 | 3 | GRASS | Y | Y | 1000 | SQ-u/mL | RESPIRATORY (INHALATION) | SCREENING | 2010-11-07T11:43:00 |", "score": 0.6034, "match_basis": "verbatim_token+domain_route:AG"}, {"md_atom_id": "md_dmAG_ex_a016", "md_file": "knowledge_base/domains/AG/examples.md", "md_atom_type": "TABLE_ROW", "md_parent_section": "§AG.1 [Example 1]", "md_verbatim": "| 4 | XYZ | AG | XYZ-001-001 | 4 | GRASS | Y | Y | 2000 | SQ-u/mL | RESPIRATORY (INHALATION) | SCREENING | 2010-11-07T12:06:00 |", "score": 0.6034, "match_basis": "verbatim_token+domain_route:AG"}], "candidate_count": 5, "zero_candidate": false}
{"pdf_atom_id": "ig34_p0096_a017", "pdf_atom_type": "SENTENCE", "pdf_source": "SDTMIG_v3.4", "pdf_page": 96, "pdf_parent_section": "§6.1.1 [Procedure Agents (AG)]", "pdf_verbatim": "The sponsor populated REGRPID with RV1 to indicate that these pulmonary function tests were associated with the reversibility test. The spirometer used in the testing is identified in SPDEVID. See the SDTMIG-MD (available at https://www.cdisc.org/standards/foundational/medical-devices-sdtmig/) for information about representing device-related information.", "figure_ref": null, "candidates": [{"md_atom_id": "md_dmAG_ex_a035", "md_file": "knowledge_base/domains/AG/examples.md", "md_atom_type": "SENTENCE", "md_parent_section": "§AG.2 [Example 2]", "md_verbatim": "See the SDTM-MD (available at https://www.cdisc.org/standards/foundational/medical-devices-sdtmig/) for information about representing device-related information.", "score": 0.6938, "match_basis": "verbatim_token+domain_route:AG"}, {"md_atom_id": "md_dmAG_ex_a033", "md_file": "knowledge_base/domains/AG/examples.md", "md_atom_type": "SENTENCE", "md_parent_section": "§AG.2 [Example 2]", "md_verbatim": "The sponsor populated REGRPID with RV1 to indicate that these pulmonary function tests were associated with the reversibility test.", "score": 0.6648, "match_basis": "verbatim_token+domain_route:AG"}, {"md_atom_id": "md_dmAG_ex_a024", "md_file": "knowledge_base/domains/AG/examples.md", "md_atom_type": "SENTENCE", "md_parent_section": "§AG.2 [Example 2]", "md_verbatim": "The CMSPID value RV1 was used to indicate that this question was associated with the reversibility test.", "score": 0.551, "match_basis": "verbatim_token+domain_route:AG"}, {"md_atom_id": "md_dmAG_ex_a029", "md_file": "knowledge_base/domains/AG/examples.md", "md_atom_type": "SENTENCE", "md_parent_section": "§AG.2 [Example 2]", "md_verbatim": "The AGSPID value RV1 was used to indicate that this administration was associated with the reversibility test.", "score": 0.5444, "match_basis": "verbatim_token+domain_route:AG"}, {"md_atom_id": "md_dmAG_ex_a034", "md_file": "knowledge_base/domains/AG/examples.md", "md_atom_type": "SENTENCE", "md_parent_section": "§AG.2 [Example 2]", "md_verbatim": "The spirometer used in the testing is identified in SPDEVID.", "score": 0.52, "match_basis": "verbatim_token+domain_route:AG"}], "candidate_count": 5, "zero_candidate": false}
{"pdf_atom_id": "ig34_p0096_a018", "pdf_atom_type": "LIST_ITEM", "pdf_source": "SDTMIG_v3.4", "pdf_page": 96, "pdf_parent_section": "§6.1.1 [Procedure Agents (AG)]", "pdf_verbatim": "Row 1:\tShows the results for the pre-bronchodilator FEV1 test performed as part of a reversibility assessment. The timing reference variables RETPT, RETPTNUM, REELTM, RETPTREF, and RERFTDTC show that this test was performed 5 minutes before the bronchodilator challenge.", "figure_ref": null, "candidates": [{"md_atom_id": "md_dmAG_ex_a037", "md_file": "knowledge_base/domains/AG/examples.md", "md_atom_type": "SENTENCE", "md_parent_section": "§AG.2 [Example 2]", "md_verbatim": "The timing reference variables RETPT, RETPTNUM, REELTM, RETPTREF, and RERFTDTC show that this test was performed 5 minutes before the bronchodilator challenge.", "score": 0.7394, "match_basis": "verbatim_token+domain_route:AG"}, {"md_atom_id": "md_dmAG_ex_a036", "md_file": "knowledge_base/domains/AG/examples.md", "md_atom_type": "SENTENCE", "md_parent_section": "§AG.2 [Example 2]", "md_verbatim": "**Row 1:** Shows the results for the pre-bronchodilator FEV1 test performed as part of a reversibility assessment.", "score": 0.6128, "match_basis": "verbatim_token+domain_route:AG"}, {"md_atom_id": "md_dmAG_ex_a038", "md_file": "knowledge_base/domains/AG/examples.md", "md_atom_type": "SENTENCE", "md_parent_section": "§AG.2 [Example 2]", "md_verbatim": "**Row 2:** Shows the results for FEV1 test performed 20 minutes after the bronchodilator challenge.", "score": 0.5457, "match_basis": "verbatim_token+domain_route:AG"}, {"md_atom_id": "md_dmAG_assn_a008", "md_file": "knowledge_base/domains/AG/assumptions.md", "md_atom_type": "LIST_ITEM", "md_parent_section": "§AG [AG — Assumptions]", "md_verbatim": "   a. Examples of agents administered as part of a procedure include a short-acting bronchodilator administered as part of a reversibility assessment and contrast agents or radio-labeled substances used in imaging studies.", "score": 0.5379, "match_basis": "verbatim_token+domain_route:AG"}, {"md_atom_id": "md_dmAG_assn_a009", "md_file": "knowledge_base/domains/AG/assumptions.md", "md_atom_type": "LIST_ITEM", "md_parent_section": "§AG [AG — Assumptions]", "md_verbatim": "   b. The structure of the AG domain is 1 record per agent intervention episode, or prespecified agent assessment per subject. It is the sponsor's responsibility to define an intervention episode. This definition may vary based on the sponsor's requirements for review and analysis.", "score": 0.4766, "match_basis": "verbatim_token+domain_route:AG"}], "candidate_count": 5, "zero_candidate": false}
{"pdf_atom_id": "ig34_p0096_a019", "pdf_atom_type": "LIST_ITEM", "pdf_source": "SDTMIG_v3.4", "pdf_page": 96, "pdf_parent_section": "§6.1.1 [Procedure Agents (AG)]", "pdf_verbatim": "Row 2:\tShows the results for FEV1 test performed 20 minutes after the bronchodilator challenge.", "figure_ref": null, "candidates": [{"md_atom_id": "md_dmAG_ex_a038", "md_file": "knowledge_base/domains/AG/examples.md", "md_atom_type": "SENTENCE", "md_parent_section": "§AG.2 [Example 2]", "md_verbatim": "**Row 2:** Shows the results for FEV1 test performed 20 minutes after the bronchodilator challenge.", "score": 0.91, "match_basis": "verbatim_token+domain_route:AG"}, {"md_atom_id": "md_dmAG_ex_a036", "md_file": "knowledge_base/domains/AG/examples.md", "md_atom_type": "SENTENCE", "md_parent_section": "§AG.2 [Example 2]", "md_verbatim": "**Row 1:** Shows the results for the pre-bronchodilator FEV1 test performed as part of a reversibility assessment.", "score": 0.597, "match_basis": "verbatim_token+domain_route:AG"}, {"md_atom_id": "md_dmAG_ex_a037", "md_file": "knowledge_base/domains/AG/examples.md", "md_atom_type": "SENTENCE", "md_parent_section": "§AG.2 [Example 2]", "md_verbatim": "The timing reference variables RETPT, RETPTNUM, REELTM, RETPTREF, and RERFTDTC show that this test was performed 5 minutes before the bronchodilator challenge.", "score": 0.5433, "match_basis": "verbatim_token+domain_route:AG"}, {"md_atom_id": "md_dmAG_assn_a008", "md_file": "knowledge_base/domains/AG/assumptions.md", "md_atom_type": "LIST_ITEM", "md_parent_section": "§AG [AG — Assumptions]", "md_verbatim": "   a. Examples of agents administered as part of a procedure include a short-acting bronchodilator administered as part of a reversibility assessment and contrast agents or radio-labeled substances used in imaging studies.", "score": 0.4657, "match_basis": "verbatim_token+domain_route:AG"}, {"md_atom_id": "md_dmAG_assn_a005", "md_file": "knowledge_base/domains/AG/assumptions.md", "md_atom_type": "LIST_ITEM", "md_parent_section": "§AG [AG — Assumptions]", "md_verbatim": "   c. The AG domain has advantages over the Procedures (PR) domain for this purpose. It allows recording of multiple substance administrations for a single testing procedure. It also separates data about substance administrations from data about procedures that do not involve substance administration.", "score": 0.4397, "match_basis": "verbatim_token+domain_route:AG"}], "candidate_count": 5, "zero_candidate": false}
{"pdf_atom_id": "ig34_p0096_a020", "pdf_atom_type": "LIST_ITEM", "pdf_source": "SDTMIG_v3.4", "pdf_page": 96, "pdf_parent_section": "§6.1.1 [Procedure Agents (AG)]", "pdf_verbatim": "Row 3:\tBecause the percentage reversibility was collected on the CRF, it is included in the SDTM dataset.", "figure_ref": null, "candidates": [{"md_atom_id": "md_dmAG_ex_a039", "md_file": "knowledge_base/domains/AG/examples.md", "md_atom_type": "SENTENCE", "md_parent_section": "§AG.2 [Example 2]", "md_verbatim": "**Row 3:** Because the percentage reversibility was collected on the CRF, it is included in the SDTM dataset.", "score": 0.91, "match_basis": "verbatim_token+domain_route:AG"}, {"md_atom_id": "md_dmAG_assn_a008", "md_file": "knowledge_base/domains/AG/assumptions.md", "md_atom_type": "LIST_ITEM", "md_parent_section": "§AG [AG — Assumptions]", "md_verbatim": "   a. Examples of agents administered as part of a procedure include a short-acting bronchodilator administered as part of a reversibility assessment and contrast agents or radio-labeled substances used in imaging studies.", "score": 0.4851, "match_basis": "verbatim_token+domain_route:AG"}, {"md_atom_id": "md_dmAG_assn_a017", "md_file": "knowledge_base/domains/AG/assumptions.md", "md_atom_type": "LIST_ITEM", "md_parent_section": "§AG [AG — Assumptions]", "md_verbatim": "   c. If an agent was not prespecified, the value of AGOCCUR should be null. AGPRESP and AGOCCUR are permissible fields and may be omitted from the dataset if all agents were collected as free text. Values of AGOCCUR may also be null for prespecified agents if no Y/N response was collected; in this case, AGSTAT = \"NOT DONE\", and AGREASND could be used to describe the reason the answer was missing.", "score": 0.4809, "match_basis": "verbatim_token+domain_route:AG"}, {"md_atom_id": "md_dmAG_assn_a006", "md_file": "knowledge_base/domains/AG/assumptions.md", "md_atom_type": "LIST_ITEM", "md_parent_section": "§AG [AG — Assumptions]", "md_verbatim": "   d. Information about the conduct of the procedure with which the procedure agent administration was associated, if collected, should be represented in the PR domain.", "score": 0.4606, "match_basis": "verbatim_token+domain_route:AG"}, {"md_atom_id": "md_dmAG_assn_a012", "md_file": "knowledge_base/domains/AG/assumptions.md", "md_atom_type": "LIST_ITEM", "md_parent_section": "§AG [AG — Assumptions]", "md_verbatim": "   b. AGMODIFY should be included if the sponsor's procedure permits modification of a verbatim term for coding.", "score": 0.46, "match_basis": "verbatim_token+domain_route:AG"}], "candidate_count": 5, "zero_candidate": false}
{"pdf_atom_id": "ig34_p0097_a001", "pdf_atom_type": "CODE_LITERAL", "pdf_source": "SDTMIG_v3.4", "pdf_page": 97, "pdf_parent_section": "§6.1.1 [Procedure Agents (AG)]", "pdf_verbatim": "re.xpt", "figure_ref": null, "candidates": [{"md_atom_id": "md_dmAG_ex_a011", "md_file": "knowledge_base/domains/AG/examples.md", "md_atom_type": "SENTENCE", "md_parent_section": "§AG.1 [Example 1]", "md_verbatim": "**ag.xpt**", "score": 0.79, "match_basis": "verbatim_token+domain_route:AG"}, {"md_atom_id": "md_dmAG_ex_a025", "md_file": "knowledge_base/domains/AG/examples.md", "md_atom_type": "SENTENCE", "md_parent_section": "§AG.2 [Example 2]", "md_verbatim": "**cm.xpt**", "score": 0.79, "match_basis": "verbatim_token+domain_route:AG"}, {"md_atom_id": "md_dmAG_ex_a030", "md_file": "knowledge_base/domains/AG/examples.md", "md_atom_type": "SENTENCE", "md_parent_section": "§AG.2 [Example 2]", "md_verbatim": "**ag.xpt**", "score": 0.79, "match_basis": "verbatim_token+domain_route:AG"}, {"md_atom_id": "md_dmAG_ex_a040", "md_file": "knowledge_base/domains/AG/examples.md", "md_atom_type": "SENTENCE", "md_parent_section": "§AG.2 [Example 2]", "md_verbatim": "**re.xpt**", "score": 0.79, "match_basis": "verbatim_token+domain_route:AG"}, {"md_atom_id": "md_dmAG_ex_a046", "md_file": "knowledge_base/domains/AG/examples.md", "md_atom_type": "SENTENCE", "md_parent_section": "§AG.2 [Example 2]", "md_verbatim": "**di.xpt**", "score": 0.79, "match_basis": "verbatim_token+domain_route:AG"}, {"md_atom_id": "md_dmAG_ex_a050", "md_file": "knowledge_base/domains/AG/examples.md", "md_atom_type": "SENTENCE", "md_parent_section": "§AG.2 [Example 2]", "md_verbatim": "**relrec.xpt**", "score": 0.31, "match_basis": "verbatim_token+domain_route:AG"}, {"md_atom_id": "md_dmAG_assn_a001", "md_file": "knowledge_base/domains/AG/assumptions.md", "md_atom_type": "HEADING", "md_parent_section": "§AG [AG — Assumptions]", "md_verbatim": "# AG — Assumptions", "score": 0.19, "match_basis": "verbatim_token+domain_route:AG"}, {"md_atom_id": "md_dmAG_assn_a002", "md_file": "knowledge_base/domains/AG/assumptions.md", "md_atom_type": "LIST_ITEM", "md_parent_section": "§AG [AG — Assumptions]", "md_verbatim": "1. Purpose of the domain: Some tests involve administration of substances, and it has been unclear in which domain these should be represented.", "score": 0.19, "match_basis": "verbatim_token+domain_route:AG"}, {"md_atom_id": "md_dmAG_assn_a003", "md_file": "knowledge_base/domains/AG/assumptions.md", "md_atom_type": "LIST_ITEM", "md_parent_section": "§AG [AG — Assumptions]", "md_verbatim": "   a. The Concomitant/Prior Medications (CM) domain seemed particularly inappropriate when the substance was one that would never be given as a medication. Even substances that are medications are not being used as such when they are given as part of a testing procedure.", "score": 0.19, "match_basis": "verbatim_token+domain_route:AG"}, {"md_atom_id": "md_dmAG_assn_a004", "md_file": "knowledge_base/domains/AG/assumptions.md", "md_atom_type": "LIST_ITEM", "md_parent_section": "§AG [AG — Assumptions]", "md_verbatim": "   b. The Exposure (EX) domain also seemed inappropriate; although the testing procedure might be part of the study plan, these data would not be used or analyzed in the same way as data about study treatments. The AG domain was created to fill this gap.", "score": 0.19, "match_basis": "verbatim_token+domain_route:AG"}], "candidate_count": 10, "zero_candidate": false}
{"pdf_atom_id": "ig34_p0097_a002", "pdf_atom_type": "TABLE_HEADER", "pdf_source": "SDTMIG_v3.4", "pdf_page": 97, "pdf_parent_section": "§6.1.1 [Procedure Agents (AG)]", "pdf_verbatim": "Row | STUDYID | DOMAIN | USUBJID | SPDEVID | RESEQ | REGRPID | RETESTCD | RETEST | REORRES | REORRESU | RESTRESC | RESTRESN | RESTRESU | VISIT | REDTC | RETPT | RETPTNUM | REELTM | RETPTREF | RERFTDTC", "figure_ref": null, "candidates": [{"md_atom_id": "md_dmAG_ex_a041", "md_file": "knowledge_base/domains/AG/examples.md", "md_atom_type": "TABLE_HEADER", "md_parent_section": "§AG.2 [Example 2]", "md_verbatim": "| Row | STUDYID | DOMAIN | USUBJID | SPDEVID | RESEQ | REGRPID | RETESTCD | RETEST | REORRES | REORRESU | RESTRESC | RESTRESN | RESTRESU | VISIT | REDTC | RETPT | RETPTNUM | REELTM | RETPTREF | RERFTDTC |\n|-----|---------|--------|---------|---------|-------|---------|----------|--------|---------|----------|----------|----------|----------|-------|-------|-------|----------|--------|----------|----------|", "score": 1.0, "match_basis": "verbatim_token+domain_route:AG"}, {"md_atom_id": "md_dmAG_ex_a031", "md_file": "knowledge_base/domains/AG/examples.md", "md_atom_type": "TABLE_HEADER", "md_parent_section": "§AG.2 [Example 2]", "md_verbatim": "| Row | STUDYID | DOMAIN | USUBJID | AGSEQ | AGSPID | AGTRT | AGPRESP | AGOCCUR | AGDOSE | AGDOSU | AGDOSFRM | AGDOSFRQ | AGROUTE | VISIT | AGSTDTC |\n|-----|---------|--------|---------|-------|--------|-------|---------|---------|--------|--------|----------|----------|---------|-------|---------|", "score": 0.5423, "match_basis": "verbatim_token+domain_route:AG"}, {"md_atom_id": "md_dmAG_ex_a012", "md_file": "knowledge_base/domains/AG/examples.md", "md_atom_type": "TABLE_HEADER", "md_parent_section": "§AG.1 [Example 1]", "md_verbatim": "| Row | STUDYID | DOMAIN | USUBJID | AGSEQ | AGTRT | AGPRESP | AGOCCUR | AGDOSE | AGDOSU | AGROUTE | VISIT | AGENDTC |\n|-----|---------|--------|---------|-------|-------|---------|---------|--------|--------|---------|-------|---------|", "score": 0.5355, "match_basis": "verbatim_token+domain_route:AG"}, {"md_atom_id": "md_dmAG_ex_a047", "md_file": "knowledge_base/domains/AG/examples.md", "md_atom_type": "TABLE_HEADER", "md_parent_section": "§AG.2 [Example 2]", "md_verbatim": "| Row | STUDYID | DOMAIN | SPDEVID | DISEQ | DIPARMCD | DIPARM | DIVAL |\n|-----|---------|--------|---------|-------|----------|--------|-------|", "score": 0.5263, "match_basis": "verbatim_token+domain_route:AG"}, {"md_atom_id": "md_dmAG_ex_a051", "md_file": "knowledge_base/domains/AG/examples.md", "md_atom_type": "TABLE_HEADER", "md_parent_section": "§AG.2 [Example 2]", "md_verbatim": "| Row | STUDYID | RDOMAIN | USUBJID | IDVAR | IDVARVAL | RELTYPE | RELID |\n|-----|---------|---------|---------|-------|----------|---------|-------|", "score": 0.5231, "match_basis": "verbatim_token+domain_route:AG"}], "candidate_count": 5, "zero_candidate": false}
{"pdf_atom_id": "ig34_p0097_a003", "pdf_atom_type": "TABLE_ROW", "pdf_source": "SDTMIG_v3.4", "pdf_page": 97, "pdf_parent_section": "§6.1.1 [Procedure Agents (AG)]", "pdf_verbatim": "1 | XYZ | RE | XYZ-001-001 | ABC001 | 1 | RV1 | FEV1 | Forced Expiratory Volume in 1 Second | 2.43 | L | | 2.43 | 2.43 | L | VISIT 2 | 2013-06-18T10:00 | PRE-BRONCHODILATOR ADMINISTRATION | 1 | -PT5M | BRONCHODILATOR ADMINISTRATION | 2013-06-18T10:05", "figure_ref": null, "candidates": [{"md_atom_id": "md_dmAG_ex_a042", "md_file": "knowledge_base/domains/AG/examples.md", "md_atom_type": "TABLE_ROW", "md_parent_section": "§AG.2 [Example 2]", "md_verbatim": "| 1 | XYZ | RE | XYZ-001-001 | ABC001 | 1 | RV1 | FEV1 | Forced Expiratory Volume in 1 Second | 2.43 | L | 2.43 | 2.43 | L | VISIT 2 | 2013-06-18T10:00 | PRE-BRONCHODILATOR ADMINISTRATION | 1 | -PT5M | BRONCHODILATOR ADMINISTRATION | 2013-06-18T10:05 |", "score": 1.0, "match_basis": "verbatim_token+domain_route:AG"}, {"md_atom_id": "md_dmAG_ex_a043", "md_file": "knowledge_base/domains/AG/examples.md", "md_atom_type": "TABLE_ROW", "md_parent_section": "§AG.2 [Example 2]", "md_verbatim": "| 2 | XYZ | RE | XYZ-001-001 | ABC001 | 2 | RV1 | FEV1 | Forced Expiratory Volume in 1 Second | 2.77 | L | 2.77 | 2.77 | L | VISIT 2 | 2013-06-18T10:00 | POST-BRONCHODILATOR ADMINISTRATION | 2 | PT20M | BRONCHODILATOR ADMINISTRATION | 2013-06-18T10:05 |", "score": 0.9262, "match_basis": "verbatim_token+domain_route:AG"}, {"md_atom_id": "md_dmAG_ex_a044", "md_file": "knowledge_base/domains/AG/examples.md", "md_atom_type": "TABLE_ROW", "md_parent_section": "§AG.2 [Example 2]", "md_verbatim": "| 3 | XYZ | RE | XYZ-001-001 | ABC001 | 3 | RV1 | PTCREV | Percentage Reversibility | 13.99 | % | 13.99 | 13.99 | % | VISIT 2 | 2013-06-18T10:00 | | | | BRONCHODILATOR ADMINISTRATION | 2013-06-18T10:05 |", "score": 0.6889, "match_basis": "verbatim_token+domain_route:AG"}, {"md_atom_id": "md_dmAG_ex_a032", "md_file": "knowledge_base/domains/AG/examples.md", "md_atom_type": "TABLE_ROW", "md_parent_section": "§AG.2 [Example 2]", "md_verbatim": "| 1 | XYZ | AG | XYZ-001-001 | 1 | RV1 | ALBUTEROL | Y | Y | 2 | PUFF | AEROSOL | ONCE | RESPIRATORY (INHALATION) | VISIT 2 | 2013-06-18T10:05 |", "score": 0.563, "match_basis": "verbatim_token+domain_route:AG"}, {"md_atom_id": "md_dmAG_ex_a027", "md_file": "knowledge_base/domains/AG/examples.md", "md_atom_type": "TABLE_ROW", "md_parent_section": "§AG.2 [Example 2]", "md_verbatim": "| 1 | XYZ | CM | XYZ-001-001 | 1 | RV1 | SHORT-ACTING BRONCHODILATOR | SHORT-ACTING BRONCHODILATOR | Y | N | -PT4H |", "score": 0.5304, "match_basis": "verbatim_token+domain_route:AG"}], "candidate_count": 5, "zero_candidate": false}
{"pdf_atom_id": "ig34_p0097_a004", "pdf_atom_type": "TABLE_ROW", "pdf_source": "SDTMIG_v3.4", "pdf_page": 97, "pdf_parent_section": "§6.1.1 [Procedure Agents (AG)]", "pdf_verbatim": "2 | XYZ | RE | XYZ-001-001 | ABC001 | 2 | RV1 | FEV1 | Forced Expiratory Volume in 1 Second | 2.77 | L | | 2.77 | 2.77 | L | VISIT 2 | 2013-06-18T10:00 | POST-BRONCHODILATOR ADMINISTRATION | 2 | PT20M | BRONCHODILATOR ADMINISTRATION | 2013-06-18T10:05", "figure_ref": null, "candidates": [{"md_atom_id": "md_dmAG_ex_a043", "md_file": "knowledge_base/domains/AG/examples.md", "md_atom_type": "TABLE_ROW", "md_parent_section": "§AG.2 [Example 2]", "md_verbatim": "| 2 | XYZ | RE | XYZ-001-001 | ABC001 | 2 | RV1 | FEV1 | Forced Expiratory Volume in 1 Second | 2.77 | L | 2.77 | 2.77 | L | VISIT 2 | 2013-06-18T10:00 | POST-BRONCHODILATOR ADMINISTRATION | 2 | PT20M | BRONCHODILATOR ADMINISTRATION | 2013-06-18T10:05 |", "score": 1.0, "match_basis": "verbatim_token+domain_route:AG"}, {"md_atom_id": "md_dmAG_ex_a042", "md_file": "knowledge_base/domains/AG/examples.md", "md_atom_type": "TABLE_ROW", "md_parent_section": "§AG.2 [Example 2]", "md_verbatim": "| 1 | XYZ | RE | XYZ-001-001 | ABC001 | 1 | RV1 | FEV1 | Forced Expiratory Volume in 1 Second | 2.43 | L | 2.43 | 2.43 | L | VISIT 2 | 2013-06-18T10:00 | PRE-BRONCHODILATOR ADMINISTRATION | 1 | -PT5M | BRONCHODILATOR ADMINISTRATION | 2013-06-18T10:05 |", "score": 0.9262, "match_basis": "verbatim_token+domain_route:AG"}, {"md_atom_id": "md_dmAG_ex_a044", "md_file": "knowledge_base/domains/AG/examples.md", "md_atom_type": "TABLE_ROW", "md_parent_section": "§AG.2 [Example 2]", "md_verbatim": "| 3 | XYZ | RE | XYZ-001-001 | ABC001 | 3 | RV1 | PTCREV | Percentage Reversibility | 13.99 | % | 13.99 | 13.99 | % | VISIT 2 | 2013-06-18T10:00 | | | | BRONCHODILATOR ADMINISTRATION | 2013-06-18T10:05 |", "score": 0.6819, "match_basis": "verbatim_token+domain_route:AG"}, {"md_atom_id": "md_dmAG_ex_a032", "md_file": "knowledge_base/domains/AG/examples.md", "md_atom_type": "TABLE_ROW", "md_parent_section": "§AG.2 [Example 2]", "md_verbatim": "| 1 | XYZ | AG | XYZ-001-001 | 1 | RV1 | ALBUTEROL | Y | Y | 2 | PUFF | AEROSOL | ONCE | RESPIRATORY (INHALATION) | VISIT 2 | 2013-06-18T10:05 |", "score": 0.559, "match_basis": "verbatim_token+domain_route:AG"}, {"md_atom_id": "md_dmAG_ex_a027", "md_file": "knowledge_base/domains/AG/examples.md", "md_atom_type": "TABLE_ROW", "md_parent_section": "§AG.2 [Example 2]", "md_verbatim": "| 1 | XYZ | CM | XYZ-001-001 | 1 | RV1 | SHORT-ACTING BRONCHODILATOR | SHORT-ACTING BRONCHODILATOR | Y | N | -PT4H |", "score": 0.5268, "match_basis": "verbatim_token+domain_route:AG"}], "candidate_count": 5, "zero_candidate": false}
{"pdf_atom_id": "ig34_p0097_a005", "pdf_atom_type": "TABLE_ROW", "pdf_source": "SDTMIG_v3.4", "pdf_page": 97, "pdf_parent_section": "§6.1.1 [Procedure Agents (AG)]", "pdf_verbatim": "3 | XYZ | RE | XYZ-001-001 | ABC001 | 3 | RV1 | PTCREV | Percentage Reversibility | 13.99 | % | | 13.99 | 13.99 | % | VISIT 2 | 2013-06-18T10:00 | | | | BRONCHODILATOR ADMINISTRATION | 2013-06-18T10:05", "figure_ref": null, "candidates": [{"md_atom_id": "md_dmAG_ex_a044", "md_file": "knowledge_base/domains/AG/examples.md", "md_atom_type": "TABLE_ROW", "md_parent_section": "§AG.2 [Example 2]", "md_verbatim": "| 3 | XYZ | RE | XYZ-001-001 | ABC001 | 3 | RV1 | PTCREV | Percentage Reversibility | 13.99 | % | 13.99 | 13.99 | % | VISIT 2 | 2013-06-18T10:00 | | | | BRONCHODILATOR ADMINISTRATION | 2013-06-18T10:05 |", "score": 1.0, "match_basis": "verbatim_token+domain_route:AG"}, {"md_atom_id": "md_dmAG_ex_a042", "md_file": "knowledge_base/domains/AG/examples.md", "md_atom_type": "TABLE_ROW", "md_parent_section": "§AG.2 [Example 2]", "md_verbatim": "| 1 | XYZ | RE | XYZ-001-001 | ABC001 | 1 | RV1 | FEV1 | Forced Expiratory Volume in 1 Second | 2.43 | L | 2.43 | 2.43 | L | VISIT 2 | 2013-06-18T10:00 | PRE-BRONCHODILATOR ADMINISTRATION | 1 | -PT5M | BRONCHODILATOR ADMINISTRATION | 2013-06-18T10:05 |", "score": 0.6889, "match_basis": "verbatim_token+domain_route:AG"}, {"md_atom_id": "md_dmAG_ex_a043", "md_file": "knowledge_base/domains/AG/examples.md", "md_atom_type": "TABLE_ROW", "md_parent_section": "§AG.2 [Example 2]", "md_verbatim": "| 2 | XYZ | RE | XYZ-001-001 | ABC001 | 2 | RV1 | FEV1 | Forced Expiratory Volume in 1 Second | 2.77 | L | 2.77 | 2.77 | L | VISIT 2 | 2013-06-18T10:00 | POST-BRONCHODILATOR ADMINISTRATION | 2 | PT20M | BRONCHODILATOR ADMINISTRATION | 2013-06-18T10:05 |", "score": 0.6819, "match_basis": "verbatim_token+domain_route:AG"}, {"md_atom_id": "md_dmAG_ex_a032", "md_file": "knowledge_base/domains/AG/examples.md", "md_atom_type": "TABLE_ROW", "md_parent_section": "§AG.2 [Example 2]", "md_verbatim": "| 1 | XYZ | AG | XYZ-001-001 | 1 | RV1 | ALBUTEROL | Y | Y | 2 | PUFF | AEROSOL | ONCE | RESPIRATORY (INHALATION) | VISIT 2 | 2013-06-18T10:05 |", "score": 0.5357, "match_basis": "verbatim_token+domain_route:AG"}, {"md_atom_id": "md_dmAG_ex_a027", "md_file": "knowledge_base/domains/AG/examples.md", "md_atom_type": "TABLE_ROW", "md_parent_section": "§AG.2 [Example 2]", "md_verbatim": "| 1 | XYZ | CM | XYZ-001-001 | 1 | RV1 | SHORT-ACTING BRONCHODILATOR | SHORT-ACTING BRONCHODILATOR | Y | N | -PT4H |", "score": 0.5304, "match_basis": "verbatim_token+domain_route:AG"}], "candidate_count": 5, "zero_candidate": false}
{"pdf_atom_id": "ig34_p0097_a006", "pdf_atom_type": "SENTENCE", "pdf_source": "SDTMIG_v3.4", "pdf_page": 97, "pdf_parent_section": "§6.1.1 [Procedure Agents (AG)]", "pdf_verbatim": "The identifier for the device used in the test was established in the Device Identifier (DI) domain.", "figure_ref": null, "candidates": [{"md_atom_id": "md_dmAG_ex_a045", "md_file": "knowledge_base/domains/AG/examples.md", "md_atom_type": "SENTENCE", "md_parent_section": "§AG.2 [Example 2]", "md_verbatim": "The identifier for the device used in the test was established in the Device Identifier (DI) domain.", "score": 1.0, "match_basis": "verbatim_token+domain_route:AG"}, {"md_atom_id": "md_dmAG_ex_a034", "md_file": "knowledge_base/domains/AG/examples.md", "md_atom_type": "SENTENCE", "md_parent_section": "§AG.2 [Example 2]", "md_verbatim": "The spirometer used in the testing is identified in SPDEVID.", "score": 0.5826, "match_basis": "verbatim_token+domain_route:AG"}, {"md_atom_id": "md_dmAG_ex_a005", "md_file": "knowledge_base/domains/AG/examples.md", "md_atom_type": "SENTENCE", "md_parent_section": "§AG.1 [Example 1]", "md_verbatim": "The skin-prick test identified grass as the allergen to be used in the BAC test.", "score": 0.5532, "match_basis": "verbatim_token+domain_route:AG"}, {"md_atom_id": "md_dmAG_ex_a021", "md_file": "knowledge_base/domains/AG/examples.md", "md_atom_type": "SENTENCE", "md_parent_section": "§AG.2 [Example 2]", "md_verbatim": "An identifier was assigned to the reversibility test and this identifier was used to be link data across the multiple SDTM domains in which the data are represented.", "score": 0.535, "match_basis": "verbatim_token+domain_route:AG"}, {"md_atom_id": "md_dmAG_ex_a004", "md_file": "knowledge_base/domains/AG/examples.md", "md_atom_type": "SENTENCE", "md_parent_section": "§AG.1 [Example 1]", "md_verbatim": "Prior to the BAC, the subject had a skin-prick allergen test to help identify the allergen to be used for the BAC test.", "score": 0.5222, "match_basis": "verbatim_token+domain_route:AG"}], "candidate_count": 5, "zero_candidate": false}
{"pdf_atom_id": "ig34_p0097_a007", "pdf_atom_type": "CODE_LITERAL", "pdf_source": "SDTMIG_v3.4", "pdf_page": 97, "pdf_parent_section": "§6.1.1 [Procedure Agents (AG)]", "pdf_verbatim": "di.xpt", "figure_ref": null, "candidates": [{"md_atom_id": "md_dmAG_ex_a011", "md_file": "knowledge_base/domains/AG/examples.md", "md_atom_type": "SENTENCE", "md_parent_section": "§AG.1 [Example 1]", "md_verbatim": "**ag.xpt**", "score": 0.79, "match_basis": "verbatim_token+domain_route:AG"}, {"md_atom_id": "md_dmAG_ex_a025", "md_file": "knowledge_base/domains/AG/examples.md", "md_atom_type": "SENTENCE", "md_parent_section": "§AG.2 [Example 2]", "md_verbatim": "**cm.xpt**", "score": 0.79, "match_basis": "verbatim_token+domain_route:AG"}, {"md_atom_id": "md_dmAG_ex_a030", "md_file": "knowledge_base/domains/AG/examples.md", "md_atom_type": "SENTENCE", "md_parent_section": "§AG.2 [Example 2]", "md_verbatim": "**ag.xpt**", "score": 0.79, "match_basis": "verbatim_token+domain_route:AG"}, {"md_atom_id": "md_dmAG_ex_a040", "md_file": "knowledge_base/domains/AG/examples.md", "md_atom_type": "SENTENCE", "md_parent_section": "§AG.2 [Example 2]", "md_verbatim": "**re.xpt**", "score": 0.79, "match_basis": "verbatim_token+domain_route:AG"}, {"md_atom_id": "md_dmAG_ex_a046", "md_file": "knowledge_base/domains/AG/examples.md", "md_atom_type": "SENTENCE", "md_parent_section": "§AG.2 [Example 2]", "md_verbatim": "**di.xpt**", "score": 0.79, "match_basis": "verbatim_token+domain_route:AG"}, {"md_atom_id": "md_dmAG_ex_a050", "md_file": "knowledge_base/domains/AG/examples.md", "md_atom_type": "SENTENCE", "md_parent_section": "§AG.2 [Example 2]", "md_verbatim": "**relrec.xpt**", "score": 0.31, "match_basis": "verbatim_token+domain_route:AG"}, {"md_atom_id": "md_dmAG_assn_a001", "md_file": "knowledge_base/domains/AG/assumptions.md", "md_atom_type": "HEADING", "md_parent_section": "§AG [AG — Assumptions]", "md_verbatim": "# AG — Assumptions", "score": 0.19, "match_basis": "verbatim_token+domain_route:AG"}, {"md_atom_id": "md_dmAG_assn_a002", "md_file": "knowledge_base/domains/AG/assumptions.md", "md_atom_type": "LIST_ITEM", "md_parent_section": "§AG [AG — Assumptions]", "md_verbatim": "1. Purpose of the domain: Some tests involve administration of substances, and it has been unclear in which domain these should be represented.", "score": 0.19, "match_basis": "verbatim_token+domain_route:AG"}, {"md_atom_id": "md_dmAG_assn_a003", "md_file": "knowledge_base/domains/AG/assumptions.md", "md_atom_type": "LIST_ITEM", "md_parent_section": "§AG [AG — Assumptions]", "md_verbatim": "   a. The Concomitant/Prior Medications (CM) domain seemed particularly inappropriate when the substance was one that would never be given as a medication. Even substances that are medications are not being used as such when they are given as part of a testing procedure.", "score": 0.19, "match_basis": "verbatim_token+domain_route:AG"}, {"md_atom_id": "md_dmAG_assn_a004", "md_file": "knowledge_base/domains/AG/assumptions.md", "md_atom_type": "LIST_ITEM", "md_parent_section": "§AG [AG — Assumptions]", "md_verbatim": "   b. The Exposure (EX) domain also seemed inappropriate; although the testing procedure might be part of the study plan, these data would not be used or analyzed in the same way as data about study treatments. The AG domain was created to fill this gap.", "score": 0.19, "match_basis": "verbatim_token+domain_route:AG"}], "candidate_count": 10, "zero_candidate": false}
{"pdf_atom_id": "ig34_p0097_a008", "pdf_atom_type": "TABLE_HEADER", "pdf_source": "SDTMIG_v3.4", "pdf_page": 97, "pdf_parent_section": "§6.1.1 [Procedure Agents (AG)]", "pdf_verbatim": "Row | STUDYID | DOMAIN | SPDEVID | DISEQ | DIPARMCD | DIPARM | DIVAL", "figure_ref": null, "candidates": [{"md_atom_id": "md_dmAG_ex_a047", "md_file": "knowledge_base/domains/AG/examples.md", "md_atom_type": "TABLE_HEADER", "md_parent_section": "§AG.2 [Example 2]", "md_verbatim": "| Row | STUDYID | DOMAIN | SPDEVID | DISEQ | DIPARMCD | DIPARM | DIVAL |\n|-----|---------|--------|---------|-------|----------|--------|-------|", "score": 1.0, "match_basis": "verbatim_token+domain_route:AG"}, {"md_atom_id": "md_dmAG_ex_a051", "md_file": "knowledge_base/domains/AG/examples.md", "md_atom_type": "TABLE_HEADER", "md_parent_section": "§AG.2 [Example 2]", "md_verbatim": "| Row | STUDYID | RDOMAIN | USUBJID | IDVAR | IDVARVAL | RELTYPE | RELID |\n|-----|---------|---------|---------|-------|----------|---------|-------|", "score": 0.5467, "match_basis": "verbatim_token+domain_route:AG"}, {"md_atom_id": "md_dmAG_ex_a041", "md_file": "knowledge_base/domains/AG/examples.md", "md_atom_type": "TABLE_HEADER", "md_parent_section": "§AG.2 [Example 2]", "md_verbatim": "| Row | STUDYID | DOMAIN | USUBJID | SPDEVID | RESEQ | REGRPID | RETESTCD | RETEST | REORRES | REORRESU | RESTRESC | RESTRESN | RESTRESU | VISIT | REDTC | RETPT | RETPTNUM | REELTM | RETPTREF | RERFTDTC |\n|-----|---------|--------|---------|---------|-------|---------|----------|--------|---------|----------|----------|----------|----------|-------|-------|-------|----------|--------|----------|----------|", "score": 0.5263, "match_basis": "verbatim_token+domain_route:AG"}, {"md_atom_id": "md_dmAG_ex_a026", "md_file": "knowledge_base/domains/AG/examples.md", "md_atom_type": "TABLE_HEADER", "md_parent_section": "§AG.2 [Example 2]", "md_verbatim": "| Row | STUDYID | DOMAIN | USUBJID | CMSEQ | CMSPID | CMTRT | CMCAT | CMPRESP | CMOCCUR | CMEVLINT |\n|-----|---------|--------|---------|-------|--------|-------|-------|---------|---------|----------|", "score": 0.5119, "match_basis": "verbatim_token+domain_route:AG"}, {"md_atom_id": "md_dmAG_ex_a012", "md_file": "knowledge_base/domains/AG/examples.md", "md_atom_type": "TABLE_HEADER", "md_parent_section": "§AG.1 [Example 1]", "md_verbatim": "| Row | STUDYID | DOMAIN | USUBJID | AGSEQ | AGTRT | AGPRESP | AGOCCUR | AGDOSE | AGDOSU | AGROUTE | VISIT | AGENDTC |\n|-----|---------|--------|---------|-------|-------|---------|---------|--------|--------|---------|-------|---------|", "score": 0.5015, "match_basis": "verbatim_token+domain_route:AG"}], "candidate_count": 5, "zero_candidate": false}
{"pdf_atom_id": "ig34_p0097_a009", "pdf_atom_type": "TABLE_ROW", "pdf_source": "SDTMIG_v3.4", "pdf_page": 97, "pdf_parent_section": "§6.1.1 [Procedure Agents (AG)]", "pdf_verbatim": "1 | XYZ | DI | ABC001 | 1 | TYPE | Device Type | SPIROMETER", "figure_ref": null, "candidates": [{"md_atom_id": "md_dmAG_ex_a048", "md_file": "knowledge_base/domains/AG/examples.md", "md_atom_type": "TABLE_ROW", "md_parent_section": "§AG.2 [Example 2]", "md_verbatim": "| 1 | XYZ | DI | ABC001 | 1 | TYPE | Device Type | SPIROMETER |", "score": 1.0, "match_basis": "verbatim_token+domain_route:AG"}, {"md_atom_id": "md_dmAG_ex_a052", "md_file": "knowledge_base/domains/AG/examples.md", "md_atom_type": "TABLE_ROW", "md_parent_section": "§AG.2 [Example 2]", "md_verbatim": "| 1 | XYZ | AG | XYZ-001-001 | AGSPID | RV1 | | 1 |", "score": 0.4783, "match_basis": "verbatim_token+domain_route:AG"}, {"md_atom_id": "md_dmAG_ex_a054", "md_file": "knowledge_base/domains/AG/examples.md", "md_atom_type": "TABLE_ROW", "md_parent_section": "§AG.2 [Example 2]", "md_verbatim": "| 3 | XYZ | CM | XYZ-001-001 | CMSPID | RV1 | | 1 |", "score": 0.4783, "match_basis": "verbatim_token+domain_route:AG"}, {"md_atom_id": "md_dmAG_ex_a032", "md_file": "knowledge_base/domains/AG/examples.md", "md_atom_type": "TABLE_ROW", "md_parent_section": "§AG.2 [Example 2]", "md_verbatim": "| 1 | XYZ | AG | XYZ-001-001 | 1 | RV1 | ALBUTEROL | Y | Y | 2 | PUFF | AEROSOL | ONCE | RESPIRATORY (INHALATION) | VISIT 2 | 2013-06-18T10:05 |", "score": 0.4526, "match_basis": "verbatim_token+domain_route:AG"}, {"md_atom_id": "md_dmAG_ex_a042", "md_file": "knowledge_base/domains/AG/examples.md", "md_atom_type": "TABLE_ROW", "md_parent_section": "§AG.2 [Example 2]", "md_verbatim": "| 1 | XYZ | RE | XYZ-001-001 | ABC001 | 1 | RV1 | FEV1 | Forced Expiratory Volume in 1 Second | 2.43 | L | 2.43 | 2.43 | L | VISIT 2 | 2013-06-18T10:00 | PRE-BRONCHODILATOR ADMINISTRATION | 1 | -PT5M | BRONCHODILATOR ADMINISTRATION | 2013-06-18T10:05 |", "score": 0.4493, "match_basis": "verbatim_token+domain_route:AG"}], "candidate_count": 5, "zero_candidate": false}
{"pdf_atom_id": "ig34_p0097_a010", "pdf_atom_type": "SENTENCE", "pdf_source": "SDTMIG_v3.4", "pdf_page": 97, "pdf_parent_section": "§6.1.1 [Procedure Agents (AG)]", "pdf_verbatim": "The relationship of the test agent to the spirometry measurements obtained before and after its administration and to the prior occurrence of short acting bronchodilator administration is recorded by means of a relationship in RELREC.", "figure_ref": null, "candidates": [{"md_atom_id": "md_dmAG_ex_a049", "md_file": "knowledge_base/domains/AG/examples.md", "md_atom_type": "SENTENCE", "md_parent_section": "§AG.2 [Example 2]", "md_verbatim": "The relationship of the test agent to the spirometry measurements obtained before and after its administration and to the prior occurrence of short acting bronchodilator administration is recorded by means of a relationship in RELREC.", "score": 1.0, "match_basis": "verbatim_token+domain_route:AG"}, {"md_atom_id": "md_dmAG_ex_a020", "md_file": "knowledge_base/domains/AG/examples.md", "md_atom_type": "SENTENCE", "md_parent_section": "§AG.2 [Example 2]", "md_verbatim": "Spirometry measurements (RE domain) were obtained before and after agent administration.", "score": 0.6733, "match_basis": "verbatim_token+domain_route:AG"}, {"md_atom_id": "md_dmAG_ex_a022", "md_file": "knowledge_base/domains/AG/examples.md", "md_atom_type": "SENTENCE", "md_parent_section": "§AG.2 [Example 2]", "md_verbatim": "The question as to whether a short-acting bronchodilator was administered in the 4 hours prior to the reversibility assessment is represented in the CM domain because this prior administration would have been for therapeutic effect, not as part of the procedure.", "score": 0.5465, "match_basis": "verbatim_token+domain_route:AG"}, {"md_atom_id": "md_dmAG_ex_a023", "md_file": "knowledge_base/domains/AG/examples.md", "md_atom_type": "SENTENCE", "md_parent_section": "§AG.2 [Example 2]", "md_verbatim": "The question asked was about the administration of any short-acting bronchodilator, rather than a specific medication, so both CMTRT and CMCAT are populated with \"SHORT-ACTING BRONCHODILATOR\", which describes a group of medications.", "score": 0.5391, "match_basis": "verbatim_token+domain_route:AG"}, {"md_atom_id": "md_dmAG_ex_a018", "md_file": "knowledge_base/domains/AG/examples.md", "md_atom_type": "SENTENCE", "md_parent_section": "§AG.2 [Example 2]", "md_verbatim": "In this example, first there was a check that the subject had not taken a short-acting bronchodilator in the previous 4 hours (Concomitant/Prior Medications (CM) domain).", "score": 0.5128, "match_basis": "verbatim_token+domain_route:AG"}], "candidate_count": 5, "zero_candidate": false}
{"pdf_atom_id": "ig34_p0097_a011", "pdf_atom_type": "CODE_LITERAL", "pdf_source": "SDTMIG_v3.4", "pdf_page": 97, "pdf_parent_section": "§6.1.1 [Procedure Agents (AG)]", "pdf_verbatim": "relrec.xpt", "figure_ref": null, "candidates": [{"md_atom_id": "md_dmAG_ex_a050", "md_file": "knowledge_base/domains/AG/examples.md", "md_atom_type": "SENTENCE", "md_parent_section": "§AG.2 [Example 2]", "md_verbatim": "**relrec.xpt**", "score": 0.79, "match_basis": "verbatim_token+domain_route:AG"}, {"md_atom_id": "md_dmAG_ex_a011", "md_file": "knowledge_base/domains/AG/examples.md", "md_atom_type": "SENTENCE", "md_parent_section": "§AG.1 [Example 1]", "md_verbatim": "**ag.xpt**", "score": 0.31, "match_basis": "verbatim_token+domain_route:AG"}, {"md_atom_id": "md_dmAG_ex_a025", "md_file": "knowledge_base/domains/AG/examples.md", "md_atom_type": "SENTENCE", "md_parent_section": "§AG.2 [Example 2]", "md_verbatim": "**cm.xpt**", "score": 0.31, "match_basis": "verbatim_token+domain_route:AG"}, {"md_atom_id": "md_dmAG_ex_a030", "md_file": "knowledge_base/domains/AG/examples.md", "md_atom_type": "SENTENCE", "md_parent_section": "§AG.2 [Example 2]", "md_verbatim": "**ag.xpt**", "score": 0.31, "match_basis": "verbatim_token+domain_route:AG"}, {"md_atom_id": "md_dmAG_ex_a040", "md_file": "knowledge_base/domains/AG/examples.md", "md_atom_type": "SENTENCE", "md_parent_section": "§AG.2 [Example 2]", "md_verbatim": "**re.xpt**", "score": 0.31, "match_basis": "verbatim_token+domain_route:AG"}, {"md_atom_id": "md_dmAG_ex_a046", "md_file": "knowledge_base/domains/AG/examples.md", "md_atom_type": "SENTENCE", "md_parent_section": "§AG.2 [Example 2]", "md_verbatim": "**di.xpt**", "score": 0.31, "match_basis": "verbatim_token+domain_route:AG"}, {"md_atom_id": "md_dmAG_ex_a049", "md_file": "knowledge_base/domains/AG/examples.md", "md_atom_type": "SENTENCE", "md_parent_section": "§AG.2 [Example 2]", "md_verbatim": "The relationship of the test agent to the spirometry measurements obtained before and after its administration and to the prior occurrence of short acting bronchodilator administration is recorded by means of a relationship in RELREC.", "score": 0.2147, "match_basis": "verbatim_token+domain_route:AG"}, {"md_atom_id": "md_dmAG_ex_a051", "md_file": "knowledge_base/domains/AG/examples.md", "md_atom_type": "TABLE_HEADER", "md_parent_section": "§AG.2 [Example 2]", "md_verbatim": "| Row | STUDYID | RDOMAIN | USUBJID | IDVAR | IDVARVAL | RELTYPE | RELID |\n|-----|---------|---------|---------|-------|----------|---------|-------|", "score": 0.2082, "match_basis": "verbatim_token+domain_route:AG"}, {"md_atom_id": "md_dmAG_ex_a035", "md_file": "knowledge_base/domains/AG/examples.md", "md_atom_type": "SENTENCE", "md_parent_section": "§AG.2 [Example 2]", "md_verbatim": "See the SDTM-MD (available at https://www.cdisc.org/standards/foundational/medical-devices-sdtmig/) for information about representing device-related information.", "score": 0.198, "match_basis": "verbatim_token+domain_route:AG"}, {"md_atom_id": "md_dmAG_assn_a020", "md_file": "knowledge_base/domains/AG/assumptions.md", "md_atom_type": "LIST_ITEM", "md_parent_section": "§AG [AG — Assumptions]", "md_verbatim": "   b. The variables --DOSTOT and --DOSRGM, although allowed, would generally not be used because procedure agents are likely to be recorded at the level of single administrations.", "score": 0.1968, "match_basis": "verbatim_token+domain_route:AG"}], "candidate_count": 10, "zero_candidate": false}
{"pdf_atom_id": "ig34_p0097_a012", "pdf_atom_type": "TABLE_HEADER", "pdf_source": "SDTMIG_v3.4", "pdf_page": 97, "pdf_parent_section": "§6.1.1 [Procedure Agents (AG)]", "pdf_verbatim": "Row | STUDYID | RDOMAIN | USUBJID | IDVAR | IDVARVAL | RELTYPE | RELID", "figure_ref": null, "candidates": [{"md_atom_id": "md_dmAG_ex_a051", "md_file": "knowledge_base/domains/AG/examples.md", "md_atom_type": "TABLE_HEADER", "md_parent_section": "§AG.2 [Example 2]", "md_verbatim": "| Row | STUDYID | RDOMAIN | USUBJID | IDVAR | IDVARVAL | RELTYPE | RELID |\n|-----|---------|---------|---------|-------|----------|---------|-------|", "score": 1.0, "match_basis": "verbatim_token+domain_route:AG"}, {"md_atom_id": "md_dmAG_ex_a026", "md_file": "knowledge_base/domains/AG/examples.md", "md_atom_type": "TABLE_HEADER", "md_parent_section": "§AG.2 [Example 2]", "md_verbatim": "| Row | STUDYID | DOMAIN | USUBJID | CMSEQ | CMSPID | CMTRT | CMCAT | CMPRESP | CMOCCUR | CMEVLINT |\n|-----|---------|--------|---------|-------|--------|-------|-------|---------|---------|----------|", "score": 0.5579, "match_basis": "verbatim_token+domain_route:AG"}, {"md_atom_id": "md_dmAG_ex_a047", "md_file": "knowledge_base/domains/AG/examples.md", "md_atom_type": "TABLE_HEADER", "md_parent_section": "§AG.2 [Example 2]", "md_verbatim": "| Row | STUDYID | DOMAIN | SPDEVID | DISEQ | DIPARMCD | DIPARM | DIVAL |\n|-----|---------|--------|---------|-------|----------|--------|-------|", "score": 0.5467, "match_basis": "verbatim_token+domain_route:AG"}, {"md_atom_id": "md_dmAG_ex_a012", "md_file": "knowledge_base/domains/AG/examples.md", "md_atom_type": "TABLE_HEADER", "md_parent_section": "§AG.1 [Example 1]", "md_verbatim": "| Row | STUDYID | DOMAIN | USUBJID | AGSEQ | AGTRT | AGPRESP | AGOCCUR | AGDOSE | AGDOSU | AGROUTE | VISIT | AGENDTC |\n|-----|---------|--------|---------|-------|-------|---------|---------|--------|--------|---------|-------|---------|", "score": 0.5429, "match_basis": "verbatim_token+domain_route:AG"}, {"md_atom_id": "md_dmAG_ex_a031", "md_file": "knowledge_base/domains/AG/examples.md", "md_atom_type": "TABLE_HEADER", "md_parent_section": "§AG.2 [Example 2]", "md_verbatim": "| Row | STUDYID | DOMAIN | USUBJID | AGSEQ | AGSPID | AGTRT | AGPRESP | AGOCCUR | AGDOSE | AGDOSU | AGDOSFRM | AGDOSFRQ | AGROUTE | VISIT | AGSTDTC |\n|-----|---------|--------|---------|-------|--------|-------|---------|---------|--------|--------|----------|----------|---------|-------|---------|", "score": 0.5304, "match_basis": "verbatim_token+domain_route:AG"}], "candidate_count": 5, "zero_candidate": false}
{"pdf_atom_id": "ig34_p0097_a013", "pdf_atom_type": "TABLE_ROW", "pdf_source": "SDTMIG_v3.4", "pdf_page": 97, "pdf_parent_section": "§6.1.1 [Procedure Agents (AG)]", "pdf_verbatim": "1 | XYZ | AG | XYZ-001-001 | AGSPID | RV1 | | 1", "figure_ref": null, "candidates": [{"md_atom_id": "md_dmAG_ex_a052", "md_file": "knowledge_base/domains/AG/examples.md", "md_atom_type": "TABLE_ROW", "md_parent_section": "§AG.2 [Example 2]", "md_verbatim": "| 1 | XYZ | AG | XYZ-001-001 | AGSPID | RV1 | | 1 |", "score": 1.0, "match_basis": "verbatim_token+domain_route:AG"}, {"md_atom_id": "md_dmAG_ex_a054", "md_file": "knowledge_base/domains/AG/examples.md", "md_atom_type": "TABLE_ROW", "md_parent_section": "§AG.2 [Example 2]", "md_verbatim": "| 3 | XYZ | CM | XYZ-001-001 | CMSPID | RV1 | | 1 |", "score": 0.7333, "match_basis": "verbatim_token+domain_route:AG"}, {"md_atom_id": "md_dmAG_ex_a053", "md_file": "knowledge_base/domains/AG/examples.md", "md_atom_type": "TABLE_ROW", "md_parent_section": "§AG.2 [Example 2]", "md_verbatim": "| 2 | XYZ | RE | XYZ-001-001 | REGRPID | RV1 | | 1 |", "score": 0.6182, "match_basis": "verbatim_token+domain_route:AG"}, {"md_atom_id": "md_dmAG_ex_a048", "md_file": "knowledge_base/domains/AG/examples.md", "md_atom_type": "TABLE_ROW", "md_parent_section": "§AG.2 [Example 2]", "md_verbatim": "| 1 | XYZ | DI | ABC001 | 1 | TYPE | Device Type | SPIROMETER |", "score": 0.4783, "match_basis": "verbatim_token+domain_route:AG"}, {"md_atom_id": "md_dmAG_ex_a027", "md_file": "knowledge_base/domains/AG/examples.md", "md_atom_type": "TABLE_ROW", "md_parent_section": "§AG.2 [Example 2]", "md_verbatim": "| 1 | XYZ | CM | XYZ-001-001 | 1 | RV1 | SHORT-ACTING BRONCHODILATOR | SHORT-ACTING BRONCHODILATOR | Y | N | -PT4H |", "score": 0.4643, "match_basis": "verbatim_token+domain_route:AG"}], "candidate_count": 5, "zero_candidate": false}
{"pdf_atom_id": "ig34_p0097_a014", "pdf_atom_type": "TABLE_ROW", "pdf_source": "SDTMIG_v3.4", "pdf_page": 97, "pdf_parent_section": "§6.1.1 [Procedure Agents (AG)]", "pdf_verbatim": "2 | XYZ | RE | XYZ-001-001 | REGRPID | RV1 | | 1", "figure_ref": null, "candidates": [{"md_atom_id": "md_dmAG_ex_a053", "md_file": "knowledge_base/domains/AG/examples.md", "md_atom_type": "TABLE_ROW", "md_parent_section": "§AG.2 [Example 2]", "md_verbatim": "| 2 | XYZ | RE | XYZ-001-001 | REGRPID | RV1 | | 1 |", "score": 1.0, "match_basis": "verbatim_token+domain_route:AG"}, {"md_atom_id": "md_dmAG_ex_a052", "md_file": "knowledge_base/domains/AG/examples.md", "md_atom_type": "TABLE_ROW", "md_parent_section": "§AG.2 [Example 2]", "md_verbatim": "| 1 | XYZ | AG | XYZ-001-001 | AGSPID | RV1 | | 1 |", "score": 0.6182, "match_basis": "verbatim_token+domain_route:AG"}, {"md_atom_id": "md_dmAG_ex_a054", "md_file": "knowledge_base/domains/AG/examples.md", "md_atom_type": "TABLE_ROW", "md_parent_section": "§AG.2 [Example 2]", "md_verbatim": "| 3 | XYZ | CM | XYZ-001-001 | CMSPID | RV1 | | 1 |", "score": 0.6182, "match_basis": "verbatim_token+domain_route:AG"}, {"md_atom_id": "md_dmAG_ex_a027", "md_file": "knowledge_base/domains/AG/examples.md", "md_atom_type": "TABLE_ROW", "md_parent_section": "§AG.2 [Example 2]", "md_verbatim": "| 1 | XYZ | CM | XYZ-001-001 | 1 | RV1 | SHORT-ACTING BRONCHODILATOR | SHORT-ACTING BRONCHODILATOR | Y | N | -PT4H |", "score": 0.4621, "match_basis": "verbatim_token+domain_route:AG"}, {"md_atom_id": "md_dmAG_ex_a048", "md_file": "knowledge_base/domains/AG/examples.md", "md_atom_type": "TABLE_ROW", "md_parent_section": "§AG.2 [Example 2]", "md_verbatim": "| 1 | XYZ | DI | ABC001 | 1 | TYPE | Device Type | SPIROMETER |", "score": 0.448, "match_basis": "verbatim_token+domain_route:AG"}], "candidate_count": 5, "zero_candidate": false}
{"pdf_atom_id": "ig34_p0097_a015", "pdf_atom_type": "TABLE_ROW", "pdf_source": "SDTMIG_v3.4", "pdf_page": 97, "pdf_parent_section": "§6.1.1 [Procedure Agents (AG)]", "pdf_verbatim": "3 | XYZ | CM | XYZ-001-001 | CMSPID | RV1 | | 1", "figure_ref": null, "candidates": [{"md_atom_id": "md_dmAG_ex_a054", "md_file": "knowledge_base/domains/AG/examples.md", "md_atom_type": "TABLE_ROW", "md_parent_section": "§AG.2 [Example 2]", "md_verbatim": "| 3 | XYZ | CM | XYZ-001-001 | CMSPID | RV1 | | 1 |", "score": 1.0, "match_basis": "verbatim_token+domain_route:AG"}, {"md_atom_id": "md_dmAG_ex_a052", "md_file": "knowledge_base/domains/AG/examples.md", "md_atom_type": "TABLE_ROW", "md_parent_section": "§AG.2 [Example 2]", "md_verbatim": "| 1 | XYZ | AG | XYZ-001-001 | AGSPID | RV1 | | 1 |", "score": 0.7333, "match_basis": "verbatim_token+domain_route:AG"}, {"md_atom_id": "md_dmAG_ex_a053", "md_file": "knowledge_base/domains/AG/examples.md", "md_atom_type": "TABLE_ROW", "md_parent_section": "§AG.2 [Example 2]", "md_verbatim": "| 2 | XYZ | RE | XYZ-001-001 | REGRPID | RV1 | | 1 |", "score": 0.6182, "match_basis": "verbatim_token+domain_route:AG"}, {"md_atom_id": "md_dmAG_ex_a048", "md_file": "knowledge_base/domains/AG/examples.md", "md_atom_type": "TABLE_ROW", "md_parent_section": "§AG.2 [Example 2]", "md_verbatim": "| 1 | XYZ | DI | ABC001 | 1 | TYPE | Device Type | SPIROMETER |", "score": 0.4783, "match_basis": "verbatim_token+domain_route:AG"}, {"md_atom_id": "md_dmAG_ex_a027", "md_file": "knowledge_base/domains/AG/examples.md", "md_atom_type": "TABLE_ROW", "md_parent_section": "§AG.2 [Example 2]", "md_verbatim": "| 1 | XYZ | CM | XYZ-001-001 | 1 | RV1 | SHORT-ACTING BRONCHODILATOR | SHORT-ACTING BRONCHODILATOR | Y | N | -PT4H |", "score": 0.4643, "match_basis": "verbatim_token+domain_route:AG"}], "candidate_count": 5, "zero_candidate": false}
{"pdf_atom_id": "ig34_p0098_a001", "pdf_atom_type": "HEADING", "pdf_source": "SDTMIG_v3.4", "pdf_page": 98, "pdf_parent_section": "§6.1 [Models for Interventions Domains]", "pdf_verbatim": "6.1.2 Concomitant/Prior Medications (CM)", "figure_ref": null, "candidates": [{"md_atom_id": "md_varindex_a207", "md_file": "knowledge_base/VARIABLE_INDEX.md", "md_atom_type": "HEADING", "md_parent_section": "§ 二、领域专属变量（仅 1 个域，共 1499 个），按域分组", "md_verbatim": "### CM — Concomitant/Prior Medications (Interventions)", "score": 0.7345, "match_basis": "verbatim_token+global_search"}, {"md_atom_id": "md_ch01_a022", "md_file": "knowledge_base/chapters/ch01_introduction.md", "md_atom_type": "HEADING", "md_parent_section": "§1 [Introduction]", "md_verbatim": "## 1.3 Relationship to Prior CDISC Documents", "score": 0.4135, "match_basis": "verbatim_token+global_search"}, {"md_atom_id": "md_ch08_a276", "md_file": "knowledge_base/chapters/ch08_relationships.md", "md_atom_type": "HEADING", "md_parent_section": "§8.7 [Related Subjects (RELSUB)]", "md_verbatim": "### Specification", "score": 0.4111, "match_basis": "verbatim_token+global_search"}, {"md_atom_id": "md_ch08_a318", "md_file": "knowledge_base/chapters/ch08_relationships.md", "md_atom_type": "HEADING", "md_parent_section": "§8.8 [Related Specimens (RELSPEC)]", "md_verbatim": "### Specification", "score": 0.4111, "match_basis": "verbatim_token+global_search"}, {"md_atom_id": "md_model06_a029", "md_file": "knowledge_base/model/06_relationship_datasets.md", "md_atom_type": "HEADING", "md_parent_section": "§6.1 Related Records (RELREC)", "md_verbatim": "### RELTYPE Combinations", "score": 0.3968, "match_basis": "verbatim_token+global_search"}], "candidate_count": 5, "zero_candidate": false}
{"pdf_atom_id": "ig34_p0098_a002", "pdf_atom_type": "HEADING", "pdf_source": "SDTMIG_v3.4", "pdf_page": 98, "pdf_parent_section": "§6.1.2 [Concomitant/Prior Medications (CM)]", "pdf_verbatim": "CM – Description/Overview", "figure_ref": null, "candidates": [{"md_atom_id": "md_dmCM_assn_a001", "md_file": "knowledge_base/domains/CM/assumptions.md", "md_atom_type": "HEADING", "md_parent_section": "§CM [CM — Assumptions]", "md_verbatim": "# CM — Assumptions", "score": 0.4857, "match_basis": "verbatim_token+domain_route:CM"}, {"md_atom_id": "md_dmCM_ex_a001", "md_file": "knowledge_base/domains/CM/examples.md", "md_atom_type": "HEADING", "md_parent_section": "§CM [CM — Examples]", "md_verbatim": "# CM — Examples", "score": 0.4, "match_basis": "verbatim_token+domain_route:CM"}, {"md_atom_id": "md_dmCM_ex_a002", "md_file": "knowledge_base/domains/CM/examples.md", "md_atom_type": "HEADING", "md_parent_section": "§CM.1 [Example 1]", "md_verbatim": "## Example 1", "score": 0.4, "match_basis": "verbatim_token+domain_route:CM"}, {"md_atom_id": "md_dmCM_ex_a022", "md_file": "knowledge_base/domains/CM/examples.md", "md_atom_type": "HEADING", "md_parent_section": "§CM.2 [Example 2]", "md_verbatim": "## Example 2", "score": 0.4, "match_basis": "verbatim_token+domain_route:CM"}, {"md_atom_id": "md_dmCM_ex_a029", "md_file": "knowledge_base/domains/CM/examples.md", "md_atom_type": "HEADING", "md_parent_section": "§CM.3 [Example 3]", "md_verbatim": "## Example 3", "score": 0.4, "match_basis": "verbatim_token+domain_route:CM"}], "candidate_count": 5, "zero_candidate": false}
{"pdf_atom_id": "ig34_p0098_a003", "pdf_atom_type": "SENTENCE", "pdf_source": "SDTMIG_v3.4", "pdf_page": 98, "pdf_parent_section": "§6.1.2 [Concomitant/Prior Medications (CM)]", "pdf_verbatim": "An interventions domain that contains concomitant and prior medications used by the subject, such as those given on an as needed basis or condition-appropriate medications.", "figure_ref": null, "candidates": [{"md_atom_id": "md_dmCM_ex_a030", "md_file": "knowledge_base/domains/CM/examples.md", "md_atom_type": "SENTENCE", "md_parent_section": "§CM.3 [Example 3]", "md_verbatim": "Sponsors often are interested in whether subjects are exposed to specific concomitant medications, and collect this information using a checklist.", "score": 0.5452, "match_basis": "verbatim_token+domain_route:CM"}, {"md_atom_id": "md_dmCM_ex_a005", "md_file": "knowledge_base/domains/CM/examples.md", "md_atom_type": "SENTENCE", "md_parent_section": "§CM.1 [Example 1]", "md_verbatim": "If appropriate, medications taken as needed (intermittently or sporadically over a time period) may be reported with a start and end date and a frequency of \"PRN\".", "score": 0.545, "match_basis": "verbatim_token+domain_route:CM"}, {"md_atom_id": "md_dmCM_ex_a067", "md_file": "knowledge_base/domains/CM/examples.md", "md_atom_type": "SENTENCE", "md_parent_section": "§CM.5 [Example 5]", "md_verbatim": "**Row 3:** Shows that subject 102 received prior RA medications.", "score": 0.5429, "match_basis": "verbatim_token+domain_route:CM"}, {"md_atom_id": "md_dmCM_ex_a031", "md_file": "knowledge_base/domains/CM/examples.md", "md_atom_type": "SENTENCE", "md_parent_section": "§CM.3 [Example 3]", "md_verbatim": "This example is for a study that had a particular interest in the antidepressant medications that subjects used.", "score": 0.5358, "match_basis": "verbatim_token+domain_route:CM"}, {"md_atom_id": "md_dmCM_ex_a003", "md_file": "knowledge_base/domains/CM/examples.md", "md_atom_type": "SENTENCE", "md_parent_section": "§CM.1 [Example 1]", "md_verbatim": "Sponsors collect the timing of concomitant medication use with varying specificity, depending on the pattern of use; the type, purpose, and importance of the medication; and the needs of the study.", "score": 0.5266, "match_basis": "verbatim_token+domain_route:CM"}], "candidate_count": 5, "zero_candidate": false}
{"pdf_atom_id": "ig34_p0098_a004", "pdf_atom_type": "HEADING", "pdf_source": "SDTMIG_v3.4", "pdf_page": 98, "pdf_parent_section": "§6.1.2 [Concomitant/Prior Medications (CM)]", "pdf_verbatim": "CM – Specification", "figure_ref": null, "candidates": [{"md_atom_id": "md_dmCM_assn_a001", "md_file": "knowledge_base/domains/CM/assumptions.md", "md_atom_type": "HEADING", "md_parent_section": "§CM [CM — Assumptions]", "md_verbatim": "# CM — Assumptions", "score": 0.4667, "match_basis": "verbatim_token+domain_route:CM"}, {"md_atom_id": "md_dmCM_ex_a001", "md_file": "knowledge_base/domains/CM/examples.md", "md_atom_type": "HEADING", "md_parent_section": "§CM [CM — Examples]", "md_verbatim": "# CM — Examples", "score": 0.4, "match_basis": "verbatim_token+domain_route:CM"}, {"md_atom_id": "md_dmCM_ex_a002", "md_file": "knowledge_base/domains/CM/examples.md", "md_atom_type": "HEADING", "md_parent_section": "§CM.1 [Example 1]", "md_verbatim": "## Example 1", "score": 0.4, "match_basis": "verbatim_token+domain_route:CM"}, {"md_atom_id": "md_dmCM_ex_a022", "md_file": "knowledge_base/domains/CM/examples.md", "md_atom_type": "HEADING", "md_parent_section": "§CM.2 [Example 2]", "md_verbatim": "## Example 2", "score": 0.4, "match_basis": "verbatim_token+domain_route:CM"}, {"md_atom_id": "md_dmCM_ex_a029", "md_file": "knowledge_base/domains/CM/examples.md", "md_atom_type": "HEADING", "md_parent_section": "§CM.3 [Example 3]", "md_verbatim": "## Example 3", "score": 0.4, "match_basis": "verbatim_token+domain_route:CM"}], "candidate_count": 5, "zero_candidate": false}
{"pdf_atom_id": "ig34_p0098_a005", "pdf_atom_type": "SENTENCE", "pdf_source": "SDTMIG_v3.4", "pdf_page": 98, "pdf_parent_section": "§6.1.2 [Concomitant/Prior Medications (CM)]", "pdf_verbatim": "cm.xpt, Concomitant/Prior Medications — Interventions. One record per recorded intervention occurrence or constant-dosing interval per subject, Tabulation.", "figure_ref": null, "candidates": [{"md_atom_id": "md_dmCM_ex_a030", "md_file": "knowledge_base/domains/CM/examples.md", "md_atom_type": "SENTENCE", "md_parent_section": "§CM.3 [Example 3]", "md_verbatim": "Sponsors often are interested in whether subjects are exposed to specific concomitant medications, and collect this information using a checklist.", "score": 0.5448, "match_basis": "verbatim_token+domain_route:CM"}, {"md_atom_id": "md_dmCM_ex_a067", "md_file": "knowledge_base/domains/CM/examples.md", "md_atom_type": "SENTENCE", "md_parent_section": "§CM.5 [Example 5]", "md_verbatim": "**Row 3:** Shows that subject 102 received prior RA medications.", "score": 0.5421, "match_basis": "verbatim_token+domain_route:CM"}, {"md_atom_id": "md_dmCM_ex_a024", "md_file": "knowledge_base/domains/CM/examples.md", "md_atom_type": "SENTENCE", "md_parent_section": "§CM.2 [Example 2]", "md_verbatim": "The medication history, dosing, and so on was not of interest; the study only asked for the anticonvulsants to which subjects were exposed.", "score": 0.5327, "match_basis": "verbatim_token+domain_route:CM"}, {"md_atom_id": "md_dmCM_ex_a063", "md_file": "knowledge_base/domains/CM/examples.md", "md_atom_type": "SENTENCE", "md_parent_section": "§CM.5 [Example 5]", "md_verbatim": "This example shows data for 2 subjects who received prior RA medications.", "score": 0.5286, "match_basis": "verbatim_token+domain_route:CM"}, {"md_atom_id": "md_dmCM_ex_a023", "md_file": "knowledge_base/domains/CM/examples.md", "md_atom_type": "SENTENCE", "md_parent_section": "§CM.2 [Example 2]", "md_verbatim": "In this example study, it was of particular interest whether subjects use any anticonvulsant medications.", "score": 0.526, "match_basis": "verbatim_token+domain_route:CM"}], "candidate_count": 5, "zero_candidate": false}
{"pdf_atom_id": "ig34_p0098_a006", "pdf_atom_type": "TABLE_HEADER", "pdf_source": "SDTMIG_v3.4", "pdf_page": 98, "pdf_parent_section": "§6.1.2 [Concomitant/Prior Medications (CM)]", "pdf_verbatim": "Variable Name | Variable Label | Type | Controlled Terms, Codelist or Format1 | Role | CDISC Notes | Core", "figure_ref": null, "candidates": [{"md_atom_id": "md_dmCM_ex_a053", "md_file": "knowledge_base/domains/CM/examples.md", "md_atom_type": "TABLE_HEADER", "md_parent_section": "§CM.4 [Example 4]", "md_verbatim": "| Row | STUDYID | DOMAIN | USUBJID | CMSEQ | CMGRPID | CMTRT | CMCAT | CMDOSFRM | CMROUTE | CMRSDISC |\n|-----|---------|--------|---------|-------|---------|-------|-------|----------|---------|----------|", "score": 0.4138, "match_basis": "verbatim_token+domain_route:CM"}, {"md_atom_id": "md_dmCM_ex_a011", "md_file": "knowledge_base/domains/CM/examples.md", "md_atom_type": "TABLE_HEADER", "md_parent_section": "§CM.1 [Example 1]", "md_verbatim": "| Row | STUDYID | DOMAIN | USUBJID | CMSEQ | CMTRT | CMDOSE | CMDOSU | CMDOSFRQ | CMSTDTC | CMENDTC |\n|-----|---------|--------|---------|-------|-------|--------|--------|----------|---------|---------|", "score": 0.4, "match_basis": "verbatim_token+domain_route:CM"}, {"md_atom_id": "md_dmCM_ex_a026", "md_file": "knowledge_base/domains/CM/examples.md", "md_atom_type": "TABLE_HEADER", "md_parent_section": "§CM.2 [Example 2]", "md_verbatim": "| Row | STUDYID | DOMAIN | USUBJID | CMSEQ | CMTRT | CMCAT |\n|-----|---------|--------|---------|-------|-------|-------|", "score": 0.4, "match_basis": "verbatim_token+domain_route:CM"}, {"md_atom_id": "md_dmCM_ex_a043", "md_file": "knowledge_base/domains/CM/examples.md", "md_atom_type": "TABLE_HEADER", "md_parent_section": "§CM.3 [Example 3]", "md_verbatim": "| Row | STUDYID | DOMAIN | USUBJID | CMSEQ | CMTRT | CMPRESP | CMOCCUR | CMSTAT | CMREASND |\n|-----|---------|--------|---------|-------|-------|---------|---------|--------|----------|", "score": 0.4, "match_basis": "verbatim_token+domain_route:CM"}, {"md_atom_id": "md_dmCM_ex_a071", "md_file": "knowledge_base/domains/CM/examples.md", "md_atom_type": "TABLE_HEADER", "md_parent_section": "§CM.5 [Example 5]", "md_verbatim": "| Row | STUDYID | DOMAIN | USUBJID | CMSEQ | CMTRT | CMCAT | CMSCAT | CMPRESP | CMOCCUR | CMINDC | CMDTC | CMDY | CMENRTPT | CMENTPT |\n|-----|---------|--------|---------|-------|-------|-------|--------|---------|---------|--------|-------|------|----------|---------|", "score": 0.4, "match_basis": "verbatim_token+domain_route:CM"}], "candidate_count": 5, "zero_candidate": false}
{"pdf_atom_id": "ig34_p0098_a007", "pdf_atom_type": "TABLE_ROW", "pdf_source": "SDTMIG_v3.4", "pdf_page": 98, "pdf_parent_section": "§6.1.2 [Concomitant/Prior Medications (CM)]", "pdf_verbatim": "STUDYID | Study Identifier | Char | | Identifier | Unique identifier for a study. | Req", "figure_ref": null, "candidates": [{"md_atom_id": "md_dmCM_ex_a028", "md_file": "knowledge_base/domains/CM/examples.md", "md_atom_type": "TABLE_ROW", "md_parent_section": "§CM.2 [Example 2]", "md_verbatim": "| 2 | ABC123 | CM | 1 | 2 | VPA | ANTI-CONVULSANT |", "score": 0.4176, "match_basis": "verbatim_token+domain_route:CM"}, {"md_atom_id": "md_dmCM_ex_a027", "md_file": "knowledge_base/domains/CM/examples.md", "md_atom_type": "TABLE_ROW", "md_parent_section": "§CM.2 [Example 2]", "md_verbatim": "| 1 | ABC123 | CM | 1 | 1 | LITHIUM | ANTI-CONVULSANT |", "score": 0.4158, "match_basis": "verbatim_token+domain_route:CM"}, {"md_atom_id": "md_dmCM_ex_a026", "md_file": "knowledge_base/domains/CM/examples.md", "md_atom_type": "TABLE_HEADER", "md_parent_section": "§CM.2 [Example 2]", "md_verbatim": "| Row | STUDYID | DOMAIN | USUBJID | CMSEQ | CMTRT | CMCAT |\n|-----|---------|--------|---------|-------|-------|-------|", "score": 0.415, "match_basis": "verbatim_token+domain_route:CM"}, {"md_atom_id": "md_dmCM_ex_a055", "md_file": "knowledge_base/domains/CM/examples.md", "md_atom_type": "TABLE_ROW", "md_parent_section": "§CM.4 [Example 4]", "md_verbatim": "| 2 | ABC123 | CM | ABC123-765 | 2 | 1 | RIBAVIRIN | HCV TREATMENT | TABLET | ORAL | COMPLETED SCHEDULED TREATMENT |", "score": 0.4102, "match_basis": "verbatim_token+domain_route:CM"}, {"md_atom_id": "md_dmCM_ex_a056", "md_file": "knowledge_base/domains/CM/examples.md", "md_atom_type": "TABLE_ROW", "md_parent_section": "§CM.4 [Example 4]", "md_verbatim": "| 3 | ABC123 | CM | ABC123-765 | 3 | 1 | BOCEPREVIR | HCV TREATMENT | TABLET | ORAL | COMPLETED SCHEDULED TREATMENT |", "score": 0.41, "match_basis": "verbatim_token+domain_route:CM"}], "candidate_count": 5, "zero_candidate": false}
{"pdf_atom_id": "ig34_p0098_a008", "pdf_atom_type": "TABLE_ROW", "pdf_source": "SDTMIG_v3.4", "pdf_page": 98, "pdf_parent_section": "§6.1.2 [Concomitant/Prior Medications (CM)]", "pdf_verbatim": "DOMAIN | Domain Abbreviation | Char | CM | Identifier | Two-character abbreviation for the domain. | Req", "figure_ref": null, "candidates": [{"md_atom_id": "md_dmCM_ex_a046", "md_file": "knowledge_base/domains/CM/examples.md", "md_atom_type": "TABLE_ROW", "md_parent_section": "§CM.3 [Example 3]", "md_verbatim": "| 3 | ABC123 | CM | 1 | 3 | PAXIL | Y | | NOT DONE | Didn't ask due to interruption |", "score": 0.4333, "match_basis": "verbatim_token+domain_route:CM"}, {"md_atom_id": "md_dmCM_ex_a076", "md_file": "knowledge_base/domains/CM/examples.md", "md_atom_type": "TABLE_ROW", "md_parent_section": "§CM.5 [Example 5]", "md_verbatim": "| 5 | ABC123 | CM | 102 | 3 | SULFASALAZINE | PRIOR RA MEDICATIONS | PRIOR DMARDS | | | RHEUMATOID ARTHRITIS | 2020-01-25 | -3 | BEFORE | 2020-01-25 |", "score": 0.4293, "match_basis": "verbatim_token+domain_route:CM"}, {"md_atom_id": "md_dmCM_ex_a072", "md_file": "knowledge_base/domains/CM/examples.md", "md_atom_type": "TABLE_ROW", "md_parent_section": "§CM.5 [Example 5]", "md_verbatim": "| 1 | ABC123 | CM | 101 | 1 | PRIOR RA MEDICATIONS | PRIOR RA MEDICATIONS | | Y | Y | RHEUMATOID ARTHRITIS | 2020-02-02 | -1 | | |", "score": 0.4281, "match_basis": "verbatim_token+domain_route:CM"}, {"md_atom_id": "md_dmCM_ex_a074", "md_file": "knowledge_base/domains/CM/examples.md", "md_atom_type": "TABLE_ROW", "md_parent_section": "§CM.5 [Example 5]", "md_verbatim": "| 3 | ABC123 | CM | 102 | 1 | PRIOR RA MEDICATIONS | PRIOR RA MEDICATIONS | | Y | Y | RHEUMATOID ARTHRITIS | 2020-01-25 | -3 | | |", "score": 0.4281, "match_basis": "verbatim_token+domain_route:CM"}, {"md_atom_id": "md_dmCM_ex_a073", "md_file": "knowledge_base/domains/CM/examples.md", "md_atom_type": "TABLE_ROW", "md_parent_section": "§CM.5 [Example 5]", "md_verbatim": "| 2 | ABC123 | CM | 101 | 2 | PRIOR DMARDS | PRIOR RA MEDICATIONS | PRIOR DMARDS | Y | N | RHEUMATOID ARTHRITIS | 2020-02-02 | -1 | | |", "score": 0.4265, "match_basis": "verbatim_token+domain_route:CM"}], "candidate_count": 5, "zero_candidate": false}
{"pdf_atom_id": "ig34_p0098_a009", "pdf_atom_type": "TABLE_ROW", "pdf_source": "SDTMIG_v3.4", "pdf_page": 98, "pdf_parent_section": "§6.1.2 [Concomitant/Prior Medications (CM)]", "pdf_verbatim": "USUBJID | Unique Subject Identifier | Char | | Identifier | Identifier used to uniquely identify a subject across all studies for all applications or submissions involving the product. | Req", "figure_ref": null, "candidates": [{"md_atom_id": "md_dmCM_ex_a072", "md_file": "knowledge_base/domains/CM/examples.md", "md_atom_type": "TABLE_ROW", "md_parent_section": "§CM.5 [Example 5]", "md_verbatim": "| 1 | ABC123 | CM | 101 | 1 | PRIOR RA MEDICATIONS | PRIOR RA MEDICATIONS | | Y | Y | RHEUMATOID ARTHRITIS | 2020-02-02 | -1 | | |", "score": 0.4375, "match_basis": "verbatim_token+domain_route:CM"}, {"md_atom_id": "md_dmCM_ex_a074", "md_file": "knowledge_base/domains/CM/examples.md", "md_atom_type": "TABLE_ROW", "md_parent_section": "§CM.5 [Example 5]", "md_verbatim": "| 3 | ABC123 | CM | 102 | 1 | PRIOR RA MEDICATIONS | PRIOR RA MEDICATIONS | | Y | Y | RHEUMATOID ARTHRITIS | 2020-01-25 | -3 | | |", "score": 0.4375, "match_basis": "verbatim_token+domain_route:CM"}, {"md_atom_id": "md_dmCM_ex_a076", "md_file": "knowledge_base/domains/CM/examples.md", "md_atom_type": "TABLE_ROW", "md_parent_section": "§CM.5 [Example 5]", "md_verbatim": "| 5 | ABC123 | CM | 102 | 3 | SULFASALAZINE | PRIOR RA MEDICATIONS | PRIOR DMARDS | | | RHEUMATOID ARTHRITIS | 2020-01-25 | -3 | BEFORE | 2020-01-25 |", "score": 0.4368, "match_basis": "verbatim_token+domain_route:CM"}, {"md_atom_id": "md_dmCM_ex_a077", "md_file": "knowledge_base/domains/CM/examples.md", "md_atom_type": "TABLE_ROW", "md_parent_section": "§CM.5 [Example 5]", "md_verbatim": "| 6 | ABC123 | CM | 102 | 4 | METHOTREXATE | PRIOR RA MEDICATIONS | PRIOR DMARDS | | | RHEUMATOID ARTHRITIS | 2020-01-25 | -3 | ONGOING | 2020-01-25 |", "score": 0.4368, "match_basis": "verbatim_token+domain_route:CM"}, {"md_atom_id": "md_dmCM_ex_a073", "md_file": "knowledge_base/domains/CM/examples.md", "md_atom_type": "TABLE_ROW", "md_parent_section": "§CM.5 [Example 5]", "md_verbatim": "| 2 | ABC123 | CM | 101 | 2 | PRIOR DMARDS | PRIOR RA MEDICATIONS | PRIOR DMARDS | Y | N | RHEUMATOID ARTHRITIS | 2020-02-02 | -1 | | |", "score": 0.436, "match_basis": "verbatim_token+domain_route:CM"}], "candidate_count": 5, "zero_candidate": false}
{"pdf_atom_id": "ig34_p0098_a010", "pdf_atom_type": "TABLE_ROW", "pdf_source": "SDTMIG_v3.4", "pdf_page": 98, "pdf_parent_section": "§6.1.2 [Concomitant/Prior Medications (CM)]", "pdf_verbatim": "CMSEQ | Sequence Number | Num | | Identifier | Sequence number to ensure uniqueness of subject records within a domain. May be any valid number. | Req", "figure_ref": null, "candidates": [{"md_atom_id": "md_dmCM_ex_a057", "md_file": "knowledge_base/domains/CM/examples.md", "md_atom_type": "TABLE_ROW", "md_parent_section": "§CM.4 [Example 4]", "md_verbatim": "| 4 | ABC123 | CM | ABC123-899 | 1 | 1 | PEGINTRON | HCV TREATMENT | INJECTION | SUBCUTANEOUS | TOXICITY/INTOLERANCE |", "score": 0.43, "match_basis": "verbatim_token+domain_route:CM"}, {"md_atom_id": "md_dmCM_ex_a027", "md_file": "knowledge_base/domains/CM/examples.md", "md_atom_type": "TABLE_ROW", "md_parent_section": "§CM.2 [Example 2]", "md_verbatim": "| 1 | ABC123 | CM | 1 | 1 | LITHIUM | ANTI-CONVULSANT |", "score": 0.4261, "match_basis": "verbatim_token+domain_route:CM"}, {"md_atom_id": "md_dmCM_ex_a054", "md_file": "knowledge_base/domains/CM/examples.md", "md_atom_type": "TABLE_ROW", "md_parent_section": "§CM.4 [Example 4]", "md_verbatim": "| 1 | ABC123 | CM | ABC123-765 | 1 | 1 | PEGINTRON | HCV TREATMENT | INJECTION | SUBCUTANEOUS | COMPLETED SCHEDULED TREATMENT |", "score": 0.4238, "match_basis": "verbatim_token+domain_route:CM"}, {"md_atom_id": "md_dmCM_ex_a026", "md_file": "knowledge_base/domains/CM/examples.md", "md_atom_type": "TABLE_HEADER", "md_parent_section": "§CM.2 [Example 2]", "md_verbatim": "| Row | STUDYID | DOMAIN | USUBJID | CMSEQ | CMTRT | CMCAT |\n|-----|---------|--------|---------|-------|-------|-------|", "score": 0.4183, "match_basis": "verbatim_token+domain_route:CM"}, {"md_atom_id": "md_dmCM_ex_a058", "md_file": "knowledge_base/domains/CM/examples.md", "md_atom_type": "TABLE_ROW", "md_parent_section": "§CM.4 [Example 4]", "md_verbatim": "| 5 | ABC123 | CM | ABC123-899 | 2 | 1 | RIBAVIRIN | HCV TREATMENT | TABLET | ORAL | TOXICITY/INTOLERANCE |", "score": 0.4129, "match_basis": "verbatim_token+domain_route:CM"}], "candidate_count": 5, "zero_candidate": false}
{"pdf_atom_id": "ig34_p0098_a011", "pdf_atom_type": "TABLE_ROW", "pdf_source": "SDTMIG_v3.4", "pdf_page": 98, "pdf_parent_section": "§6.1.2 [Concomitant/Prior Medications (CM)]", "pdf_verbatim": "CMGRPID | Group ID | Char | | Identifier | Used to tie together a block of related records in a single domain for a subject. | Perm", "figure_ref": null, "candidates": [{"md_atom_id": "md_dmCM_ex_a054", "md_file": "knowledge_base/domains/CM/examples.md", "md_atom_type": "TABLE_ROW", "md_parent_section": "§CM.4 [Example 4]", "md_verbatim": "| 1 | ABC123 | CM | ABC123-765 | 1 | 1 | PEGINTRON | HCV TREATMENT | INJECTION | SUBCUTANEOUS | COMPLETED SCHEDULED TREATMENT |", "score": 0.4294, "match_basis": "verbatim_token+domain_route:CM"}, {"md_atom_id": "md_dmCM_ex_a057", "md_file": "knowledge_base/domains/CM/examples.md", "md_atom_type": "TABLE_ROW", "md_parent_section": "§CM.4 [Example 4]", "md_verbatim": "| 4 | ABC123 | CM | ABC123-899 | 1 | 1 | PEGINTRON | HCV TREATMENT | INJECTION | SUBCUTANEOUS | TOXICITY/INTOLERANCE |", "score": 0.4233, "match_basis": "verbatim_token+domain_route:CM"}, {"md_atom_id": "md_dmCM_ex_a077", "md_file": "knowledge_base/domains/CM/examples.md", "md_atom_type": "TABLE_ROW", "md_parent_section": "§CM.5 [Example 5]", "md_verbatim": "| 6 | ABC123 | CM | 102 | 4 | METHOTREXATE | PRIOR RA MEDICATIONS | PRIOR DMARDS | | | RHEUMATOID ARTHRITIS | 2020-01-25 | -3 | ONGOING | 2020-01-25 |", "score": 0.4229, "match_basis": "verbatim_token+domain_route:CM"}, {"md_atom_id": "md_dmCM_ex_a053", "md_file": "knowledge_base/domains/CM/examples.md", "md_atom_type": "TABLE_HEADER", "md_parent_section": "§CM.4 [Example 4]", "md_verbatim": "| Row | STUDYID | DOMAIN | USUBJID | CMSEQ | CMGRPID | CMTRT | CMCAT | CMDOSFRM | CMROUTE | CMRSDISC |\n|-----|---------|--------|---------|-------|---------|-------|-------|----------|---------|----------|", "score": 0.4209, "match_basis": "verbatim_token+domain_route:CM"}, {"md_atom_id": "md_dmCM_ex_a055", "md_file": "knowledge_base/domains/CM/examples.md", "md_atom_type": "TABLE_ROW", "md_parent_section": "§CM.4 [Example 4]", "md_verbatim": "| 2 | ABC123 | CM | ABC123-765 | 2 | 1 | RIBAVIRIN | HCV TREATMENT | TABLET | ORAL | COMPLETED SCHEDULED TREATMENT |", "score": 0.4129, "match_basis": "verbatim_token+domain_route:CM"}], "candidate_count": 5, "zero_candidate": false}
{"pdf_atom_id": "ig34_p0098_a012", "pdf_atom_type": "TABLE_ROW", "pdf_source": "SDTMIG_v3.4", "pdf_page": 98, "pdf_parent_section": "§6.1.2 [Concomitant/Prior Medications (CM)]", "pdf_verbatim": "CMSPID | Sponsor-Defined Identifier | Char | | Identifier | Sponsor-defined reference number. Example: a number preprinted on the CRF as an explicit line identifier or record identifier defined in the sponsor's operational database. Example: line number on a concomitant medication page. | Perm", "figure_ref": null, "candidates": [{"md_atom_id": "md_dmCM_ex_a072", "md_file": "knowledge_base/domains/CM/examples.md", "md_atom_type": "TABLE_ROW", "md_parent_section": "§CM.5 [Example 5]", "md_verbatim": "| 1 | ABC123 | CM | 101 | 1 | PRIOR RA MEDICATIONS | PRIOR RA MEDICATIONS | | Y | Y | RHEUMATOID ARTHRITIS | 2020-02-02 | -1 | | |", "score": 0.4513, "match_basis": "verbatim_token+domain_route:CM"}, {"md_atom_id": "md_dmCM_ex_a074", "md_file": "knowledge_base/domains/CM/examples.md", "md_atom_type": "TABLE_ROW", "md_parent_section": "§CM.5 [Example 5]", "md_verbatim": "| 3 | ABC123 | CM | 102 | 1 | PRIOR RA MEDICATIONS | PRIOR RA MEDICATIONS | | Y | Y | RHEUMATOID ARTHRITIS | 2020-01-25 | -3 | | |", "score": 0.4513, "match_basis": "verbatim_token+domain_route:CM"}, {"md_atom_id": "md_dmCM_ex_a073", "md_file": "knowledge_base/domains/CM/examples.md", "md_atom_type": "TABLE_ROW", "md_parent_section": "§CM.5 [Example 5]", "md_verbatim": "| 2 | ABC123 | CM | 101 | 2 | PRIOR DMARDS | PRIOR RA MEDICATIONS | PRIOR DMARDS | Y | N | RHEUMATOID ARTHRITIS | 2020-02-02 | -1 | | |", "score": 0.4496, "match_basis": "verbatim_token+domain_route:CM"}, {"md_atom_id": "md_dmCM_ex_a075", "md_file": "knowledge_base/domains/CM/examples.md", "md_atom_type": "TABLE_ROW", "md_parent_section": "§CM.5 [Example 5]", "md_verbatim": "| 4 | ABC123 | CM | 102 | 2 | PRIOR DMARDS | PRIOR RA MEDICATIONS | PRIOR DMARDS | Y | Y | RHEUMATOID ARTHRITIS | 2020-01-25 | -3 | | |", "score": 0.4496, "match_basis": "verbatim_token+domain_route:CM"}, {"md_atom_id": "md_dmCM_ex_a076", "md_file": "knowledge_base/domains/CM/examples.md", "md_atom_type": "TABLE_ROW", "md_parent_section": "§CM.5 [Example 5]", "md_verbatim": "| 5 | ABC123 | CM | 102 | 3 | SULFASALAZINE | PRIOR RA MEDICATIONS | PRIOR DMARDS | | | RHEUMATOID ARTHRITIS | 2020-01-25 | -3 | BEFORE | 2020-01-25 |", "score": 0.4489, "match_basis": "verbatim_token+domain_route:CM"}], "candidate_count": 5, "zero_candidate": false}
{"pdf_atom_id": "ig34_p0098_a013", "pdf_atom_type": "TABLE_ROW", "pdf_source": "SDTMIG_v3.4", "pdf_page": 98, "pdf_parent_section": "§6.1.2 [Concomitant/Prior Medications (CM)]", "pdf_verbatim": "CMTRT | Reported Name of Drug, Med, or Therapy | Char | | Topic | Verbatim medication name that is either preprinted or collected on a CRF. | Req", "figure_ref": null, "candidates": [{"md_atom_id": "md_dmCM_ex_a072", "md_file": "knowledge_base/domains/CM/examples.md", "md_atom_type": "TABLE_ROW", "md_parent_section": "§CM.5 [Example 5]", "md_verbatim": "| 1 | ABC123 | CM | 101 | 1 | PRIOR RA MEDICATIONS | PRIOR RA MEDICATIONS | | Y | Y | RHEUMATOID ARTHRITIS | 2020-02-02 | -1 | | |", "score": 0.4684, "match_basis": "verbatim_token+domain_route:CM"}, {"md_atom_id": "md_dmCM_ex_a074", "md_file": "knowledge_base/domains/CM/examples.md", "md_atom_type": "TABLE_ROW", "md_parent_section": "§CM.5 [Example 5]", "md_verbatim": "| 3 | ABC123 | CM | 102 | 1 | PRIOR RA MEDICATIONS | PRIOR RA MEDICATIONS | | Y | Y | RHEUMATOID ARTHRITIS | 2020-01-25 | -3 | | |", "score": 0.4684, "match_basis": "verbatim_token+domain_route:CM"}, {"md_atom_id": "md_dmCM_ex_a073", "md_file": "knowledge_base/domains/CM/examples.md", "md_atom_type": "TABLE_ROW", "md_parent_section": "§CM.5 [Example 5]", "md_verbatim": "| 2 | ABC123 | CM | 101 | 2 | PRIOR DMARDS | PRIOR RA MEDICATIONS | PRIOR DMARDS | Y | N | RHEUMATOID ARTHRITIS | 2020-02-02 | -1 | | |", "score": 0.4651, "match_basis": "verbatim_token+domain_route:CM"}, {"md_atom_id": "md_dmCM_ex_a075", "md_file": "knowledge_base/domains/CM/examples.md", "md_atom_type": "TABLE_ROW", "md_parent_section": "§CM.5 [Example 5]", "md_verbatim": "| 4 | ABC123 | CM | 102 | 2 | PRIOR DMARDS | PRIOR RA MEDICATIONS | PRIOR DMARDS | Y | Y | RHEUMATOID ARTHRITIS | 2020-01-25 | -3 | | |", "score": 0.4651, "match_basis": "verbatim_token+domain_route:CM"}, {"md_atom_id": "md_dmCM_ex_a076", "md_file": "knowledge_base/domains/CM/examples.md", "md_atom_type": "TABLE_ROW", "md_parent_section": "§CM.5 [Example 5]", "md_verbatim": "| 5 | ABC123 | CM | 102 | 3 | SULFASALAZINE | PRIOR RA MEDICATIONS | PRIOR DMARDS | | | RHEUMATOID ARTHRITIS | 2020-01-25 | -3 | BEFORE | 2020-01-25 |", "score": 0.4551, "match_basis": "verbatim_token+domain_route:CM"}], "candidate_count": 5, "zero_candidate": false}
{"pdf_atom_id": "ig34_p0098_a014", "pdf_atom_type": "TABLE_ROW", "pdf_source": "SDTMIG_v3.4", "pdf_page": 98, "pdf_parent_section": "§6.1.2 [Concomitant/Prior Medications (CM)]", "pdf_verbatim": "CMMODIFY | Modified Reported Name | Char | | Synonym Qualifier | If CMTRT is modified to facilitate coding, then CMMODIFY will contain the modified text. | Perm", "figure_ref": null, "candidates": [{"md_atom_id": "md_dmCM_ex_a027", "md_file": "knowledge_base/domains/CM/examples.md", "md_atom_type": "TABLE_ROW", "md_parent_section": "§CM.2 [Example 2]", "md_verbatim": "| 1 | ABC123 | CM | 1 | 1 | LITHIUM | ANTI-CONVULSANT |", "score": 0.4167, "match_basis": "verbatim_token+domain_route:CM"}, {"md_atom_id": "md_dmCM_ex_a077", "md_file": "knowledge_base/domains/CM/examples.md", "md_atom_type": "TABLE_ROW", "md_parent_section": "§CM.5 [Example 5]", "md_verbatim": "| 6 | ABC123 | CM | 102 | 4 | METHOTREXATE | PRIOR RA MEDICATIONS | PRIOR DMARDS | | | RHEUMATOID ARTHRITIS | 2020-01-25 | -3 | ONGOING | 2020-01-25 |", "score": 0.4112, "match_basis": "verbatim_token+domain_route:CM"}, {"md_atom_id": "md_dmCM_ex_a028", "md_file": "knowledge_base/domains/CM/examples.md", "md_atom_type": "TABLE_ROW", "md_parent_section": "§CM.2 [Example 2]", "md_verbatim": "| 2 | ABC123 | CM | 1 | 2 | VPA | ANTI-CONVULSANT |", "score": 0.4087, "match_basis": "verbatim_token+domain_route:CM"}, {"md_atom_id": "md_dmCM_ex_a055", "md_file": "knowledge_base/domains/CM/examples.md", "md_atom_type": "TABLE_ROW", "md_parent_section": "§CM.4 [Example 4]", "md_verbatim": "| 2 | ABC123 | CM | ABC123-765 | 2 | 1 | RIBAVIRIN | HCV TREATMENT | TABLET | ORAL | COMPLETED SCHEDULED TREATMENT |", "score": 0.4064, "match_basis": "verbatim_token+domain_route:CM"}, {"md_atom_id": "md_dmCM_ex_a056", "md_file": "knowledge_base/domains/CM/examples.md", "md_atom_type": "TABLE_ROW", "md_parent_section": "§CM.4 [Example 4]", "md_verbatim": "| 3 | ABC123 | CM | ABC123-765 | 3 | 1 | BOCEPREVIR | HCV TREATMENT | TABLET | ORAL | COMPLETED SCHEDULED TREATMENT |", "score": 0.4063, "match_basis": "verbatim_token+domain_route:CM"}], "candidate_count": 5, "zero_candidate": false}
{"pdf_atom_id": "ig34_p0098_a015", "pdf_atom_type": "TABLE_ROW", "pdf_source": "SDTMIG_v3.4", "pdf_page": 98, "pdf_parent_section": "§6.1.2 [Concomitant/Prior Medications (CM)]", "pdf_verbatim": "CMDECOD | Standardized Medication Name | Char | | Synonym Qualifier | Standardized or dictionary-derived text description of CMTRT or CMMODIFY. Equivalent to the generic drug name in WHO Drug. The sponsor is expected to provide the dictionary name and version used to map the terms utilizing the external codelist element in the Define-XML document. If an intervention term does not have a decode value in the dictionary, then CMDECOD will be left blank. | Perm", "figure_ref": null, "candidates": [{"md_atom_id": "md_dmCM_assn_a003", "md_file": "knowledge_base/domains/CM/assumptions.md", "md_atom_type": "LIST_ITEM", "md_parent_section": "§CM [CM — Assumptions]", "md_verbatim": "2. CM description and coding\n   a. CMTRT is the topic variable and captures the name of the concomitant medication/therapy or the prespecified term used to collect information about the occurrence of any of a group of medications and/or therapies. It is a required variable and must have a value. CMTRT only includes the medication/therapy name and does not include dosage, formulation, or other qualifying information. For example, \"ASPIRIN 100MG TABLET\" is not a valid value for CMTRT. This example should be expressed as CMTRT= \"ASPIRIN\", CMDOSE= \"100\", CMDOSU= \"MG\", and CMDOSFRM= \"TABLET\". When referring to a prespecified group of medications/therapies, CMTRT contains the description of the group used to solicit the occurrence response.\n   b. CMMODIFY should be included if the sponsor's procedure permits modification of a verbatim term for coding.\n   c. CMDECOD is the standardized medication/therapy term derived by the sponsor from the coding dictionary. It is expected that the reported term (CMTRT) or the modified term (CMMODIFY) will be coded using a standard dictionary. The sponsor is expected to provide the dictionary name and version used to map the terms utilizing the external codelist element in the Define-XML document. If an intervention term does not have a decode value in the dictionary, then CMDECOD will be left blank.\n   d. When CMDECOD values from the WHODrug Dictionary are longer than 200 characters, split the values at semicolons rather than spaces when implementing guidance in Section 4.5.3.2, Text Strings Greater than 200 Characters.", "score": 0.4633, "match_basis": "verbatim_token+domain_route:CM"}, {"md_atom_id": "md_dmCM_ex_a076", "md_file": "knowledge_base/domains/CM/examples.md", "md_atom_type": "TABLE_ROW", "md_parent_section": "§CM.5 [Example 5]", "md_verbatim": "| 5 | ABC123 | CM | 102 | 3 | SULFASALAZINE | PRIOR RA MEDICATIONS | PRIOR DMARDS | | | RHEUMATOID ARTHRITIS | 2020-01-25 | -3 | BEFORE | 2020-01-25 |", "score": 0.4358, "match_basis": "verbatim_token+domain_route:CM"}, {"md_atom_id": "md_dmCM_ex_a077", "md_file": "knowledge_base/domains/CM/examples.md", "md_atom_type": "TABLE_ROW", "md_parent_section": "§CM.5 [Example 5]", "md_verbatim": "| 6 | ABC123 | CM | 102 | 4 | METHOTREXATE | PRIOR RA MEDICATIONS | PRIOR DMARDS | | | RHEUMATOID ARTHRITIS | 2020-01-25 | -3 | ONGOING | 2020-01-25 |", "score": 0.4327, "match_basis": "verbatim_token+domain_route:CM"}, {"md_atom_id": "md_dmCM_ex_a073", "md_file": "knowledge_base/domains/CM/examples.md", "md_atom_type": "TABLE_ROW", "md_parent_section": "§CM.5 [Example 5]", "md_verbatim": "| 2 | ABC123 | CM | 101 | 2 | PRIOR DMARDS | PRIOR RA MEDICATIONS | PRIOR DMARDS | Y | N | RHEUMATOID ARTHRITIS | 2020-02-02 | -1 | | |", "score": 0.4319, "match_basis": "verbatim_token+domain_route:CM"}, {"md_atom_id": "md_dmCM_ex_a075", "md_file": "knowledge_base/domains/CM/examples.md", "md_atom_type": "TABLE_ROW", "md_parent_section": "§CM.5 [Example 5]", "md_verbatim": "| 4 | ABC123 | CM | 102 | 2 | PRIOR DMARDS | PRIOR RA MEDICATIONS | PRIOR DMARDS | Y | Y | RHEUMATOID ARTHRITIS | 2020-01-25 | -3 | | |", "score": 0.4319, "match_basis": "verbatim_token+domain_route:CM"}], "candidate_count": 5, "zero_candidate": false}
{"pdf_atom_id": "ig34_p0098_a016", "pdf_atom_type": "TABLE_ROW", "pdf_source": "SDTMIG_v3.4", "pdf_page": 98, "pdf_parent_section": "§6.1.2 [Concomitant/Prior Medications (CM)]", "pdf_verbatim": "CMCAT | Category for Medication | Char | | Grouping Qualifier | Used to define a category of medications/treatment. Examples: \"PRIOR\", \"CONCOMITANT\", \"ANTI-CANCER MEDICATION\", \"GENERAL CONMED\". | Perm", "figure_ref": null, "candidates": [{"md_atom_id": "md_dmCM_ex_a077", "md_file": "knowledge_base/domains/CM/examples.md", "md_atom_type": "TABLE_ROW", "md_parent_section": "§CM.5 [Example 5]", "md_verbatim": "| 6 | ABC123 | CM | 102 | 4 | METHOTREXATE | PRIOR RA MEDICATIONS | PRIOR DMARDS | | | RHEUMATOID ARTHRITIS | 2020-01-25 | -3 | ONGOING | 2020-01-25 |", "score": 0.4842, "match_basis": "verbatim_token+domain_route:CM"}, {"md_atom_id": "md_dmCM_ex_a072", "md_file": "knowledge_base/domains/CM/examples.md", "md_atom_type": "TABLE_ROW", "md_parent_section": "§CM.5 [Example 5]", "md_verbatim": "| 1 | ABC123 | CM | 101 | 1 | PRIOR RA MEDICATIONS | PRIOR RA MEDICATIONS | | Y | Y | RHEUMATOID ARTHRITIS | 2020-02-02 | -1 | | |", "score": 0.4727, "match_basis": "verbatim_token+domain_route:CM"}, {"md_atom_id": "md_dmCM_ex_a074", "md_file": "knowledge_base/domains/CM/examples.md", "md_atom_type": "TABLE_ROW", "md_parent_section": "§CM.5 [Example 5]", "md_verbatim": "| 3 | ABC123 | CM | 102 | 1 | PRIOR RA MEDICATIONS | PRIOR RA MEDICATIONS | | Y | Y | RHEUMATOID ARTHRITIS | 2020-01-25 | -3 | | |", "score": 0.4727, "match_basis": "verbatim_token+domain_route:CM"}, {"md_atom_id": "md_dmCM_ex_a076", "md_file": "knowledge_base/domains/CM/examples.md", "md_atom_type": "TABLE_ROW", "md_parent_section": "§CM.5 [Example 5]", "md_verbatim": "| 5 | ABC123 | CM | 102 | 3 | SULFASALAZINE | PRIOR RA MEDICATIONS | PRIOR DMARDS | | | RHEUMATOID ARTHRITIS | 2020-01-25 | -3 | BEFORE | 2020-01-25 |", "score": 0.4724, "match_basis": "verbatim_token+domain_route:CM"}, {"md_atom_id": "md_dmCM_ex_a073", "md_file": "knowledge_base/domains/CM/examples.md", "md_atom_type": "TABLE_ROW", "md_parent_section": "§CM.5 [Example 5]", "md_verbatim": "| 2 | ABC123 | CM | 101 | 2 | PRIOR DMARDS | PRIOR RA MEDICATIONS | PRIOR DMARDS | Y | N | RHEUMATOID ARTHRITIS | 2020-02-02 | -1 | | |", "score": 0.4699, "match_basis": "verbatim_token+domain_route:CM"}], "candidate_count": 5, "zero_candidate": false}
{"pdf_atom_id": "ig34_p0098_a017", "pdf_atom_type": "TABLE_ROW", "pdf_source": "SDTMIG_v3.4", "pdf_page": 98, "pdf_parent_section": "§6.1.2 [Concomitant/Prior Medications (CM)]", "pdf_verbatim": "CMSCAT | Subcategory for Medication | Char | | Grouping Qualifier | A further categorization of medications/treatment. Examples: \"CHEMOTHERAPY\", \"HORMONAL THERAPY\", \"ALTERNATIVE THERAPY\". | Perm", "figure_ref": null, "candidates": [{"md_atom_id": "md_dmCM_ex_a054", "md_file": "knowledge_base/domains/CM/examples.md", "md_atom_type": "TABLE_ROW", "md_parent_section": "§CM.4 [Example 4]", "md_verbatim": "| 1 | ABC123 | CM | ABC123-765 | 1 | 1 | PEGINTRON | HCV TREATMENT | INJECTION | SUBCUTANEOUS | COMPLETED SCHEDULED TREATMENT |", "score": 0.4706, "match_basis": "verbatim_token+domain_route:CM"}, {"md_atom_id": "md_dmCM_ex_a077", "md_file": "knowledge_base/domains/CM/examples.md", "md_atom_type": "TABLE_ROW", "md_parent_section": "§CM.5 [Example 5]", "md_verbatim": "| 6 | ABC123 | CM | 102 | 4 | METHOTREXATE | PRIOR RA MEDICATIONS | PRIOR DMARDS | | | RHEUMATOID ARTHRITIS | 2020-01-25 | -3 | ONGOING | 2020-01-25 |", "score": 0.4694, "match_basis": "verbatim_token+domain_route:CM"}, {"md_atom_id": "md_dmCM_ex_a057", "md_file": "knowledge_base/domains/CM/examples.md", "md_atom_type": "TABLE_ROW", "md_parent_section": "§CM.4 [Example 4]", "md_verbatim": "| 4 | ABC123 | CM | ABC123-899 | 1 | 1 | PEGINTRON | HCV TREATMENT | INJECTION | SUBCUTANEOUS | TOXICITY/INTOLERANCE |", "score": 0.4595, "match_basis": "verbatim_token+domain_route:CM"}, {"md_atom_id": "md_dmCM_ex_a072", "md_file": "knowledge_base/domains/CM/examples.md", "md_atom_type": "TABLE_ROW", "md_parent_section": "§CM.5 [Example 5]", "md_verbatim": "| 1 | ABC123 | CM | 101 | 1 | PRIOR RA MEDICATIONS | PRIOR RA MEDICATIONS | | Y | Y | RHEUMATOID ARTHRITIS | 2020-02-02 | -1 | | |", "score": 0.4566, "match_basis": "verbatim_token+domain_route:CM"}, {"md_atom_id": "md_dmCM_ex_a074", "md_file": "knowledge_base/domains/CM/examples.md", "md_atom_type": "TABLE_ROW", "md_parent_section": "§CM.5 [Example 5]", "md_verbatim": "| 3 | ABC123 | CM | 102 | 1 | PRIOR RA MEDICATIONS | PRIOR RA MEDICATIONS | | Y | Y | RHEUMATOID ARTHRITIS | 2020-01-25 | -3 | | |", "score": 0.4566, "match_basis": "verbatim_token+domain_route:CM"}], "candidate_count": 5, "zero_candidate": false}
{"pdf_atom_id": "ig34_p0098_a018", "pdf_atom_type": "TABLE_ROW", "pdf_source": "SDTMIG_v3.4", "pdf_page": 98, "pdf_parent_section": "§6.1.2 [Concomitant/Prior Medications (CM)]", "pdf_verbatim": "CMPRESP | CM Pre-specified | Char | (NY) | Variable Qualifier | Used to indicate whether (\"Y\"/null) information about the use of a specific medication was solicited on the CRF. | Perm", "figure_ref": null, "candidates": [{"md_atom_id": "md_dmCM_ex_a077", "md_file": "knowledge_base/domains/CM/examples.md", "md_atom_type": "TABLE_ROW", "md_parent_section": "§CM.5 [Example 5]", "md_verbatim": "| 6 | ABC123 | CM | 102 | 4 | METHOTREXATE | PRIOR RA MEDICATIONS | PRIOR DMARDS | | | RHEUMATOID ARTHRITIS | 2020-01-25 | -3 | ONGOING | 2020-01-25 |", "score": 0.4611, "match_basis": "verbatim_token+domain_route:CM"}, {"md_atom_id": "md_dmCM_ex_a072", "md_file": "knowledge_base/domains/CM/examples.md", "md_atom_type": "TABLE_ROW", "md_parent_section": "§CM.5 [Example 5]", "md_verbatim": "| 1 | ABC123 | CM | 101 | 1 | PRIOR RA MEDICATIONS | PRIOR RA MEDICATIONS | | Y | Y | RHEUMATOID ARTHRITIS | 2020-02-02 | -1 | | |", "score": 0.4593, "match_basis": "verbatim_token+domain_route:CM"}, {"md_atom_id": "md_dmCM_ex_a074", "md_file": "knowledge_base/domains/CM/examples.md", "md_atom_type": "TABLE_ROW", "md_parent_section": "§CM.5 [Example 5]", "md_verbatim": "| 3 | ABC123 | CM | 102 | 1 | PRIOR RA MEDICATIONS | PRIOR RA MEDICATIONS | | Y | Y | RHEUMATOID ARTHRITIS | 2020-01-25 | -3 | | |", "score": 0.4593, "match_basis": "verbatim_token+domain_route:CM"}, {"md_atom_id": "md_dmCM_ex_a073", "md_file": "knowledge_base/domains/CM/examples.md", "md_atom_type": "TABLE_ROW", "md_parent_section": "§CM.5 [Example 5]", "md_verbatim": "| 2 | ABC123 | CM | 101 | 2 | PRIOR DMARDS | PRIOR RA MEDICATIONS | PRIOR DMARDS | Y | N | RHEUMATOID ARTHRITIS | 2020-02-02 | -1 | | |", "score": 0.4568, "match_basis": "verbatim_token+domain_route:CM"}, {"md_atom_id": "md_dmCM_ex_a075", "md_file": "knowledge_base/domains/CM/examples.md", "md_atom_type": "TABLE_ROW", "md_parent_section": "§CM.5 [Example 5]", "md_verbatim": "| 4 | ABC123 | CM | 102 | 2 | PRIOR DMARDS | PRIOR RA MEDICATIONS | PRIOR DMARDS | Y | Y | RHEUMATOID ARTHRITIS | 2020-01-25 | -3 | | |", "score": 0.4568, "match_basis": "verbatim_token+domain_route:CM"}], "candidate_count": 5, "zero_candidate": false}
{"pdf_atom_id": "ig34_p0098_a019", "pdf_atom_type": "TABLE_ROW", "pdf_source": "SDTMIG_v3.4", "pdf_page": 98, "pdf_parent_section": "§6.1.2 [Concomitant/Prior Medications (CM)]", "pdf_verbatim": "CMOCCUR | CM Occurrence | Char | (NY) | Record Qualifier | When the use of a specific medication is solicited, CMOCCUR is used to indicate whether (\"Y\"/\"N\") use of the medication occurred. Values are null for medications not specifically solicited. | Perm", "figure_ref": null, "candidates": [{"md_atom_id": "md_dmCM_ex_a077", "md_file": "knowledge_base/domains/CM/examples.md", "md_atom_type": "TABLE_ROW", "md_parent_section": "§CM.5 [Example 5]", "md_verbatim": "| 6 | ABC123 | CM | 102 | 4 | METHOTREXATE | PRIOR RA MEDICATIONS | PRIOR DMARDS | | | RHEUMATOID ARTHRITIS | 2020-01-25 | -3 | ONGOING | 2020-01-25 |", "score": 0.4589, "match_basis": "verbatim_token+domain_route:CM"}, {"md_atom_id": "md_dmCM_ex_a072", "md_file": "knowledge_base/domains/CM/examples.md", "md_atom_type": "TABLE_ROW", "md_parent_section": "§CM.5 [Example 5]", "md_verbatim": "| 1 | ABC123 | CM | 101 | 1 | PRIOR RA MEDICATIONS | PRIOR RA MEDICATIONS | | Y | Y | RHEUMATOID ARTHRITIS | 2020-02-02 | -1 | | |", "score": 0.4568, "match_basis": "verbatim_token+domain_route:CM"}, {"md_atom_id": "md_dmCM_ex_a074", "md_file": "knowledge_base/domains/CM/examples.md", "md_atom_type": "TABLE_ROW", "md_parent_section": "§CM.5 [Example 5]", "md_verbatim": "| 3 | ABC123 | CM | 102 | 1 | PRIOR RA MEDICATIONS | PRIOR RA MEDICATIONS | | Y | Y | RHEUMATOID ARTHRITIS | 2020-01-25 | -3 | | |", "score": 0.4568, "match_basis": "verbatim_token+domain_route:CM"}, {"md_atom_id": "md_dmCM_ex_a073", "md_file": "knowledge_base/domains/CM/examples.md", "md_atom_type": "TABLE_ROW", "md_parent_section": "§CM.5 [Example 5]", "md_verbatim": "| 2 | ABC123 | CM | 101 | 2 | PRIOR DMARDS | PRIOR RA MEDICATIONS | PRIOR DMARDS | Y | N | RHEUMATOID ARTHRITIS | 2020-02-02 | -1 | | |", "score": 0.4545, "match_basis": "verbatim_token+domain_route:CM"}, {"md_atom_id": "md_dmCM_ex_a075", "md_file": "knowledge_base/domains/CM/examples.md", "md_atom_type": "TABLE_ROW", "md_parent_section": "§CM.5 [Example 5]", "md_verbatim": "| 4 | ABC123 | CM | 102 | 2 | PRIOR DMARDS | PRIOR RA MEDICATIONS | PRIOR DMARDS | Y | Y | RHEUMATOID ARTHRITIS | 2020-01-25 | -3 | | |", "score": 0.4545, "match_basis": "verbatim_token+domain_route:CM"}], "candidate_count": 5, "zero_candidate": false}
{"pdf_atom_id": "ig34_p0098_a020", "pdf_atom_type": "TABLE_ROW", "pdf_source": "SDTMIG_v3.4", "pdf_page": 98, "pdf_parent_section": "§6.1.2 [Concomitant/Prior Medications (CM)]", "pdf_verbatim": "CMSTAT | Completion Status | Char | (ND) | Record Qualifier | Used to indicate that a question about the occurrence of a prespecified intervention was not answered. Should be null or have a value of \"NOT DONE\". | Perm", "figure_ref": null, "candidates": [{"md_atom_id": "md_dmCM_ex_a046", "md_file": "knowledge_base/domains/CM/examples.md", "md_atom_type": "TABLE_ROW", "md_parent_section": "§CM.3 [Example 3]", "md_verbatim": "| 3 | ABC123 | CM | 1 | 3 | PAXIL | Y | | NOT DONE | Didn't ask due to interruption |", "score": 0.4444, "match_basis": "verbatim_token+domain_route:CM"}, {"md_atom_id": "md_dmCM_ex_a054", "md_file": "knowledge_base/domains/CM/examples.md", "md_atom_type": "TABLE_ROW", "md_parent_section": "§CM.4 [Example 4]", "md_verbatim": "| 1 | ABC123 | CM | ABC123-765 | 1 | 1 | PEGINTRON | HCV TREATMENT | INJECTION | SUBCUTANEOUS | COMPLETED SCHEDULED TREATMENT |", "score": 0.4403, "match_basis": "verbatim_token+domain_route:CM"}, {"md_atom_id": "md_dmCM_ex_a056", "md_file": "knowledge_base/domains/CM/examples.md", "md_atom_type": "TABLE_ROW", "md_parent_section": "§CM.4 [Example 4]", "md_verbatim": "| 3 | ABC123 | CM | ABC123-765 | 3 | 1 | BOCEPREVIR | HCV TREATMENT | TABLET | ORAL | COMPLETED SCHEDULED TREATMENT |", "score": 0.4336, "match_basis": "verbatim_token+domain_route:CM"}, {"md_atom_id": "md_dmCM_ex_a055", "md_file": "knowledge_base/domains/CM/examples.md", "md_atom_type": "TABLE_ROW", "md_parent_section": "§CM.4 [Example 4]", "md_verbatim": "| 2 | ABC123 | CM | ABC123-765 | 2 | 1 | RIBAVIRIN | HCV TREATMENT | TABLET | ORAL | COMPLETED SCHEDULED TREATMENT |", "score": 0.4288, "match_basis": "verbatim_token+domain_route:CM"}, {"md_atom_id": "md_dmCM_ex_a077", "md_file": "knowledge_base/domains/CM/examples.md", "md_atom_type": "TABLE_ROW", "md_parent_section": "§CM.5 [Example 5]", "md_verbatim": "| 6 | ABC123 | CM | 102 | 4 | METHOTREXATE | PRIOR RA MEDICATIONS | PRIOR DMARDS | | | RHEUMATOID ARTHRITIS | 2020-01-25 | -3 | ONGOING | 2020-01-25 |", "score": 0.4259, "match_basis": "verbatim_token+domain_route:CM"}], "candidate_count": 5, "zero_candidate": false}
{"pdf_atom_id": "ig34_p0098_a021", "pdf_atom_type": "TABLE_ROW", "pdf_source": "SDTMIG_v3.4", "pdf_page": 98, "pdf_parent_section": "§6.1.2 [Concomitant/Prior Medications (CM)]", "pdf_verbatim": "CMREASND | Reason Medication Not Collected | Char | | Record Qualifier | Reason not done. Used in conjunction with CMSTAT when value is \"NOT DONE\". | Perm", "figure_ref": null, "candidates": [{"md_atom_id": "md_dmCM_ex_a072", "md_file": "knowledge_base/domains/CM/examples.md", "md_atom_type": "TABLE_ROW", "md_parent_section": "§CM.5 [Example 5]", "md_verbatim": "| 1 | ABC123 | CM | 101 | 1 | PRIOR RA MEDICATIONS | PRIOR RA MEDICATIONS | | Y | Y | RHEUMATOID ARTHRITIS | 2020-02-02 | -1 | | |", "score": 0.4552, "match_basis": "verbatim_token+domain_route:CM"}, {"md_atom_id": "md_dmCM_ex_a074", "md_file": "knowledge_base/domains/CM/examples.md", "md_atom_type": "TABLE_ROW", "md_parent_section": "§CM.5 [Example 5]", "md_verbatim": "| 3 | ABC123 | CM | 102 | 1 | PRIOR RA MEDICATIONS | PRIOR RA MEDICATIONS | | Y | Y | RHEUMATOID ARTHRITIS | 2020-01-25 | -3 | | |", "score": 0.4552, "match_basis": "verbatim_token+domain_route:CM"}, {"md_atom_id": "md_dmCM_ex_a073", "md_file": "knowledge_base/domains/CM/examples.md", "md_atom_type": "TABLE_ROW", "md_parent_section": "§CM.5 [Example 5]", "md_verbatim": "| 2 | ABC123 | CM | 101 | 2 | PRIOR DMARDS | PRIOR RA MEDICATIONS | PRIOR DMARDS | Y | N | RHEUMATOID ARTHRITIS | 2020-02-02 | -1 | | |", "score": 0.4527, "match_basis": "verbatim_token+domain_route:CM"}, {"md_atom_id": "md_dmCM_ex_a075", "md_file": "knowledge_base/domains/CM/examples.md", "md_atom_type": "TABLE_ROW", "md_parent_section": "§CM.5 [Example 5]", "md_verbatim": "| 4 | ABC123 | CM | 102 | 2 | PRIOR DMARDS | PRIOR RA MEDICATIONS | PRIOR DMARDS | Y | Y | RHEUMATOID ARTHRITIS | 2020-01-25 | -3 | | |", "score": 0.4527, "match_basis": "verbatim_token+domain_route:CM"}, {"md_atom_id": "md_dmCM_ex_a076", "md_file": "knowledge_base/domains/CM/examples.md", "md_atom_type": "TABLE_ROW", "md_parent_section": "§CM.5 [Example 5]", "md_verbatim": "| 5 | ABC123 | CM | 102 | 3 | SULFASALAZINE | PRIOR RA MEDICATIONS | PRIOR DMARDS | | | RHEUMATOID ARTHRITIS | 2020-01-25 | -3 | BEFORE | 2020-01-25 |", "score": 0.4453, "match_basis": "verbatim_token+domain_route:CM"}], "candidate_count": 5, "zero_candidate": false}
{"pdf_atom_id": "ig34_p0098_a022", "pdf_atom_type": "TABLE_ROW", "pdf_source": "SDTMIG_v3.4", "pdf_page": 98, "pdf_parent_section": "§6.1.2 [Concomitant/Prior Medications (CM)]", "pdf_verbatim": "CMINDC | Indication | Char | | Record Qualifier | Denotes why a medication was taken or administered. Examples: \"NAUSEA\", \"HYPERTENSION\". | Perm", "figure_ref": null, "candidates": [{"md_atom_id": "md_dmCM_ex_a072", "md_file": "knowledge_base/domains/CM/examples.md", "md_atom_type": "TABLE_ROW", "md_parent_section": "§CM.5 [Example 5]", "md_verbatim": "| 1 | ABC123 | CM | 101 | 1 | PRIOR RA MEDICATIONS | PRIOR RA MEDICATIONS | | Y | Y | RHEUMATOID ARTHRITIS | 2020-02-02 | -1 | | |", "score": 0.4527, "match_basis": "verbatim_token+domain_route:CM"}, {"md_atom_id": "md_dmCM_ex_a074", "md_file": "knowledge_base/domains/CM/examples.md", "md_atom_type": "TABLE_ROW", "md_parent_section": "§CM.5 [Example 5]", "md_verbatim": "| 3 | ABC123 | CM | 102 | 1 | PRIOR RA MEDICATIONS | PRIOR RA MEDICATIONS | | Y | Y | RHEUMATOID ARTHRITIS | 2020-01-25 | -3 | | |", "score": 0.4527, "match_basis": "verbatim_token+domain_route:CM"}, {"md_atom_id": "md_dmCM_ex_a073", "md_file": "knowledge_base/domains/CM/examples.md", "md_atom_type": "TABLE_ROW", "md_parent_section": "§CM.5 [Example 5]", "md_verbatim": "| 2 | ABC123 | CM | 101 | 2 | PRIOR DMARDS | PRIOR RA MEDICATIONS | PRIOR DMARDS | Y | N | RHEUMATOID ARTHRITIS | 2020-02-02 | -1 | | |", "score": 0.4505, "match_basis": "verbatim_token+domain_route:CM"}, {"md_atom_id": "md_dmCM_ex_a075", "md_file": "knowledge_base/domains/CM/examples.md", "md_atom_type": "TABLE_ROW", "md_parent_section": "§CM.5 [Example 5]", "md_verbatim": "| 4 | ABC123 | CM | 102 | 2 | PRIOR DMARDS | PRIOR RA MEDICATIONS | PRIOR DMARDS | Y | Y | RHEUMATOID ARTHRITIS | 2020-01-25 | -3 | | |", "score": 0.4505, "match_basis": "verbatim_token+domain_route:CM"}, {"md_atom_id": "md_dmCM_ex_a077", "md_file": "knowledge_base/domains/CM/examples.md", "md_atom_type": "TABLE_ROW", "md_parent_section": "§CM.5 [Example 5]", "md_verbatim": "| 6 | ABC123 | CM | 102 | 4 | METHOTREXATE | PRIOR RA MEDICATIONS | PRIOR DMARDS | | | RHEUMATOID ARTHRITIS | 2020-01-25 | -3 | ONGOING | 2020-01-25 |", "score": 0.4495, "match_basis": "verbatim_token+domain_route:CM"}], "candidate_count": 5, "zero_candidate": false}
{"pdf_atom_id": "ig34_p0098_a023", "pdf_atom_type": "TABLE_ROW", "pdf_source": "SDTMIG_v3.4", "pdf_page": 98, "pdf_parent_section": "§6.1.2 [Concomitant/Prior Medications (CM)]", "pdf_verbatim": "CMCLAS | Medication Class | Char | | Variable Qualifier | Drug class. May be obtained from coding. When coding to a single class, populate with class value. If using a dictionary and coding to multiple classes, then follow Section 4.2.8.3, Multiple Values for a Non-result Qualifier Variable, or omit CMCLAS. | Perm", "figure_ref": null, "candidates": [{"md_atom_id": "md_dmCM_ex_a076", "md_file": "knowledge_base/domains/CM/examples.md", "md_atom_type": "TABLE_ROW", "md_parent_section": "§CM.5 [Example 5]", "md_verbatim": "| 5 | ABC123 | CM | 102 | 3 | SULFASALAZINE | PRIOR RA MEDICATIONS | PRIOR DMARDS | | | RHEUMATOID ARTHRITIS | 2020-01-25 | -3 | BEFORE | 2020-01-25 |", "score": 0.4496, "match_basis": "verbatim_token+domain_route:CM"}, {"md_atom_id": "md_dmCM_ex_a077", "md_file": "knowledge_base/domains/CM/examples.md", "md_atom_type": "TABLE_ROW", "md_parent_section": "§CM.5 [Example 5]", "md_verbatim": "| 6 | ABC123 | CM | 102 | 4 | METHOTREXATE | PRIOR RA MEDICATIONS | PRIOR DMARDS | | | RHEUMATOID ARTHRITIS | 2020-01-25 | -3 | ONGOING | 2020-01-25 |", "score": 0.4448, "match_basis": "verbatim_token+domain_route:CM"}, {"md_atom_id": "md_dmCM_ex_a072", "md_file": "knowledge_base/domains/CM/examples.md", "md_atom_type": "TABLE_ROW", "md_parent_section": "§CM.5 [Example 5]", "md_verbatim": "| 1 | ABC123 | CM | 101 | 1 | PRIOR RA MEDICATIONS | PRIOR RA MEDICATIONS | | Y | Y | RHEUMATOID ARTHRITIS | 2020-02-02 | -1 | | |", "score": 0.441, "match_basis": "verbatim_token+domain_route:CM"}, {"md_atom_id": "md_dmCM_ex_a074", "md_file": "knowledge_base/domains/CM/examples.md", "md_atom_type": "TABLE_ROW", "md_parent_section": "§CM.5 [Example 5]", "md_verbatim": "| 3 | ABC123 | CM | 102 | 1 | PRIOR RA MEDICATIONS | PRIOR RA MEDICATIONS | | Y | Y | RHEUMATOID ARTHRITIS | 2020-01-25 | -3 | | |", "score": 0.441, "match_basis": "verbatim_token+domain_route:CM"}, {"md_atom_id": "md_dmCM_ex_a073", "md_file": "knowledge_base/domains/CM/examples.md", "md_atom_type": "TABLE_ROW", "md_parent_section": "§CM.5 [Example 5]", "md_verbatim": "| 2 | ABC123 | CM | 101 | 2 | PRIOR DMARDS | PRIOR RA MEDICATIONS | PRIOR DMARDS | Y | N | RHEUMATOID ARTHRITIS | 2020-02-02 | -1 | | |", "score": 0.4397, "match_basis": "verbatim_token+domain_route:CM"}], "candidate_count": 5, "zero_candidate": false}
{"pdf_atom_id": "ig34_p0099_a001", "pdf_atom_type": "TABLE_ROW", "pdf_source": "SDTMIG_v3.4", "pdf_page": 99, "pdf_parent_section": "§6.1.2 [Concomitant/Prior Medications (CM)]", "pdf_verbatim": "CMCLASCD | Medication Class Code | Char | | Variable Qualifier | Class code corresponding to CMCLAS. Drug class. May be obtained from coding. When coding to a single class, populate with class code. If using a dictionary and coding to multiple classes, then follow Section 4.2.8.3, Multiple Values for a Non-result Qualifier Variable, or omit CMCLASCD. | Perm", "figure_ref": null, "candidates": [{"md_atom_id": "md_dmCM_ex_a076", "md_file": "knowledge_base/domains/CM/examples.md", "md_atom_type": "TABLE_ROW", "md_parent_section": "§CM.5 [Example 5]", "md_verbatim": "| 5 | ABC123 | CM | 102 | 3 | SULFASALAZINE | PRIOR RA MEDICATIONS | PRIOR DMARDS | | | RHEUMATOID ARTHRITIS | 2020-01-25 | -3 | BEFORE | 2020-01-25 |", "score": 0.4458, "match_basis": "verbatim_token+domain_route:CM"}, {"md_atom_id": "md_dmCM_ex_a077", "md_file": "knowledge_base/domains/CM/examples.md", "md_atom_type": "TABLE_ROW", "md_parent_section": "§CM.5 [Example 5]", "md_verbatim": "| 6 | ABC123 | CM | 102 | 4 | METHOTREXATE | PRIOR RA MEDICATIONS | PRIOR DMARDS | | | RHEUMATOID ARTHRITIS | 2020-01-25 | -3 | ONGOING | 2020-01-25 |", "score": 0.4414, "match_basis": "verbatim_token+domain_route:CM"}, {"md_atom_id": "md_dmCM_ex_a072", "md_file": "knowledge_base/domains/CM/examples.md", "md_atom_type": "TABLE_ROW", "md_parent_section": "§CM.5 [Example 5]", "md_verbatim": "| 1 | ABC123 | CM | 101 | 1 | PRIOR RA MEDICATIONS | PRIOR RA MEDICATIONS | | Y | Y | RHEUMATOID ARTHRITIS | 2020-02-02 | -1 | | |", "score": 0.4375, "match_basis": "verbatim_token+domain_route:CM"}, {"md_atom_id": "md_dmCM_ex_a074", "md_file": "knowledge_base/domains/CM/examples.md", "md_atom_type": "TABLE_ROW", "md_parent_section": "§CM.5 [Example 5]", "md_verbatim": "| 3 | ABC123 | CM | 102 | 1 | PRIOR RA MEDICATIONS | PRIOR RA MEDICATIONS | | Y | Y | RHEUMATOID ARTHRITIS | 2020-01-25 | -3 | | |", "score": 0.4375, "match_basis": "verbatim_token+domain_route:CM"}, {"md_atom_id": "md_dmCM_ex_a073", "md_file": "knowledge_base/domains/CM/examples.md", "md_atom_type": "TABLE_ROW", "md_parent_section": "§CM.5 [Example 5]", "md_verbatim": "| 2 | ABC123 | CM | 101 | 2 | PRIOR DMARDS | PRIOR RA MEDICATIONS | PRIOR DMARDS | Y | N | RHEUMATOID ARTHRITIS | 2020-02-02 | -1 | | |", "score": 0.4364, "match_basis": "verbatim_token+domain_route:CM"}], "candidate_count": 5, "zero_candidate": false}
{"pdf_atom_id": "ig34_p0099_a002", "pdf_atom_type": "TABLE_ROW", "pdf_source": "SDTMIG_v3.4", "pdf_page": 99, "pdf_parent_section": "§6.1.2 [Concomitant/Prior Medications (CM)]", "pdf_verbatim": "CMDOSE | Dose per Administration | Num | | Record Qualifier | Amount of CMTRT given. Not populated when CMDOSTXT is populated. | Perm", "figure_ref": null, "candidates": [{"md_atom_id": "md_dmCM_ex_a046", "md_file": "knowledge_base/domains/CM/examples.md", "md_atom_type": "TABLE_ROW", "md_parent_section": "§CM.3 [Example 3]", "md_verbatim": "| 3 | ABC123 | CM | 1 | 3 | PAXIL | Y | | NOT DONE | Didn't ask due to interruption |", "score": 0.4243, "match_basis": "verbatim_token+domain_route:CM"}, {"md_atom_id": "md_dmCM_ex_a077", "md_file": "knowledge_base/domains/CM/examples.md", "md_atom_type": "TABLE_ROW", "md_parent_section": "§CM.5 [Example 5]", "md_verbatim": "| 6 | ABC123 | CM | 102 | 4 | METHOTREXATE | PRIOR RA MEDICATIONS | PRIOR DMARDS | | | RHEUMATOID ARTHRITIS | 2020-01-25 | -3 | ONGOING | 2020-01-25 |", "score": 0.4235, "match_basis": "verbatim_token+domain_route:CM"}, {"md_atom_id": "md_dmCM_ex_a072", "md_file": "knowledge_base/domains/CM/examples.md", "md_atom_type": "TABLE_ROW", "md_parent_section": "§CM.5 [Example 5]", "md_verbatim": "| 1 | ABC123 | CM | 101 | 1 | PRIOR RA MEDICATIONS | PRIOR RA MEDICATIONS | | Y | Y | RHEUMATOID ARTHRITIS | 2020-02-02 | -1 | | |", "score": 0.4214, "match_basis": "verbatim_token+domain_route:CM"}, {"md_atom_id": "md_dmCM_ex_a074", "md_file": "knowledge_base/domains/CM/examples.md", "md_atom_type": "TABLE_ROW", "md_parent_section": "§CM.5 [Example 5]", "md_verbatim": "| 3 | ABC123 | CM | 102 | 1 | PRIOR RA MEDICATIONS | PRIOR RA MEDICATIONS | | Y | Y | RHEUMATOID ARTHRITIS | 2020-01-25 | -3 | | |", "score": 0.4214, "match_basis": "verbatim_token+domain_route:CM"}, {"md_atom_id": "md_dmCM_ex_a073", "md_file": "knowledge_base/domains/CM/examples.md", "md_atom_type": "TABLE_ROW", "md_parent_section": "§CM.5 [Example 5]", "md_verbatim": "| 2 | ABC123 | CM | 101 | 2 | PRIOR DMARDS | PRIOR RA MEDICATIONS | PRIOR DMARDS | Y | N | RHEUMATOID ARTHRITIS | 2020-02-02 | -1 | | |", "score": 0.4205, "match_basis": "verbatim_token+domain_route:CM"}], "candidate_count": 5, "zero_candidate": false}
{"pdf_atom_id": "ig34_p0099_a003", "pdf_atom_type": "TABLE_ROW", "pdf_source": "SDTMIG_v3.4", "pdf_page": 99, "pdf_parent_section": "§6.1.2 [Concomitant/Prior Medications (CM)]", "pdf_verbatim": "CMDOSTXT | Dose Description | Char | | Record Qualifier | Dosing amounts or a range of dosing information collected in text form. Units may be stored in CMDOSU. Examples: \"200-400\", \"15-20\". Not populated when CMDOSE is populated. | Perm", "figure_ref": null, "candidates": [{"md_atom_id": "md_dmCM_ex_a077", "md_file": "knowledge_base/domains/CM/examples.md", "md_atom_type": "TABLE_ROW", "md_parent_section": "§CM.5 [Example 5]", "md_verbatim": "| 6 | ABC123 | CM | 102 | 4 | METHOTREXATE | PRIOR RA MEDICATIONS | PRIOR DMARDS | | | RHEUMATOID ARTHRITIS | 2020-01-25 | -3 | ONGOING | 2020-01-25 |", "score": 0.4323, "match_basis": "verbatim_token+domain_route:CM"}, {"md_atom_id": "md_dmCM_ex_a054", "md_file": "knowledge_base/domains/CM/examples.md", "md_atom_type": "TABLE_ROW", "md_parent_section": "§CM.4 [Example 4]", "md_verbatim": "| 1 | ABC123 | CM | ABC123-765 | 1 | 1 | PEGINTRON | HCV TREATMENT | INJECTION | SUBCUTANEOUS | COMPLETED SCHEDULED TREATMENT |", "score": 0.4279, "match_basis": "verbatim_token+domain_route:CM"}, {"md_atom_id": "md_dmCM_ex_a076", "md_file": "knowledge_base/domains/CM/examples.md", "md_atom_type": "TABLE_ROW", "md_parent_section": "§CM.5 [Example 5]", "md_verbatim": "| 5 | ABC123 | CM | 102 | 3 | SULFASALAZINE | PRIOR RA MEDICATIONS | PRIOR DMARDS | | | RHEUMATOID ARTHRITIS | 2020-01-25 | -3 | BEFORE | 2020-01-25 |", "score": 0.4275, "match_basis": "verbatim_token+domain_route:CM"}, {"md_atom_id": "md_dmCM_ex_a046", "md_file": "knowledge_base/domains/CM/examples.md", "md_atom_type": "TABLE_ROW", "md_parent_section": "§CM.3 [Example 3]", "md_verbatim": "| 3 | ABC123 | CM | 1 | 3 | PAXIL | Y | | NOT DONE | Didn't ask due to interruption |", "score": 0.4231, "match_basis": "verbatim_token+domain_route:CM"}, {"md_atom_id": "md_dmCM_ex_a072", "md_file": "knowledge_base/domains/CM/examples.md", "md_atom_type": "TABLE_ROW", "md_parent_section": "§CM.5 [Example 5]", "md_verbatim": "| 1 | ABC123 | CM | 101 | 1 | PRIOR RA MEDICATIONS | PRIOR RA MEDICATIONS | | Y | Y | RHEUMATOID ARTHRITIS | 2020-02-02 | -1 | | |", "score": 0.4211, "match_basis": "verbatim_token+domain_route:CM"}], "candidate_count": 5, "zero_candidate": false}
{"pdf_atom_id": "ig34_p0099_a004", "pdf_atom_type": "TABLE_ROW", "pdf_source": "SDTMIG_v3.4", "pdf_page": 99, "pdf_parent_section": "§6.1.2 [Concomitant/Prior Medications (CM)]", "pdf_verbatim": "CMDOSU | Dose Units | Char | (UNIT) | Variable Qualifier | Units for CMDOSE, CMDOSTOT, or CMDOSTXT. Examples: \"ng\", \"mg\", \"mg/kg\". | Perm", "figure_ref": null, "candidates": [{"md_atom_id": "md_dmCM_ex_a055", "md_file": "knowledge_base/domains/CM/examples.md", "md_atom_type": "TABLE_ROW", "md_parent_section": "§CM.4 [Example 4]", "md_verbatim": "| 2 | ABC123 | CM | ABC123-765 | 2 | 1 | RIBAVIRIN | HCV TREATMENT | TABLET | ORAL | COMPLETED SCHEDULED TREATMENT |", "score": 0.4333, "match_basis": "verbatim_token+domain_route:CM"}, {"md_atom_id": "md_dmCM_ex_a056", "md_file": "knowledge_base/domains/CM/examples.md", "md_atom_type": "TABLE_ROW", "md_parent_section": "§CM.4 [Example 4]", "md_verbatim": "| 3 | ABC123 | CM | ABC123-765 | 3 | 1 | BOCEPREVIR | HCV TREATMENT | TABLET | ORAL | COMPLETED SCHEDULED TREATMENT |", "score": 0.4329, "match_basis": "verbatim_token+domain_route:CM"}, {"md_atom_id": "md_dmCM_ex_a058", "md_file": "knowledge_base/domains/CM/examples.md", "md_atom_type": "TABLE_ROW", "md_parent_section": "§CM.4 [Example 4]", "md_verbatim": "| 5 | ABC123 | CM | ABC123-899 | 2 | 1 | RIBAVIRIN | HCV TREATMENT | TABLET | ORAL | TOXICITY/INTOLERANCE |", "score": 0.4158, "match_basis": "verbatim_token+domain_route:CM"}, {"md_atom_id": "md_dmCM_ex_a059", "md_file": "knowledge_base/domains/CM/examples.md", "md_atom_type": "TABLE_ROW", "md_parent_section": "§CM.4 [Example 4]", "md_verbatim": "| 6 | ABC123 | CM | ABC123-899 | 3 | 1 | BOCEPREVIR | HCV TREATMENT | TABLET | ORAL | TOXICITY/INTOLERANCE |", "score": 0.4156, "match_basis": "verbatim_token+domain_route:CM"}, {"md_atom_id": "md_dmCM_ex_a054", "md_file": "knowledge_base/domains/CM/examples.md", "md_atom_type": "TABLE_ROW", "md_parent_section": "§CM.4 [Example 4]", "md_verbatim": "| 1 | ABC123 | CM | ABC123-765 | 1 | 1 | PEGINTRON | HCV TREATMENT | INJECTION | SUBCUTANEOUS | COMPLETED SCHEDULED TREATMENT |", "score": 0.414, "match_basis": "verbatim_token+domain_route:CM"}], "candidate_count": 5, "zero_candidate": false}
{"pdf_atom_id": "ig34_p0099_a005", "pdf_atom_type": "TABLE_ROW", "pdf_source": "SDTMIG_v3.4", "pdf_page": 99, "pdf_parent_section": "§6.1.2 [Concomitant/Prior Medications (CM)]", "pdf_verbatim": "CMDOSFRM | Dose Form | Char | (FRM) | Variable Qualifier | Dose form for CMTRT. Examples: \"TABLET\", \"LOTION\". | Perm", "figure_ref": null, "candidates": [{"md_atom_id": "md_dmCM_ex_a055", "md_file": "knowledge_base/domains/CM/examples.md", "md_atom_type": "TABLE_ROW", "md_parent_section": "§CM.4 [Example 4]", "md_verbatim": "| 2 | ABC123 | CM | ABC123-765 | 2 | 1 | RIBAVIRIN | HCV TREATMENT | TABLET | ORAL | COMPLETED SCHEDULED TREATMENT |", "score": 0.4486, "match_basis": "verbatim_token+domain_route:CM"}, {"md_atom_id": "md_dmCM_ex_a056", "md_file": "knowledge_base/domains/CM/examples.md", "md_atom_type": "TABLE_ROW", "md_parent_section": "§CM.4 [Example 4]", "md_verbatim": "| 3 | ABC123 | CM | ABC123-765 | 3 | 1 | BOCEPREVIR | HCV TREATMENT | TABLET | ORAL | COMPLETED SCHEDULED TREATMENT |", "score": 0.448, "match_basis": "verbatim_token+domain_route:CM"}, {"md_atom_id": "md_dmCM_ex_a054", "md_file": "knowledge_base/domains/CM/examples.md", "md_atom_type": "TABLE_ROW", "md_parent_section": "§CM.4 [Example 4]", "md_verbatim": "| 1 | ABC123 | CM | ABC123-765 | 1 | 1 | PEGINTRON | HCV TREATMENT | INJECTION | SUBCUTANEOUS | COMPLETED SCHEDULED TREATMENT |", "score": 0.4345, "match_basis": "verbatim_token+domain_route:CM"}, {"md_atom_id": "md_dmCM_ex_a058", "md_file": "knowledge_base/domains/CM/examples.md", "md_atom_type": "TABLE_ROW", "md_parent_section": "§CM.4 [Example 4]", "md_verbatim": "| 5 | ABC123 | CM | ABC123-899 | 2 | 1 | RIBAVIRIN | HCV TREATMENT | TABLET | ORAL | TOXICITY/INTOLERANCE |", "score": 0.4308, "match_basis": "verbatim_token+domain_route:CM"}, {"md_atom_id": "md_dmCM_ex_a059", "md_file": "knowledge_base/domains/CM/examples.md", "md_atom_type": "TABLE_ROW", "md_parent_section": "§CM.4 [Example 4]", "md_verbatim": "| 6 | ABC123 | CM | ABC123-899 | 3 | 1 | BOCEPREVIR | HCV TREATMENT | TABLET | ORAL | TOXICITY/INTOLERANCE |", "score": 0.4304, "match_basis": "verbatim_token+domain_route:CM"}], "candidate_count": 5, "zero_candidate": false}
{"pdf_atom_id": "ig34_p0099_a006", "pdf_atom_type": "TABLE_ROW", "pdf_source": "SDTMIG_v3.4", "pdf_page": 99, "pdf_parent_section": "§6.1.2 [Concomitant/Prior Medications (CM)]", "pdf_verbatim": "CMDOSFRQ | Dosing Frequency per Interval | Char | (FREQ) | Record Qualifier | Usually expressed as the number of repeated administrations of CMDOSE within a specific time period. Examples: \"BID\" (twice daily), \"Q12H\" (every 12 hours). | Perm", "figure_ref": null, "candidates": [{"md_atom_id": "md_dmCM_ex_a077", "md_file": "knowledge_base/domains/CM/examples.md", "md_atom_type": "TABLE_ROW", "md_parent_section": "§CM.5 [Example 5]", "md_verbatim": "| 6 | ABC123 | CM | 102 | 4 | METHOTREXATE | PRIOR RA MEDICATIONS | PRIOR DMARDS | | | RHEUMATOID ARTHRITIS | 2020-01-25 | -3 | ONGOING | 2020-01-25 |", "score": 0.4314, "match_basis": "verbatim_token+domain_route:CM"}, {"md_atom_id": "md_dmCM_ex_a054", "md_file": "knowledge_base/domains/CM/examples.md", "md_atom_type": "TABLE_ROW", "md_parent_section": "§CM.4 [Example 4]", "md_verbatim": "| 1 | ABC123 | CM | ABC123-765 | 1 | 1 | PEGINTRON | HCV TREATMENT | INJECTION | SUBCUTANEOUS | COMPLETED SCHEDULED TREATMENT |", "score": 0.4276, "match_basis": "verbatim_token+domain_route:CM"}, {"md_atom_id": "md_dmCM_ex_a046", "md_file": "knowledge_base/domains/CM/examples.md", "md_atom_type": "TABLE_ROW", "md_parent_section": "§CM.3 [Example 3]", "md_verbatim": "| 3 | ABC123 | CM | 1 | 3 | PAXIL | Y | | NOT DONE | Didn't ask due to interruption |", "score": 0.4236, "match_basis": "verbatim_token+domain_route:CM"}, {"md_atom_id": "md_dmCM_ex_a072", "md_file": "knowledge_base/domains/CM/examples.md", "md_atom_type": "TABLE_ROW", "md_parent_section": "§CM.5 [Example 5]", "md_verbatim": "| 1 | ABC123 | CM | 101 | 1 | PRIOR RA MEDICATIONS | PRIOR RA MEDICATIONS | | Y | Y | RHEUMATOID ARTHRITIS | 2020-02-02 | -1 | | |", "score": 0.4219, "match_basis": "verbatim_token+domain_route:CM"}, {"md_atom_id": "md_dmCM_ex_a074", "md_file": "knowledge_base/domains/CM/examples.md", "md_atom_type": "TABLE_ROW", "md_parent_section": "§CM.5 [Example 5]", "md_verbatim": "| 3 | ABC123 | CM | 102 | 1 | PRIOR RA MEDICATIONS | PRIOR RA MEDICATIONS | | Y | Y | RHEUMATOID ARTHRITIS | 2020-01-25 | -3 | | |", "score": 0.4219, "match_basis": "verbatim_token+domain_route:CM"}], "candidate_count": 5, "zero_candidate": false}
{"pdf_atom_id": "ig34_p0099_a007", "pdf_atom_type": "TABLE_ROW", "pdf_source": "SDTMIG_v3.4", "pdf_page": 99, "pdf_parent_section": "§6.1.2 [Concomitant/Prior Medications (CM)]", "pdf_verbatim": "CMDOSTOT | Total Daily Dose | Num | | Record Qualifier | Total daily dose of CMTRT using the units in CMDOSU. Used when dosing is collected as total daily dose. Total dose over a period other than day could be recorded in a separate supplemental qualifier variable. | Perm", "figure_ref": null, "candidates": [{"md_atom_id": "md_dmCM_ex_a055", "md_file": "knowledge_base/domains/CM/examples.md", "md_atom_type": "TABLE_ROW", "md_parent_section": "§CM.4 [Example 4]", "md_verbatim": "| 2 | ABC123 | CM | ABC123-765 | 2 | 1 | RIBAVIRIN | HCV TREATMENT | TABLET | ORAL | COMPLETED SCHEDULED TREATMENT |", "score": 0.4305, "match_basis": "verbatim_token+domain_route:CM"}, {"md_atom_id": "md_dmCM_ex_a056", "md_file": "knowledge_base/domains/CM/examples.md", "md_atom_type": "TABLE_ROW", "md_parent_section": "§CM.4 [Example 4]", "md_verbatim": "| 3 | ABC123 | CM | ABC123-765 | 3 | 1 | BOCEPREVIR | HCV TREATMENT | TABLET | ORAL | COMPLETED SCHEDULED TREATMENT |", "score": 0.4303, "match_basis": "verbatim_token+domain_route:CM"}, {"md_atom_id": "md_dmCM_ex_a054", "md_file": "knowledge_base/domains/CM/examples.md", "md_atom_type": "TABLE_ROW", "md_parent_section": "§CM.4 [Example 4]", "md_verbatim": "| 1 | ABC123 | CM | ABC123-765 | 1 | 1 | PEGINTRON | HCV TREATMENT | INJECTION | SUBCUTANEOUS | COMPLETED SCHEDULED TREATMENT |", "score": 0.4229, "match_basis": "verbatim_token+domain_route:CM"}, {"md_atom_id": "md_dmCM_ex_a058", "md_file": "knowledge_base/domains/CM/examples.md", "md_atom_type": "TABLE_ROW", "md_parent_section": "§CM.4 [Example 4]", "md_verbatim": "| 5 | ABC123 | CM | ABC123-899 | 2 | 1 | RIBAVIRIN | HCV TREATMENT | TABLET | ORAL | TOXICITY/INTOLERANCE |", "score": 0.4197, "match_basis": "verbatim_token+domain_route:CM"}, {"md_atom_id": "md_dmCM_ex_a059", "md_file": "knowledge_base/domains/CM/examples.md", "md_atom_type": "TABLE_ROW", "md_parent_section": "§CM.4 [Example 4]", "md_verbatim": "| 6 | ABC123 | CM | ABC123-899 | 3 | 1 | BOCEPREVIR | HCV TREATMENT | TABLET | ORAL | TOXICITY/INTOLERANCE |", "score": 0.4195, "match_basis": "verbatim_token+domain_route:CM"}], "candidate_count": 5, "zero_candidate": false}
{"pdf_atom_id": "ig34_p0099_a008", "pdf_atom_type": "TABLE_ROW", "pdf_source": "SDTMIG_v3.4", "pdf_page": 99, "pdf_parent_section": "§6.1.2 [Concomitant/Prior Medications (CM)]", "pdf_verbatim": "CMDOSRGM | Intended Dose Regimen | Char | | Record Qualifier | Text description of the (intended) schedule or regimen for the Intervention. Example: \"TWO WEEKS ON, TWO WEEKS OFF\". | Perm", "figure_ref": null, "candidates": [{"md_atom_id": "md_dmCM_ex_a054", "md_file": "knowledge_base/domains/CM/examples.md", "md_atom_type": "TABLE_ROW", "md_parent_section": "§CM.4 [Example 4]", "md_verbatim": "| 1 | ABC123 | CM | ABC123-765 | 1 | 1 | PEGINTRON | HCV TREATMENT | INJECTION | SUBCUTANEOUS | COMPLETED SCHEDULED TREATMENT |", "score": 0.48, "match_basis": "verbatim_token+domain_route:CM"}, {"md_atom_id": "md_dmCM_ex_a055", "md_file": "knowledge_base/domains/CM/examples.md", "md_atom_type": "TABLE_ROW", "md_parent_section": "§CM.4 [Example 4]", "md_verbatim": "| 2 | ABC123 | CM | ABC123-765 | 2 | 1 | RIBAVIRIN | HCV TREATMENT | TABLET | ORAL | COMPLETED SCHEDULED TREATMENT |", "score": 0.4619, "match_basis": "verbatim_token+domain_route:CM"}, {"md_atom_id": "md_dmCM_ex_a056", "md_file": "knowledge_base/domains/CM/examples.md", "md_atom_type": "TABLE_ROW", "md_parent_section": "§CM.4 [Example 4]", "md_verbatim": "| 3 | ABC123 | CM | ABC123-765 | 3 | 1 | BOCEPREVIR | HCV TREATMENT | TABLET | ORAL | COMPLETED SCHEDULED TREATMENT |", "score": 0.4612, "match_basis": "verbatim_token+domain_route:CM"}, {"md_atom_id": "md_dmCM_ex_a046", "md_file": "knowledge_base/domains/CM/examples.md", "md_atom_type": "TABLE_ROW", "md_parent_section": "§CM.3 [Example 3]", "md_verbatim": "| 3 | ABC123 | CM | 1 | 3 | PAXIL | Y | | NOT DONE | Didn't ask due to interruption |", "score": 0.4419, "match_basis": "verbatim_token+domain_route:CM"}, {"md_atom_id": "md_dmCM_ex_a057", "md_file": "knowledge_base/domains/CM/examples.md", "md_atom_type": "TABLE_ROW", "md_parent_section": "§CM.4 [Example 4]", "md_verbatim": "| 4 | ABC123 | CM | ABC123-899 | 1 | 1 | PEGINTRON | HCV TREATMENT | INJECTION | SUBCUTANEOUS | TOXICITY/INTOLERANCE |", "score": 0.4319, "match_basis": "verbatim_token+domain_route:CM"}], "candidate_count": 5, "zero_candidate": false}
{"pdf_atom_id": "ig34_p0099_a009", "pdf_atom_type": "TABLE_ROW", "pdf_source": "SDTMIG_v3.4", "pdf_page": 99, "pdf_parent_section": "§6.1.2 [Concomitant/Prior Medications (CM)]", "pdf_verbatim": "CMROUTE | Route of Administration | Char | (ROUTE) | Variable Qualifier | Route of administration for the intervention. Examples: \"ORAL\", \"INTRAVENOUS\". | Perm", "figure_ref": null, "candidates": [{"md_atom_id": "md_dmCM_ex_a054", "md_file": "knowledge_base/domains/CM/examples.md", "md_atom_type": "TABLE_ROW", "md_parent_section": "§CM.4 [Example 4]", "md_verbatim": "| 1 | ABC123 | CM | ABC123-765 | 1 | 1 | PEGINTRON | HCV TREATMENT | INJECTION | SUBCUTANEOUS | COMPLETED SCHEDULED TREATMENT |", "score": 0.4475, "match_basis": "verbatim_token+domain_route:CM"}, {"md_atom_id": "md_dmCM_ex_a055", "md_file": "knowledge_base/domains/CM/examples.md", "md_atom_type": "TABLE_ROW", "md_parent_section": "§CM.4 [Example 4]", "md_verbatim": "| 2 | ABC123 | CM | ABC123-765 | 2 | 1 | RIBAVIRIN | HCV TREATMENT | TABLET | ORAL | COMPLETED SCHEDULED TREATMENT |", "score": 0.4467, "match_basis": "verbatim_token+domain_route:CM"}, {"md_atom_id": "md_dmCM_ex_a056", "md_file": "knowledge_base/domains/CM/examples.md", "md_atom_type": "TABLE_ROW", "md_parent_section": "§CM.4 [Example 4]", "md_verbatim": "| 3 | ABC123 | CM | ABC123-765 | 3 | 1 | BOCEPREVIR | HCV TREATMENT | TABLET | ORAL | COMPLETED SCHEDULED TREATMENT |", "score": 0.4462, "match_basis": "verbatim_token+domain_route:CM"}, {"md_atom_id": "md_dmCM_ex_a046", "md_file": "knowledge_base/domains/CM/examples.md", "md_atom_type": "TABLE_ROW", "md_parent_section": "§CM.3 [Example 3]", "md_verbatim": "| 3 | ABC123 | CM | 1 | 3 | PAXIL | Y | | NOT DONE | Didn't ask due to interruption |", "score": 0.439, "match_basis": "verbatim_token+domain_route:CM"}, {"md_atom_id": "md_dmCM_ex_a058", "md_file": "knowledge_base/domains/CM/examples.md", "md_atom_type": "TABLE_ROW", "md_parent_section": "§CM.4 [Example 4]", "md_verbatim": "| 5 | ABC123 | CM | ABC123-899 | 2 | 1 | RIBAVIRIN | HCV TREATMENT | TABLET | ORAL | TOXICITY/INTOLERANCE |", "score": 0.4387, "match_basis": "verbatim_token+domain_route:CM"}], "candidate_count": 5, "zero_candidate": false}
{"pdf_atom_id": "ig34_p0099_a010", "pdf_atom_type": "TABLE_ROW", "pdf_source": "SDTMIG_v3.4", "pdf_page": 99, "pdf_parent_section": "§6.1.2 [Concomitant/Prior Medications (CM)]", "pdf_verbatim": "CMADJ | Reason for Dose Adjustment | Char | | Record Qualifier | Describes reason or explanation of why a dose is adjusted. Examples: \"ADVERSE EVENT\", \"INSUFFICIENT RESPONSE\", \"NON-MEDICAL REASON\". | Perm", "figure_ref": null, "candidates": [{"md_atom_id": "md_dmCM_ex_a072", "md_file": "knowledge_base/domains/CM/examples.md", "md_atom_type": "TABLE_ROW", "md_parent_section": "§CM.5 [Example 5]", "md_verbatim": "| 1 | ABC123 | CM | 101 | 1 | PRIOR RA MEDICATIONS | PRIOR RA MEDICATIONS | | Y | Y | RHEUMATOID ARTHRITIS | 2020-02-02 | -1 | | |", "score": 0.4432, "match_basis": "verbatim_token+domain_route:CM"}, {"md_atom_id": "md_dmCM_ex_a074", "md_file": "knowledge_base/domains/CM/examples.md", "md_atom_type": "TABLE_ROW", "md_parent_section": "§CM.5 [Example 5]", "md_verbatim": "| 3 | ABC123 | CM | 102 | 1 | PRIOR RA MEDICATIONS | PRIOR RA MEDICATIONS | | Y | Y | RHEUMATOID ARTHRITIS | 2020-01-25 | -3 | | |", "score": 0.4432, "match_basis": "verbatim_token+domain_route:CM"}, {"md_atom_id": "md_dmCM_ex_a054", "md_file": "knowledge_base/domains/CM/examples.md", "md_atom_type": "TABLE_ROW", "md_parent_section": "§CM.4 [Example 4]", "md_verbatim": "| 1 | ABC123 | CM | ABC123-765 | 1 | 1 | PEGINTRON | HCV TREATMENT | INJECTION | SUBCUTANEOUS | COMPLETED SCHEDULED TREATMENT |", "score": 0.4425, "match_basis": "verbatim_token+domain_route:CM"}, {"md_atom_id": "md_dmCM_ex_a076", "md_file": "knowledge_base/domains/CM/examples.md", "md_atom_type": "TABLE_ROW", "md_parent_section": "§CM.5 [Example 5]", "md_verbatim": "| 5 | ABC123 | CM | 102 | 3 | SULFASALAZINE | PRIOR RA MEDICATIONS | PRIOR DMARDS | | | RHEUMATOID ARTHRITIS | 2020-01-25 | -3 | BEFORE | 2020-01-25 |", "score": 0.4419, "match_basis": "verbatim_token+domain_route:CM"}, {"md_atom_id": "md_dmCM_ex_a077", "md_file": "knowledge_base/domains/CM/examples.md", "md_atom_type": "TABLE_ROW", "md_parent_section": "§CM.5 [Example 5]", "md_verbatim": "| 6 | ABC123 | CM | 102 | 4 | METHOTREXATE | PRIOR RA MEDICATIONS | PRIOR DMARDS | | | RHEUMATOID ARTHRITIS | 2020-01-25 | -3 | ONGOING | 2020-01-25 |", "score": 0.4419, "match_basis": "verbatim_token+domain_route:CM"}], "candidate_count": 5, "zero_candidate": false}
{"pdf_atom_id": "ig34_p0099_a011", "pdf_atom_type": "TABLE_ROW", "pdf_source": "SDTMIG_v3.4", "pdf_page": 99, "pdf_parent_section": "§6.1.2 [Concomitant/Prior Medications (CM)]", "pdf_verbatim": "CMRSDISC | Reason the Intervention Was Discontinued | Char | | Record Qualifier | When dosing of a treatment is recorded over multiple successive records, this variable is applicable only for the (chronologically) last record for the treatment. | Perm", "figure_ref": null, "candidates": [{"md_atom_id": "md_dmCM_ex_a054", "md_file": "knowledge_base/domains/CM/examples.md", "md_atom_type": "TABLE_ROW", "md_parent_section": "§CM.4 [Example 4]", "md_verbatim": "| 1 | ABC123 | CM | ABC123-765 | 1 | 1 | PEGINTRON | HCV TREATMENT | INJECTION | SUBCUTANEOUS | COMPLETED SCHEDULED TREATMENT |", "score": 0.45, "match_basis": "verbatim_token+domain_route:CM"}, {"md_atom_id": "md_dmCM_ex_a057", "md_file": "knowledge_base/domains/CM/examples.md", "md_atom_type": "TABLE_ROW", "md_parent_section": "§CM.4 [Example 4]", "md_verbatim": "| 4 | ABC123 | CM | ABC123-899 | 1 | 1 | PEGINTRON | HCV TREATMENT | INJECTION | SUBCUTANEOUS | TOXICITY/INTOLERANCE |", "score": 0.4455, "match_basis": "verbatim_token+domain_route:CM"}, {"md_atom_id": "md_dmCM_ex_a055", "md_file": "knowledge_base/domains/CM/examples.md", "md_atom_type": "TABLE_ROW", "md_parent_section": "§CM.4 [Example 4]", "md_verbatim": "| 2 | ABC123 | CM | ABC123-765 | 2 | 1 | RIBAVIRIN | HCV TREATMENT | TABLET | ORAL | COMPLETED SCHEDULED TREATMENT |", "score": 0.4448, "match_basis": "verbatim_token+domain_route:CM"}, {"md_atom_id": "md_dmCM_ex_a056", "md_file": "knowledge_base/domains/CM/examples.md", "md_atom_type": "TABLE_ROW", "md_parent_section": "§CM.4 [Example 4]", "md_verbatim": "| 3 | ABC123 | CM | ABC123-765 | 3 | 1 | BOCEPREVIR | HCV TREATMENT | TABLET | ORAL | COMPLETED SCHEDULED TREATMENT |", "score": 0.4444, "match_basis": "verbatim_token+domain_route:CM"}, {"md_atom_id": "md_dmCM_ex_a058", "md_file": "knowledge_base/domains/CM/examples.md", "md_atom_type": "TABLE_ROW", "md_parent_section": "§CM.4 [Example 4]", "md_verbatim": "| 5 | ABC123 | CM | ABC123-899 | 2 | 1 | RIBAVIRIN | HCV TREATMENT | TABLET | ORAL | TOXICITY/INTOLERANCE |", "score": 0.4441, "match_basis": "verbatim_token+domain_route:CM"}], "candidate_count": 5, "zero_candidate": false}
{"pdf_atom_id": "ig34_p0099_a012", "pdf_atom_type": "TABLE_ROW", "pdf_source": "SDTMIG_v3.4", "pdf_page": 99, "pdf_parent_section": "§6.1.2 [Concomitant/Prior Medications (CM)]", "pdf_verbatim": "TAETORD | Planned Order of Element within Arm | Num | | Timing | Number that gives the planned order of the element within the arm for the element in which the medication administration started. Null for medications that started before study participation. | Perm", "figure_ref": null, "candidates": [{"md_atom_id": "md_dmCM_ex_a076", "md_file": "knowledge_base/domains/CM/examples.md", "md_atom_type": "TABLE_ROW", "md_parent_section": "§CM.5 [Example 5]", "md_verbatim": "| 5 | ABC123 | CM | 102 | 3 | SULFASALAZINE | PRIOR RA MEDICATIONS | PRIOR DMARDS | | | RHEUMATOID ARTHRITIS | 2020-01-25 | -3 | BEFORE | 2020-01-25 |", "score": 0.4712, "match_basis": "verbatim_token+domain_route:CM"}, {"md_atom_id": "md_dmCM_ex_a072", "md_file": "knowledge_base/domains/CM/examples.md", "md_atom_type": "TABLE_ROW", "md_parent_section": "§CM.5 [Example 5]", "md_verbatim": "| 1 | ABC123 | CM | 101 | 1 | PRIOR RA MEDICATIONS | PRIOR RA MEDICATIONS | | Y | Y | RHEUMATOID ARTHRITIS | 2020-02-02 | -1 | | |", "score": 0.4583, "match_basis": "verbatim_token+domain_route:CM"}, {"md_atom_id": "md_dmCM_ex_a074", "md_file": "knowledge_base/domains/CM/examples.md", "md_atom_type": "TABLE_ROW", "md_parent_section": "§CM.5 [Example 5]", "md_verbatim": "| 3 | ABC123 | CM | 102 | 1 | PRIOR RA MEDICATIONS | PRIOR RA MEDICATIONS | | Y | Y | RHEUMATOID ARTHRITIS | 2020-01-25 | -3 | | |", "score": 0.4583, "match_basis": "verbatim_token+domain_route:CM"}, {"md_atom_id": "md_dmCM_ex_a073", "md_file": "knowledge_base/domains/CM/examples.md", "md_atom_type": "TABLE_ROW", "md_parent_section": "§CM.5 [Example 5]", "md_verbatim": "| 2 | ABC123 | CM | 101 | 2 | PRIOR DMARDS | PRIOR RA MEDICATIONS | PRIOR DMARDS | Y | N | RHEUMATOID ARTHRITIS | 2020-02-02 | -1 | | |", "score": 0.4561, "match_basis": "verbatim_token+domain_route:CM"}, {"md_atom_id": "md_dmCM_ex_a075", "md_file": "knowledge_base/domains/CM/examples.md", "md_atom_type": "TABLE_ROW", "md_parent_section": "§CM.5 [Example 5]", "md_verbatim": "| 4 | ABC123 | CM | 102 | 2 | PRIOR DMARDS | PRIOR RA MEDICATIONS | PRIOR DMARDS | Y | Y | RHEUMATOID ARTHRITIS | 2020-01-25 | -3 | | |", "score": 0.4561, "match_basis": "verbatim_token+domain_route:CM"}], "candidate_count": 5, "zero_candidate": false}
{"pdf_atom_id": "ig34_p0099_a013", "pdf_atom_type": "TABLE_ROW", "pdf_source": "SDTMIG_v3.4", "pdf_page": 99, "pdf_parent_section": "§6.1.2 [Concomitant/Prior Medications (CM)]", "pdf_verbatim": "EPOCH | Epoch | Char | (EPOCH) | Timing | Epoch associated with the start date/time of the medication administration. Null for medications that started before study participation. | Perm", "figure_ref": null, "candidates": [{"md_atom_id": "md_dmCM_ex_a076", "md_file": "knowledge_base/domains/CM/examples.md", "md_atom_type": "TABLE_ROW", "md_parent_section": "§CM.5 [Example 5]", "md_verbatim": "| 5 | ABC123 | CM | 102 | 3 | SULFASALAZINE | PRIOR RA MEDICATIONS | PRIOR DMARDS | | | RHEUMATOID ARTHRITIS | 2020-01-25 | -3 | BEFORE | 2020-01-25 |", "score": 0.4824, "match_basis": "verbatim_token+domain_route:CM"}, {"md_atom_id": "md_dmCM_ex_a077", "md_file": "knowledge_base/domains/CM/examples.md", "md_atom_type": "TABLE_ROW", "md_parent_section": "§CM.5 [Example 5]", "md_verbatim": "| 6 | ABC123 | CM | 102 | 4 | METHOTREXATE | PRIOR RA MEDICATIONS | PRIOR DMARDS | | | RHEUMATOID ARTHRITIS | 2020-01-25 | -3 | ONGOING | 2020-01-25 |", "score": 0.4692, "match_basis": "verbatim_token+domain_route:CM"}, {"md_atom_id": "md_dmCM_ex_a072", "md_file": "knowledge_base/domains/CM/examples.md", "md_atom_type": "TABLE_ROW", "md_parent_section": "§CM.5 [Example 5]", "md_verbatim": "| 1 | ABC123 | CM | 101 | 1 | PRIOR RA MEDICATIONS | PRIOR RA MEDICATIONS | | Y | Y | RHEUMATOID ARTHRITIS | 2020-02-02 | -1 | | |", "score": 0.469, "match_basis": "verbatim_token+domain_route:CM"}, {"md_atom_id": "md_dmCM_ex_a074", "md_file": "knowledge_base/domains/CM/examples.md", "md_atom_type": "TABLE_ROW", "md_parent_section": "§CM.5 [Example 5]", "md_verbatim": "| 3 | ABC123 | CM | 102 | 1 | PRIOR RA MEDICATIONS | PRIOR RA MEDICATIONS | | Y | Y | RHEUMATOID ARTHRITIS | 2020-01-25 | -3 | | |", "score": 0.469, "match_basis": "verbatim_token+domain_route:CM"}, {"md_atom_id": "md_dmCM_ex_a073", "md_file": "knowledge_base/domains/CM/examples.md", "md_atom_type": "TABLE_ROW", "md_parent_section": "§CM.5 [Example 5]", "md_verbatim": "| 2 | ABC123 | CM | 101 | 2 | PRIOR DMARDS | PRIOR RA MEDICATIONS | PRIOR DMARDS | Y | N | RHEUMATOID ARTHRITIS | 2020-02-02 | -1 | | |", "score": 0.4659, "match_basis": "verbatim_token+domain_route:CM"}], "candidate_count": 5, "zero_candidate": false}
{"pdf_atom_id": "ig34_p0099_a014", "pdf_atom_type": "TABLE_ROW", "pdf_source": "SDTMIG_v3.4", "pdf_page": 99, "pdf_parent_section": "§6.1.2 [Concomitant/Prior Medications (CM)]", "pdf_verbatim": "CMSTDTC | Start Date/Time of Medication | Char | ISO 8601 datetime or interval | Timing | Start date/time of the medication administration represented in ISO 8601 character format. | Perm", "figure_ref": null, "candidates": [{"md_atom_id": "md_dmCM_ex_a077", "md_file": "knowledge_base/domains/CM/examples.md", "md_atom_type": "TABLE_ROW", "md_parent_section": "§CM.5 [Example 5]", "md_verbatim": "| 6 | ABC123 | CM | 102 | 4 | METHOTREXATE | PRIOR RA MEDICATIONS | PRIOR DMARDS | | | RHEUMATOID ARTHRITIS | 2020-01-25 | -3 | ONGOING | 2020-01-25 |", "score": 0.4692, "match_basis": "verbatim_token+domain_route:CM"}, {"md_atom_id": "md_dmCM_ex_a072", "md_file": "knowledge_base/domains/CM/examples.md", "md_atom_type": "TABLE_ROW", "md_parent_section": "§CM.5 [Example 5]", "md_verbatim": "| 1 | ABC123 | CM | 101 | 1 | PRIOR RA MEDICATIONS | PRIOR RA MEDICATIONS | | Y | Y | RHEUMATOID ARTHRITIS | 2020-02-02 | -1 | | |", "score": 0.469, "match_basis": "verbatim_token+domain_route:CM"}, {"md_atom_id": "md_dmCM_ex_a074", "md_file": "knowledge_base/domains/CM/examples.md", "md_atom_type": "TABLE_ROW", "md_parent_section": "§CM.5 [Example 5]", "md_verbatim": "| 3 | ABC123 | CM | 102 | 1 | PRIOR RA MEDICATIONS | PRIOR RA MEDICATIONS | | Y | Y | RHEUMATOID ARTHRITIS | 2020-01-25 | -3 | | |", "score": 0.469, "match_basis": "verbatim_token+domain_route:CM"}, {"md_atom_id": "md_dmCM_ex_a073", "md_file": "knowledge_base/domains/CM/examples.md", "md_atom_type": "TABLE_ROW", "md_parent_section": "§CM.5 [Example 5]", "md_verbatim": "| 2 | ABC123 | CM | 101 | 2 | PRIOR DMARDS | PRIOR RA MEDICATIONS | PRIOR DMARDS | Y | N | RHEUMATOID ARTHRITIS | 2020-02-02 | -1 | | |", "score": 0.4659, "match_basis": "verbatim_token+domain_route:CM"}, {"md_atom_id": "md_dmCM_ex_a075", "md_file": "knowledge_base/domains/CM/examples.md", "md_atom_type": "TABLE_ROW", "md_parent_section": "§CM.5 [Example 5]", "md_verbatim": "| 4 | ABC123 | CM | 102 | 2 | PRIOR DMARDS | PRIOR RA MEDICATIONS | PRIOR DMARDS | Y | Y | RHEUMATOID ARTHRITIS | 2020-01-25 | -3 | | |", "score": 0.4659, "match_basis": "verbatim_token+domain_route:CM"}], "candidate_count": 5, "zero_candidate": false}
{"pdf_atom_id": "ig34_p0099_a015", "pdf_atom_type": "TABLE_ROW", "pdf_source": "SDTMIG_v3.4", "pdf_page": 99, "pdf_parent_section": "§6.1.2 [Concomitant/Prior Medications (CM)]", "pdf_verbatim": "CMENDTC | End Date/Time of Medication | Char | ISO 8601 datetime or interval | Timing | End date/time of the medication administration represented in ISO 8601 character format. | Perm", "figure_ref": null, "candidates": [{"md_atom_id": "md_dmCM_ex_a077", "md_file": "knowledge_base/domains/CM/examples.md", "md_atom_type": "TABLE_ROW", "md_parent_section": "§CM.5 [Example 5]", "md_verbatim": "| 6 | ABC123 | CM | 102 | 4 | METHOTREXATE | PRIOR RA MEDICATIONS | PRIOR DMARDS | | | RHEUMATOID ARTHRITIS | 2020-01-25 | -3 | ONGOING | 2020-01-25 |", "score": 0.4647, "match_basis": "verbatim_token+domain_route:CM"}, {"md_atom_id": "md_dmCM_ex_a072", "md_file": "knowledge_base/domains/CM/examples.md", "md_atom_type": "TABLE_ROW", "md_parent_section": "§CM.5 [Example 5]", "md_verbatim": "| 1 | ABC123 | CM | 101 | 1 | PRIOR RA MEDICATIONS | PRIOR RA MEDICATIONS | | Y | Y | RHEUMATOID ARTHRITIS | 2020-02-02 | -1 | | |", "score": 0.4635, "match_basis": "verbatim_token+domain_route:CM"}, {"md_atom_id": "md_dmCM_ex_a074", "md_file": "knowledge_base/domains/CM/examples.md", "md_atom_type": "TABLE_ROW", "md_parent_section": "§CM.5 [Example 5]", "md_verbatim": "| 3 | ABC123 | CM | 102 | 1 | PRIOR RA MEDICATIONS | PRIOR RA MEDICATIONS | | Y | Y | RHEUMATOID ARTHRITIS | 2020-01-25 | -3 | | |", "score": 0.4635, "match_basis": "verbatim_token+domain_route:CM"}, {"md_atom_id": "md_dmCM_ex_a073", "md_file": "knowledge_base/domains/CM/examples.md", "md_atom_type": "TABLE_ROW", "md_parent_section": "§CM.5 [Example 5]", "md_verbatim": "| 2 | ABC123 | CM | 101 | 2 | PRIOR DMARDS | PRIOR RA MEDICATIONS | PRIOR DMARDS | Y | N | RHEUMATOID ARTHRITIS | 2020-02-02 | -1 | | |", "score": 0.4607, "match_basis": "verbatim_token+domain_route:CM"}, {"md_atom_id": "md_dmCM_ex_a075", "md_file": "knowledge_base/domains/CM/examples.md", "md_atom_type": "TABLE_ROW", "md_parent_section": "§CM.5 [Example 5]", "md_verbatim": "| 4 | ABC123 | CM | 102 | 2 | PRIOR DMARDS | PRIOR RA MEDICATIONS | PRIOR DMARDS | Y | Y | RHEUMATOID ARTHRITIS | 2020-01-25 | -3 | | |", "score": 0.4607, "match_basis": "verbatim_token+domain_route:CM"}], "candidate_count": 5, "zero_candidate": false}
{"pdf_atom_id": "ig34_p0099_a016", "pdf_atom_type": "TABLE_ROW", "pdf_source": "SDTMIG_v3.4", "pdf_page": 99, "pdf_parent_section": "§6.1.2 [Concomitant/Prior Medications (CM)]", "pdf_verbatim": "CMSTDY | Study Day of Start of Medication | Num | | Timing | Study day of start of medication relative to the sponsor-defined RFSTDTC. | Perm", "figure_ref": null, "candidates": [{"md_atom_id": "md_dmCM_ex_a072", "md_file": "knowledge_base/domains/CM/examples.md", "md_atom_type": "TABLE_ROW", "md_parent_section": "§CM.5 [Example 5]", "md_verbatim": "| 1 | ABC123 | CM | 101 | 1 | PRIOR RA MEDICATIONS | PRIOR RA MEDICATIONS | | Y | Y | RHEUMATOID ARTHRITIS | 2020-02-02 | -1 | | |", "score": 0.4857, "match_basis": "verbatim_token+domain_route:CM"}, {"md_atom_id": "md_dmCM_ex_a074", "md_file": "knowledge_base/domains/CM/examples.md", "md_atom_type": "TABLE_ROW", "md_parent_section": "§CM.5 [Example 5]", "md_verbatim": "| 3 | ABC123 | CM | 102 | 1 | PRIOR RA MEDICATIONS | PRIOR RA MEDICATIONS | | Y | Y | RHEUMATOID ARTHRITIS | 2020-01-25 | -3 | | |", "score": 0.4857, "match_basis": "verbatim_token+domain_route:CM"}, {"md_atom_id": "md_dmCM_ex_a073", "md_file": "knowledge_base/domains/CM/examples.md", "md_atom_type": "TABLE_ROW", "md_parent_section": "§CM.5 [Example 5]", "md_verbatim": "| 2 | ABC123 | CM | 101 | 2 | PRIOR DMARDS | PRIOR RA MEDICATIONS | PRIOR DMARDS | Y | N | RHEUMATOID ARTHRITIS | 2020-02-02 | -1 | | |", "score": 0.4811, "match_basis": "verbatim_token+domain_route:CM"}, {"md_atom_id": "md_dmCM_ex_a075", "md_file": "knowledge_base/domains/CM/examples.md", "md_atom_type": "TABLE_ROW", "md_parent_section": "§CM.5 [Example 5]", "md_verbatim": "| 4 | ABC123 | CM | 102 | 2 | PRIOR DMARDS | PRIOR RA MEDICATIONS | PRIOR DMARDS | Y | Y | RHEUMATOID ARTHRITIS | 2020-01-25 | -3 | | |", "score": 0.4811, "match_basis": "verbatim_token+domain_route:CM"}, {"md_atom_id": "md_dmCM_ex_a076", "md_file": "knowledge_base/domains/CM/examples.md", "md_atom_type": "TABLE_ROW", "md_parent_section": "§CM.5 [Example 5]", "md_verbatim": "| 5 | ABC123 | CM | 102 | 3 | SULFASALAZINE | PRIOR RA MEDICATIONS | PRIOR DMARDS | | | RHEUMATOID ARTHRITIS | 2020-01-25 | -3 | BEFORE | 2020-01-25 |", "score": 0.475, "match_basis": "verbatim_token+domain_route:CM"}], "candidate_count": 5, "zero_candidate": false}
{"pdf_atom_id": "ig34_p0099_a017", "pdf_atom_type": "TABLE_ROW", "pdf_source": "SDTMIG_v3.4", "pdf_page": 99, "pdf_parent_section": "§6.1.2 [Concomitant/Prior Medications (CM)]", "pdf_verbatim": "CMENDY | Study Day of End of Medication | Num | | Timing | Study day of end of medication relative to the sponsor-defined RFSTDTC. | Perm", "figure_ref": null, "candidates": [{"md_atom_id": "md_dmCM_ex_a072", "md_file": "knowledge_base/domains/CM/examples.md", "md_atom_type": "TABLE_ROW", "md_parent_section": "§CM.5 [Example 5]", "md_verbatim": "| 1 | ABC123 | CM | 101 | 1 | PRIOR RA MEDICATIONS | PRIOR RA MEDICATIONS | | Y | Y | RHEUMATOID ARTHRITIS | 2020-02-02 | -1 | | |", "score": 0.4783, "match_basis": "verbatim_token+domain_route:CM"}, {"md_atom_id": "md_dmCM_ex_a074", "md_file": "knowledge_base/domains/CM/examples.md", "md_atom_type": "TABLE_ROW", "md_parent_section": "§CM.5 [Example 5]", "md_verbatim": "| 3 | ABC123 | CM | 102 | 1 | PRIOR RA MEDICATIONS | PRIOR RA MEDICATIONS | | Y | Y | RHEUMATOID ARTHRITIS | 2020-01-25 | -3 | | |", "score": 0.4783, "match_basis": "verbatim_token+domain_route:CM"}, {"md_atom_id": "md_dmCM_ex_a073", "md_file": "knowledge_base/domains/CM/examples.md", "md_atom_type": "TABLE_ROW", "md_parent_section": "§CM.5 [Example 5]", "md_verbatim": "| 2 | ABC123 | CM | 101 | 2 | PRIOR DMARDS | PRIOR RA MEDICATIONS | PRIOR DMARDS | Y | N | RHEUMATOID ARTHRITIS | 2020-02-02 | -1 | | |", "score": 0.474, "match_basis": "verbatim_token+domain_route:CM"}, {"md_atom_id": "md_dmCM_ex_a075", "md_file": "knowledge_base/domains/CM/examples.md", "md_atom_type": "TABLE_ROW", "md_parent_section": "§CM.5 [Example 5]", "md_verbatim": "| 4 | ABC123 | CM | 102 | 2 | PRIOR DMARDS | PRIOR RA MEDICATIONS | PRIOR DMARDS | Y | Y | RHEUMATOID ARTHRITIS | 2020-01-25 | -3 | | |", "score": 0.474, "match_basis": "verbatim_token+domain_route:CM"}, {"md_atom_id": "md_dmCM_ex_a076", "md_file": "knowledge_base/domains/CM/examples.md", "md_atom_type": "TABLE_ROW", "md_parent_section": "§CM.5 [Example 5]", "md_verbatim": "| 5 | ABC123 | CM | 102 | 3 | SULFASALAZINE | PRIOR RA MEDICATIONS | PRIOR DMARDS | | | RHEUMATOID ARTHRITIS | 2020-01-25 | -3 | BEFORE | 2020-01-25 |", "score": 0.469, "match_basis": "verbatim_token+domain_route:CM"}], "candidate_count": 5, "zero_candidate": false}
{"pdf_atom_id": "ig34_p0099_a018", "pdf_atom_type": "TABLE_ROW", "pdf_source": "SDTMIG_v3.4", "pdf_page": 99, "pdf_parent_section": "§6.1.2 [Concomitant/Prior Medications (CM)]", "pdf_verbatim": "CMDUR | Duration | Char | ISO 8601 duration | Timing | Collected duration for a treatment episode. Used only if collected on the CRF and not derived from start and end date/times. | Perm", "figure_ref": null, "candidates": [{"md_atom_id": "md_dmCM_ex_a054", "md_file": "knowledge_base/domains/CM/examples.md", "md_atom_type": "TABLE_ROW", "md_parent_section": "§CM.4 [Example 4]", "md_verbatim": "| 1 | ABC123 | CM | ABC123-765 | 1 | 1 | PEGINTRON | HCV TREATMENT | INJECTION | SUBCUTANEOUS | COMPLETED SCHEDULED TREATMENT |", "score": 0.4653, "match_basis": "verbatim_token+domain_route:CM"}, {"md_atom_id": "md_dmCM_ex_a057", "md_file": "knowledge_base/domains/CM/examples.md", "md_atom_type": "TABLE_ROW", "md_parent_section": "§CM.4 [Example 4]", "md_verbatim": "| 4 | ABC123 | CM | ABC123-899 | 1 | 1 | PEGINTRON | HCV TREATMENT | INJECTION | SUBCUTANEOUS | TOXICITY/INTOLERANCE |", "score": 0.4588, "match_basis": "verbatim_token+domain_route:CM"}, {"md_atom_id": "md_dmCM_ex_a055", "md_file": "knowledge_base/domains/CM/examples.md", "md_atom_type": "TABLE_ROW", "md_parent_section": "§CM.4 [Example 4]", "md_verbatim": "| 2 | ABC123 | CM | ABC123-765 | 2 | 1 | RIBAVIRIN | HCV TREATMENT | TABLET | ORAL | COMPLETED SCHEDULED TREATMENT |", "score": 0.4522, "match_basis": "verbatim_token+domain_route:CM"}, {"md_atom_id": "md_dmCM_ex_a056", "md_file": "knowledge_base/domains/CM/examples.md", "md_atom_type": "TABLE_ROW", "md_parent_section": "§CM.4 [Example 4]", "md_verbatim": "| 3 | ABC123 | CM | ABC123-765 | 3 | 1 | BOCEPREVIR | HCV TREATMENT | TABLET | ORAL | COMPLETED SCHEDULED TREATMENT |", "score": 0.4516, "match_basis": "verbatim_token+domain_route:CM"}, {"md_atom_id": "md_dmCM_ex_a058", "md_file": "knowledge_base/domains/CM/examples.md", "md_atom_type": "TABLE_ROW", "md_parent_section": "§CM.4 [Example 4]", "md_verbatim": "| 5 | ABC123 | CM | ABC123-899 | 2 | 1 | RIBAVIRIN | HCV TREATMENT | TABLET | ORAL | TOXICITY/INTOLERANCE |", "score": 0.4442, "match_basis": "verbatim_token+domain_route:CM"}], "candidate_count": 5, "zero_candidate": false}
{"pdf_atom_id": "ig34_p0099_a019", "pdf_atom_type": "TABLE_ROW", "pdf_source": "SDTMIG_v3.4", "pdf_page": 99, "pdf_parent_section": "§6.1.2 [Concomitant/Prior Medications (CM)]", "pdf_verbatim": "CMSTRF | Start Relative to Reference Period | Char | (STENRF) | Timing | Describes the start of the medication relative to sponsor-defined reference period. The sponsor-defined reference period is a continuous period of time defined by a discrete starting point and a discrete ending point (represented by RFSTDTC and RFENDTC in Demographics). If information such as \"PRIOR\" was collected, this information may be translated into CMSTRF. Not all values of the codelist are allowable for this variable. See Section 4.4.7, Use of Relative Timing Variables. | Perm", "figure_ref": null, "candidates": [{"md_atom_id": "md_dmCM_ex_a077", "md_file": "knowledge_base/domains/CM/examples.md", "md_atom_type": "TABLE_ROW", "md_parent_section": "§CM.5 [Example 5]", "md_verbatim": "| 6 | ABC123 | CM | 102 | 4 | METHOTREXATE | PRIOR RA MEDICATIONS | PRIOR DMARDS | | | RHEUMATOID ARTHRITIS | 2020-01-25 | -3 | ONGOING | 2020-01-25 |", "score": 0.451, "match_basis": "verbatim_token+domain_route:CM"}, {"md_atom_id": "md_dmCM_ex_a076", "md_file": "knowledge_base/domains/CM/examples.md", "md_atom_type": "TABLE_ROW", "md_parent_section": "§CM.5 [Example 5]", "md_verbatim": "| 5 | ABC123 | CM | 102 | 3 | SULFASALAZINE | PRIOR RA MEDICATIONS | PRIOR DMARDS | | | RHEUMATOID ARTHRITIS | 2020-01-25 | -3 | BEFORE | 2020-01-25 |", "score": 0.4478, "match_basis": "verbatim_token+domain_route:CM"}, {"md_atom_id": "md_dmCM_ex_a072", "md_file": "knowledge_base/domains/CM/examples.md", "md_atom_type": "TABLE_ROW", "md_parent_section": "§CM.5 [Example 5]", "md_verbatim": "| 1 | ABC123 | CM | 101 | 1 | PRIOR RA MEDICATIONS | PRIOR RA MEDICATIONS | | Y | Y | RHEUMATOID ARTHRITIS | 2020-02-02 | -1 | | |", "score": 0.4457, "match_basis": "verbatim_token+domain_route:CM"}, {"md_atom_id": "md_dmCM_ex_a074", "md_file": "knowledge_base/domains/CM/examples.md", "md_atom_type": "TABLE_ROW", "md_parent_section": "§CM.5 [Example 5]", "md_verbatim": "| 3 | ABC123 | CM | 102 | 1 | PRIOR RA MEDICATIONS | PRIOR RA MEDICATIONS | | Y | Y | RHEUMATOID ARTHRITIS | 2020-01-25 | -3 | | |", "score": 0.4457, "match_basis": "verbatim_token+domain_route:CM"}, {"md_atom_id": "md_dmCM_ex_a073", "md_file": "knowledge_base/domains/CM/examples.md", "md_atom_type": "TABLE_ROW", "md_parent_section": "§CM.5 [Example 5]", "md_verbatim": "| 2 | ABC123 | CM | 101 | 2 | PRIOR DMARDS | PRIOR RA MEDICATIONS | PRIOR DMARDS | Y | N | RHEUMATOID ARTHRITIS | 2020-02-02 | -1 | | |", "score": 0.4447, "match_basis": "verbatim_token+domain_route:CM"}], "candidate_count": 5, "zero_candidate": false}
{"pdf_atom_id": "ig34_p0099_a020", "pdf_atom_type": "TABLE_ROW", "pdf_source": "SDTMIG_v3.4", "pdf_page": 99, "pdf_parent_section": "§6.1.2 [Concomitant/Prior Medications (CM)]", "pdf_verbatim": "CMENRF | End Relative to Reference Period | Char | (STENRF) | Timing | Describes the end of the medication relative to the sponsor-defined reference period. The sponsor-defined reference period is a continuous period of time defined by a discrete starting point and a discrete ending point (represented by RFSTDTC and RFENDTC in Demographics). If information such as \"PRIOR\", \"ONGOING\", or \"CONTINUING\" was collected, this information may be translated into CMENRF. Not all values of the codelist are allowable for this variable. See Section 4.4.7, Use of Relative Timing Variables. | Perm", "figure_ref": null, "candidates": [{"md_atom_id": "md_dmCM_ex_a077", "md_file": "knowledge_base/domains/CM/examples.md", "md_atom_type": "TABLE_ROW", "md_parent_section": "§CM.5 [Example 5]", "md_verbatim": "| 6 | ABC123 | CM | 102 | 4 | METHOTREXATE | PRIOR RA MEDICATIONS | PRIOR DMARDS | | | RHEUMATOID ARTHRITIS | 2020-01-25 | -3 | ONGOING | 2020-01-25 |", "score": 0.46, "match_basis": "verbatim_token+domain_route:CM"}, {"md_atom_id": "md_dmCM_ex_a076", "md_file": "knowledge_base/domains/CM/examples.md", "md_atom_type": "TABLE_ROW", "md_parent_section": "§CM.5 [Example 5]", "md_verbatim": "| 5 | ABC123 | CM | 102 | 3 | SULFASALAZINE | PRIOR RA MEDICATIONS | PRIOR DMARDS | | | RHEUMATOID ARTHRITIS | 2020-01-25 | -3 | BEFORE | 2020-01-25 |", "score": 0.4471, "match_basis": "verbatim_token+domain_route:CM"}, {"md_atom_id": "md_dmCM_ex_a072", "md_file": "knowledge_base/domains/CM/examples.md", "md_atom_type": "TABLE_ROW", "md_parent_section": "§CM.5 [Example 5]", "md_verbatim": "| 1 | ABC123 | CM | 101 | 1 | PRIOR RA MEDICATIONS | PRIOR RA MEDICATIONS | | Y | Y | RHEUMATOID ARTHRITIS | 2020-02-02 | -1 | | |", "score": 0.4449, "match_basis": "verbatim_token+domain_route:CM"}, {"md_atom_id": "md_dmCM_ex_a074", "md_file": "knowledge_base/domains/CM/examples.md", "md_atom_type": "TABLE_ROW", "md_parent_section": "§CM.5 [Example 5]", "md_verbatim": "| 3 | ABC123 | CM | 102 | 1 | PRIOR RA MEDICATIONS | PRIOR RA MEDICATIONS | | Y | Y | RHEUMATOID ARTHRITIS | 2020-01-25 | -3 | | |", "score": 0.4449, "match_basis": "verbatim_token+domain_route:CM"}, {"md_atom_id": "md_dmCM_ex_a073", "md_file": "knowledge_base/domains/CM/examples.md", "md_atom_type": "TABLE_ROW", "md_parent_section": "§CM.5 [Example 5]", "md_verbatim": "| 2 | ABC123 | CM | 101 | 2 | PRIOR DMARDS | PRIOR RA MEDICATIONS | PRIOR DMARDS | Y | N | RHEUMATOID ARTHRITIS | 2020-02-02 | -1 | | |", "score": 0.444, "match_basis": "verbatim_token+domain_route:CM"}], "candidate_count": 5, "zero_candidate": false}
{"pdf_atom_id": "ig34_p0100_a001", "pdf_atom_type": "TABLE_ROW", "pdf_source": "SDTMIG_v3.4", "pdf_page": 100, "pdf_parent_section": "§6.1.2 [Concomitant/Prior Medications (CM)]", "pdf_verbatim": "CMSTRTPT | Start Relative to Reference Time Point | Char | (STENRF) | Timing | Identifies the start of the medication as being before or after the sponsor-defined reference time point defined by variable CMSTTPT. Not all values of the codelist are allowable for this variable. See Section 4.4.7, Use of Relative Timing Variables. | Perm", "figure_ref": null, "candidates": [{"md_atom_id": "md_dmCM_ex_a076", "md_file": "knowledge_base/domains/CM/examples.md", "md_atom_type": "TABLE_ROW", "md_parent_section": "§CM.5 [Example 5]", "md_verbatim": "| 5 | ABC123 | CM | 102 | 3 | SULFASALAZINE | PRIOR RA MEDICATIONS | PRIOR DMARDS | | | RHEUMATOID ARTHRITIS | 2020-01-25 | -3 | BEFORE | 2020-01-25 |", "score": 0.4625, "match_basis": "verbatim_token+domain_route:CM"}, {"md_atom_id": "md_dmCM_ex_a077", "md_file": "knowledge_base/domains/CM/examples.md", "md_atom_type": "TABLE_ROW", "md_parent_section": "§CM.5 [Example 5]", "md_verbatim": "| 6 | ABC123 | CM | 102 | 4 | METHOTREXATE | PRIOR RA MEDICATIONS | PRIOR DMARDS | | | RHEUMATOID ARTHRITIS | 2020-01-25 | -3 | ONGOING | 2020-01-25 |", "score": 0.449, "match_basis": "verbatim_token+domain_route:CM"}, {"md_atom_id": "md_dmCM_ex_a072", "md_file": "knowledge_base/domains/CM/examples.md", "md_atom_type": "TABLE_ROW", "md_parent_section": "§CM.5 [Example 5]", "md_verbatim": "| 1 | ABC123 | CM | 101 | 1 | PRIOR RA MEDICATIONS | PRIOR RA MEDICATIONS | | Y | Y | RHEUMATOID ARTHRITIS | 2020-02-02 | -1 | | |", "score": 0.4462, "match_basis": "verbatim_token+domain_route:CM"}, {"md_atom_id": "md_dmCM_ex_a074", "md_file": "knowledge_base/domains/CM/examples.md", "md_atom_type": "TABLE_ROW", "md_parent_section": "§CM.5 [Example 5]", "md_verbatim": "| 3 | ABC123 | CM | 102 | 1 | PRIOR RA MEDICATIONS | PRIOR RA MEDICATIONS | | Y | Y | RHEUMATOID ARTHRITIS | 2020-01-25 | -3 | | |", "score": 0.4462, "match_basis": "verbatim_token+domain_route:CM"}, {"md_atom_id": "md_dmCM_ex_a073", "md_file": "knowledge_base/domains/CM/examples.md", "md_atom_type": "TABLE_ROW", "md_parent_section": "§CM.5 [Example 5]", "md_verbatim": "| 2 | ABC123 | CM | 101 | 2 | PRIOR DMARDS | PRIOR RA MEDICATIONS | PRIOR DMARDS | Y | N | RHEUMATOID ARTHRITIS | 2020-02-02 | -1 | | |", "score": 0.4448, "match_basis": "verbatim_token+domain_route:CM"}], "candidate_count": 5, "zero_candidate": false}
{"pdf_atom_id": "ig34_p0100_a002", "pdf_atom_type": "TABLE_ROW", "pdf_source": "SDTMIG_v3.4", "pdf_page": 100, "pdf_parent_section": "§6.1.2 [Concomitant/Prior Medications (CM)]", "pdf_verbatim": "CMSTTPT | Start Reference Time Point | Char | | Timing | Description or date/time in ISO 8601 character format of the sponsor-defined reference time point referred to by CMSTRTPT. Examples: \"2003-12-15\", \"VISIT 1\". | Perm", "figure_ref": null, "candidates": [{"md_atom_id": "md_dmCM_ex_a077", "md_file": "knowledge_base/domains/CM/examples.md", "md_atom_type": "TABLE_ROW", "md_parent_section": "§CM.5 [Example 5]", "md_verbatim": "| 6 | ABC123 | CM | 102 | 4 | METHOTREXATE | PRIOR RA MEDICATIONS | PRIOR DMARDS | | | RHEUMATOID ARTHRITIS | 2020-01-25 | -3 | ONGOING | 2020-01-25 |", "score": 0.4443, "match_basis": "verbatim_token+domain_route:CM"}, {"md_atom_id": "md_dmCM_ex_a046", "md_file": "knowledge_base/domains/CM/examples.md", "md_atom_type": "TABLE_ROW", "md_parent_section": "§CM.3 [Example 3]", "md_verbatim": "| 3 | ABC123 | CM | 1 | 3 | PAXIL | Y | | NOT DONE | Didn't ask due to interruption |", "score": 0.4375, "match_basis": "verbatim_token+domain_route:CM"}, {"md_atom_id": "md_dmCM_ex_a076", "md_file": "knowledge_base/domains/CM/examples.md", "md_atom_type": "TABLE_ROW", "md_parent_section": "§CM.5 [Example 5]", "md_verbatim": "| 5 | ABC123 | CM | 102 | 3 | SULFASALAZINE | PRIOR RA MEDICATIONS | PRIOR DMARDS | | | RHEUMATOID ARTHRITIS | 2020-01-25 | -3 | BEFORE | 2020-01-25 |", "score": 0.4339, "match_basis": "verbatim_token+domain_route:CM"}, {"md_atom_id": "md_dmCM_ex_a072", "md_file": "knowledge_base/domains/CM/examples.md", "md_atom_type": "TABLE_ROW", "md_parent_section": "§CM.5 [Example 5]", "md_verbatim": "| 1 | ABC123 | CM | 101 | 1 | PRIOR RA MEDICATIONS | PRIOR RA MEDICATIONS | | Y | Y | RHEUMATOID ARTHRITIS | 2020-02-02 | -1 | | |", "score": 0.428, "match_basis": "verbatim_token+domain_route:CM"}, {"md_atom_id": "md_dmCM_ex_a074", "md_file": "knowledge_base/domains/CM/examples.md", "md_atom_type": "TABLE_ROW", "md_parent_section": "§CM.5 [Example 5]", "md_verbatim": "| 3 | ABC123 | CM | 102 | 1 | PRIOR RA MEDICATIONS | PRIOR RA MEDICATIONS | | Y | Y | RHEUMATOID ARTHRITIS | 2020-01-25 | -3 | | |", "score": 0.428, "match_basis": "verbatim_token+domain_route:CM"}], "candidate_count": 5, "zero_candidate": false}
{"pdf_atom_id": "ig34_p0100_a003", "pdf_atom_type": "TABLE_ROW", "pdf_source": "SDTMIG_v3.4", "pdf_page": 100, "pdf_parent_section": "§6.1.2 [Concomitant/Prior Medications (CM)]", "pdf_verbatim": "CMENRTPT | End Relative to Reference Time Point | Char | (STENRF) | Timing | Identifies the end of the medication as being before or after the sponsor-defined reference time point defined by variable CMENTPT. Not all values of the codelist are allowable for this variable. See Section 4.4.7, Use of Relative Timing Variables. | Perm", "figure_ref": null, "candidates": [{"md_atom_id": "md_dmCM_ex_a076", "md_file": "knowledge_base/domains/CM/examples.md", "md_atom_type": "TABLE_ROW", "md_parent_section": "§CM.5 [Example 5]", "md_verbatim": "| 5 | ABC123 | CM | 102 | 3 | SULFASALAZINE | PRIOR RA MEDICATIONS | PRIOR DMARDS | | | RHEUMATOID ARTHRITIS | 2020-01-25 | -3 | BEFORE | 2020-01-25 |", "score": 0.4596, "match_basis": "verbatim_token+domain_route:CM"}, {"md_atom_id": "md_dmCM_ex_a077", "md_file": "knowledge_base/domains/CM/examples.md", "md_atom_type": "TABLE_ROW", "md_parent_section": "§CM.5 [Example 5]", "md_verbatim": "| 6 | ABC123 | CM | 102 | 4 | METHOTREXATE | PRIOR RA MEDICATIONS | PRIOR DMARDS | | | RHEUMATOID ARTHRITIS | 2020-01-25 | -3 | ONGOING | 2020-01-25 |", "score": 0.4458, "match_basis": "verbatim_token+domain_route:CM"}, {"md_atom_id": "md_dmCM_ex_a072", "md_file": "knowledge_base/domains/CM/examples.md", "md_atom_type": "TABLE_ROW", "md_parent_section": "§CM.5 [Example 5]", "md_verbatim": "| 1 | ABC123 | CM | 101 | 1 | PRIOR RA MEDICATIONS | PRIOR RA MEDICATIONS | | Y | Y | RHEUMATOID ARTHRITIS | 2020-02-02 | -1 | | |", "score": 0.4425, "match_basis": "verbatim_token+domain_route:CM"}, {"md_atom_id": "md_dmCM_ex_a074", "md_file": "knowledge_base/domains/CM/examples.md", "md_atom_type": "TABLE_ROW", "md_parent_section": "§CM.5 [Example 5]", "md_verbatim": "| 3 | ABC123 | CM | 102 | 1 | PRIOR RA MEDICATIONS | PRIOR RA MEDICATIONS | | Y | Y | RHEUMATOID ARTHRITIS | 2020-01-25 | -3 | | |", "score": 0.4425, "match_basis": "verbatim_token+domain_route:CM"}, {"md_atom_id": "md_dmCM_ex_a073", "md_file": "knowledge_base/domains/CM/examples.md", "md_atom_type": "TABLE_ROW", "md_parent_section": "§CM.5 [Example 5]", "md_verbatim": "| 2 | ABC123 | CM | 101 | 2 | PRIOR DMARDS | PRIOR RA MEDICATIONS | PRIOR DMARDS | Y | N | RHEUMATOID ARTHRITIS | 2020-02-02 | -1 | | |", "score": 0.4412, "match_basis": "verbatim_token+domain_route:CM"}], "candidate_count": 5, "zero_candidate": false}
{"pdf_atom_id": "ig34_p0100_a004", "pdf_atom_type": "TABLE_ROW", "pdf_source": "SDTMIG_v3.4", "pdf_page": 100, "pdf_parent_section": "§6.1.2 [Concomitant/Prior Medications (CM)]", "pdf_verbatim": "CMENTPT | End Reference Time Point | Char | | Timing | Description or date/time in ISO 8601 character format of the sponsor-defined reference time point referred to by CMENRTPT. Examples: \"2003-12-25\", \"VISIT 2\". | Perm", "figure_ref": null, "candidates": [{"md_atom_id": "md_dmCM_ex_a077", "md_file": "knowledge_base/domains/CM/examples.md", "md_atom_type": "TABLE_ROW", "md_parent_section": "§CM.5 [Example 5]", "md_verbatim": "| 6 | ABC123 | CM | 102 | 4 | METHOTREXATE | PRIOR RA MEDICATIONS | PRIOR DMARDS | | | RHEUMATOID ARTHRITIS | 2020-01-25 | -3 | ONGOING | 2020-01-25 |", "score": 0.4397, "match_basis": "verbatim_token+domain_route:CM"}, {"md_atom_id": "md_dmCM_ex_a046", "md_file": "knowledge_base/domains/CM/examples.md", "md_atom_type": "TABLE_ROW", "md_parent_section": "§CM.3 [Example 3]", "md_verbatim": "| 3 | ABC123 | CM | 1 | 3 | PAXIL | Y | | NOT DONE | Didn't ask due to interruption |", "score": 0.4383, "match_basis": "verbatim_token+domain_route:CM"}, {"md_atom_id": "md_dmCM_ex_a054", "md_file": "knowledge_base/domains/CM/examples.md", "md_atom_type": "TABLE_ROW", "md_parent_section": "§CM.4 [Example 4]", "md_verbatim": "| 1 | ABC123 | CM | ABC123-765 | 1 | 1 | PEGINTRON | HCV TREATMENT | INJECTION | SUBCUTANEOUS | COMPLETED SCHEDULED TREATMENT |", "score": 0.435, "match_basis": "verbatim_token+domain_route:CM"}, {"md_atom_id": "md_dmCM_ex_a057", "md_file": "knowledge_base/domains/CM/examples.md", "md_atom_type": "TABLE_ROW", "md_parent_section": "§CM.4 [Example 4]", "md_verbatim": "| 4 | ABC123 | CM | ABC123-899 | 1 | 1 | PEGINTRON | HCV TREATMENT | INJECTION | SUBCUTANEOUS | TOXICITY/INTOLERANCE |", "score": 0.4298, "match_basis": "verbatim_token+domain_route:CM"}, {"md_atom_id": "md_dmCM_ex_a076", "md_file": "knowledge_base/domains/CM/examples.md", "md_atom_type": "TABLE_ROW", "md_parent_section": "§CM.5 [Example 5]", "md_verbatim": "| 5 | ABC123 | CM | 102 | 3 | SULFASALAZINE | PRIOR RA MEDICATIONS | PRIOR DMARDS | | | RHEUMATOID ARTHRITIS | 2020-01-25 | -3 | BEFORE | 2020-01-25 |", "score": 0.4293, "match_basis": "verbatim_token+domain_route:CM"}], "candidate_count": 5, "zero_candidate": false}
{"pdf_atom_id": "ig34_p0100_a005", "pdf_atom_type": "NOTE", "pdf_source": "SDTMIG_v3.4", "pdf_page": 100, "pdf_parent_section": "§6.1.2 [Concomitant/Prior Medications (CM)]", "pdf_verbatim": "1In this column, an asterisk (*) indicates that the variable may be subject to controlled terminology. CDISC/NCI codelist values are enclosed in parentheses.", "figure_ref": null, "candidates": [{"md_atom_id": "md_dmCM_ex_a065", "md_file": "knowledge_base/domains/CM/examples.md", "md_atom_type": "SENTENCE", "md_parent_section": "§CM.5 [Example 5]", "md_verbatim": "**Row 1:** Shows that subject 101 received prior RA medications. The values of CMTRT and CMCAT are the same, indicating that this record represents the response to a question about a category of medications, rather than an individual medication.", "score": 0.4072, "match_basis": "verbatim_token+domain_route:CM"}, {"md_atom_id": "md_dmCM_ex_a030", "md_file": "knowledge_base/domains/CM/examples.md", "md_atom_type": "SENTENCE", "md_parent_section": "§CM.3 [Example 3]", "md_verbatim": "Sponsors often are interested in whether subjects are exposed to specific concomitant medications, and collect this information using a checklist.", "score": 0.4064, "match_basis": "verbatim_token+domain_route:CM"}, {"md_atom_id": "md_dmCM_ex_a010", "md_file": "knowledge_base/domains/CM/examples.md", "md_atom_type": "NOTE", "md_parent_section": "§CM.1 [Example 1]", "md_verbatim": "**cm.xpt**", "score": 0.4, "match_basis": "verbatim_token+domain_route:CM"}, {"md_atom_id": "md_dmCM_ex_a025", "md_file": "knowledge_base/domains/CM/examples.md", "md_atom_type": "NOTE", "md_parent_section": "§CM.2 [Example 2]", "md_verbatim": "**cm.xpt**", "score": 0.4, "match_basis": "verbatim_token+domain_route:CM"}, {"md_atom_id": "md_dmCM_ex_a042", "md_file": "knowledge_base/domains/CM/examples.md", "md_atom_type": "NOTE", "md_parent_section": "§CM.3 [Example 3]", "md_verbatim": "**cm.xpt**", "score": 0.4, "match_basis": "verbatim_token+domain_route:CM"}], "candidate_count": 5, "zero_candidate": false}
{"pdf_atom_id": "ig34_p0100_a006", "pdf_atom_type": "HEADING", "pdf_source": "SDTMIG_v3.4", "pdf_page": 100, "pdf_parent_section": "§6.1.2 [Concomitant/Prior Medications (CM)]", "pdf_verbatim": "CM – Assumptions", "figure_ref": null, "candidates": [{"md_atom_id": "md_dmCM_assn_a001", "md_file": "knowledge_base/domains/CM/assumptions.md", "md_atom_type": "HEADING", "md_parent_section": "§CM [CM — Assumptions]", "md_verbatim": "# CM — Assumptions", "score": 1.0, "match_basis": "verbatim_token+domain_route:CM"}, {"md_atom_id": "md_dmCM_ex_a001", "md_file": "knowledge_base/domains/CM/examples.md", "md_atom_type": "HEADING", "md_parent_section": "§CM [CM — Examples]", "md_verbatim": "# CM — Examples", "score": 0.4, "match_basis": "verbatim_token+domain_route:CM"}, {"md_atom_id": "md_dmCM_ex_a002", "md_file": "knowledge_base/domains/CM/examples.md", "md_atom_type": "HEADING", "md_parent_section": "§CM.1 [Example 1]", "md_verbatim": "## Example 1", "score": 0.4, "match_basis": "verbatim_token+domain_route:CM"}, {"md_atom_id": "md_dmCM_ex_a022", "md_file": "knowledge_base/domains/CM/examples.md", "md_atom_type": "HEADING", "md_parent_section": "§CM.2 [Example 2]", "md_verbatim": "## Example 2", "score": 0.4, "match_basis": "verbatim_token+domain_route:CM"}, {"md_atom_id": "md_dmCM_ex_a029", "md_file": "knowledge_base/domains/CM/examples.md", "md_atom_type": "HEADING", "md_parent_section": "§CM.3 [Example 3]", "md_verbatim": "## Example 3", "score": 0.4, "match_basis": "verbatim_token+domain_route:CM"}], "candidate_count": 5, "zero_candidate": false}
