{"pdf_atom_id": "ig34_p0082_a002", "pdf_atom_type": "SENTENCE", "pdf_source": "SDTMIG_v3.4", "pdf_page": 82, "pdf_parent_section": "§5.3 [Subject Elements (SE)]", "pdf_verbatim": "This example shows data for 2 subjects for a crossover trial with 4 epochs.", "figure_ref": null, "candidates": [{"md_atom_id": "md_dmSE_ex_a004", "md_file": "knowledge_base/domains/SE/examples.md", "md_atom_type": "SENTENCE", "md_parent_section": "§SE.1 [Example 1]", "md_verbatim": "This example shows data for 2 subjects for a crossover trial with 4 epochs.", "score": 1.0, "match_basis": "verbatim_token+domain_route:SE"}, {"md_atom_id": "md_dmSE_ex_a035", "md_file": "knowledge_base/domains/SE/examples.md", "md_atom_type": "SENTENCE", "md_parent_section": "§SE.2 [Example 2]", "md_verbatim": "**Rows 1-2:** Show data for a subject who completed only 2 elements of the trial.", "score": 0.5882, "match_basis": "verbatim_token+domain_route:SE"}, {"md_atom_id": "md_dmSE_ex_a033", "md_file": "knowledge_base/domains/SE/examples.md", "md_atom_type": "SENTENCE", "md_parent_section": "§SE.2 [Example 2]", "md_verbatim": "See Section 7.2.1, Trial Arms, Example Trial 3. In this trial, subjects were randomized at the beginning of the blinded treatment epoch, then assigned to treatment for the open treatment epoch according to their response to treatment in the blinded treatment epoch. See Section 5.2, Demographics, for other examples of ARM and ARMCD values for this trial.", "score": 0.5053, "match_basis": "verbatim_token+domain_route:SE"}, {"md_atom_id": "md_dmSE_ex_a045", "md_file": "knowledge_base/domains/SE/examples.md", "md_atom_type": "SENTENCE", "md_parent_section": "§SE.2 [Example 2]", "md_verbatim": "**Row 1:** Shows the record for a subject who was randomized to blinded treatment A, but withdrew from the trial before the open treatment epoch and did not have a second treatment assignment. They were thus incompletely assigned to an arm. The code used to represent this incomplete assignment, \"A\", is not in the TA table for this trial design, but is the first part of the codes for the 2 arms to which subject 123 could have been assigned (\"AR\" or \"AO\").", "score": 0.494, "match_basis": "verbatim_token+domain_route:SE"}, {"md_atom_id": "md_dmSE_ex_a036", "md_file": "knowledge_base/domains/SE/examples.md", "md_atom_type": "SENTENCE", "md_parent_section": "§SE.2 [Example 2]", "md_verbatim": "**Rows 3-6:** Show data for a subject who completed the trial, but received the wrong drug for the last 2 weeks of the double-blind treatment period. This has been represented by treating the period when the subject received the wrong drug as an unplanned element. Note that TAETORD, which represents the planned order of elements within an arm, has not been populated for this unplanned element. Even though this element was unplanned, the sponsor assigned a value of BLINDED TREATMENT to EPOCH.", "score": 0.4932, "match_basis": "verbatim_token+domain_route:SE"}], "candidate_count": 5, "zero_candidate": false}
{"pdf_atom_id": "ig34_p0082_a003", "pdf_atom_type": "SENTENCE", "pdf_source": "SDTMIG_v3.4", "pdf_page": 82, "pdf_parent_section": "§5.3 [Subject Elements (SE)]", "pdf_verbatim": "Row 1: The record for the SCREEN element for subject 789. Note that only the date of the start of the SCREEN element was collected, whereas for the end of the element (which corresponds to the start of IV dosing) both date and time were collected.", "figure_ref": null, "candidates": [{"md_atom_id": "md_dmSE_ex_a005", "md_file": "knowledge_base/domains/SE/examples.md", "md_atom_type": "SENTENCE", "md_parent_section": "§SE.1 [Example 1]", "md_verbatim": "**Row 1:** The record for the SCREEN element for subject 789. Note that only the date of the start of the SCREEN element was collected, whereas for the end of the element (which corresponds to the start of IV dosing) both date and time were collected.", "score": 1.0, "match_basis": "verbatim_token+domain_route:SE"}, {"md_atom_id": "md_dmSE_ex_a006", "md_file": "knowledge_base/domains/SE/examples.md", "md_atom_type": "SENTENCE", "md_parent_section": "§SE.1 [Example 1]", "md_verbatim": "**Row 2:** The record for the IV element for subject 789. The IV element started with the start of IV dosing and ended with the start of oral dosing, and full date/times were collected for both.", "score": 0.7195, "match_basis": "verbatim_token+domain_route:SE"}, {"md_atom_id": "md_dmSE_ex_a007", "md_file": "knowledge_base/domains/SE/examples.md", "md_atom_type": "SENTENCE", "md_parent_section": "§SE.1 [Example 1]", "md_verbatim": "**Row 3:** The record for the ORAL element for subject 789. Only the date, and not the time, of the start of follow-up was collected.", "score": 0.7, "match_basis": "verbatim_token+domain_route:SE"}, {"md_atom_id": "md_dmSE_ex_a008", "md_file": "knowledge_base/domains/SE/examples.md", "md_atom_type": "SENTENCE", "md_parent_section": "§SE.1 [Example 1]", "md_verbatim": "**Row 4:** The FOLLOWUP element for subject 789 started and ended on the same day. Presumably, the element had a positive duration, but no times were collected.", "score": 0.5879, "match_basis": "verbatim_token+domain_route:SE"}, {"md_atom_id": "md_dmSE_ex_a009", "md_file": "knowledge_base/domains/SE/examples.md", "md_atom_type": "SENTENCE", "md_parent_section": "§SE.1 [Example 1]", "md_verbatim": "**Rows 5-8:** Subject 790 was treated incorrectly. This subject entered the IV element before the ORAL element, although the planned order of elements for this subject was ORAL, then IV. The sponsor has assigned EPOCH values for this subject according to the actual order of elements, rather than the planned order. Per Assumption 6, TAETORD is missing for the elements that were out of order. The correct order of elements is the subject's ARMCD, shown in the DM dataset.", "score": 0.5263, "match_basis": "verbatim_token+domain_route:SE"}], "candidate_count": 5, "zero_candidate": false}
{"pdf_atom_id": "ig34_p0082_a004", "pdf_atom_type": "SENTENCE", "pdf_source": "SDTMIG_v3.4", "pdf_page": 82, "pdf_parent_section": "§5.3 [Subject Elements (SE)]", "pdf_verbatim": "Row 2: The record for the IV element for subject 789. The IV element started with the start of IV dosing and ended with the start of oral dosing, and full date/times were collected for both.", "figure_ref": null, "candidates": [{"md_atom_id": "md_dmSE_ex_a006", "md_file": "knowledge_base/domains/SE/examples.md", "md_atom_type": "SENTENCE", "md_parent_section": "§SE.1 [Example 1]", "md_verbatim": "**Row 2:** The record for the IV element for subject 789. The IV element started with the start of IV dosing and ended with the start of oral dosing, and full date/times were collected for both.", "score": 1.0, "match_basis": "verbatim_token+domain_route:SE"}, {"md_atom_id": "md_dmSE_ex_a007", "md_file": "knowledge_base/domains/SE/examples.md", "md_atom_type": "SENTENCE", "md_parent_section": "§SE.1 [Example 1]", "md_verbatim": "**Row 3:** The record for the ORAL element for subject 789. Only the date, and not the time, of the start of follow-up was collected.", "score": 0.7517, "match_basis": "verbatim_token+domain_route:SE"}, {"md_atom_id": "md_dmSE_ex_a005", "md_file": "knowledge_base/domains/SE/examples.md", "md_atom_type": "SENTENCE", "md_parent_section": "§SE.1 [Example 1]", "md_verbatim": "**Row 1:** The record for the SCREEN element for subject 789. Note that only the date of the start of the SCREEN element was collected, whereas for the end of the element (which corresponds to the start of IV dosing) both date and time were collected.", "score": 0.7195, "match_basis": "verbatim_token+domain_route:SE"}, {"md_atom_id": "md_dmSE_ex_a008", "md_file": "knowledge_base/domains/SE/examples.md", "md_atom_type": "SENTENCE", "md_parent_section": "§SE.1 [Example 1]", "md_verbatim": "**Row 4:** The FOLLOWUP element for subject 789 started and ended on the same day. Presumably, the element had a positive duration, but no times were collected.", "score": 0.655, "match_basis": "verbatim_token+domain_route:SE"}, {"md_atom_id": "md_dmSE_ex_a023", "md_file": "knowledge_base/domains/SE/examples.md", "md_atom_type": "SENTENCE", "md_parent_section": "§SE.1 [Example 1]", "md_verbatim": "**Row 1:** Subject 789 was assigned to the IV-ORAL arm and was treated accordingly.", "score": 0.5412, "match_basis": "verbatim_token+domain_route:SE"}], "candidate_count": 5, "zero_candidate": false}
{"pdf_atom_id": "ig34_p0082_a005", "pdf_atom_type": "SENTENCE", "pdf_source": "SDTMIG_v3.4", "pdf_page": 82, "pdf_parent_section": "§5.3 [Subject Elements (SE)]", "pdf_verbatim": "Row 3: The record for the ORAL element for subject 789. Only the date, and not the time, of the start of follow-up was collected.", "figure_ref": null, "candidates": [{"md_atom_id": "md_dmSE_ex_a007", "md_file": "knowledge_base/domains/SE/examples.md", "md_atom_type": "SENTENCE", "md_parent_section": "§SE.1 [Example 1]", "md_verbatim": "**Row 3:** The record for the ORAL element for subject 789. Only the date, and not the time, of the start of follow-up was collected.", "score": 1.0, "match_basis": "verbatim_token+domain_route:SE"}, {"md_atom_id": "md_dmSE_ex_a006", "md_file": "knowledge_base/domains/SE/examples.md", "md_atom_type": "SENTENCE", "md_parent_section": "§SE.1 [Example 1]", "md_verbatim": "**Row 2:** The record for the IV element for subject 789. The IV element started with the start of IV dosing and ended with the start of oral dosing, and full date/times were collected for both.", "score": 0.7517, "match_basis": "verbatim_token+domain_route:SE"}, {"md_atom_id": "md_dmSE_ex_a005", "md_file": "knowledge_base/domains/SE/examples.md", "md_atom_type": "SENTENCE", "md_parent_section": "§SE.1 [Example 1]", "md_verbatim": "**Row 1:** The record for the SCREEN element for subject 789. Note that only the date of the start of the SCREEN element was collected, whereas for the end of the element (which corresponds to the start of IV dosing) both date and time were collected.", "score": 0.7, "match_basis": "verbatim_token+domain_route:SE"}, {"md_atom_id": "md_dmSE_ex_a008", "md_file": "knowledge_base/domains/SE/examples.md", "md_atom_type": "SENTENCE", "md_parent_section": "§SE.1 [Example 1]", "md_verbatim": "**Row 4:** The FOLLOWUP element for subject 789 started and ended on the same day. Presumably, the element had a positive duration, but no times were collected.", "score": 0.632, "match_basis": "verbatim_token+domain_route:SE"}, {"md_atom_id": "md_dmSE_ex_a035", "md_file": "knowledge_base/domains/SE/examples.md", "md_atom_type": "SENTENCE", "md_parent_section": "§SE.2 [Example 2]", "md_verbatim": "**Rows 1-2:** Show data for a subject who completed only 2 elements of the trial.", "score": 0.5821, "match_basis": "verbatim_token+domain_route:SE"}], "candidate_count": 5, "zero_candidate": false}
{"pdf_atom_id": "ig34_p0082_a006", "pdf_atom_type": "SENTENCE", "pdf_source": "SDTMIG_v3.4", "pdf_page": 82, "pdf_parent_section": "§5.3 [Subject Elements (SE)]", "pdf_verbatim": "Row 4: The FOLLOWUP element for subject 789 started and ended on the same day. Presumably, the element had a positive duration, but no times were collected.", "figure_ref": null, "candidates": [{"md_atom_id": "md_dmSE_ex_a008", "md_file": "knowledge_base/domains/SE/examples.md", "md_atom_type": "SENTENCE", "md_parent_section": "§SE.1 [Example 1]", "md_verbatim": "**Row 4:** The FOLLOWUP element for subject 789 started and ended on the same day. Presumably, the element had a positive duration, but no times were collected.", "score": 1.0, "match_basis": "verbatim_token+domain_route:SE"}, {"md_atom_id": "md_dmSE_ex_a006", "md_file": "knowledge_base/domains/SE/examples.md", "md_atom_type": "SENTENCE", "md_parent_section": "§SE.1 [Example 1]", "md_verbatim": "**Row 2:** The record for the IV element for subject 789. The IV element started with the start of IV dosing and ended with the start of oral dosing, and full date/times were collected for both.", "score": 0.655, "match_basis": "verbatim_token+domain_route:SE"}, {"md_atom_id": "md_dmSE_ex_a007", "md_file": "knowledge_base/domains/SE/examples.md", "md_atom_type": "SENTENCE", "md_parent_section": "§SE.1 [Example 1]", "md_verbatim": "**Row 3:** The record for the ORAL element for subject 789. Only the date, and not the time, of the start of follow-up was collected.", "score": 0.632, "match_basis": "verbatim_token+domain_route:SE"}, {"md_atom_id": "md_dmSE_ex_a005", "md_file": "knowledge_base/domains/SE/examples.md", "md_atom_type": "SENTENCE", "md_parent_section": "§SE.1 [Example 1]", "md_verbatim": "**Row 1:** The record for the SCREEN element for subject 789. Note that only the date of the start of the SCREEN element was collected, whereas for the end of the element (which corresponds to the start of IV dosing) both date and time were collected.", "score": 0.5879, "match_basis": "verbatim_token+domain_route:SE"}, {"md_atom_id": "md_dmSE_ex_a025", "md_file": "knowledge_base/domains/SE/examples.md", "md_atom_type": "SENTENCE", "md_parent_section": "§SE.1 [Example 1]", "md_verbatim": "**Row 3:** Subject 791 was assigned to the IV-ORAL arm, received the first of the 2 planned treatment elements, and were following the assigned treatment when they withdrew early. The actual arm variables are populated with the values for the arm to which subject 791 was assigned.", "score": 0.5053, "match_basis": "verbatim_token+domain_route:SE"}], "candidate_count": 5, "zero_candidate": false}
{"pdf_atom_id": "ig34_p0082_a007", "pdf_atom_type": "SENTENCE", "pdf_source": "SDTMIG_v3.4", "pdf_page": 82, "pdf_parent_section": "§5.3 [Subject Elements (SE)]", "pdf_verbatim": "Rows 5-8: Subject 790 was treated incorrectly. This subject entered the IV element before the ORAL element, although the planned order of elements for this subject was ORAL, then IV. The sponsor has assigned EPOCH values for this subject according to the actual order of elements, rather than the planned order. Per Assumption 6, TAETORD is missing for the elements that were out of order. The correct order of elements is the subject's ARMCD, shown in the DM dataset.", "figure_ref": null, "candidates": [{"md_atom_id": "md_dmSE_ex_a009", "md_file": "knowledge_base/domains/SE/examples.md", "md_atom_type": "SENTENCE", "md_parent_section": "§SE.1 [Example 1]", "md_verbatim": "**Rows 5-8:** Subject 790 was treated incorrectly. This subject entered the IV element before the ORAL element, although the planned order of elements for this subject was ORAL, then IV. The sponsor has assigned EPOCH values for this subject according to the actual order of elements, rather than the planned order. Per Assumption 6, TAETORD is missing for the elements that were out of order. The correct order of elements is the subject's ARMCD, shown in the DM dataset.", "score": 1.0, "match_basis": "verbatim_token+domain_route:SE"}, {"md_atom_id": "md_dmSE_ex_a036", "md_file": "knowledge_base/domains/SE/examples.md", "md_atom_type": "SENTENCE", "md_parent_section": "§SE.2 [Example 2]", "md_verbatim": "**Rows 3-6:** Show data for a subject who completed the trial, but received the wrong drug for the last 2 weeks of the double-blind treatment period. This has been represented by treating the period when the subject received the wrong drug as an unplanned element. Note that TAETORD, which represents the planned order of elements within an arm, has not been populated for this unplanned element. Even though this element was unplanned, the sponsor assigned a value of BLINDED TREATMENT to EPOCH.", "score": 0.6205, "match_basis": "verbatim_token+domain_route:SE"}, {"md_atom_id": "md_dmSE_ex_a025", "md_file": "knowledge_base/domains/SE/examples.md", "md_atom_type": "SENTENCE", "md_parent_section": "§SE.1 [Example 1]", "md_verbatim": "**Row 3:** Subject 791 was assigned to the IV-ORAL arm, received the first of the 2 planned treatment elements, and were following the assigned treatment when they withdrew early. The actual arm variables are populated with the values for the arm to which subject 791 was assigned.", "score": 0.5704, "match_basis": "verbatim_token+domain_route:SE"}, {"md_atom_id": "md_dmSE_ex_a033", "md_file": "knowledge_base/domains/SE/examples.md", "md_atom_type": "SENTENCE", "md_parent_section": "§SE.2 [Example 2]", "md_verbatim": "See Section 7.2.1, Trial Arms, Example Trial 3. In this trial, subjects were randomized at the beginning of the blinded treatment epoch, then assigned to treatment for the open treatment epoch according to their response to treatment in the blinded treatment epoch. See Section 5.2, Demographics, for other examples of ARM and ARMCD values for this trial.", "score": 0.5624, "match_basis": "verbatim_token+domain_route:SE"}, {"md_atom_id": "md_dmSE_ex_a034", "md_file": "knowledge_base/domains/SE/examples.md", "md_atom_type": "SENTENCE", "md_parent_section": "§SE.2 [Example 2]", "md_verbatim": "In this trial, start of dosing was recorded as dates without times, so SESTDTC values include only dates. Epochs could not be assigned to observations that occurred on epoch transition dates on the basis of the SE dataset alone, so the sponsor's algorithms for dealing with this ambiguity were documented in the Define-XML document.", "score": 0.5538, "match_basis": "verbatim_token+domain_route:SE"}], "candidate_count": 5, "zero_candidate": false}
{"pdf_atom_id": "ig34_p0082_a008", "pdf_atom_type": "SENTENCE", "pdf_source": "SDTMIG_v3.4", "pdf_page": 82, "pdf_parent_section": "§5.3 [Subject Elements (SE)]", "pdf_verbatim": "Rows 9-10: Subject 791 was screened, randomized to the IV-ORAL arm, and received the IV treatment, but did not return to the unit for the treatment epoch or follow-up.", "figure_ref": null, "candidates": [{"md_atom_id": "md_dmSE_ex_a010", "md_file": "knowledge_base/domains/SE/examples.md", "md_atom_type": "SENTENCE", "md_parent_section": "§SE.1 [Example 1]", "md_verbatim": "**Rows 9-10:** Subject 791 was screened, randomized to the IV-ORAL arm, and received the IV treatment, but did not return to the unit for the treatment epoch or follow-up.", "score": 1.0, "match_basis": "verbatim_token+domain_route:SE"}, {"md_atom_id": "md_dmSE_ex_a024", "md_file": "knowledge_base/domains/SE/examples.md", "md_atom_type": "SENTENCE", "md_parent_section": "§SE.1 [Example 1]", "md_verbatim": "**Row 2:** Subject 790 was assigned to the ORAL-IV arm, but their actual treatment was IV, then oral.", "score": 0.5714, "match_basis": "verbatim_token+domain_route:SE"}, {"md_atom_id": "md_dmSE_ex_a025", "md_file": "knowledge_base/domains/SE/examples.md", "md_atom_type": "SENTENCE", "md_parent_section": "§SE.1 [Example 1]", "md_verbatim": "**Row 3:** Subject 791 was assigned to the IV-ORAL arm, received the first of the 2 planned treatment elements, and were following the assigned treatment when they withdrew early. The actual arm variables are populated with the values for the arm to which subject 791 was assigned.", "score": 0.5655, "match_basis": "verbatim_token+domain_route:SE"}, {"md_atom_id": "md_dmSE_ex_a007", "md_file": "knowledge_base/domains/SE/examples.md", "md_atom_type": "SENTENCE", "md_parent_section": "§SE.1 [Example 1]", "md_verbatim": "**Row 3:** The record for the ORAL element for subject 789. Only the date, and not the time, of the start of follow-up was collected.", "score": 0.5538, "match_basis": "verbatim_token+domain_route:SE"}, {"md_atom_id": "md_dmSE_ex_a045", "md_file": "knowledge_base/domains/SE/examples.md", "md_atom_type": "SENTENCE", "md_parent_section": "§SE.2 [Example 2]", "md_verbatim": "**Row 1:** Shows the record for a subject who was randomized to blinded treatment A, but withdrew from the trial before the open treatment epoch and did not have a second treatment assignment. They were thus incompletely assigned to an arm. The code used to represent this incomplete assignment, \"A\", is not in the TA table for this trial design, but is the first part of the codes for the 2 arms to which subject 123 could have been assigned (\"AR\" or \"AO\").", "score": 0.5479, "match_basis": "verbatim_token+domain_route:SE"}], "candidate_count": 5, "zero_candidate": false}
{"pdf_atom_id": "ig34_p0082_a009", "pdf_atom_type": "CODE_LITERAL", "pdf_source": "SDTMIG_v3.4", "pdf_page": 82, "pdf_parent_section": "§5.3 [Subject Elements (SE)]", "pdf_verbatim": "se.xpt", "figure_ref": null, "candidates": [{"md_atom_id": "md_dmSE_ex_a011", "md_file": "knowledge_base/domains/SE/examples.md", "md_atom_type": "SENTENCE", "md_parent_section": "§SE.1 [Example 1]", "md_verbatim": "**se.xpt**", "score": 0.79, "match_basis": "verbatim_token+domain_route:SE"}, {"md_atom_id": "md_dmSE_ex_a026", "md_file": "knowledge_base/domains/SE/examples.md", "md_atom_type": "SENTENCE", "md_parent_section": "§SE.1 [Example 1]", "md_verbatim": "**dm.xpt**", "score": 0.79, "match_basis": "verbatim_token+domain_route:SE"}, {"md_atom_id": "md_dmSE_ex_a037", "md_file": "knowledge_base/domains/SE/examples.md", "md_atom_type": "SENTENCE", "md_parent_section": "§SE.2 [Example 2]", "md_verbatim": "**se.xpt**", "score": 0.79, "match_basis": "verbatim_token+domain_route:SE"}, {"md_atom_id": "md_dmSE_ex_a047", "md_file": "knowledge_base/domains/SE/examples.md", "md_atom_type": "SENTENCE", "md_parent_section": "§SE.2 [Example 2]", "md_verbatim": "**dm.xpt**", "score": 0.79, "match_basis": "verbatim_token+domain_route:SE"}, {"md_atom_id": "md_dmSE_assn_a001", "md_file": "knowledge_base/domains/SE/assumptions.md", "md_atom_type": "HEADING", "md_parent_section": "§SE [SE — Assumptions]", "md_verbatim": "# SE — Assumptions", "score": 0.19, "match_basis": "verbatim_token+domain_route:SE"}, {"md_atom_id": "md_dmSE_assn_a002", "md_file": "knowledge_base/domains/SE/assumptions.md", "md_atom_type": "SENTENCE", "md_parent_section": "§SE [SE — Assumptions]", "md_verbatim": "Submission of the SE dataset is strongly recommended, as it provides information needed by reviewers to place observations in context within the study. As noted in the SE - Description/Overview, the TE and TA datasets should also be submitted, as these define the design and the terms referenced by the SE dataset.", "score": 0.19, "match_basis": "verbatim_token+domain_route:SE"}, {"md_atom_id": "md_dmSE_assn_a003", "md_file": "knowledge_base/domains/SE/assumptions.md", "md_atom_type": "SENTENCE", "md_parent_section": "§SE [SE — Assumptions]", "md_verbatim": "The SE domain allows the submission of data on the timing of the trial elements a subject actually passed through in their participation in the trial. Section 7.2.2, Trial Elements, and Section 7.2.1, Trial Arms, provide additional information on these datasets, which define a trial's planned elements and describe the planned sequences of elements for the arms of the trial.", "score": 0.19, "match_basis": "verbatim_token+domain_route:SE"}, {"md_atom_id": "md_dmSE_assn_a004", "md_file": "knowledge_base/domains/SE/assumptions.md", "md_atom_type": "LIST_ITEM", "md_parent_section": "§SE [SE — Assumptions]", "md_verbatim": "1. For any particular subject, the dates in the SE table are the dates when the transition events identified in the TE table occurred. Judgment may be needed to match actual events in a subject's experience with the definitions of transition events (i.e., events that mark the start of new elements) in the TE table; actual events may vary from the plan. For instance, in a single-dose pharmacokinetics (PK) study, the transition events might correspond to study drug doses of 5 and 10 mg. If a subject actually received a dose of 7 mg when they were scheduled to receive 5 mg, a decision will have to be made on how to represent this in the SE domain.", "score": 0.19, "match_basis": "verbatim_token+domain_route:SE"}, {"md_atom_id": "md_dmSE_assn_a005", "md_file": "knowledge_base/domains/SE/assumptions.md", "md_atom_type": "LIST_ITEM", "md_parent_section": "§SE [SE — Assumptions]", "md_verbatim": "2. If the date/time of a transition element was not collected directly, the method used to infer the element start date/time should be explained in the Comments column of the Define-XML document.", "score": 0.19, "match_basis": "verbatim_token+domain_route:SE"}, {"md_atom_id": "md_dmSE_assn_a006", "md_file": "knowledge_base/domains/SE/assumptions.md", "md_atom_type": "LIST_ITEM", "md_parent_section": "§SE [SE — Assumptions]", "md_verbatim": "3. Judgment will also have to be used in deciding how to represent a subject's experience if an element does not proceed or end as planned. For instance, the plan might identify a trial element that is to start with the first of a series of 5 daily doses and end after 1 week, when the subject transitions to the next treatment element. If the subject actually started the next treatment epoch (see Section 7.1, Introduction to Trial Design Model Datasets, and Section 7.1.2, Definitions of Trial Design Concepts) after 4 weeks, the sponsor would have to decide whether to represent this as an abnormally long element, or as a normal element plus an unplanned non-treatment element.", "score": 0.19, "match_basis": "verbatim_token+domain_route:SE"}], "candidate_count": 10, "zero_candidate": false}
{"pdf_atom_id": "ig34_p0082_a010", "pdf_atom_type": "TABLE_HEADER", "pdf_source": "SDTMIG_v3.4", "pdf_page": 82, "pdf_parent_section": "§5.3 [Subject Elements (SE)]", "pdf_verbatim": "Row | USUBJID | SESEQ | ETCD | SESTDTC | SEENDTC | SEUPDES | TAETORD | EPOCH", "figure_ref": null, "candidates": [{"md_atom_id": "md_dmSE_ex_a012", "md_file": "knowledge_base/domains/SE/examples.md", "md_atom_type": "TABLE_HEADER", "md_parent_section": "§SE.1 [Example 1]", "md_verbatim": "| Row | USUBJID | SESEQ | ETCD | SESTDTC | SEENDTC | SEUPDES | TAETORD | EPOCH |\n|-----|---------|-------|------|---------|---------|---------|---------|-------|", "score": 1.0, "match_basis": "verbatim_token+domain_route:SE"}, {"md_atom_id": "md_dmSE_ex_a038", "md_file": "knowledge_base/domains/SE/examples.md", "md_atom_type": "TABLE_HEADER", "md_parent_section": "§SE.2 [Example 2]", "md_verbatim": "| Row | USUBJID | SESEQ | ETCD | SESTDTC | SEENDTC | SEUPDES | TAETORD | EPOCH |\n|-----|---------|-------|------|---------|---------|---------|---------|-------|", "score": 1.0, "match_basis": "verbatim_token+domain_route:SE"}, {"md_atom_id": "md_dmSE_ex_a027", "md_file": "knowledge_base/domains/SE/examples.md", "md_atom_type": "TABLE_HEADER", "md_parent_section": "§SE.1 [Example 1]", "md_verbatim": "| Row | USUBJID | SUBJID | RFSTDTC | RFENDTC | SITEID | INVNAM | BRTHDTC | AGE | AGEU | SEX | RACE | ETHNIC | ARMCD | ARM | ACTARMCD | ACTARM | ARMNRS | ACTARMUD | COUNTRY |\n|-----|---------|--------|---------|---------|--------|--------|---------|-----|------|-----|------|--------|-------|-----|----------|--------|--------|----------|---------|", "score": 0.4904, "match_basis": "verbatim_token+domain_route:SE"}, {"md_atom_id": "md_dmSE_ex_a048", "md_file": "knowledge_base/domains/SE/examples.md", "md_atom_type": "TABLE_HEADER", "md_parent_section": "§SE.2 [Example 2]", "md_verbatim": "| Row | USUBJID | SUBJID | RFSTDTC | RFENDTC | SITEID | INVNAM | BRTHDTC | AGE | AGEU | SEX | RACE | ETHNIC | ARMCD | ARM | ACTARMCD | ACTARM | ARMNRS | ACTARMUD | COUNTRY |\n|-----|---------|--------|---------|---------|--------|--------|---------|-----|------|-----|------|--------|-------|-----|----------|--------|--------|----------|---------|", "score": 0.4904, "match_basis": "verbatim_token+domain_route:SE"}, {"md_atom_id": "md_dmSE_ex_a039", "md_file": "knowledge_base/domains/SE/examples.md", "md_atom_type": "TABLE_ROW", "md_parent_section": "§SE.2 [Example 2]", "md_verbatim": "| 1 | 123 | 1 | SCRN | 2006-06-01 | 2006-06-03 | | 1 | SCREENING |", "score": 0.3543, "match_basis": "verbatim_token+domain_route:SE"}], "candidate_count": 5, "zero_candidate": false}
{"pdf_atom_id": "ig34_p0082_a011", "pdf_atom_type": "TABLE_ROW", "pdf_source": "SDTMIG_v3.4", "pdf_page": 82, "pdf_parent_section": "§5.3 [Subject Elements (SE)]", "pdf_verbatim": "1 | 789 | 1 | SCREEN | 2006-06-01 | 2006-06-03T10:32 |  | 1 | SCREENING", "figure_ref": null, "candidates": [{"md_atom_id": "md_dmSE_ex_a013", "md_file": "knowledge_base/domains/SE/examples.md", "md_atom_type": "TABLE_ROW", "md_parent_section": "§SE.1 [Example 1]", "md_verbatim": "| 1 | 789 | 1 | SCREEN | 2006-06-01 | 2006-06-03T10:32 | | 1 | SCREENING |", "score": 1.0, "match_basis": "verbatim_token+domain_route:SE"}, {"md_atom_id": "md_dmSE_ex_a017", "md_file": "knowledge_base/domains/SE/examples.md", "md_atom_type": "TABLE_ROW", "md_parent_section": "§SE.1 [Example 1]", "md_verbatim": "| 5 | 790 | 1 | SCREEN | 2006-06-01 | 2006-06-03T10:14 | | 1 | SCREENING |", "score": 0.9143, "match_basis": "verbatim_token+domain_route:SE"}, {"md_atom_id": "md_dmSE_ex_a021", "md_file": "knowledge_base/domains/SE/examples.md", "md_atom_type": "TABLE_ROW", "md_parent_section": "§SE.1 [Example 1]", "md_verbatim": "| 9 | 791 | 1 | SCREEN | 2006-06-01 | 2006-06-03T10:17 | | 1 | SCREENING |", "score": 0.9143, "match_basis": "verbatim_token+domain_route:SE"}, {"md_atom_id": "md_dmSE_ex_a039", "md_file": "knowledge_base/domains/SE/examples.md", "md_atom_type": "TABLE_ROW", "md_parent_section": "§SE.2 [Example 2]", "md_verbatim": "| 1 | 123 | 1 | SCRN | 2006-06-01 | 2006-06-03 | | 1 | SCREENING |", "score": 0.76, "match_basis": "verbatim_token+domain_route:SE"}, {"md_atom_id": "md_dmSE_ex_a041", "md_file": "knowledge_base/domains/SE/examples.md", "md_atom_type": "TABLE_ROW", "md_parent_section": "§SE.2 [Example 2]", "md_verbatim": "| 3 | 456 | 1 | SCRN | 2006-05-01 | 2006-05-03 | | 1 | SCREENING |", "score": 0.76, "match_basis": "verbatim_token+domain_route:SE"}], "candidate_count": 5, "zero_candidate": false}
{"pdf_atom_id": "ig34_p0082_a012", "pdf_atom_type": "TABLE_ROW", "pdf_source": "SDTMIG_v3.4", "pdf_page": 82, "pdf_parent_section": "§5.3 [Subject Elements (SE)]", "pdf_verbatim": "2 | 789 | 2 | IV | 2006-06-03T10:32 | 2006-06-10T09:47 |  | 2 | TREATMENT 1", "figure_ref": null, "candidates": [{"md_atom_id": "md_dmSE_ex_a014", "md_file": "knowledge_base/domains/SE/examples.md", "md_atom_type": "TABLE_ROW", "md_parent_section": "§SE.1 [Example 1]", "md_verbatim": "| 2 | 789 | 2 | IV | 2006-06-03T10:32 | 2006-06-10T09:47 | | 2 | TREATMENT 1 |", "score": 1.0, "match_basis": "verbatim_token+domain_route:SE"}, {"md_atom_id": "md_dmSE_ex_a015", "md_file": "knowledge_base/domains/SE/examples.md", "md_atom_type": "TABLE_ROW", "md_parent_section": "§SE.1 [Example 1]", "md_verbatim": "| 3 | 789 | 3 | ORAL | 2006-06-10T09:47 | 2006-06-17 | | 3 | TREATMENT 2 |", "score": 0.8333, "match_basis": "verbatim_token+domain_route:SE"}, {"md_atom_id": "md_dmSE_ex_a018", "md_file": "knowledge_base/domains/SE/examples.md", "md_atom_type": "TABLE_ROW", "md_parent_section": "§SE.1 [Example 1]", "md_verbatim": "| 6 | 790 | 2 | IV | 2006-06-03T10:14 | 2006-06-10T10:32 | | | TREATMENT 1 |", "score": 0.8333, "match_basis": "verbatim_token+domain_route:SE"}, {"md_atom_id": "md_dmSE_ex_a022", "md_file": "knowledge_base/domains/SE/examples.md", "md_atom_type": "TABLE_ROW", "md_parent_section": "§SE.1 [Example 1]", "md_verbatim": "| 10 | 791 | 2 | IV | 2006-06-03T10:17 | 2006-06-07 | | 2 | TREATMENT 1 |", "score": 0.8235, "match_basis": "verbatim_token+domain_route:SE"}, {"md_atom_id": "md_dmSE_ex_a019", "md_file": "knowledge_base/domains/SE/examples.md", "md_atom_type": "TABLE_ROW", "md_parent_section": "§SE.1 [Example 1]", "md_verbatim": "| 7 | 790 | 3 | ORAL | 2006-06-10T10:32 | 2006-06-17 | | | TREATMENT 2 |", "score": 0.73, "match_basis": "verbatim_token+domain_route:SE"}], "candidate_count": 5, "zero_candidate": false}
{"pdf_atom_id": "ig34_p0082_a013", "pdf_atom_type": "TABLE_ROW", "pdf_source": "SDTMIG_v3.4", "pdf_page": 82, "pdf_parent_section": "§5.3 [Subject Elements (SE)]", "pdf_verbatim": "3 | 789 | 3 | ORAL | 2006-06-10T09:47 | 2006-06-17 |  | 3 | TREATMENT 2", "figure_ref": null, "candidates": [{"md_atom_id": "md_dmSE_ex_a015", "md_file": "knowledge_base/domains/SE/examples.md", "md_atom_type": "TABLE_ROW", "md_parent_section": "§SE.1 [Example 1]", "md_verbatim": "| 3 | 789 | 3 | ORAL | 2006-06-10T09:47 | 2006-06-17 | | 3 | TREATMENT 2 |", "score": 1.0, "match_basis": "verbatim_token+domain_route:SE"}, {"md_atom_id": "md_dmSE_ex_a014", "md_file": "knowledge_base/domains/SE/examples.md", "md_atom_type": "TABLE_ROW", "md_parent_section": "§SE.1 [Example 1]", "md_verbatim": "| 2 | 789 | 2 | IV | 2006-06-03T10:32 | 2006-06-10T09:47 | | 2 | TREATMENT 1 |", "score": 0.8333, "match_basis": "verbatim_token+domain_route:SE"}, {"md_atom_id": "md_dmSE_ex_a019", "md_file": "knowledge_base/domains/SE/examples.md", "md_atom_type": "TABLE_ROW", "md_parent_section": "§SE.1 [Example 1]", "md_verbatim": "| 7 | 790 | 3 | ORAL | 2006-06-10T10:32 | 2006-06-17 | | | TREATMENT 2 |", "score": 0.8, "match_basis": "verbatim_token+domain_route:SE"}, {"md_atom_id": "md_dmSE_ex_a018", "md_file": "knowledge_base/domains/SE/examples.md", "md_atom_type": "TABLE_ROW", "md_parent_section": "§SE.1 [Example 1]", "md_verbatim": "| 6 | 790 | 2 | IV | 2006-06-03T10:14 | 2006-06-10T10:32 | | | TREATMENT 1 |", "score": 0.7, "match_basis": "verbatim_token+domain_route:SE"}, {"md_atom_id": "md_dmSE_ex_a022", "md_file": "knowledge_base/domains/SE/examples.md", "md_atom_type": "TABLE_ROW", "md_parent_section": "§SE.1 [Example 1]", "md_verbatim": "| 10 | 791 | 2 | IV | 2006-06-03T10:17 | 2006-06-07 | | 2 | TREATMENT 1 |", "score": 0.6842, "match_basis": "verbatim_token+domain_route:SE"}], "candidate_count": 5, "zero_candidate": false}
{"pdf_atom_id": "ig34_p0082_a014", "pdf_atom_type": "TABLE_ROW", "pdf_source": "SDTMIG_v3.4", "pdf_page": 82, "pdf_parent_section": "§5.3 [Subject Elements (SE)]", "pdf_verbatim": "4 | 789 | 4 | FOLLOWUP | 2006-06-17 | 2006-06-17 |  | 4 | FOLLOW-UP", "figure_ref": null, "candidates": [{"md_atom_id": "md_dmSE_ex_a016", "md_file": "knowledge_base/domains/SE/examples.md", "md_atom_type": "TABLE_ROW", "md_parent_section": "§SE.1 [Example 1]", "md_verbatim": "| 4 | 789 | 4 | FOLLOWUP | 2006-06-17 | 2006-06-17 | | 4 | FOLLOW-UP |", "score": 1.0, "match_basis": "verbatim_token+domain_route:SE"}, {"md_atom_id": "md_dmSE_ex_a020", "md_file": "knowledge_base/domains/SE/examples.md", "md_atom_type": "TABLE_ROW", "md_parent_section": "§SE.1 [Example 1]", "md_verbatim": "| 8 | 790 | 4 | FOLLOWUP | 2006-06-17 | 2006-06-17 | | 4 | FOLLOW-UP |", "score": 0.88, "match_basis": "verbatim_token+domain_route:SE"}, {"md_atom_id": "md_dmSE_ex_a013", "md_file": "knowledge_base/domains/SE/examples.md", "md_atom_type": "TABLE_ROW", "md_parent_section": "§SE.1 [Example 1]", "md_verbatim": "| 1 | 789 | 1 | SCREEN | 2006-06-01 | 2006-06-03T10:32 | | 1 | SCREENING |", "score": 0.4947, "match_basis": "verbatim_token+domain_route:SE"}, {"md_atom_id": "md_dmSE_ex_a015", "md_file": "knowledge_base/domains/SE/examples.md", "md_atom_type": "TABLE_ROW", "md_parent_section": "§SE.1 [Example 1]", "md_verbatim": "| 3 | 789 | 3 | ORAL | 2006-06-10T09:47 | 2006-06-17 | | 3 | TREATMENT 2 |", "score": 0.4857, "match_basis": "verbatim_token+domain_route:SE"}, {"md_atom_id": "md_dmSE_ex_a014", "md_file": "knowledge_base/domains/SE/examples.md", "md_atom_type": "TABLE_ROW", "md_parent_section": "§SE.1 [Example 1]", "md_verbatim": "| 2 | 789 | 2 | IV | 2006-06-03T10:32 | 2006-06-10T09:47 | | 2 | TREATMENT 1 |", "score": 0.4818, "match_basis": "verbatim_token+domain_route:SE"}], "candidate_count": 5, "zero_candidate": false}
{"pdf_atom_id": "ig34_p0082_a015", "pdf_atom_type": "TABLE_ROW", "pdf_source": "SDTMIG_v3.4", "pdf_page": 82, "pdf_parent_section": "§5.3 [Subject Elements (SE)]", "pdf_verbatim": "5 | 790 | 1 | SCREEN | 2006-06-01 | 2006-06-03T10:14 |  | 1 | SCREENING", "figure_ref": null, "candidates": [{"md_atom_id": "md_dmSE_ex_a017", "md_file": "knowledge_base/domains/SE/examples.md", "md_atom_type": "TABLE_ROW", "md_parent_section": "§SE.1 [Example 1]", "md_verbatim": "| 5 | 790 | 1 | SCREEN | 2006-06-01 | 2006-06-03T10:14 | | 1 | SCREENING |", "score": 1.0, "match_basis": "verbatim_token+domain_route:SE"}, {"md_atom_id": "md_dmSE_ex_a013", "md_file": "knowledge_base/domains/SE/examples.md", "md_atom_type": "TABLE_ROW", "md_parent_section": "§SE.1 [Example 1]", "md_verbatim": "| 1 | 789 | 1 | SCREEN | 2006-06-01 | 2006-06-03T10:32 | | 1 | SCREENING |", "score": 0.9143, "match_basis": "verbatim_token+domain_route:SE"}, {"md_atom_id": "md_dmSE_ex_a021", "md_file": "knowledge_base/domains/SE/examples.md", "md_atom_type": "TABLE_ROW", "md_parent_section": "§SE.1 [Example 1]", "md_verbatim": "| 9 | 791 | 1 | SCREEN | 2006-06-01 | 2006-06-03T10:17 | | 1 | SCREENING |", "score": 0.9143, "match_basis": "verbatim_token+domain_route:SE"}, {"md_atom_id": "md_dmSE_ex_a039", "md_file": "knowledge_base/domains/SE/examples.md", "md_atom_type": "TABLE_ROW", "md_parent_section": "§SE.2 [Example 2]", "md_verbatim": "| 1 | 123 | 1 | SCRN | 2006-06-01 | 2006-06-03 | | 1 | SCREENING |", "score": 0.76, "match_basis": "verbatim_token+domain_route:SE"}, {"md_atom_id": "md_dmSE_ex_a041", "md_file": "knowledge_base/domains/SE/examples.md", "md_atom_type": "TABLE_ROW", "md_parent_section": "§SE.2 [Example 2]", "md_verbatim": "| 3 | 456 | 1 | SCRN | 2006-05-01 | 2006-05-03 | | 1 | SCREENING |", "score": 0.76, "match_basis": "verbatim_token+domain_route:SE"}], "candidate_count": 5, "zero_candidate": false}
{"pdf_atom_id": "ig34_p0082_a016", "pdf_atom_type": "TABLE_ROW", "pdf_source": "SDTMIG_v3.4", "pdf_page": 82, "pdf_parent_section": "§5.3 [Subject Elements (SE)]", "pdf_verbatim": "6 | 790 | 2 | IV | 2006-06-03T10:14 | 2006-06-10T10:32 |  |  | TREATMENT 1", "figure_ref": null, "candidates": [{"md_atom_id": "md_dmSE_ex_a018", "md_file": "knowledge_base/domains/SE/examples.md", "md_atom_type": "TABLE_ROW", "md_parent_section": "§SE.1 [Example 1]", "md_verbatim": "| 6 | 790 | 2 | IV | 2006-06-03T10:14 | 2006-06-10T10:32 | | | TREATMENT 1 |", "score": 1.0, "match_basis": "verbatim_token+domain_route:SE"}, {"md_atom_id": "md_dmSE_ex_a019", "md_file": "knowledge_base/domains/SE/examples.md", "md_atom_type": "TABLE_ROW", "md_parent_section": "§SE.1 [Example 1]", "md_verbatim": "| 7 | 790 | 3 | ORAL | 2006-06-10T10:32 | 2006-06-17 | | | TREATMENT 2 |", "score": 0.8588, "match_basis": "verbatim_token+domain_route:SE"}, {"md_atom_id": "md_dmSE_ex_a022", "md_file": "knowledge_base/domains/SE/examples.md", "md_atom_type": "TABLE_ROW", "md_parent_section": "§SE.1 [Example 1]", "md_verbatim": "| 10 | 791 | 2 | IV | 2006-06-03T10:17 | 2006-06-07 | | 2 | TREATMENT 1 |", "score": 0.85, "match_basis": "verbatim_token+domain_route:SE"}, {"md_atom_id": "md_dmSE_ex_a014", "md_file": "knowledge_base/domains/SE/examples.md", "md_atom_type": "TABLE_ROW", "md_parent_section": "§SE.1 [Example 1]", "md_verbatim": "| 2 | 789 | 2 | IV | 2006-06-03T10:32 | 2006-06-10T09:47 | | 2 | TREATMENT 1 |", "score": 0.8333, "match_basis": "verbatim_token+domain_route:SE"}, {"md_atom_id": "md_dmSE_ex_a015", "md_file": "knowledge_base/domains/SE/examples.md", "md_atom_type": "TABLE_ROW", "md_parent_section": "§SE.1 [Example 1]", "md_verbatim": "| 3 | 789 | 3 | ORAL | 2006-06-10T09:47 | 2006-06-17 | | 3 | TREATMENT 2 |", "score": 0.7, "match_basis": "verbatim_token+domain_route:SE"}], "candidate_count": 5, "zero_candidate": false}
{"pdf_atom_id": "ig34_p0082_a017", "pdf_atom_type": "TABLE_ROW", "pdf_source": "SDTMIG_v3.4", "pdf_page": 82, "pdf_parent_section": "§5.3 [Subject Elements (SE)]", "pdf_verbatim": "7 | 790 | 3 | ORAL | 2006-06-10T10:32 | 2006-06-17 |  |  | TREATMENT 2", "figure_ref": null, "candidates": [{"md_atom_id": "md_dmSE_ex_a019", "md_file": "knowledge_base/domains/SE/examples.md", "md_atom_type": "TABLE_ROW", "md_parent_section": "§SE.1 [Example 1]", "md_verbatim": "| 7 | 790 | 3 | ORAL | 2006-06-10T10:32 | 2006-06-17 | | | TREATMENT 2 |", "score": 1.0, "match_basis": "verbatim_token+domain_route:SE"}, {"md_atom_id": "md_dmSE_ex_a018", "md_file": "knowledge_base/domains/SE/examples.md", "md_atom_type": "TABLE_ROW", "md_parent_section": "§SE.1 [Example 1]", "md_verbatim": "| 6 | 790 | 2 | IV | 2006-06-03T10:14 | 2006-06-10T10:32 | | | TREATMENT 1 |", "score": 0.8588, "match_basis": "verbatim_token+domain_route:SE"}, {"md_atom_id": "md_dmSE_ex_a015", "md_file": "knowledge_base/domains/SE/examples.md", "md_atom_type": "TABLE_ROW", "md_parent_section": "§SE.1 [Example 1]", "md_verbatim": "| 3 | 789 | 3 | ORAL | 2006-06-10T09:47 | 2006-06-17 | | 3 | TREATMENT 2 |", "score": 0.8, "match_basis": "verbatim_token+domain_route:SE"}, {"md_atom_id": "md_dmSE_ex_a022", "md_file": "knowledge_base/domains/SE/examples.md", "md_atom_type": "TABLE_ROW", "md_parent_section": "§SE.1 [Example 1]", "md_verbatim": "| 10 | 791 | 2 | IV | 2006-06-03T10:17 | 2006-06-07 | | 2 | TREATMENT 1 |", "score": 0.7333, "match_basis": "verbatim_token+domain_route:SE"}, {"md_atom_id": "md_dmSE_ex_a014", "md_file": "knowledge_base/domains/SE/examples.md", "md_atom_type": "TABLE_ROW", "md_parent_section": "§SE.1 [Example 1]", "md_verbatim": "| 2 | 789 | 2 | IV | 2006-06-03T10:32 | 2006-06-10T09:47 | | 2 | TREATMENT 1 |", "score": 0.73, "match_basis": "verbatim_token+domain_route:SE"}], "candidate_count": 5, "zero_candidate": false}
{"pdf_atom_id": "ig34_p0082_a018", "pdf_atom_type": "TABLE_ROW", "pdf_source": "SDTMIG_v3.4", "pdf_page": 82, "pdf_parent_section": "§5.3 [Subject Elements (SE)]", "pdf_verbatim": "8 | 790 | 4 | FOLLOWUP | 2006-06-17 | 2006-06-17 |  | 4 | FOLLOW-UP", "figure_ref": null, "candidates": [{"md_atom_id": "md_dmSE_ex_a020", "md_file": "knowledge_base/domains/SE/examples.md", "md_atom_type": "TABLE_ROW", "md_parent_section": "§SE.1 [Example 1]", "md_verbatim": "| 8 | 790 | 4 | FOLLOWUP | 2006-06-17 | 2006-06-17 | | 4 | FOLLOW-UP |", "score": 1.0, "match_basis": "verbatim_token+domain_route:SE"}, {"md_atom_id": "md_dmSE_ex_a016", "md_file": "knowledge_base/domains/SE/examples.md", "md_atom_type": "TABLE_ROW", "md_parent_section": "§SE.1 [Example 1]", "md_verbatim": "| 4 | 789 | 4 | FOLLOWUP | 2006-06-17 | 2006-06-17 | | 4 | FOLLOW-UP |", "score": 0.88, "match_basis": "verbatim_token+domain_route:SE"}, {"md_atom_id": "md_dmSE_ex_a017", "md_file": "knowledge_base/domains/SE/examples.md", "md_atom_type": "TABLE_ROW", "md_parent_section": "§SE.1 [Example 1]", "md_verbatim": "| 5 | 790 | 1 | SCREEN | 2006-06-01 | 2006-06-03T10:14 | | 1 | SCREENING |", "score": 0.4947, "match_basis": "verbatim_token+domain_route:SE"}, {"md_atom_id": "md_dmSE_ex_a018", "md_file": "knowledge_base/domains/SE/examples.md", "md_atom_type": "TABLE_ROW", "md_parent_section": "§SE.1 [Example 1]", "md_verbatim": "| 6 | 790 | 2 | IV | 2006-06-03T10:14 | 2006-06-10T10:32 | | | TREATMENT 1 |", "score": 0.4857, "match_basis": "verbatim_token+domain_route:SE"}, {"md_atom_id": "md_dmSE_ex_a019", "md_file": "knowledge_base/domains/SE/examples.md", "md_atom_type": "TABLE_ROW", "md_parent_section": "§SE.1 [Example 1]", "md_verbatim": "| 7 | 790 | 3 | ORAL | 2006-06-10T10:32 | 2006-06-17 | | | TREATMENT 2 |", "score": 0.4857, "match_basis": "verbatim_token+domain_route:SE"}], "candidate_count": 5, "zero_candidate": false}
{"pdf_atom_id": "ig34_p0082_a019", "pdf_atom_type": "TABLE_ROW", "pdf_source": "SDTMIG_v3.4", "pdf_page": 82, "pdf_parent_section": "§5.3 [Subject Elements (SE)]", "pdf_verbatim": "9 | 791 | 1 | SCREEN | 2006-06-01 | 2006-06-03T10:17 |  | 1 | SCREENING", "figure_ref": null, "candidates": [{"md_atom_id": "md_dmSE_ex_a021", "md_file": "knowledge_base/domains/SE/examples.md", "md_atom_type": "TABLE_ROW", "md_parent_section": "§SE.1 [Example 1]", "md_verbatim": "| 9 | 791 | 1 | SCREEN | 2006-06-01 | 2006-06-03T10:17 | | 1 | SCREENING |", "score": 1.0, "match_basis": "verbatim_token+domain_route:SE"}, {"md_atom_id": "md_dmSE_ex_a013", "md_file": "knowledge_base/domains/SE/examples.md", "md_atom_type": "TABLE_ROW", "md_parent_section": "§SE.1 [Example 1]", "md_verbatim": "| 1 | 789 | 1 | SCREEN | 2006-06-01 | 2006-06-03T10:32 | | 1 | SCREENING |", "score": 0.9143, "match_basis": "verbatim_token+domain_route:SE"}, {"md_atom_id": "md_dmSE_ex_a017", "md_file": "knowledge_base/domains/SE/examples.md", "md_atom_type": "TABLE_ROW", "md_parent_section": "§SE.1 [Example 1]", "md_verbatim": "| 5 | 790 | 1 | SCREEN | 2006-06-01 | 2006-06-03T10:14 | | 1 | SCREENING |", "score": 0.9143, "match_basis": "verbatim_token+domain_route:SE"}, {"md_atom_id": "md_dmSE_ex_a039", "md_file": "knowledge_base/domains/SE/examples.md", "md_atom_type": "TABLE_ROW", "md_parent_section": "§SE.2 [Example 2]", "md_verbatim": "| 1 | 123 | 1 | SCRN | 2006-06-01 | 2006-06-03 | | 1 | SCREENING |", "score": 0.76, "match_basis": "verbatim_token+domain_route:SE"}, {"md_atom_id": "md_dmSE_ex_a041", "md_file": "knowledge_base/domains/SE/examples.md", "md_atom_type": "TABLE_ROW", "md_parent_section": "§SE.2 [Example 2]", "md_verbatim": "| 3 | 456 | 1 | SCRN | 2006-05-01 | 2006-05-03 | | 1 | SCREENING |", "score": 0.76, "match_basis": "verbatim_token+domain_route:SE"}], "candidate_count": 5, "zero_candidate": false}
{"pdf_atom_id": "ig34_p0082_a020", "pdf_atom_type": "TABLE_ROW", "pdf_source": "SDTMIG_v3.4", "pdf_page": 82, "pdf_parent_section": "§5.3 [Subject Elements (SE)]", "pdf_verbatim": "10 | 791 | 2 | IV | 2006-06-03T10:17 | 2006-06-07 |  | 2 | TREATMENT 1", "figure_ref": null, "candidates": [{"md_atom_id": "md_dmSE_ex_a022", "md_file": "knowledge_base/domains/SE/examples.md", "md_atom_type": "TABLE_ROW", "md_parent_section": "§SE.1 [Example 1]", "md_verbatim": "| 10 | 791 | 2 | IV | 2006-06-03T10:17 | 2006-06-07 | | 2 | TREATMENT 1 |", "score": 1.0, "match_basis": "verbatim_token+domain_route:SE"}, {"md_atom_id": "md_dmSE_ex_a018", "md_file": "knowledge_base/domains/SE/examples.md", "md_atom_type": "TABLE_ROW", "md_parent_section": "§SE.1 [Example 1]", "md_verbatim": "| 6 | 790 | 2 | IV | 2006-06-03T10:14 | 2006-06-10T10:32 | | | TREATMENT 1 |", "score": 0.85, "match_basis": "verbatim_token+domain_route:SE"}, {"md_atom_id": "md_dmSE_ex_a014", "md_file": "knowledge_base/domains/SE/examples.md", "md_atom_type": "TABLE_ROW", "md_parent_section": "§SE.1 [Example 1]", "md_verbatim": "| 2 | 789 | 2 | IV | 2006-06-03T10:32 | 2006-06-10T09:47 | | 2 | TREATMENT 1 |", "score": 0.8235, "match_basis": "verbatim_token+domain_route:SE"}, {"md_atom_id": "md_dmSE_ex_a019", "md_file": "knowledge_base/domains/SE/examples.md", "md_atom_type": "TABLE_ROW", "md_parent_section": "§SE.1 [Example 1]", "md_verbatim": "| 7 | 790 | 3 | ORAL | 2006-06-10T10:32 | 2006-06-17 | | | TREATMENT 2 |", "score": 0.7333, "match_basis": "verbatim_token+domain_route:SE"}, {"md_atom_id": "md_dmSE_ex_a015", "md_file": "knowledge_base/domains/SE/examples.md", "md_atom_type": "TABLE_ROW", "md_parent_section": "§SE.1 [Example 1]", "md_verbatim": "| 3 | 789 | 3 | ORAL | 2006-06-10T09:47 | 2006-06-17 | | 3 | TREATMENT 2 |", "score": 0.6842, "match_basis": "verbatim_token+domain_route:SE"}], "candidate_count": 5, "zero_candidate": false}
{"pdf_atom_id": "ig34_p0082_a021", "pdf_atom_type": "SENTENCE", "pdf_source": "SDTMIG_v3.4", "pdf_page": 82, "pdf_parent_section": "§5.3 [Subject Elements (SE)]", "pdf_verbatim": "Row 1: Subject 789 was assigned to the IV-ORAL arm and was treated accordingly.", "figure_ref": null, "candidates": [{"md_atom_id": "md_dmSE_ex_a023", "md_file": "knowledge_base/domains/SE/examples.md", "md_atom_type": "SENTENCE", "md_parent_section": "§SE.1 [Example 1]", "md_verbatim": "**Row 1:** Subject 789 was assigned to the IV-ORAL arm and was treated accordingly.", "score": 1.0, "match_basis": "verbatim_token+domain_route:SE"}, {"md_atom_id": "md_dmSE_ex_a024", "md_file": "knowledge_base/domains/SE/examples.md", "md_atom_type": "SENTENCE", "md_parent_section": "§SE.1 [Example 1]", "md_verbatim": "**Row 2:** Subject 790 was assigned to the ORAL-IV arm, but their actual treatment was IV, then oral.", "score": 0.6609, "match_basis": "verbatim_token+domain_route:SE"}, {"md_atom_id": "md_dmSE_ex_a007", "md_file": "knowledge_base/domains/SE/examples.md", "md_atom_type": "SENTENCE", "md_parent_section": "§SE.1 [Example 1]", "md_verbatim": "**Row 3:** The record for the ORAL element for subject 789. Only the date, and not the time, of the start of follow-up was collected.", "score": 0.5655, "match_basis": "verbatim_token+domain_route:SE"}, {"md_atom_id": "md_dmSE_ex_a025", "md_file": "knowledge_base/domains/SE/examples.md", "md_atom_type": "SENTENCE", "md_parent_section": "§SE.1 [Example 1]", "md_verbatim": "**Row 3:** Subject 791 was assigned to the IV-ORAL arm, received the first of the 2 planned treatment elements, and were following the assigned treatment when they withdrew early. The actual arm variables are populated with the values for the arm to which subject 791 was assigned.", "score": 0.544, "match_basis": "verbatim_token+domain_route:SE"}, {"md_atom_id": "md_dmSE_ex_a009", "md_file": "knowledge_base/domains/SE/examples.md", "md_atom_type": "SENTENCE", "md_parent_section": "§SE.1 [Example 1]", "md_verbatim": "**Rows 5-8:** Subject 790 was treated incorrectly. This subject entered the IV element before the ORAL element, although the planned order of elements for this subject was ORAL, then IV. The sponsor has assigned EPOCH values for this subject according to the actual order of elements, rather than the planned order. Per Assumption 6, TAETORD is missing for the elements that were out of order. The correct order of elements is the subject's ARMCD, shown in the DM dataset.", "score": 0.5438, "match_basis": "verbatim_token+domain_route:SE"}], "candidate_count": 5, "zero_candidate": false}
{"pdf_atom_id": "ig34_p0082_a022", "pdf_atom_type": "SENTENCE", "pdf_source": "SDTMIG_v3.4", "pdf_page": 82, "pdf_parent_section": "§5.3 [Subject Elements (SE)]", "pdf_verbatim": "Row 2: Subject 790 was assigned to the ORAL-IV arm, but their actual treatment was IV, then oral.", "figure_ref": null, "candidates": [{"md_atom_id": "md_dmSE_ex_a024", "md_file": "knowledge_base/domains/SE/examples.md", "md_atom_type": "SENTENCE", "md_parent_section": "§SE.1 [Example 1]", "md_verbatim": "**Row 2:** Subject 790 was assigned to the ORAL-IV arm, but their actual treatment was IV, then oral.", "score": 1.0, "match_basis": "verbatim_token+domain_route:SE"}, {"md_atom_id": "md_dmSE_ex_a023", "md_file": "knowledge_base/domains/SE/examples.md", "md_atom_type": "SENTENCE", "md_parent_section": "§SE.1 [Example 1]", "md_verbatim": "**Row 1:** Subject 789 was assigned to the IV-ORAL arm and was treated accordingly.", "score": 0.6609, "match_basis": "verbatim_token+domain_route:SE"}, {"md_atom_id": "md_dmSE_ex_a025", "md_file": "knowledge_base/domains/SE/examples.md", "md_atom_type": "SENTENCE", "md_parent_section": "§SE.1 [Example 1]", "md_verbatim": "**Row 3:** Subject 791 was assigned to the IV-ORAL arm, received the first of the 2 planned treatment elements, and were following the assigned treatment when they withdrew early. The actual arm variables are populated with the values for the arm to which subject 791 was assigned.", "score": 0.5832, "match_basis": "verbatim_token+domain_route:SE"}, {"md_atom_id": "md_dmSE_ex_a010", "md_file": "knowledge_base/domains/SE/examples.md", "md_atom_type": "SENTENCE", "md_parent_section": "§SE.1 [Example 1]", "md_verbatim": "**Rows 9-10:** Subject 791 was screened, randomized to the IV-ORAL arm, and received the IV treatment, but did not return to the unit for the treatment epoch or follow-up.", "score": 0.5714, "match_basis": "verbatim_token+domain_route:SE"}, {"md_atom_id": "md_dmSE_ex_a009", "md_file": "knowledge_base/domains/SE/examples.md", "md_atom_type": "SENTENCE", "md_parent_section": "§SE.1 [Example 1]", "md_verbatim": "**Rows 5-8:** Subject 790 was treated incorrectly. This subject entered the IV element before the ORAL element, although the planned order of elements for this subject was ORAL, then IV. The sponsor has assigned EPOCH values for this subject according to the actual order of elements, rather than the planned order. Per Assumption 6, TAETORD is missing for the elements that were out of order. The correct order of elements is the subject's ARMCD, shown in the DM dataset.", "score": 0.5377, "match_basis": "verbatim_token+domain_route:SE"}], "candidate_count": 5, "zero_candidate": false}
{"pdf_atom_id": "ig34_p0082_a023", "pdf_atom_type": "SENTENCE", "pdf_source": "SDTMIG_v3.4", "pdf_page": 82, "pdf_parent_section": "§5.3 [Subject Elements (SE)]", "pdf_verbatim": "Row 3: Subject 791 was assigned to the IV-ORAL arm, received the first of the 2 planned treatment elements, and were following the assigned treatment when they withdrew early. The actual arm variables are populated with the values for the arm to which subject 791 was assigned.", "figure_ref": null, "candidates": [{"md_atom_id": "md_dmSE_ex_a025", "md_file": "knowledge_base/domains/SE/examples.md", "md_atom_type": "SENTENCE", "md_parent_section": "§SE.1 [Example 1]", "md_verbatim": "**Row 3:** Subject 791 was assigned to the IV-ORAL arm, received the first of the 2 planned treatment elements, and were following the assigned treatment when they withdrew early. The actual arm variables are populated with the values for the arm to which subject 791 was assigned.", "score": 1.0, "match_basis": "verbatim_token+domain_route:SE"}, {"md_atom_id": "md_dmSE_ex_a036", "md_file": "knowledge_base/domains/SE/examples.md", "md_atom_type": "SENTENCE", "md_parent_section": "§SE.2 [Example 2]", "md_verbatim": "**Rows 3-6:** Show data for a subject who completed the trial, but received the wrong drug for the last 2 weeks of the double-blind treatment period. This has been represented by treating the period when the subject received the wrong drug as an unplanned element. Note that TAETORD, which represents the planned order of elements within an arm, has not been populated for this unplanned element. Even though this element was unplanned, the sponsor assigned a value of BLINDED TREATMENT to EPOCH.", "score": 0.6012, "match_basis": "verbatim_token+domain_route:SE"}, {"md_atom_id": "md_dmSE_ex_a024", "md_file": "knowledge_base/domains/SE/examples.md", "md_atom_type": "SENTENCE", "md_parent_section": "§SE.1 [Example 1]", "md_verbatim": "**Row 2:** Subject 790 was assigned to the ORAL-IV arm, but their actual treatment was IV, then oral.", "score": 0.5832, "match_basis": "verbatim_token+domain_route:SE"}, {"md_atom_id": "md_dmSE_ex_a009", "md_file": "knowledge_base/domains/SE/examples.md", "md_atom_type": "SENTENCE", "md_parent_section": "§SE.1 [Example 1]", "md_verbatim": "**Rows 5-8:** Subject 790 was treated incorrectly. This subject entered the IV element before the ORAL element, although the planned order of elements for this subject was ORAL, then IV. The sponsor has assigned EPOCH values for this subject according to the actual order of elements, rather than the planned order. Per Assumption 6, TAETORD is missing for the elements that were out of order. The correct order of elements is the subject's ARMCD, shown in the DM dataset.", "score": 0.5704, "match_basis": "verbatim_token+domain_route:SE"}, {"md_atom_id": "md_dmSE_ex_a010", "md_file": "knowledge_base/domains/SE/examples.md", "md_atom_type": "SENTENCE", "md_parent_section": "§SE.1 [Example 1]", "md_verbatim": "**Rows 9-10:** Subject 791 was screened, randomized to the IV-ORAL arm, and received the IV treatment, but did not return to the unit for the treatment epoch or follow-up.", "score": 0.5655, "match_basis": "verbatim_token+domain_route:SE"}], "candidate_count": 5, "zero_candidate": false}
{"pdf_atom_id": "ig34_p0082_a024", "pdf_atom_type": "CODE_LITERAL", "pdf_source": "SDTMIG_v3.4", "pdf_page": 82, "pdf_parent_section": "§5.3 [Subject Elements (SE)]", "pdf_verbatim": "dm.xpt", "figure_ref": null, "candidates": [{"md_atom_id": "md_dmSE_ex_a011", "md_file": "knowledge_base/domains/SE/examples.md", "md_atom_type": "SENTENCE", "md_parent_section": "§SE.1 [Example 1]", "md_verbatim": "**se.xpt**", "score": 0.79, "match_basis": "verbatim_token+domain_route:SE"}, {"md_atom_id": "md_dmSE_ex_a026", "md_file": "knowledge_base/domains/SE/examples.md", "md_atom_type": "SENTENCE", "md_parent_section": "§SE.1 [Example 1]", "md_verbatim": "**dm.xpt**", "score": 0.79, "match_basis": "verbatim_token+domain_route:SE"}, {"md_atom_id": "md_dmSE_ex_a037", "md_file": "knowledge_base/domains/SE/examples.md", "md_atom_type": "SENTENCE", "md_parent_section": "§SE.2 [Example 2]", "md_verbatim": "**se.xpt**", "score": 0.79, "match_basis": "verbatim_token+domain_route:SE"}, {"md_atom_id": "md_dmSE_ex_a047", "md_file": "knowledge_base/domains/SE/examples.md", "md_atom_type": "SENTENCE", "md_parent_section": "§SE.2 [Example 2]", "md_verbatim": "**dm.xpt**", "score": 0.79, "match_basis": "verbatim_token+domain_route:SE"}, {"md_atom_id": "md_dmSE_assn_a001", "md_file": "knowledge_base/domains/SE/assumptions.md", "md_atom_type": "HEADING", "md_parent_section": "§SE [SE — Assumptions]", "md_verbatim": "# SE — Assumptions", "score": 0.19, "match_basis": "verbatim_token+domain_route:SE"}, {"md_atom_id": "md_dmSE_assn_a002", "md_file": "knowledge_base/domains/SE/assumptions.md", "md_atom_type": "SENTENCE", "md_parent_section": "§SE [SE — Assumptions]", "md_verbatim": "Submission of the SE dataset is strongly recommended, as it provides information needed by reviewers to place observations in context within the study. As noted in the SE - Description/Overview, the TE and TA datasets should also be submitted, as these define the design and the terms referenced by the SE dataset.", "score": 0.19, "match_basis": "verbatim_token+domain_route:SE"}, {"md_atom_id": "md_dmSE_assn_a003", "md_file": "knowledge_base/domains/SE/assumptions.md", "md_atom_type": "SENTENCE", "md_parent_section": "§SE [SE — Assumptions]", "md_verbatim": "The SE domain allows the submission of data on the timing of the trial elements a subject actually passed through in their participation in the trial. Section 7.2.2, Trial Elements, and Section 7.2.1, Trial Arms, provide additional information on these datasets, which define a trial's planned elements and describe the planned sequences of elements for the arms of the trial.", "score": 0.19, "match_basis": "verbatim_token+domain_route:SE"}, {"md_atom_id": "md_dmSE_assn_a004", "md_file": "knowledge_base/domains/SE/assumptions.md", "md_atom_type": "LIST_ITEM", "md_parent_section": "§SE [SE — Assumptions]", "md_verbatim": "1. For any particular subject, the dates in the SE table are the dates when the transition events identified in the TE table occurred. Judgment may be needed to match actual events in a subject's experience with the definitions of transition events (i.e., events that mark the start of new elements) in the TE table; actual events may vary from the plan. For instance, in a single-dose pharmacokinetics (PK) study, the transition events might correspond to study drug doses of 5 and 10 mg. If a subject actually received a dose of 7 mg when they were scheduled to receive 5 mg, a decision will have to be made on how to represent this in the SE domain.", "score": 0.19, "match_basis": "verbatim_token+domain_route:SE"}, {"md_atom_id": "md_dmSE_assn_a005", "md_file": "knowledge_base/domains/SE/assumptions.md", "md_atom_type": "LIST_ITEM", "md_parent_section": "§SE [SE — Assumptions]", "md_verbatim": "2. If the date/time of a transition element was not collected directly, the method used to infer the element start date/time should be explained in the Comments column of the Define-XML document.", "score": 0.19, "match_basis": "verbatim_token+domain_route:SE"}, {"md_atom_id": "md_dmSE_assn_a006", "md_file": "knowledge_base/domains/SE/assumptions.md", "md_atom_type": "LIST_ITEM", "md_parent_section": "§SE [SE — Assumptions]", "md_verbatim": "3. Judgment will also have to be used in deciding how to represent a subject's experience if an element does not proceed or end as planned. For instance, the plan might identify a trial element that is to start with the first of a series of 5 daily doses and end after 1 week, when the subject transitions to the next treatment element. If the subject actually started the next treatment epoch (see Section 7.1, Introduction to Trial Design Model Datasets, and Section 7.1.2, Definitions of Trial Design Concepts) after 4 weeks, the sponsor would have to decide whether to represent this as an abnormally long element, or as a normal element plus an unplanned non-treatment element.", "score": 0.19, "match_basis": "verbatim_token+domain_route:SE"}], "candidate_count": 10, "zero_candidate": false}
{"pdf_atom_id": "ig34_p0082_a025", "pdf_atom_type": "TABLE_HEADER", "pdf_source": "SDTMIG_v3.4", "pdf_page": 82, "pdf_parent_section": "§5.3 [Subject Elements (SE)]", "pdf_verbatim": "Row | USUBJID | SUBJID | RFSTDTC | RFENDTC | SITEID | INVNAM | BIRTHDTC | AGE | AGEU | SEX | RACE | ETHNIC | ARMCD | ARM | ACTARMCD | ACTARM | ARMNRS | ACTARMUD | COUNTRY", "figure_ref": null, "candidates": [{"md_atom_id": "md_dmSE_ex_a027", "md_file": "knowledge_base/domains/SE/examples.md", "md_atom_type": "TABLE_HEADER", "md_parent_section": "§SE.1 [Example 1]", "md_verbatim": "| Row | USUBJID | SUBJID | RFSTDTC | RFENDTC | SITEID | INVNAM | BRTHDTC | AGE | AGEU | SEX | RACE | ETHNIC | ARMCD | ARM | ACTARMCD | ACTARM | ARMNRS | ACTARMUD | COUNTRY |\n|-----|---------|--------|---------|---------|--------|--------|---------|-----|------|-----|------|--------|-------|-----|----------|--------|--------|----------|---------|", "score": 0.9667, "match_basis": "verbatim_token+domain_route:SE"}, {"md_atom_id": "md_dmSE_ex_a048", "md_file": "knowledge_base/domains/SE/examples.md", "md_atom_type": "TABLE_HEADER", "md_parent_section": "§SE.2 [Example 2]", "md_verbatim": "| Row | USUBJID | SUBJID | RFSTDTC | RFENDTC | SITEID | INVNAM | BRTHDTC | AGE | AGEU | SEX | RACE | ETHNIC | ARMCD | ARM | ACTARMCD | ACTARM | ARMNRS | ACTARMUD | COUNTRY |\n|-----|---------|--------|---------|---------|--------|--------|---------|-----|------|-----|------|--------|-------|-----|----------|--------|--------|----------|---------|", "score": 0.9667, "match_basis": "verbatim_token+domain_route:SE"}, {"md_atom_id": "md_dmSE_ex_a012", "md_file": "knowledge_base/domains/SE/examples.md", "md_atom_type": "TABLE_HEADER", "md_parent_section": "§SE.1 [Example 1]", "md_verbatim": "| Row | USUBJID | SESEQ | ETCD | SESTDTC | SEENDTC | SEUPDES | TAETORD | EPOCH |\n|-----|---------|-------|------|---------|---------|---------|---------|-------|", "score": 0.4892, "match_basis": "verbatim_token+domain_route:SE"}, {"md_atom_id": "md_dmSE_ex_a038", "md_file": "knowledge_base/domains/SE/examples.md", "md_atom_type": "TABLE_HEADER", "md_parent_section": "§SE.2 [Example 2]", "md_verbatim": "| Row | USUBJID | SESEQ | ETCD | SESTDTC | SEENDTC | SEUPDES | TAETORD | EPOCH |\n|-----|---------|-------|------|---------|---------|---------|---------|-------|", "score": 0.4892, "match_basis": "verbatim_token+domain_route:SE"}, {"md_atom_id": "md_dmSE_ex_a028", "md_file": "knowledge_base/domains/SE/examples.md", "md_atom_type": "TABLE_ROW", "md_parent_section": "§SE.1 [Example 1]", "md_verbatim": "| 1 | 789 | 001 | 2006-06-03 | 2006-06-17 | 01 | SMITH, J | 1948-12-13 | 57 | YEARS | M | WHITE | HISPANIC OR LATINO | IO | IV-ORAL | IO | IV-ORAL | | | USA |", "score": 0.3552, "match_basis": "verbatim_token+domain_route:SE"}], "candidate_count": 5, "zero_candidate": false}
{"pdf_atom_id": "ig34_p0082_a026", "pdf_atom_type": "TABLE_ROW", "pdf_source": "SDTMIG_v3.4", "pdf_page": 82, "pdf_parent_section": "§5.3 [Subject Elements (SE)]", "pdf_verbatim": "1 | 789 | 001 | 2006-06-03 | 2006-06-17 | 01 | SMITH, J. | 1948-12-13 | 57 | YEARS | M | WHITE | HISPANIC OR LATINO | IO | IV-ORAL | IO |  |  |  | USA", "figure_ref": null, "candidates": [{"md_atom_id": "md_dmSE_ex_a028", "md_file": "knowledge_base/domains/SE/examples.md", "md_atom_type": "TABLE_ROW", "md_parent_section": "§SE.1 [Example 1]", "md_verbatim": "| 1 | 789 | 001 | 2006-06-03 | 2006-06-17 | 01 | SMITH, J | 1948-12-13 | 57 | YEARS | M | WHITE | HISPANIC OR LATINO | IO | IV-ORAL | IO | IV-ORAL | | | USA |", "score": 1.0, "match_basis": "verbatim_token+domain_route:SE"}, {"md_atom_id": "md_dmSE_ex_a029", "md_file": "knowledge_base/domains/SE/examples.md", "md_atom_type": "TABLE_ROW", "md_parent_section": "§SE.1 [Example 1]", "md_verbatim": "| 2 | 790 | 002 | 2006-06-03 | 2006-06-17 | 01 | SMITH, J | 1955-03-22 | 51 | YEARS | M | WHITE | NOT HISPANIC OR LATINO | OI | ORAL-IV | IO | IV-ORAL | | | USA |", "score": 0.8364, "match_basis": "verbatim_token+domain_route:SE"}, {"md_atom_id": "md_dmSE_ex_a030", "md_file": "knowledge_base/domains/SE/examples.md", "md_atom_type": "TABLE_ROW", "md_parent_section": "§SE.1 [Example 1]", "md_verbatim": "| 3 | 791 | 003 | 2006-06-03 | 2006-06-07 | 01 | SMITH, J | 1956-07-17 | 49 | YEARS | M | WHITE | NOT HISPANIC OR LATINO | IO | IV-ORAL | IO | IV-ORAL | | | USA |", "score": 0.8364, "match_basis": "verbatim_token+domain_route:SE"}, {"md_atom_id": "md_dmSE_ex_a049", "md_file": "knowledge_base/domains/SE/examples.md", "md_atom_type": "TABLE_ROW", "md_parent_section": "§SE.2 [Example 2]", "md_verbatim": "| 1 | 123 | 012 | 2006-06-03 | 2006-06-10 | 01 | JONES, D | 1943-12-08 | 62 | YEARS | M | ASIAN | HISPANIC OR LATINO | A | A | A | A | | | USA |", "score": 0.6757, "match_basis": "verbatim_token+domain_route:SE"}, {"md_atom_id": "md_dmSE_ex_a050", "md_file": "knowledge_base/domains/SE/examples.md", "md_atom_type": "TABLE_ROW", "md_parent_section": "§SE.2 [Example 2]", "md_verbatim": "| 2 | 456 | 103 | 2006-05-03 | 2006-07-30 | 01 | JONES, D | 1950-05-15 | 55 | YEARS | F | WHITE | NOT HISPANIC OR LATINO | AR | A-Rescue | | | UNPLANNED TREATMENT | Drug B dispensed for part of Drug A element | USA |", "score": 0.5676, "match_basis": "verbatim_token+domain_route:SE"}], "candidate_count": 5, "zero_candidate": false}
{"pdf_atom_id": "ig34_p0082_a027", "pdf_atom_type": "TABLE_ROW", "pdf_source": "SDTMIG_v3.4", "pdf_page": 82, "pdf_parent_section": "§5.3 [Subject Elements (SE)]", "pdf_verbatim": "2 | 790 | 002 | 2006-06-03 | 2006-06-17 | 01 | SMITH, J. | 1955-03-22 | 51 | YEARS | M | WHITE | NOT HISPANIC OR LATINO | OI | ORAL-IV | IO | IV-ORAL |  |  | USA", "figure_ref": null, "candidates": [{"md_atom_id": "md_dmSE_ex_a029", "md_file": "knowledge_base/domains/SE/examples.md", "md_atom_type": "TABLE_ROW", "md_parent_section": "§SE.1 [Example 1]", "md_verbatim": "| 2 | 790 | 002 | 2006-06-03 | 2006-06-17 | 01 | SMITH, J | 1955-03-22 | 51 | YEARS | M | WHITE | NOT HISPANIC OR LATINO | OI | ORAL-IV | IO | IV-ORAL | | | USA |", "score": 1.0, "match_basis": "verbatim_token+domain_route:SE"}, {"md_atom_id": "md_dmSE_ex_a030", "md_file": "knowledge_base/domains/SE/examples.md", "md_atom_type": "TABLE_ROW", "md_parent_section": "§SE.1 [Example 1]", "md_verbatim": "| 3 | 791 | 003 | 2006-06-03 | 2006-06-07 | 01 | SMITH, J | 1956-07-17 | 49 | YEARS | M | WHITE | NOT HISPANIC OR LATINO | IO | IV-ORAL | IO | IV-ORAL | | | USA |", "score": 0.8875, "match_basis": "verbatim_token+domain_route:SE"}, {"md_atom_id": "md_dmSE_ex_a028", "md_file": "knowledge_base/domains/SE/examples.md", "md_atom_type": "TABLE_ROW", "md_parent_section": "§SE.1 [Example 1]", "md_verbatim": "| 1 | 789 | 001 | 2006-06-03 | 2006-06-17 | 01 | SMITH, J | 1948-12-13 | 57 | YEARS | M | WHITE | HISPANIC OR LATINO | IO | IV-ORAL | IO | IV-ORAL | | | USA |", "score": 0.8364, "match_basis": "verbatim_token+domain_route:SE"}, {"md_atom_id": "md_dmSE_ex_a049", "md_file": "knowledge_base/domains/SE/examples.md", "md_atom_type": "TABLE_ROW", "md_parent_section": "§SE.2 [Example 2]", "md_verbatim": "| 1 | 123 | 012 | 2006-06-03 | 2006-06-10 | 01 | JONES, D | 1943-12-08 | 62 | YEARS | M | ASIAN | HISPANIC OR LATINO | A | A | A | A | | | USA |", "score": 0.6462, "match_basis": "verbatim_token+domain_route:SE"}, {"md_atom_id": "md_dmSE_ex_a050", "md_file": "knowledge_base/domains/SE/examples.md", "md_atom_type": "TABLE_ROW", "md_parent_section": "§SE.2 [Example 2]", "md_verbatim": "| 2 | 456 | 103 | 2006-05-03 | 2006-07-30 | 01 | JONES, D | 1950-05-15 | 55 | YEARS | F | WHITE | NOT HISPANIC OR LATINO | AR | A-Rescue | | | UNPLANNED TREATMENT | Drug B dispensed for part of Drug A element | USA |", "score": 0.5881, "match_basis": "verbatim_token+domain_route:SE"}], "candidate_count": 5, "zero_candidate": false}
{"pdf_atom_id": "ig34_p0083_a001", "pdf_atom_type": "TABLE_ROW", "pdf_source": "SDTMIG_v3.4", "pdf_page": 83, "pdf_parent_section": "§5.3 [Subject Elements (SE)]", "pdf_verbatim": "3 | 791 | 003 | 2006-06-03 | 2006-06-07 | 01 | SMITH, J. | 1956-07-17 | 49 | YEARS | M | WHITE | NOT HISPANIC OR LATINO | IO | IV-ORAL | IO |  |  |  | USA", "figure_ref": null, "candidates": [{"md_atom_id": "md_dmSE_ex_a030", "md_file": "knowledge_base/domains/SE/examples.md", "md_atom_type": "TABLE_ROW", "md_parent_section": "§SE.1 [Example 1]", "md_verbatim": "| 3 | 791 | 003 | 2006-06-03 | 2006-06-07 | 01 | SMITH, J | 1956-07-17 | 49 | YEARS | M | WHITE | NOT HISPANIC OR LATINO | IO | IV-ORAL | IO | IV-ORAL | | | USA |", "score": 1.0, "match_basis": "verbatim_token+domain_route:SE"}, {"md_atom_id": "md_dmSE_ex_a029", "md_file": "knowledge_base/domains/SE/examples.md", "md_atom_type": "TABLE_ROW", "md_parent_section": "§SE.1 [Example 1]", "md_verbatim": "| 2 | 790 | 002 | 2006-06-03 | 2006-06-17 | 01 | SMITH, J | 1955-03-22 | 51 | YEARS | M | WHITE | NOT HISPANIC OR LATINO | OI | ORAL-IV | IO | IV-ORAL | | | USA |", "score": 0.8875, "match_basis": "verbatim_token+domain_route:SE"}, {"md_atom_id": "md_dmSE_ex_a028", "md_file": "knowledge_base/domains/SE/examples.md", "md_atom_type": "TABLE_ROW", "md_parent_section": "§SE.1 [Example 1]", "md_verbatim": "| 1 | 789 | 001 | 2006-06-03 | 2006-06-17 | 01 | SMITH, J | 1948-12-13 | 57 | YEARS | M | WHITE | HISPANIC OR LATINO | IO | IV-ORAL | IO | IV-ORAL | | | USA |", "score": 0.8364, "match_basis": "verbatim_token+domain_route:SE"}, {"md_atom_id": "md_dmSE_ex_a049", "md_file": "knowledge_base/domains/SE/examples.md", "md_atom_type": "TABLE_ROW", "md_parent_section": "§SE.2 [Example 2]", "md_verbatim": "| 1 | 123 | 012 | 2006-06-03 | 2006-06-10 | 01 | JONES, D | 1943-12-08 | 62 | YEARS | M | ASIAN | HISPANIC OR LATINO | A | A | A | A | | | USA |", "score": 0.6462, "match_basis": "verbatim_token+domain_route:SE"}, {"md_atom_id": "md_dmSE_ex_a050", "md_file": "knowledge_base/domains/SE/examples.md", "md_atom_type": "TABLE_ROW", "md_parent_section": "§SE.2 [Example 2]", "md_verbatim": "| 2 | 456 | 103 | 2006-05-03 | 2006-07-30 | 01 | JONES, D | 1950-05-15 | 55 | YEARS | F | WHITE | NOT HISPANIC OR LATINO | AR | A-Rescue | | | UNPLANNED TREATMENT | Drug B dispensed for part of Drug A element | USA |", "score": 0.5881, "match_basis": "verbatim_token+domain_route:SE"}], "candidate_count": 5, "zero_candidate": false}
{"pdf_atom_id": "ig34_p0083_a002", "pdf_atom_type": "HEADING", "pdf_source": "SDTMIG_v3.4", "pdf_page": 83, "pdf_parent_section": "§5.3 [Subject Elements (SE)]", "pdf_verbatim": "Example 2", "figure_ref": null, "candidates": [{"md_atom_id": "md_dmSE_ex_a003", "md_file": "knowledge_base/domains/SE/examples.md", "md_atom_type": "HEADING", "md_parent_section": "§SE [SE — Examples]", "md_verbatim": "## Example 1", "score": 1.0, "match_basis": "verbatim_token+domain_route:SE"}, {"md_atom_id": "md_dmSE_ex_a031", "md_file": "knowledge_base/domains/SE/examples.md", "md_atom_type": "HEADING", "md_parent_section": "§SE [SE — Examples]", "md_verbatim": "## Example 2", "score": 1.0, "match_basis": "verbatim_token+domain_route:SE"}, {"md_atom_id": "md_dmSE_ex_a001", "md_file": "knowledge_base/domains/SE/examples.md", "md_atom_type": "HEADING", "md_parent_section": "§SE [SE — Examples]", "md_verbatim": "# SE — Examples", "score": 0.9, "match_basis": "verbatim_token+domain_route:SE"}, {"md_atom_id": "md_dmSE_assn_a001", "md_file": "knowledge_base/domains/SE/assumptions.md", "md_atom_type": "HEADING", "md_parent_section": "§SE [SE — Assumptions]", "md_verbatim": "# SE — Assumptions", "score": 0.4, "match_basis": "verbatim_token+domain_route:SE"}], "candidate_count": 4, "zero_candidate": false}
{"pdf_atom_id": "ig34_p0083_a003", "pdf_atom_type": "SENTENCE", "pdf_source": "SDTMIG_v3.4", "pdf_page": 83, "pdf_parent_section": "§5.3 [Subject Elements (SE)]", "pdf_verbatim": "The following data represent 2 subjects enrolled in a trial in which assignment to an arm occurs in 2 stages.", "figure_ref": null, "candidates": [{"md_atom_id": "md_dmSE_ex_a032", "md_file": "knowledge_base/domains/SE/examples.md", "md_atom_type": "SENTENCE", "md_parent_section": "§SE.2 [Example 2]", "md_verbatim": "The following data represent 2 subjects enrolled in a trial in which assignment to an arm occurs in 2 stages.", "score": 1.0, "match_basis": "verbatim_token+domain_route:SE"}, {"md_atom_id": "md_dmSE_ex_a025", "md_file": "knowledge_base/domains/SE/examples.md", "md_atom_type": "SENTENCE", "md_parent_section": "§SE.1 [Example 1]", "md_verbatim": "**Row 3:** Subject 791 was assigned to the IV-ORAL arm, received the first of the 2 planned treatment elements, and were following the assigned treatment when they withdrew early. The actual arm variables are populated with the values for the arm to which subject 791 was assigned.", "score": 0.5231, "match_basis": "verbatim_token+domain_route:SE"}, {"md_atom_id": "md_dmSE_ex_a007", "md_file": "knowledge_base/domains/SE/examples.md", "md_atom_type": "SENTENCE", "md_parent_section": "§SE.1 [Example 1]", "md_verbatim": "**Row 3:** The record for the ORAL element for subject 789. Only the date, and not the time, of the start of follow-up was collected.", "score": 0.5184, "match_basis": "verbatim_token+domain_route:SE"}, {"md_atom_id": "md_dmSE_ex_a045", "md_file": "knowledge_base/domains/SE/examples.md", "md_atom_type": "SENTENCE", "md_parent_section": "§SE.2 [Example 2]", "md_verbatim": "**Row 1:** Shows the record for a subject who was randomized to blinded treatment A, but withdrew from the trial before the open treatment epoch and did not have a second treatment assignment. They were thus incompletely assigned to an arm. The code used to represent this incomplete assignment, \"A\", is not in the TA table for this trial design, but is the first part of the codes for the 2 arms to which subject 123 could have been assigned (\"AR\" or \"AO\").", "score": 0.5133, "match_basis": "verbatim_token+domain_route:SE"}, {"md_atom_id": "md_dmSE_ex_a035", "md_file": "knowledge_base/domains/SE/examples.md", "md_atom_type": "SENTENCE", "md_parent_section": "§SE.2 [Example 2]", "md_verbatim": "**Rows 1-2:** Show data for a subject who completed only 2 elements of the trial.", "score": 0.513, "match_basis": "verbatim_token+domain_route:SE"}], "candidate_count": 5, "zero_candidate": false}
{"pdf_atom_id": "ig34_p0083_a004", "pdf_atom_type": "SENTENCE", "pdf_source": "SDTMIG_v3.4", "pdf_page": 83, "pdf_parent_section": "§5.3 [Subject Elements (SE)]", "pdf_verbatim": "See Section 7.2.1, Trial Arms, Example Trial 3. In this trial, subjects were randomized at the beginning of the blinded treatment epoch, then assigned to treatment for the open treatment epoch according to their response to treatment in the blinded treatment epoch. See Section 5.2, Demographics, for other examples of ARM and ARMCD values for this trial.", "figure_ref": null, "candidates": [{"md_atom_id": "md_dmSE_ex_a033", "md_file": "knowledge_base/domains/SE/examples.md", "md_atom_type": "SENTENCE", "md_parent_section": "§SE.2 [Example 2]", "md_verbatim": "See Section 7.2.1, Trial Arms, Example Trial 3. In this trial, subjects were randomized at the beginning of the blinded treatment epoch, then assigned to treatment for the open treatment epoch according to their response to treatment in the blinded treatment epoch. See Section 5.2, Demographics, for other examples of ARM and ARMCD values for this trial.", "score": 1.0, "match_basis": "verbatim_token+domain_route:SE"}, {"md_atom_id": "md_dmSE_ex_a045", "md_file": "knowledge_base/domains/SE/examples.md", "md_atom_type": "SENTENCE", "md_parent_section": "§SE.2 [Example 2]", "md_verbatim": "**Row 1:** Shows the record for a subject who was randomized to blinded treatment A, but withdrew from the trial before the open treatment epoch and did not have a second treatment assignment. They were thus incompletely assigned to an arm. The code used to represent this incomplete assignment, \"A\", is not in the TA table for this trial design, but is the first part of the codes for the 2 arms to which subject 123 could have been assigned (\"AR\" or \"AO\").", "score": 0.5964, "match_basis": "verbatim_token+domain_route:SE"}, {"md_atom_id": "md_dmSE_ex_a009", "md_file": "knowledge_base/domains/SE/examples.md", "md_atom_type": "SENTENCE", "md_parent_section": "§SE.1 [Example 1]", "md_verbatim": "**Rows 5-8:** Subject 790 was treated incorrectly. This subject entered the IV element before the ORAL element, although the planned order of elements for this subject was ORAL, then IV. The sponsor has assigned EPOCH values for this subject according to the actual order of elements, rather than the planned order. Per Assumption 6, TAETORD is missing for the elements that were out of order. The correct order of elements is the subject's ARMCD, shown in the DM dataset.", "score": 0.5624, "match_basis": "verbatim_token+domain_route:SE"}, {"md_atom_id": "md_dmSE_ex_a036", "md_file": "knowledge_base/domains/SE/examples.md", "md_atom_type": "SENTENCE", "md_parent_section": "§SE.2 [Example 2]", "md_verbatim": "**Rows 3-6:** Show data for a subject who completed the trial, but received the wrong drug for the last 2 weeks of the double-blind treatment period. This has been represented by treating the period when the subject received the wrong drug as an unplanned element. Note that TAETORD, which represents the planned order of elements within an arm, has not been populated for this unplanned element. Even though this element was unplanned, the sponsor assigned a value of BLINDED TREATMENT to EPOCH.", "score": 0.55, "match_basis": "verbatim_token+domain_route:SE"}, {"md_atom_id": "md_dmSE_ex_a046", "md_file": "knowledge_base/domains/SE/examples.md", "md_atom_type": "SENTENCE", "md_parent_section": "§SE.2 [Example 2]", "md_verbatim": "**Row 2:** Shows the record for a subject who was randomized to blinded treatment A, but was erroneously treated with drug B for part of the blinded treatment epoch. ARM and ARMCD for this subject reflect the planned treatment and are not affected by the fact that treatment deviated from plan. The sponsor decided that the subject's treatment, which consisted partly of drug A and partly of drug B, did not match any planned arm, so ACTARMCD and ACTARM were left null. ARMNRS was populated with \"UNPLANNED TREATMENT\" and the way in which this treatment was unplanned was described in ACTARMUD.", "score": 0.5354, "match_basis": "verbatim_token+domain_route:SE"}], "candidate_count": 5, "zero_candidate": false}
{"pdf_atom_id": "ig34_p0083_a005", "pdf_atom_type": "SENTENCE", "pdf_source": "SDTMIG_v3.4", "pdf_page": 83, "pdf_parent_section": "§5.3 [Subject Elements (SE)]", "pdf_verbatim": "In this trial, start of dosing was recorded as dates without times, so SESTDTC values include only dates.", "figure_ref": null, "candidates": [{"md_atom_id": "md_dmSE_ex_a034", "md_file": "knowledge_base/domains/SE/examples.md", "md_atom_type": "SENTENCE", "md_parent_section": "§SE.2 [Example 2]", "md_verbatim": "In this trial, start of dosing was recorded as dates without times, so SESTDTC values include only dates. Epochs could not be assigned to observations that occurred on epoch transition dates on the basis of the SE dataset alone, so the sponsor's algorithms for dealing with this ambiguity were documented in the Define-XML document.", "score": 0.6075, "match_basis": "verbatim_token+domain_route:SE"}, {"md_atom_id": "md_dmSE_ex_a006", "md_file": "knowledge_base/domains/SE/examples.md", "md_atom_type": "SENTENCE", "md_parent_section": "§SE.1 [Example 1]", "md_verbatim": "**Row 2:** The record for the IV element for subject 789. The IV element started with the start of IV dosing and ended with the start of oral dosing, and full date/times were collected for both.", "score": 0.5462, "match_basis": "verbatim_token+domain_route:SE"}, {"md_atom_id": "md_dmSE_ex_a007", "md_file": "knowledge_base/domains/SE/examples.md", "md_atom_type": "SENTENCE", "md_parent_section": "§SE.1 [Example 1]", "md_verbatim": "**Row 3:** The record for the ORAL element for subject 789. Only the date, and not the time, of the start of follow-up was collected.", "score": 0.5151, "match_basis": "verbatim_token+domain_route:SE"}, {"md_atom_id": "md_dmSE_ex_a005", "md_file": "knowledge_base/domains/SE/examples.md", "md_atom_type": "SENTENCE", "md_parent_section": "§SE.1 [Example 1]", "md_verbatim": "**Row 1:** The record for the SCREEN element for subject 789. Note that only the date of the start of the SCREEN element was collected, whereas for the end of the element (which corresponds to the start of IV dosing) both date and time were collected.", "score": 0.5137, "match_basis": "verbatim_token+domain_route:SE"}, {"md_atom_id": "md_dmSE_ex_a009", "md_file": "knowledge_base/domains/SE/examples.md", "md_atom_type": "SENTENCE", "md_parent_section": "§SE.1 [Example 1]", "md_verbatim": "**Rows 5-8:** Subject 790 was treated incorrectly. This subject entered the IV element before the ORAL element, although the planned order of elements for this subject was ORAL, then IV. The sponsor has assigned EPOCH values for this subject according to the actual order of elements, rather than the planned order. Per Assumption 6, TAETORD is missing for the elements that were out of order. The correct order of elements is the subject's ARMCD, shown in the DM dataset.", "score": 0.4792, "match_basis": "verbatim_token+domain_route:SE"}], "candidate_count": 5, "zero_candidate": false}
{"pdf_atom_id": "ig34_p0083_a006", "pdf_atom_type": "SENTENCE", "pdf_source": "SDTMIG_v3.4", "pdf_page": 83, "pdf_parent_section": "§5.3 [Subject Elements (SE)]", "pdf_verbatim": "Epochs could not be assigned to observations that occurred on epoch transition dates on the basis of the SE dataset alone, so the sponsor's algorithms for dealing with this ambiguity were documented in the Define-XML document.", "figure_ref": null, "candidates": [{"md_atom_id": "md_dmSE_ex_a034", "md_file": "knowledge_base/domains/SE/examples.md", "md_atom_type": "SENTENCE", "md_parent_section": "§SE.2 [Example 2]", "md_verbatim": "In this trial, start of dosing was recorded as dates without times, so SESTDTC values include only dates. Epochs could not be assigned to observations that occurred on epoch transition dates on the basis of the SE dataset alone, so the sponsor's algorithms for dealing with this ambiguity were documented in the Define-XML document.", "score": 0.8286, "match_basis": "verbatim_token+domain_route:SE"}, {"md_atom_id": "md_dmSE_ex_a009", "md_file": "knowledge_base/domains/SE/examples.md", "md_atom_type": "SENTENCE", "md_parent_section": "§SE.1 [Example 1]", "md_verbatim": "**Rows 5-8:** Subject 790 was treated incorrectly. This subject entered the IV element before the ORAL element, although the planned order of elements for this subject was ORAL, then IV. The sponsor has assigned EPOCH values for this subject according to the actual order of elements, rather than the planned order. Per Assumption 6, TAETORD is missing for the elements that were out of order. The correct order of elements is the subject's ARMCD, shown in the DM dataset.", "score": 0.5269, "match_basis": "verbatim_token+domain_route:SE"}, {"md_atom_id": "md_dmSE_assn_a002", "md_file": "knowledge_base/domains/SE/assumptions.md", "md_atom_type": "SENTENCE", "md_parent_section": "§SE [SE — Assumptions]", "md_verbatim": "Submission of the SE dataset is strongly recommended, as it provides information needed by reviewers to place observations in context within the study. As noted in the SE - Description/Overview, the TE and TA datasets should also be submitted, as these define the design and the terms referenced by the SE dataset.", "score": 0.518, "match_basis": "verbatim_token+domain_route:SE"}, {"md_atom_id": "md_dmSE_ex_a036", "md_file": "knowledge_base/domains/SE/examples.md", "md_atom_type": "SENTENCE", "md_parent_section": "§SE.2 [Example 2]", "md_verbatim": "**Rows 3-6:** Show data for a subject who completed the trial, but received the wrong drug for the last 2 weeks of the double-blind treatment period. This has been represented by treating the period when the subject received the wrong drug as an unplanned element. Note that TAETORD, which represents the planned order of elements within an arm, has not been populated for this unplanned element. Even though this element was unplanned, the sponsor assigned a value of BLINDED TREATMENT to EPOCH.", "score": 0.5, "match_basis": "verbatim_token+domain_route:SE"}, {"md_atom_id": "md_dmSE_ex_a033", "md_file": "knowledge_base/domains/SE/examples.md", "md_atom_type": "SENTENCE", "md_parent_section": "§SE.2 [Example 2]", "md_verbatim": "See Section 7.2.1, Trial Arms, Example Trial 3. In this trial, subjects were randomized at the beginning of the blinded treatment epoch, then assigned to treatment for the open treatment epoch according to their response to treatment in the blinded treatment epoch. See Section 5.2, Demographics, for other examples of ARM and ARMCD values for this trial.", "score": 0.4888, "match_basis": "verbatim_token+domain_route:SE"}], "candidate_count": 5, "zero_candidate": false}
{"pdf_atom_id": "ig34_p0083_a007", "pdf_atom_type": "SENTENCE", "pdf_source": "SDTMIG_v3.4", "pdf_page": 83, "pdf_parent_section": "§5.3 [Subject Elements (SE)]", "pdf_verbatim": "Rows 1-2: Show data for a subject who completed only 2 elements of the trial.", "figure_ref": null, "candidates": [{"md_atom_id": "md_dmSE_ex_a035", "md_file": "knowledge_base/domains/SE/examples.md", "md_atom_type": "SENTENCE", "md_parent_section": "§SE.2 [Example 2]", "md_verbatim": "**Rows 1-2:** Show data for a subject who completed only 2 elements of the trial.", "score": 1.0, "match_basis": "verbatim_token+domain_route:SE"}, {"md_atom_id": "md_dmSE_ex_a004", "md_file": "knowledge_base/domains/SE/examples.md", "md_atom_type": "SENTENCE", "md_parent_section": "§SE.1 [Example 1]", "md_verbatim": "This example shows data for 2 subjects for a crossover trial with 4 epochs.", "score": 0.5882, "match_basis": "verbatim_token+domain_route:SE"}, {"md_atom_id": "md_dmSE_ex_a007", "md_file": "knowledge_base/domains/SE/examples.md", "md_atom_type": "SENTENCE", "md_parent_section": "§SE.1 [Example 1]", "md_verbatim": "**Row 3:** The record for the ORAL element for subject 789. Only the date, and not the time, of the start of follow-up was collected.", "score": 0.5821, "match_basis": "verbatim_token+domain_route:SE"}, {"md_atom_id": "md_dmSE_ex_a006", "md_file": "knowledge_base/domains/SE/examples.md", "md_atom_type": "SENTENCE", "md_parent_section": "§SE.1 [Example 1]", "md_verbatim": "**Row 2:** The record for the IV element for subject 789. The IV element started with the start of IV dosing and ended with the start of oral dosing, and full date/times were collected for both.", "score": 0.5324, "match_basis": "verbatim_token+domain_route:SE"}, {"md_atom_id": "md_dmSE_ex_a036", "md_file": "knowledge_base/domains/SE/examples.md", "md_atom_type": "SENTENCE", "md_parent_section": "§SE.2 [Example 2]", "md_verbatim": "**Rows 3-6:** Show data for a subject who completed the trial, but received the wrong drug for the last 2 weeks of the double-blind treatment period. This has been represented by treating the period when the subject received the wrong drug as an unplanned element. Note that TAETORD, which represents the planned order of elements within an arm, has not been populated for this unplanned element. Even though this element was unplanned, the sponsor assigned a value of BLINDED TREATMENT to EPOCH.", "score": 0.5304, "match_basis": "verbatim_token+domain_route:SE"}], "candidate_count": 5, "zero_candidate": false}
{"pdf_atom_id": "ig34_p0083_a008", "pdf_atom_type": "SENTENCE", "pdf_source": "SDTMIG_v3.4", "pdf_page": 83, "pdf_parent_section": "§5.3 [Subject Elements (SE)]", "pdf_verbatim": "Rows 3-6: Show data for a subject who completed the trial, but received the wrong drug for the last 2 weeks of the double-blind treatment period. This has been represented by treating the period when the subject received the wrong drug as an unplanned element. Note that TAETORD, which represents the planned order of elements within an arm, has not been populated for this unplanned element. Even though this element was unplanned, the sponsor assigned a value of BLINDED TREATMENT to EPOCH.", "figure_ref": null, "candidates": [{"md_atom_id": "md_dmSE_ex_a036", "md_file": "knowledge_base/domains/SE/examples.md", "md_atom_type": "SENTENCE", "md_parent_section": "§SE.2 [Example 2]", "md_verbatim": "**Rows 3-6:** Show data for a subject who completed the trial, but received the wrong drug for the last 2 weeks of the double-blind treatment period. This has been represented by treating the period when the subject received the wrong drug as an unplanned element. Note that TAETORD, which represents the planned order of elements within an arm, has not been populated for this unplanned element. Even though this element was unplanned, the sponsor assigned a value of BLINDED TREATMENT to EPOCH.", "score": 1.0, "match_basis": "verbatim_token+domain_route:SE"}, {"md_atom_id": "md_dmSE_ex_a009", "md_file": "knowledge_base/domains/SE/examples.md", "md_atom_type": "SENTENCE", "md_parent_section": "§SE.1 [Example 1]", "md_verbatim": "**Rows 5-8:** Subject 790 was treated incorrectly. This subject entered the IV element before the ORAL element, although the planned order of elements for this subject was ORAL, then IV. The sponsor has assigned EPOCH values for this subject according to the actual order of elements, rather than the planned order. Per Assumption 6, TAETORD is missing for the elements that were out of order. The correct order of elements is the subject's ARMCD, shown in the DM dataset.", "score": 0.6205, "match_basis": "verbatim_token+domain_route:SE"}, {"md_atom_id": "md_dmSE_ex_a025", "md_file": "knowledge_base/domains/SE/examples.md", "md_atom_type": "SENTENCE", "md_parent_section": "§SE.1 [Example 1]", "md_verbatim": "**Row 3:** Subject 791 was assigned to the IV-ORAL arm, received the first of the 2 planned treatment elements, and were following the assigned treatment when they withdrew early. The actual arm variables are populated with the values for the arm to which subject 791 was assigned.", "score": 0.6012, "match_basis": "verbatim_token+domain_route:SE"}, {"md_atom_id": "md_dmSE_ex_a045", "md_file": "knowledge_base/domains/SE/examples.md", "md_atom_type": "SENTENCE", "md_parent_section": "§SE.2 [Example 2]", "md_verbatim": "**Row 1:** Shows the record for a subject who was randomized to blinded treatment A, but withdrew from the trial before the open treatment epoch and did not have a second treatment assignment. They were thus incompletely assigned to an arm. The code used to represent this incomplete assignment, \"A\", is not in the TA table for this trial design, but is the first part of the codes for the 2 arms to which subject 123 could have been assigned (\"AR\" or \"AO\").", "score": 0.6, "match_basis": "verbatim_token+domain_route:SE"}, {"md_atom_id": "md_dmSE_ex_a046", "md_file": "knowledge_base/domains/SE/examples.md", "md_atom_type": "SENTENCE", "md_parent_section": "§SE.2 [Example 2]", "md_verbatim": "**Row 2:** Shows the record for a subject who was randomized to blinded treatment A, but was erroneously treated with drug B for part of the blinded treatment epoch. ARM and ARMCD for this subject reflect the planned treatment and are not affected by the fact that treatment deviated from plan. The sponsor decided that the subject's treatment, which consisted partly of drug A and partly of drug B, did not match any planned arm, so ACTARMCD and ACTARM were left null. ARMNRS was populated with \"UNPLANNED TREATMENT\" and the way in which this treatment was unplanned was described in ACTARMUD.", "score": 0.5811, "match_basis": "verbatim_token+domain_route:SE"}], "candidate_count": 5, "zero_candidate": false}
{"pdf_atom_id": "ig34_p0083_a009", "pdf_atom_type": "CODE_LITERAL", "pdf_source": "SDTMIG_v3.4", "pdf_page": 83, "pdf_parent_section": "§5.3 [Subject Elements (SE)]", "pdf_verbatim": "se.xpt", "figure_ref": null, "candidates": [{"md_atom_id": "md_dmSE_ex_a011", "md_file": "knowledge_base/domains/SE/examples.md", "md_atom_type": "SENTENCE", "md_parent_section": "§SE.1 [Example 1]", "md_verbatim": "**se.xpt**", "score": 0.79, "match_basis": "verbatim_token+domain_route:SE"}, {"md_atom_id": "md_dmSE_ex_a026", "md_file": "knowledge_base/domains/SE/examples.md", "md_atom_type": "SENTENCE", "md_parent_section": "§SE.1 [Example 1]", "md_verbatim": "**dm.xpt**", "score": 0.79, "match_basis": "verbatim_token+domain_route:SE"}, {"md_atom_id": "md_dmSE_ex_a037", "md_file": "knowledge_base/domains/SE/examples.md", "md_atom_type": "SENTENCE", "md_parent_section": "§SE.2 [Example 2]", "md_verbatim": "**se.xpt**", "score": 0.79, "match_basis": "verbatim_token+domain_route:SE"}, {"md_atom_id": "md_dmSE_ex_a047", "md_file": "knowledge_base/domains/SE/examples.md", "md_atom_type": "SENTENCE", "md_parent_section": "§SE.2 [Example 2]", "md_verbatim": "**dm.xpt**", "score": 0.79, "match_basis": "verbatim_token+domain_route:SE"}, {"md_atom_id": "md_dmSE_assn_a001", "md_file": "knowledge_base/domains/SE/assumptions.md", "md_atom_type": "HEADING", "md_parent_section": "§SE [SE — Assumptions]", "md_verbatim": "# SE — Assumptions", "score": 0.19, "match_basis": "verbatim_token+domain_route:SE"}, {"md_atom_id": "md_dmSE_assn_a002", "md_file": "knowledge_base/domains/SE/assumptions.md", "md_atom_type": "SENTENCE", "md_parent_section": "§SE [SE — Assumptions]", "md_verbatim": "Submission of the SE dataset is strongly recommended, as it provides information needed by reviewers to place observations in context within the study. As noted in the SE - Description/Overview, the TE and TA datasets should also be submitted, as these define the design and the terms referenced by the SE dataset.", "score": 0.19, "match_basis": "verbatim_token+domain_route:SE"}, {"md_atom_id": "md_dmSE_assn_a003", "md_file": "knowledge_base/domains/SE/assumptions.md", "md_atom_type": "SENTENCE", "md_parent_section": "§SE [SE — Assumptions]", "md_verbatim": "The SE domain allows the submission of data on the timing of the trial elements a subject actually passed through in their participation in the trial. Section 7.2.2, Trial Elements, and Section 7.2.1, Trial Arms, provide additional information on these datasets, which define a trial's planned elements and describe the planned sequences of elements for the arms of the trial.", "score": 0.19, "match_basis": "verbatim_token+domain_route:SE"}, {"md_atom_id": "md_dmSE_assn_a004", "md_file": "knowledge_base/domains/SE/assumptions.md", "md_atom_type": "LIST_ITEM", "md_parent_section": "§SE [SE — Assumptions]", "md_verbatim": "1. For any particular subject, the dates in the SE table are the dates when the transition events identified in the TE table occurred. Judgment may be needed to match actual events in a subject's experience with the definitions of transition events (i.e., events that mark the start of new elements) in the TE table; actual events may vary from the plan. For instance, in a single-dose pharmacokinetics (PK) study, the transition events might correspond to study drug doses of 5 and 10 mg. If a subject actually received a dose of 7 mg when they were scheduled to receive 5 mg, a decision will have to be made on how to represent this in the SE domain.", "score": 0.19, "match_basis": "verbatim_token+domain_route:SE"}, {"md_atom_id": "md_dmSE_assn_a005", "md_file": "knowledge_base/domains/SE/assumptions.md", "md_atom_type": "LIST_ITEM", "md_parent_section": "§SE [SE — Assumptions]", "md_verbatim": "2. If the date/time of a transition element was not collected directly, the method used to infer the element start date/time should be explained in the Comments column of the Define-XML document.", "score": 0.19, "match_basis": "verbatim_token+domain_route:SE"}, {"md_atom_id": "md_dmSE_assn_a006", "md_file": "knowledge_base/domains/SE/assumptions.md", "md_atom_type": "LIST_ITEM", "md_parent_section": "§SE [SE — Assumptions]", "md_verbatim": "3. Judgment will also have to be used in deciding how to represent a subject's experience if an element does not proceed or end as planned. For instance, the plan might identify a trial element that is to start with the first of a series of 5 daily doses and end after 1 week, when the subject transitions to the next treatment element. If the subject actually started the next treatment epoch (see Section 7.1, Introduction to Trial Design Model Datasets, and Section 7.1.2, Definitions of Trial Design Concepts) after 4 weeks, the sponsor would have to decide whether to represent this as an abnormally long element, or as a normal element plus an unplanned non-treatment element.", "score": 0.19, "match_basis": "verbatim_token+domain_route:SE"}], "candidate_count": 10, "zero_candidate": false}
{"pdf_atom_id": "ig34_p0083_a010", "pdf_atom_type": "TABLE_HEADER", "pdf_source": "SDTMIG_v3.4", "pdf_page": 83, "pdf_parent_section": "§5.3 [Subject Elements (SE)]", "pdf_verbatim": "Row | USUBJID | SESEQ | ETCD | SESTDTC | SEENDTC | SEUPDES | TAETORD | EPOCH", "figure_ref": null, "candidates": [{"md_atom_id": "md_dmSE_ex_a012", "md_file": "knowledge_base/domains/SE/examples.md", "md_atom_type": "TABLE_HEADER", "md_parent_section": "§SE.1 [Example 1]", "md_verbatim": "| Row | USUBJID | SESEQ | ETCD | SESTDTC | SEENDTC | SEUPDES | TAETORD | EPOCH |\n|-----|---------|-------|------|---------|---------|---------|---------|-------|", "score": 1.0, "match_basis": "verbatim_token+domain_route:SE"}, {"md_atom_id": "md_dmSE_ex_a038", "md_file": "knowledge_base/domains/SE/examples.md", "md_atom_type": "TABLE_HEADER", "md_parent_section": "§SE.2 [Example 2]", "md_verbatim": "| Row | USUBJID | SESEQ | ETCD | SESTDTC | SEENDTC | SEUPDES | TAETORD | EPOCH |\n|-----|---------|-------|------|---------|---------|---------|---------|-------|", "score": 1.0, "match_basis": "verbatim_token+domain_route:SE"}, {"md_atom_id": "md_dmSE_ex_a027", "md_file": "knowledge_base/domains/SE/examples.md", "md_atom_type": "TABLE_HEADER", "md_parent_section": "§SE.1 [Example 1]", "md_verbatim": "| Row | USUBJID | SUBJID | RFSTDTC | RFENDTC | SITEID | INVNAM | BRTHDTC | AGE | AGEU | SEX | RACE | ETHNIC | ARMCD | ARM | ACTARMCD | ACTARM | ARMNRS | ACTARMUD | COUNTRY |\n|-----|---------|--------|---------|---------|--------|--------|---------|-----|------|-----|------|--------|-------|-----|----------|--------|--------|----------|---------|", "score": 0.4904, "match_basis": "verbatim_token+domain_route:SE"}, {"md_atom_id": "md_dmSE_ex_a048", "md_file": "knowledge_base/domains/SE/examples.md", "md_atom_type": "TABLE_HEADER", "md_parent_section": "§SE.2 [Example 2]", "md_verbatim": "| Row | USUBJID | SUBJID | RFSTDTC | RFENDTC | SITEID | INVNAM | BRTHDTC | AGE | AGEU | SEX | RACE | ETHNIC | ARMCD | ARM | ACTARMCD | ACTARM | ARMNRS | ACTARMUD | COUNTRY |\n|-----|---------|--------|---------|---------|--------|--------|---------|-----|------|-----|------|--------|-------|-----|----------|--------|--------|----------|---------|", "score": 0.4904, "match_basis": "verbatim_token+domain_route:SE"}, {"md_atom_id": "md_dmSE_ex_a039", "md_file": "knowledge_base/domains/SE/examples.md", "md_atom_type": "TABLE_ROW", "md_parent_section": "§SE.2 [Example 2]", "md_verbatim": "| 1 | 123 | 1 | SCRN | 2006-06-01 | 2006-06-03 | | 1 | SCREENING |", "score": 0.3543, "match_basis": "verbatim_token+domain_route:SE"}], "candidate_count": 5, "zero_candidate": false}
{"pdf_atom_id": "ig34_p0083_a011", "pdf_atom_type": "TABLE_ROW", "pdf_source": "SDTMIG_v3.4", "pdf_page": 83, "pdf_parent_section": "§5.3 [Subject Elements (SE)]", "pdf_verbatim": "1 | 123 | 1 | SCRN | 2006-06-01 | 2006-06-03 |  | 1 | SCREENING", "figure_ref": null, "candidates": [{"md_atom_id": "md_dmSE_ex_a039", "md_file": "knowledge_base/domains/SE/examples.md", "md_atom_type": "TABLE_ROW", "md_parent_section": "§SE.2 [Example 2]", "md_verbatim": "| 1 | 123 | 1 | SCRN | 2006-06-01 | 2006-06-03 | | 1 | SCREENING |", "score": 1.0, "match_basis": "verbatim_token+domain_route:SE"}, {"md_atom_id": "md_dmSE_ex_a041", "md_file": "knowledge_base/domains/SE/examples.md", "md_atom_type": "TABLE_ROW", "md_parent_section": "§SE.2 [Example 2]", "md_verbatim": "| 3 | 456 | 1 | SCRN | 2006-05-01 | 2006-05-03 | | 1 | SCREENING |", "score": 0.9, "match_basis": "verbatim_token+domain_route:SE"}, {"md_atom_id": "md_dmSE_ex_a013", "md_file": "knowledge_base/domains/SE/examples.md", "md_atom_type": "TABLE_ROW", "md_parent_section": "§SE.1 [Example 1]", "md_verbatim": "| 1 | 789 | 1 | SCREEN | 2006-06-01 | 2006-06-03T10:32 | | 1 | SCREENING |", "score": 0.76, "match_basis": "verbatim_token+domain_route:SE"}, {"md_atom_id": "md_dmSE_ex_a017", "md_file": "knowledge_base/domains/SE/examples.md", "md_atom_type": "TABLE_ROW", "md_parent_section": "§SE.1 [Example 1]", "md_verbatim": "| 5 | 790 | 1 | SCREEN | 2006-06-01 | 2006-06-03T10:14 | | 1 | SCREENING |", "score": 0.76, "match_basis": "verbatim_token+domain_route:SE"}, {"md_atom_id": "md_dmSE_ex_a021", "md_file": "knowledge_base/domains/SE/examples.md", "md_atom_type": "TABLE_ROW", "md_parent_section": "§SE.1 [Example 1]", "md_verbatim": "| 9 | 791 | 1 | SCREEN | 2006-06-01 | 2006-06-03T10:17 | | 1 | SCREENING |", "score": 0.76, "match_basis": "verbatim_token+domain_route:SE"}], "candidate_count": 5, "zero_candidate": false}
{"pdf_atom_id": "ig34_p0083_a012", "pdf_atom_type": "TABLE_ROW", "pdf_source": "SDTMIG_v3.4", "pdf_page": 83, "pdf_parent_section": "§5.3 [Subject Elements (SE)]", "pdf_verbatim": "2 | 123 | 2 | DBA | 2006-06-03 | 2006-06-10 |  | 2 | BLINDED TREATMENT", "figure_ref": null, "candidates": [{"md_atom_id": "md_dmSE_ex_a040", "md_file": "knowledge_base/domains/SE/examples.md", "md_atom_type": "TABLE_ROW", "md_parent_section": "§SE.2 [Example 2]", "md_verbatim": "| 2 | 123 | 2 | DBA | 2006-06-03 | 2006-06-10 | | 2 | BLINDED TREATMENT |", "score": 1.0, "match_basis": "verbatim_token+domain_route:SE"}, {"md_atom_id": "md_dmSE_ex_a042", "md_file": "knowledge_base/domains/SE/examples.md", "md_atom_type": "TABLE_ROW", "md_parent_section": "§SE.2 [Example 2]", "md_verbatim": "| 4 | 456 | 2 | DBA | 2006-05-03 | 2006-05-31 | | 2 | BLINDED TREATMENT |", "score": 0.9294, "match_basis": "verbatim_token+domain_route:SE"}, {"md_atom_id": "md_dmSE_ex_a022", "md_file": "knowledge_base/domains/SE/examples.md", "md_atom_type": "TABLE_ROW", "md_parent_section": "§SE.1 [Example 1]", "md_verbatim": "| 10 | 791 | 2 | IV | 2006-06-03T10:17 | 2006-06-07 | | 2 | TREATMENT 1 |", "score": 0.67, "match_basis": "verbatim_token+domain_route:SE"}, {"md_atom_id": "md_dmSE_ex_a043", "md_file": "knowledge_base/domains/SE/examples.md", "md_atom_type": "TABLE_ROW", "md_parent_section": "§SE.2 [Example 2]", "md_verbatim": "| 5 | 456 | 3 | UNPLAN | 2006-05-31 | 2006-06-13 | Drug B dispensed in error | | BLINDED TREATMENT |", "score": 0.6545, "match_basis": "verbatim_token+domain_route:SE"}, {"md_atom_id": "md_dmSE_ex_a015", "md_file": "knowledge_base/domains/SE/examples.md", "md_atom_type": "TABLE_ROW", "md_parent_section": "§SE.1 [Example 1]", "md_verbatim": "| 3 | 789 | 3 | ORAL | 2006-06-10T09:47 | 2006-06-17 | | 3 | TREATMENT 2 |", "score": 0.6455, "match_basis": "verbatim_token+domain_route:SE"}], "candidate_count": 5, "zero_candidate": false}
{"pdf_atom_id": "ig34_p0083_a013", "pdf_atom_type": "TABLE_ROW", "pdf_source": "SDTMIG_v3.4", "pdf_page": 83, "pdf_parent_section": "§5.3 [Subject Elements (SE)]", "pdf_verbatim": "3 | 456 | 1 | SCRN | 2006-05-01 | 2006-05-03 |  | 1 | SCREENING", "figure_ref": null, "candidates": [{"md_atom_id": "md_dmSE_ex_a041", "md_file": "knowledge_base/domains/SE/examples.md", "md_atom_type": "TABLE_ROW", "md_parent_section": "§SE.2 [Example 2]", "md_verbatim": "| 3 | 456 | 1 | SCRN | 2006-05-01 | 2006-05-03 | | 1 | SCREENING |", "score": 1.0, "match_basis": "verbatim_token+domain_route:SE"}, {"md_atom_id": "md_dmSE_ex_a039", "md_file": "knowledge_base/domains/SE/examples.md", "md_atom_type": "TABLE_ROW", "md_parent_section": "§SE.2 [Example 2]", "md_verbatim": "| 1 | 123 | 1 | SCRN | 2006-06-01 | 2006-06-03 | | 1 | SCREENING |", "score": 0.9, "match_basis": "verbatim_token+domain_route:SE"}, {"md_atom_id": "md_dmSE_ex_a013", "md_file": "knowledge_base/domains/SE/examples.md", "md_atom_type": "TABLE_ROW", "md_parent_section": "§SE.1 [Example 1]", "md_verbatim": "| 1 | 789 | 1 | SCREEN | 2006-06-01 | 2006-06-03T10:32 | | 1 | SCREENING |", "score": 0.76, "match_basis": "verbatim_token+domain_route:SE"}, {"md_atom_id": "md_dmSE_ex_a017", "md_file": "knowledge_base/domains/SE/examples.md", "md_atom_type": "TABLE_ROW", "md_parent_section": "§SE.1 [Example 1]", "md_verbatim": "| 5 | 790 | 1 | SCREEN | 2006-06-01 | 2006-06-03T10:14 | | 1 | SCREENING |", "score": 0.76, "match_basis": "verbatim_token+domain_route:SE"}, {"md_atom_id": "md_dmSE_ex_a021", "md_file": "knowledge_base/domains/SE/examples.md", "md_atom_type": "TABLE_ROW", "md_parent_section": "§SE.1 [Example 1]", "md_verbatim": "| 9 | 791 | 1 | SCREEN | 2006-06-01 | 2006-06-03T10:17 | | 1 | SCREENING |", "score": 0.76, "match_basis": "verbatim_token+domain_route:SE"}], "candidate_count": 5, "zero_candidate": false}
{"pdf_atom_id": "ig34_p0083_a014", "pdf_atom_type": "TABLE_ROW", "pdf_source": "SDTMIG_v3.4", "pdf_page": 83, "pdf_parent_section": "§5.3 [Subject Elements (SE)]", "pdf_verbatim": "4 | 456 | 2 | DBA | 2006-05-03 | 2006-05-31 |  | 2 | BLINDED TREATMENT", "figure_ref": null, "candidates": [{"md_atom_id": "md_dmSE_ex_a042", "md_file": "knowledge_base/domains/SE/examples.md", "md_atom_type": "TABLE_ROW", "md_parent_section": "§SE.2 [Example 2]", "md_verbatim": "| 4 | 456 | 2 | DBA | 2006-05-03 | 2006-05-31 | | 2 | BLINDED TREATMENT |", "score": 1.0, "match_basis": "verbatim_token+domain_route:SE"}, {"md_atom_id": "md_dmSE_ex_a040", "md_file": "knowledge_base/domains/SE/examples.md", "md_atom_type": "TABLE_ROW", "md_parent_section": "§SE.2 [Example 2]", "md_verbatim": "| 2 | 123 | 2 | DBA | 2006-06-03 | 2006-06-10 | | 2 | BLINDED TREATMENT |", "score": 0.9294, "match_basis": "verbatim_token+domain_route:SE"}, {"md_atom_id": "md_dmSE_ex_a043", "md_file": "knowledge_base/domains/SE/examples.md", "md_atom_type": "TABLE_ROW", "md_parent_section": "§SE.2 [Example 2]", "md_verbatim": "| 5 | 456 | 3 | UNPLAN | 2006-05-31 | 2006-06-13 | Drug B dispensed in error | | BLINDED TREATMENT |", "score": 0.6813, "match_basis": "verbatim_token+domain_route:SE"}, {"md_atom_id": "md_dmSE_ex_a044", "md_file": "knowledge_base/domains/SE/examples.md", "md_atom_type": "TABLE_ROW", "md_parent_section": "§SE.2 [Example 2]", "md_verbatim": "| 6 | 456 | 4 | RSC | 2006-06-13 | 2006-07-30 | | 3 | OPEN LABEL TREATMENT |", "score": 0.6727, "match_basis": "verbatim_token+domain_route:SE"}, {"md_atom_id": "md_dmSE_ex_a022", "md_file": "knowledge_base/domains/SE/examples.md", "md_atom_type": "TABLE_ROW", "md_parent_section": "§SE.1 [Example 1]", "md_verbatim": "| 10 | 791 | 2 | IV | 2006-06-03T10:17 | 2006-06-07 | | 2 | TREATMENT 1 |", "score": 0.67, "match_basis": "verbatim_token+domain_route:SE"}], "candidate_count": 5, "zero_candidate": false}
{"pdf_atom_id": "ig34_p0083_a015", "pdf_atom_type": "TABLE_ROW", "pdf_source": "SDTMIG_v3.4", "pdf_page": 83, "pdf_parent_section": "§5.3 [Subject Elements (SE)]", "pdf_verbatim": "5 | 456 | 3 | UNPLAN | 2006-05-31 | 2006-06-13 | Drug B dispensed in error |  | BLINDED TREATMENT", "figure_ref": null, "candidates": [{"md_atom_id": "md_dmSE_ex_a043", "md_file": "knowledge_base/domains/SE/examples.md", "md_atom_type": "TABLE_ROW", "md_parent_section": "§SE.2 [Example 2]", "md_verbatim": "| 5 | 456 | 3 | UNPLAN | 2006-05-31 | 2006-06-13 | Drug B dispensed in error | | BLINDED TREATMENT |", "score": 1.0, "match_basis": "verbatim_token+domain_route:SE"}, {"md_atom_id": "md_dmSE_ex_a042", "md_file": "knowledge_base/domains/SE/examples.md", "md_atom_type": "TABLE_ROW", "md_parent_section": "§SE.2 [Example 2]", "md_verbatim": "| 4 | 456 | 2 | DBA | 2006-05-03 | 2006-05-31 | | 2 | BLINDED TREATMENT |", "score": 0.6813, "match_basis": "verbatim_token+domain_route:SE"}, {"md_atom_id": "md_dmSE_ex_a040", "md_file": "knowledge_base/domains/SE/examples.md", "md_atom_type": "TABLE_ROW", "md_parent_section": "§SE.2 [Example 2]", "md_verbatim": "| 2 | 123 | 2 | DBA | 2006-06-03 | 2006-06-10 | | 2 | BLINDED TREATMENT |", "score": 0.6545, "match_basis": "verbatim_token+domain_route:SE"}, {"md_atom_id": "md_dmSE_ex_a050", "md_file": "knowledge_base/domains/SE/examples.md", "md_atom_type": "TABLE_ROW", "md_parent_section": "§SE.2 [Example 2]", "md_verbatim": "| 2 | 456 | 103 | 2006-05-03 | 2006-07-30 | 01 | JONES, D | 1950-05-15 | 55 | YEARS | F | WHITE | NOT HISPANIC OR LATINO | AR | A-Rescue | | | UNPLANNED TREATMENT | Drug B dispensed for part of Drug A element | USA |", "score": 0.606, "match_basis": "verbatim_token+domain_route:SE"}, {"md_atom_id": "md_dmSE_ex_a044", "md_file": "knowledge_base/domains/SE/examples.md", "md_atom_type": "TABLE_ROW", "md_parent_section": "§SE.2 [Example 2]", "md_verbatim": "| 6 | 456 | 4 | RSC | 2006-06-13 | 2006-07-30 | | 3 | OPEN LABEL TREATMENT |", "score": 0.5833, "match_basis": "verbatim_token+domain_route:SE"}], "candidate_count": 5, "zero_candidate": false}
{"pdf_atom_id": "ig34_p0083_a016", "pdf_atom_type": "TABLE_ROW", "pdf_source": "SDTMIG_v3.4", "pdf_page": 83, "pdf_parent_section": "§5.3 [Subject Elements (SE)]", "pdf_verbatim": "6 | 456 | 4 | RSC | 2006-06-13 | 2006-07-30 |  | 3 | OPEN LABEL TREATMENT", "figure_ref": null, "candidates": [{"md_atom_id": "md_dmSE_ex_a044", "md_file": "knowledge_base/domains/SE/examples.md", "md_atom_type": "TABLE_ROW", "md_parent_section": "§SE.2 [Example 2]", "md_verbatim": "| 6 | 456 | 4 | RSC | 2006-06-13 | 2006-07-30 | | 3 | OPEN LABEL TREATMENT |", "score": 1.0, "match_basis": "verbatim_token+domain_route:SE"}, {"md_atom_id": "md_dmSE_ex_a042", "md_file": "knowledge_base/domains/SE/examples.md", "md_atom_type": "TABLE_ROW", "md_parent_section": "§SE.2 [Example 2]", "md_verbatim": "| 4 | 456 | 2 | DBA | 2006-05-03 | 2006-05-31 | | 2 | BLINDED TREATMENT |", "score": 0.6727, "match_basis": "verbatim_token+domain_route:SE"}, {"md_atom_id": "md_dmSE_ex_a022", "md_file": "knowledge_base/domains/SE/examples.md", "md_atom_type": "TABLE_ROW", "md_parent_section": "§SE.1 [Example 1]", "md_verbatim": "| 10 | 791 | 2 | IV | 2006-06-03T10:17 | 2006-06-07 | | 2 | TREATMENT 1 |", "score": 0.67, "match_basis": "verbatim_token+domain_route:SE"}, {"md_atom_id": "md_dmSE_ex_a015", "md_file": "knowledge_base/domains/SE/examples.md", "md_atom_type": "TABLE_ROW", "md_parent_section": "§SE.1 [Example 1]", "md_verbatim": "| 3 | 789 | 3 | ORAL | 2006-06-10T09:47 | 2006-06-17 | | 3 | TREATMENT 2 |", "score": 0.6455, "match_basis": "verbatim_token+domain_route:SE"}, {"md_atom_id": "md_dmSE_ex_a018", "md_file": "knowledge_base/domains/SE/examples.md", "md_atom_type": "TABLE_ROW", "md_parent_section": "§SE.1 [Example 1]", "md_verbatim": "| 6 | 790 | 2 | IV | 2006-06-03T10:14 | 2006-06-10T10:32 | | | TREATMENT 1 |", "score": 0.6455, "match_basis": "verbatim_token+domain_route:SE"}], "candidate_count": 5, "zero_candidate": false}
{"pdf_atom_id": "ig34_p0083_a017", "pdf_atom_type": "SENTENCE", "pdf_source": "SDTMIG_v3.4", "pdf_page": 83, "pdf_parent_section": "§5.3 [Subject Elements (SE)]", "pdf_verbatim": "Row 1: Shows the record for a subject who was randomized to blinded treatment A, but withdrew from the trial before the open treatment epoch and did not have a second treatment assignment. They were thus incompletely assigned to an arm. The code used to represent this incomplete assignment, \"A\", is not in the TA table for this trial design, but is the first part of the codes for the 2 arms to which subject 123 could have been assigned (\"AR\" or \"AO\").", "figure_ref": null, "candidates": [{"md_atom_id": "md_dmSE_ex_a045", "md_file": "knowledge_base/domains/SE/examples.md", "md_atom_type": "SENTENCE", "md_parent_section": "§SE.2 [Example 2]", "md_verbatim": "**Row 1:** Shows the record for a subject who was randomized to blinded treatment A, but withdrew from the trial before the open treatment epoch and did not have a second treatment assignment. They were thus incompletely assigned to an arm. The code used to represent this incomplete assignment, \"A\", is not in the TA table for this trial design, but is the first part of the codes for the 2 arms to which subject 123 could have been assigned (\"AR\" or \"AO\").", "score": 1.0, "match_basis": "verbatim_token+domain_route:SE"}, {"md_atom_id": "md_dmSE_ex_a036", "md_file": "knowledge_base/domains/SE/examples.md", "md_atom_type": "SENTENCE", "md_parent_section": "§SE.2 [Example 2]", "md_verbatim": "**Rows 3-6:** Show data for a subject who completed the trial, but received the wrong drug for the last 2 weeks of the double-blind treatment period. This has been represented by treating the period when the subject received the wrong drug as an unplanned element. Note that TAETORD, which represents the planned order of elements within an arm, has not been populated for this unplanned element. Even though this element was unplanned, the sponsor assigned a value of BLINDED TREATMENT to EPOCH.", "score": 0.6, "match_basis": "verbatim_token+domain_route:SE"}, {"md_atom_id": "md_dmSE_ex_a033", "md_file": "knowledge_base/domains/SE/examples.md", "md_atom_type": "SENTENCE", "md_parent_section": "§SE.2 [Example 2]", "md_verbatim": "See Section 7.2.1, Trial Arms, Example Trial 3. In this trial, subjects were randomized at the beginning of the blinded treatment epoch, then assigned to treatment for the open treatment epoch according to their response to treatment in the blinded treatment epoch. See Section 5.2, Demographics, for other examples of ARM and ARMCD values for this trial.", "score": 0.5964, "match_basis": "verbatim_token+domain_route:SE"}, {"md_atom_id": "md_dmSE_ex_a046", "md_file": "knowledge_base/domains/SE/examples.md", "md_atom_type": "SENTENCE", "md_parent_section": "§SE.2 [Example 2]", "md_verbatim": "**Row 2:** Shows the record for a subject who was randomized to blinded treatment A, but was erroneously treated with drug B for part of the blinded treatment epoch. ARM and ARMCD for this subject reflect the planned treatment and are not affected by the fact that treatment deviated from plan. The sponsor decided that the subject's treatment, which consisted partly of drug A and partly of drug B, did not match any planned arm, so ACTARMCD and ACTARM were left null. ARMNRS was populated with \"UNPLANNED TREATMENT\" and the way in which this treatment was unplanned was described in ACTARMUD.", "score": 0.58, "match_basis": "verbatim_token+domain_route:SE"}, {"md_atom_id": "md_dmSE_ex_a025", "md_file": "knowledge_base/domains/SE/examples.md", "md_atom_type": "SENTENCE", "md_parent_section": "§SE.1 [Example 1]", "md_verbatim": "**Row 3:** Subject 791 was assigned to the IV-ORAL arm, received the first of the 2 planned treatment elements, and were following the assigned treatment when they withdrew early. The actual arm variables are populated with the values for the arm to which subject 791 was assigned.", "score": 0.5536, "match_basis": "verbatim_token+domain_route:SE"}], "candidate_count": 5, "zero_candidate": false}
{"pdf_atom_id": "ig34_p0083_a018", "pdf_atom_type": "SENTENCE", "pdf_source": "SDTMIG_v3.4", "pdf_page": 83, "pdf_parent_section": "§5.3 [Subject Elements (SE)]", "pdf_verbatim": "Row 2: Shows the record for a subject who was randomized to blinded treatment A, but was erroneously treated with drug B for part of the blinded treatment epoch. ARM and ARMCD for this subject reflect the planned treatment and are not affected by the fact that treatment deviated from plan. The subject's assignment to Rescue treatment for the open treatment epoch proceeded as planned. The sponsor decided that the subject's treatment, which consisted partly of drug A and partly of drug B, did not match any planned arm, so ACTARMCD and ACTARM were left null. ARMNRS was populated with \"UNPLANNED TREATMENT\" and the way in which this treatment was unplanned was described in ACTARMUD.", "figure_ref": null, "candidates": [{"md_atom_id": "md_dmSE_ex_a046", "md_file": "knowledge_base/domains/SE/examples.md", "md_atom_type": "SENTENCE", "md_parent_section": "§SE.2 [Example 2]", "md_verbatim": "**Row 2:** Shows the record for a subject who was randomized to blinded treatment A, but was erroneously treated with drug B for part of the blinded treatment epoch. ARM and ARMCD for this subject reflect the planned treatment and are not affected by the fact that treatment deviated from plan. The sponsor decided that the subject's treatment, which consisted partly of drug A and partly of drug B, did not match any planned arm, so ACTARMCD and ACTARM were left null. ARMNRS was populated with \"UNPLANNED TREATMENT\" and the way in which this treatment was unplanned was described in ACTARMUD.", "score": 0.935, "match_basis": "verbatim_token+domain_route:SE"}, {"md_atom_id": "md_dmSE_ex_a045", "md_file": "knowledge_base/domains/SE/examples.md", "md_atom_type": "SENTENCE", "md_parent_section": "§SE.2 [Example 2]", "md_verbatim": "**Row 1:** Shows the record for a subject who was randomized to blinded treatment A, but withdrew from the trial before the open treatment epoch and did not have a second treatment assignment. They were thus incompletely assigned to an arm. The code used to represent this incomplete assignment, \"A\", is not in the TA table for this trial design, but is the first part of the codes for the 2 arms to which subject 123 could have been assigned (\"AR\" or \"AO\").", "score": 0.599, "match_basis": "verbatim_token+domain_route:SE"}, {"md_atom_id": "md_dmSE_ex_a036", "md_file": "knowledge_base/domains/SE/examples.md", "md_atom_type": "SENTENCE", "md_parent_section": "§SE.2 [Example 2]", "md_verbatim": "**Rows 3-6:** Show data for a subject who completed the trial, but received the wrong drug for the last 2 weeks of the double-blind treatment period. This has been represented by treating the period when the subject received the wrong drug as an unplanned element. Note that TAETORD, which represents the planned order of elements within an arm, has not been populated for this unplanned element. Even though this element was unplanned, the sponsor assigned a value of BLINDED TREATMENT to EPOCH.", "score": 0.5848, "match_basis": "verbatim_token+domain_route:SE"}, {"md_atom_id": "md_dmSE_ex_a033", "md_file": "knowledge_base/domains/SE/examples.md", "md_atom_type": "SENTENCE", "md_parent_section": "§SE.2 [Example 2]", "md_verbatim": "See Section 7.2.1, Trial Arms, Example Trial 3. In this trial, subjects were randomized at the beginning of the blinded treatment epoch, then assigned to treatment for the open treatment epoch according to their response to treatment in the blinded treatment epoch. See Section 5.2, Demographics, for other examples of ARM and ARMCD values for this trial.", "score": 0.5493, "match_basis": "verbatim_token+domain_route:SE"}, {"md_atom_id": "md_dmSE_ex_a009", "md_file": "knowledge_base/domains/SE/examples.md", "md_atom_type": "SENTENCE", "md_parent_section": "§SE.1 [Example 1]", "md_verbatim": "**Rows 5-8:** Subject 790 was treated incorrectly. This subject entered the IV element before the ORAL element, although the planned order of elements for this subject was ORAL, then IV. The sponsor has assigned EPOCH values for this subject according to the actual order of elements, rather than the planned order. Per Assumption 6, TAETORD is missing for the elements that were out of order. The correct order of elements is the subject's ARMCD, shown in the DM dataset.", "score": 0.5339, "match_basis": "verbatim_token+domain_route:SE"}], "candidate_count": 5, "zero_candidate": false}
{"pdf_atom_id": "ig34_p0083_a019", "pdf_atom_type": "CODE_LITERAL", "pdf_source": "SDTMIG_v3.4", "pdf_page": 83, "pdf_parent_section": "§5.3 [Subject Elements (SE)]", "pdf_verbatim": "dm.xpt", "figure_ref": null, "candidates": [{"md_atom_id": "md_dmSE_ex_a011", "md_file": "knowledge_base/domains/SE/examples.md", "md_atom_type": "SENTENCE", "md_parent_section": "§SE.1 [Example 1]", "md_verbatim": "**se.xpt**", "score": 0.79, "match_basis": "verbatim_token+domain_route:SE"}, {"md_atom_id": "md_dmSE_ex_a026", "md_file": "knowledge_base/domains/SE/examples.md", "md_atom_type": "SENTENCE", "md_parent_section": "§SE.1 [Example 1]", "md_verbatim": "**dm.xpt**", "score": 0.79, "match_basis": "verbatim_token+domain_route:SE"}, {"md_atom_id": "md_dmSE_ex_a037", "md_file": "knowledge_base/domains/SE/examples.md", "md_atom_type": "SENTENCE", "md_parent_section": "§SE.2 [Example 2]", "md_verbatim": "**se.xpt**", "score": 0.79, "match_basis": "verbatim_token+domain_route:SE"}, {"md_atom_id": "md_dmSE_ex_a047", "md_file": "knowledge_base/domains/SE/examples.md", "md_atom_type": "SENTENCE", "md_parent_section": "§SE.2 [Example 2]", "md_verbatim": "**dm.xpt**", "score": 0.79, "match_basis": "verbatim_token+domain_route:SE"}, {"md_atom_id": "md_dmSE_assn_a001", "md_file": "knowledge_base/domains/SE/assumptions.md", "md_atom_type": "HEADING", "md_parent_section": "§SE [SE — Assumptions]", "md_verbatim": "# SE — Assumptions", "score": 0.19, "match_basis": "verbatim_token+domain_route:SE"}, {"md_atom_id": "md_dmSE_assn_a002", "md_file": "knowledge_base/domains/SE/assumptions.md", "md_atom_type": "SENTENCE", "md_parent_section": "§SE [SE — Assumptions]", "md_verbatim": "Submission of the SE dataset is strongly recommended, as it provides information needed by reviewers to place observations in context within the study. As noted in the SE - Description/Overview, the TE and TA datasets should also be submitted, as these define the design and the terms referenced by the SE dataset.", "score": 0.19, "match_basis": "verbatim_token+domain_route:SE"}, {"md_atom_id": "md_dmSE_assn_a003", "md_file": "knowledge_base/domains/SE/assumptions.md", "md_atom_type": "SENTENCE", "md_parent_section": "§SE [SE — Assumptions]", "md_verbatim": "The SE domain allows the submission of data on the timing of the trial elements a subject actually passed through in their participation in the trial. Section 7.2.2, Trial Elements, and Section 7.2.1, Trial Arms, provide additional information on these datasets, which define a trial's planned elements and describe the planned sequences of elements for the arms of the trial.", "score": 0.19, "match_basis": "verbatim_token+domain_route:SE"}, {"md_atom_id": "md_dmSE_assn_a004", "md_file": "knowledge_base/domains/SE/assumptions.md", "md_atom_type": "LIST_ITEM", "md_parent_section": "§SE [SE — Assumptions]", "md_verbatim": "1. For any particular subject, the dates in the SE table are the dates when the transition events identified in the TE table occurred. Judgment may be needed to match actual events in a subject's experience with the definitions of transition events (i.e., events that mark the start of new elements) in the TE table; actual events may vary from the plan. For instance, in a single-dose pharmacokinetics (PK) study, the transition events might correspond to study drug doses of 5 and 10 mg. If a subject actually received a dose of 7 mg when they were scheduled to receive 5 mg, a decision will have to be made on how to represent this in the SE domain.", "score": 0.19, "match_basis": "verbatim_token+domain_route:SE"}, {"md_atom_id": "md_dmSE_assn_a005", "md_file": "knowledge_base/domains/SE/assumptions.md", "md_atom_type": "LIST_ITEM", "md_parent_section": "§SE [SE — Assumptions]", "md_verbatim": "2. If the date/time of a transition element was not collected directly, the method used to infer the element start date/time should be explained in the Comments column of the Define-XML document.", "score": 0.19, "match_basis": "verbatim_token+domain_route:SE"}, {"md_atom_id": "md_dmSE_assn_a006", "md_file": "knowledge_base/domains/SE/assumptions.md", "md_atom_type": "LIST_ITEM", "md_parent_section": "§SE [SE — Assumptions]", "md_verbatim": "3. Judgment will also have to be used in deciding how to represent a subject's experience if an element does not proceed or end as planned. For instance, the plan might identify a trial element that is to start with the first of a series of 5 daily doses and end after 1 week, when the subject transitions to the next treatment element. If the subject actually started the next treatment epoch (see Section 7.1, Introduction to Trial Design Model Datasets, and Section 7.1.2, Definitions of Trial Design Concepts) after 4 weeks, the sponsor would have to decide whether to represent this as an abnormally long element, or as a normal element plus an unplanned non-treatment element.", "score": 0.19, "match_basis": "verbatim_token+domain_route:SE"}], "candidate_count": 10, "zero_candidate": false}
{"pdf_atom_id": "ig34_p0083_a020", "pdf_atom_type": "TABLE_HEADER", "pdf_source": "SDTMIG_v3.4", "pdf_page": 83, "pdf_parent_section": "§5.3 [Subject Elements (SE)]", "pdf_verbatim": "Row | USUBJID | SUBJID | RFSTDTC | RFENDTC | SITEID | INVNAM | BIRTHDTC | AGE | AGEU | SEX | RACE | ETHNIC | ARMCD | ARM | ACTARMCD | ACTARM | ARMNRS | ACTARMUD | COUNTRY", "figure_ref": null, "candidates": [{"md_atom_id": "md_dmSE_ex_a027", "md_file": "knowledge_base/domains/SE/examples.md", "md_atom_type": "TABLE_HEADER", "md_parent_section": "§SE.1 [Example 1]", "md_verbatim": "| Row | USUBJID | SUBJID | RFSTDTC | RFENDTC | SITEID | INVNAM | BRTHDTC | AGE | AGEU | SEX | RACE | ETHNIC | ARMCD | ARM | ACTARMCD | ACTARM | ARMNRS | ACTARMUD | COUNTRY |\n|-----|---------|--------|---------|---------|--------|--------|---------|-----|------|-----|------|--------|-------|-----|----------|--------|--------|----------|---------|", "score": 0.9667, "match_basis": "verbatim_token+domain_route:SE"}, {"md_atom_id": "md_dmSE_ex_a048", "md_file": "knowledge_base/domains/SE/examples.md", "md_atom_type": "TABLE_HEADER", "md_parent_section": "§SE.2 [Example 2]", "md_verbatim": "| Row | USUBJID | SUBJID | RFSTDTC | RFENDTC | SITEID | INVNAM | BRTHDTC | AGE | AGEU | SEX | RACE | ETHNIC | ARMCD | ARM | ACTARMCD | ACTARM | ARMNRS | ACTARMUD | COUNTRY |\n|-----|---------|--------|---------|---------|--------|--------|---------|-----|------|-----|------|--------|-------|-----|----------|--------|--------|----------|---------|", "score": 0.9667, "match_basis": "verbatim_token+domain_route:SE"}, {"md_atom_id": "md_dmSE_ex_a012", "md_file": "knowledge_base/domains/SE/examples.md", "md_atom_type": "TABLE_HEADER", "md_parent_section": "§SE.1 [Example 1]", "md_verbatim": "| Row | USUBJID | SESEQ | ETCD | SESTDTC | SEENDTC | SEUPDES | TAETORD | EPOCH |\n|-----|---------|-------|------|---------|---------|---------|---------|-------|", "score": 0.4892, "match_basis": "verbatim_token+domain_route:SE"}, {"md_atom_id": "md_dmSE_ex_a038", "md_file": "knowledge_base/domains/SE/examples.md", "md_atom_type": "TABLE_HEADER", "md_parent_section": "§SE.2 [Example 2]", "md_verbatim": "| Row | USUBJID | SESEQ | ETCD | SESTDTC | SEENDTC | SEUPDES | TAETORD | EPOCH |\n|-----|---------|-------|------|---------|---------|---------|---------|-------|", "score": 0.4892, "match_basis": "verbatim_token+domain_route:SE"}, {"md_atom_id": "md_dmSE_ex_a028", "md_file": "knowledge_base/domains/SE/examples.md", "md_atom_type": "TABLE_ROW", "md_parent_section": "§SE.1 [Example 1]", "md_verbatim": "| 1 | 789 | 001 | 2006-06-03 | 2006-06-17 | 01 | SMITH, J | 1948-12-13 | 57 | YEARS | M | WHITE | HISPANIC OR LATINO | IO | IV-ORAL | IO | IV-ORAL | | | USA |", "score": 0.3552, "match_basis": "verbatim_token+domain_route:SE"}], "candidate_count": 5, "zero_candidate": false}
{"pdf_atom_id": "ig34_p0083_a021", "pdf_atom_type": "TABLE_ROW", "pdf_source": "SDTMIG_v3.4", "pdf_page": 83, "pdf_parent_section": "§5.3 [Subject Elements (SE)]", "pdf_verbatim": "1 | 123 | 012 | 2006-06-03 | 2006-06-10 | 01 | JONES, D. | 1943-12-08 | 62 | YEARS | M | ASIAN | HISPANIC OR LATINO | A | A | A |  |  |  | USA", "figure_ref": null, "candidates": [{"md_atom_id": "md_dmSE_ex_a049", "md_file": "knowledge_base/domains/SE/examples.md", "md_atom_type": "TABLE_ROW", "md_parent_section": "§SE.2 [Example 2]", "md_verbatim": "| 1 | 123 | 012 | 2006-06-03 | 2006-06-10 | 01 | JONES, D | 1943-12-08 | 62 | YEARS | M | ASIAN | HISPANIC OR LATINO | A | A | A | A | | | USA |", "score": 1.0, "match_basis": "verbatim_token+domain_route:SE"}, {"md_atom_id": "md_dmSE_ex_a028", "md_file": "knowledge_base/domains/SE/examples.md", "md_atom_type": "TABLE_ROW", "md_parent_section": "§SE.1 [Example 1]", "md_verbatim": "| 1 | 789 | 001 | 2006-06-03 | 2006-06-17 | 01 | SMITH, J | 1948-12-13 | 57 | YEARS | M | WHITE | HISPANIC OR LATINO | IO | IV-ORAL | IO | IV-ORAL | | | USA |", "score": 0.6757, "match_basis": "verbatim_token+domain_route:SE"}, {"md_atom_id": "md_dmSE_ex_a029", "md_file": "knowledge_base/domains/SE/examples.md", "md_atom_type": "TABLE_ROW", "md_parent_section": "§SE.1 [Example 1]", "md_verbatim": "| 2 | 790 | 002 | 2006-06-03 | 2006-06-17 | 01 | SMITH, J | 1955-03-22 | 51 | YEARS | M | WHITE | NOT HISPANIC OR LATINO | OI | ORAL-IV | IO | IV-ORAL | | | USA |", "score": 0.6462, "match_basis": "verbatim_token+domain_route:SE"}, {"md_atom_id": "md_dmSE_ex_a030", "md_file": "knowledge_base/domains/SE/examples.md", "md_atom_type": "TABLE_ROW", "md_parent_section": "§SE.1 [Example 1]", "md_verbatim": "| 3 | 791 | 003 | 2006-06-03 | 2006-06-07 | 01 | SMITH, J | 1956-07-17 | 49 | YEARS | M | WHITE | NOT HISPANIC OR LATINO | IO | IV-ORAL | IO | IV-ORAL | | | USA |", "score": 0.6462, "match_basis": "verbatim_token+domain_route:SE"}, {"md_atom_id": "md_dmSE_ex_a050", "md_file": "knowledge_base/domains/SE/examples.md", "md_atom_type": "TABLE_ROW", "md_parent_section": "§SE.2 [Example 2]", "md_verbatim": "| 2 | 456 | 103 | 2006-05-03 | 2006-07-30 | 01 | JONES, D | 1950-05-15 | 55 | YEARS | F | WHITE | NOT HISPANIC OR LATINO | AR | A-Rescue | | | UNPLANNED TREATMENT | Drug B dispensed for part of Drug A element | USA |", "score": 0.5727, "match_basis": "verbatim_token+domain_route:SE"}], "candidate_count": 5, "zero_candidate": false}
{"pdf_atom_id": "ig34_p0084_a001", "pdf_atom_type": "TABLE_ROW", "pdf_source": "SDTMIG_v3.4", "pdf_page": 84, "pdf_parent_section": "§5.3 [Subject Elements (SE)]", "pdf_verbatim": "2 | 456 | 103 | 2006-05-03 | 2006-07-30 | 01 | JONES, D. | 1950-05-15 | 55 | YEARS | F | WHITE | NOT HISPANIC OR LATINO | AR | A-Rescue |  |  | UNPLANNED TREATMENT | Drug B dispensed for part of Drug A element | USA", "figure_ref": null, "candidates": [{"md_atom_id": "md_dmSE_ex_a050", "md_file": "knowledge_base/domains/SE/examples.md", "md_atom_type": "TABLE_ROW", "md_parent_section": "§SE.2 [Example 2]", "md_verbatim": "| 2 | 456 | 103 | 2006-05-03 | 2006-07-30 | 01 | JONES, D | 1950-05-15 | 55 | YEARS | F | WHITE | NOT HISPANIC OR LATINO | AR | A-Rescue | | | UNPLANNED TREATMENT | Drug B dispensed for part of Drug A element | USA |", "score": 1.0, "match_basis": "verbatim_token+domain_route:SE"}, {"md_atom_id": "md_dmSE_ex_a043", "md_file": "knowledge_base/domains/SE/examples.md", "md_atom_type": "TABLE_ROW", "md_parent_section": "§SE.2 [Example 2]", "md_verbatim": "| 5 | 456 | 3 | UNPLAN | 2006-05-31 | 2006-06-13 | Drug B dispensed in error | | BLINDED TREATMENT |", "score": 0.606, "match_basis": "verbatim_token+domain_route:SE"}, {"md_atom_id": "md_dmSE_ex_a029", "md_file": "knowledge_base/domains/SE/examples.md", "md_atom_type": "TABLE_ROW", "md_parent_section": "§SE.1 [Example 1]", "md_verbatim": "| 2 | 790 | 002 | 2006-06-03 | 2006-06-17 | 01 | SMITH, J | 1955-03-22 | 51 | YEARS | M | WHITE | NOT HISPANIC OR LATINO | OI | ORAL-IV | IO | IV-ORAL | | | USA |", "score": 0.5881, "match_basis": "verbatim_token+domain_route:SE"}, {"md_atom_id": "md_dmSE_ex_a030", "md_file": "knowledge_base/domains/SE/examples.md", "md_atom_type": "TABLE_ROW", "md_parent_section": "§SE.1 [Example 1]", "md_verbatim": "| 3 | 791 | 003 | 2006-06-03 | 2006-06-07 | 01 | SMITH, J | 1956-07-17 | 49 | YEARS | M | WHITE | NOT HISPANIC OR LATINO | IO | IV-ORAL | IO | IV-ORAL | | | USA |", "score": 0.5881, "match_basis": "verbatim_token+domain_route:SE"}, {"md_atom_id": "md_dmSE_ex_a049", "md_file": "knowledge_base/domains/SE/examples.md", "md_atom_type": "TABLE_ROW", "md_parent_section": "§SE.2 [Example 2]", "md_verbatim": "| 1 | 123 | 012 | 2006-06-03 | 2006-06-10 | 01 | JONES, D | 1943-12-08 | 62 | YEARS | M | ASIAN | HISPANIC OR LATINO | A | A | A | A | | | USA |", "score": 0.5727, "match_basis": "verbatim_token+domain_route:SE"}], "candidate_count": 5, "zero_candidate": false}
{"pdf_atom_id": "ig34_p0084_a002", "pdf_atom_type": "HEADING", "pdf_source": "SDTMIG_v3.4", "pdf_page": 84, "pdf_parent_section": "§5.4 [Subject Disease Milestones (SM)]", "pdf_verbatim": "5.4 Subject Disease Milestones (SM)", "figure_ref": null, "candidates": [{"md_atom_id": "md_dmSM_ex_a001", "md_file": "knowledge_base/domains/SM/examples.md", "md_atom_type": "HEADING", "md_parent_section": "§SM [SM — Examples]", "md_verbatim": "# SM — Examples", "score": 0.4261, "match_basis": "verbatim_token+domain_route:SM"}, {"md_atom_id": "md_dmSM_assn_a001", "md_file": "knowledge_base/domains/SM/assumptions.md", "md_atom_type": "HEADING", "md_parent_section": "§SM [SM — Assumptions]", "md_verbatim": "# SM — Assumptions", "score": 0.4, "match_basis": "verbatim_token+domain_route:SM"}, {"md_atom_id": "md_dmSM_ex_a002", "md_file": "knowledge_base/domains/SM/examples.md", "md_atom_type": "HEADING", "md_parent_section": "§SM [SM — Examples]", "md_verbatim": "## Example 1", "score": 0.4, "match_basis": "verbatim_token+domain_route:SM"}], "candidate_count": 3, "zero_candidate": false}
{"pdf_atom_id": "ig34_p0084_a003", "pdf_atom_type": "HEADING", "pdf_source": "SDTMIG_v3.4", "pdf_page": 84, "pdf_parent_section": "§5.4 [Subject Disease Milestones (SM)]", "pdf_verbatim": "SM – Description/Overview", "figure_ref": null, "candidates": [{"md_atom_id": "md_dmSM_assn_a001", "md_file": "knowledge_base/domains/SM/assumptions.md", "md_atom_type": "HEADING", "md_parent_section": "§SM [SM — Assumptions]", "md_verbatim": "# SM — Assumptions", "score": 0.4857, "match_basis": "verbatim_token+domain_route:SM"}, {"md_atom_id": "md_dmSM_ex_a001", "md_file": "knowledge_base/domains/SM/examples.md", "md_atom_type": "HEADING", "md_parent_section": "§SM [SM — Examples]", "md_verbatim": "# SM — Examples", "score": 0.4, "match_basis": "verbatim_token+domain_route:SM"}, {"md_atom_id": "md_dmSM_ex_a002", "md_file": "knowledge_base/domains/SM/examples.md", "md_atom_type": "HEADING", "md_parent_section": "§SM [SM — Examples]", "md_verbatim": "## Example 1", "score": 0.4, "match_basis": "verbatim_token+domain_route:SM"}], "candidate_count": 3, "zero_candidate": false}
{"pdf_atom_id": "ig34_p0084_a004", "pdf_atom_type": "SENTENCE", "pdf_source": "SDTMIG_v3.4", "pdf_page": 84, "pdf_parent_section": "§5.4 [Subject Disease Milestones (SM)]", "pdf_verbatim": "A special-purpose domain that is designed to record the timing, for each subject, of disease milestones that have been defined in the Trial Disease Milestones (TM) domain.", "figure_ref": null, "candidates": [{"md_atom_id": "md_dmSM_ex_a014", "md_file": "knowledge_base/domains/SM/examples.md", "md_atom_type": "SENTENCE", "md_parent_section": "§SM.1 [Example 1]", "md_verbatim": "The MH records for diabetes (MHEVDTYP = \"DIAGNOSIS\") are the records which represent the disease milestones for the defined MIDSTYPE of \"DIAGNOSIS\", so these records include the MIDS variable with the value \"DIAG\". Because these are records for disease milestones rather than associated records, the variables RELMIDS and MIDSDTC are not needed.", "score": 0.5157, "match_basis": "verbatim_token+domain_route:SM"}, {"md_atom_id": "md_dmSM_ex_a006", "md_file": "knowledge_base/domains/SM/examples.md", "md_atom_type": "SENTENCE", "md_parent_section": "§SM.1 [Example 1]", "md_verbatim": "**Row 4:** Shows that subject 002's initial diagnosis of diabetes occurred on May 15, 2010. Because a full date was collected, the study day of this disease milestone was populated. Diagnosis was pre-study, so the study day of the disease milestone is negative. No hypoglycemic events were recorded for this subject.", "score": 0.5083, "match_basis": "verbatim_token+domain_route:SM"}, {"md_atom_id": "md_dmSM_ex_a004", "md_file": "knowledge_base/domains/SM/examples.md", "md_atom_type": "SENTENCE", "md_parent_section": "§SM.1 [Example 1]", "md_verbatim": "**Row 1:** Shows that subject 001's initial diagnosis of diabetes occurred in October 2005. Because this is a partial date, SMDY is not populated. No end date/time was recorded for this milestone.", "score": 0.5033, "match_basis": "verbatim_token+domain_route:SM"}, {"md_atom_id": "md_dmSM_ex_a003", "md_file": "knowledge_base/domains/SM/examples.md", "md_atom_type": "SENTENCE", "md_parent_section": "§SM.1 [Example 1]", "md_verbatim": "In this study, the disease milestones of interest were initial diagnosis and hypoglycemic events, as shown in Section 7.3.3, Trial Disease Milestones, Example 1.", "score": 0.4973, "match_basis": "verbatim_token+domain_route:SM"}, {"md_atom_id": "md_dmSM_ex_a019", "md_file": "knowledge_base/domains/SM/examples.md", "md_atom_type": "SENTENCE", "md_parent_section": "§SM.1 [Example 1]", "md_verbatim": "In this study, information about hypoglycemic events was collected in a separate CRF module, and CE records recorded in this module were represented with CECAT = \"HYPOGLYCEMIC EVENT\". Each CE record for a hypoglycemic event is a disease milestone, and records for a study have distinct values of MIDS.", "score": 0.495, "match_basis": "verbatim_token+domain_route:SM"}], "candidate_count": 5, "zero_candidate": false}
{"pdf_atom_id": "ig34_p0084_a005", "pdf_atom_type": "HEADING", "pdf_source": "SDTMIG_v3.4", "pdf_page": 84, "pdf_parent_section": "§5.4 [Subject Disease Milestones (SM)]", "pdf_verbatim": "SM – Specification", "figure_ref": null, "candidates": [{"md_atom_id": "md_dmSM_assn_a001", "md_file": "knowledge_base/domains/SM/assumptions.md", "md_atom_type": "HEADING", "md_parent_section": "§SM [SM — Assumptions]", "md_verbatim": "# SM — Assumptions", "score": 0.4667, "match_basis": "verbatim_token+domain_route:SM"}, {"md_atom_id": "md_dmSM_ex_a001", "md_file": "knowledge_base/domains/SM/examples.md", "md_atom_type": "HEADING", "md_parent_section": "§SM [SM — Examples]", "md_verbatim": "# SM — Examples", "score": 0.4, "match_basis": "verbatim_token+domain_route:SM"}, {"md_atom_id": "md_dmSM_ex_a002", "md_file": "knowledge_base/domains/SM/examples.md", "md_atom_type": "HEADING", "md_parent_section": "§SM [SM — Examples]", "md_verbatim": "## Example 1", "score": 0.4, "match_basis": "verbatim_token+domain_route:SM"}], "candidate_count": 3, "zero_candidate": false}
{"pdf_atom_id": "ig34_p0084_a006", "pdf_atom_type": "HEADING", "pdf_source": "SDTMIG_v3.4", "pdf_page": 84, "pdf_parent_section": "§5.4 [Subject Disease Milestones (SM)]", "pdf_verbatim": "sm.xpt, Subject Disease Milestones — Special Purpose. One record per Disease Milestone per subject, Tabulation.", "figure_ref": null, "candidates": [{"md_atom_id": "md_dmSM_assn_a001", "md_file": "knowledge_base/domains/SM/assumptions.md", "md_atom_type": "HEADING", "md_parent_section": "§SM [SM — Assumptions]", "md_verbatim": "# SM — Assumptions", "score": 0.4245, "match_basis": "verbatim_token+domain_route:SM"}, {"md_atom_id": "md_dmSM_ex_a001", "md_file": "knowledge_base/domains/SM/examples.md", "md_atom_type": "HEADING", "md_parent_section": "§SM [SM — Examples]", "md_verbatim": "# SM — Examples", "score": 0.4128, "match_basis": "verbatim_token+domain_route:SM"}, {"md_atom_id": "md_dmSM_ex_a002", "md_file": "knowledge_base/domains/SM/examples.md", "md_atom_type": "HEADING", "md_parent_section": "§SM [SM — Examples]", "md_verbatim": "## Example 1", "score": 0.4, "match_basis": "verbatim_token+domain_route:SM"}], "candidate_count": 3, "zero_candidate": false}
{"pdf_atom_id": "ig34_p0084_a007", "pdf_atom_type": "TABLE_HEADER", "pdf_source": "SDTMIG_v3.4", "pdf_page": 84, "pdf_parent_section": "§5.4 [Subject Disease Milestones (SM)]", "pdf_verbatim": "Variable Name | Variable Label | Type | Controlled Terms, Codelist or Format¹ | Role | CDISC Notes | Core", "figure_ref": null, "candidates": [{"md_atom_id": "md_dmSM_ex_a016", "md_file": "knowledge_base/domains/SM/examples.md", "md_atom_type": "TABLE_HEADER", "md_parent_section": "§SM.1 [Example 1]", "md_verbatim": "| Row | STUDYID | DOMAIN | USUBJID | MHSEQ | MHTERM | MHDECOD | MHEVDTYP | MHPRESP | MHOCCUR | MHDTC | MHSTDTC | MHENDTC | MHDY | MIDS |", "score": 0.4258, "match_basis": "verbatim_token+domain_route:SM"}, {"md_atom_id": "md_dmSM_ex_a021", "md_file": "knowledge_base/domains/SM/examples.md", "md_atom_type": "TABLE_HEADER", "md_parent_section": "§SM.1 [Example 1]", "md_verbatim": "| Row | STUDYID | DOMAIN | USUBJID | CESEQ | CETERM | CEDECOD | CECAT | CEPRESP | CEOCCUR | CESTDTC | CEENDTC | MIDS |", "score": 0.42, "match_basis": "verbatim_token+domain_route:SM"}, {"md_atom_id": "md_dmSM_ex_a008", "md_file": "knowledge_base/domains/SM/examples.md", "md_atom_type": "TABLE_HEADER", "md_parent_section": "§SM.1 [Example 1]", "md_verbatim": "| Row | STUDYID | DOMAIN | USUBJID | SMSEQ | MIDS | MIDSTYPE | SMSTDTC | SMENDTC | SMSTDY | SMENDY |", "score": 0.416, "match_basis": "verbatim_token+domain_route:SM"}, {"md_atom_id": "md_dmSM_ex_a018", "md_file": "knowledge_base/domains/SM/examples.md", "md_atom_type": "TABLE_ROW", "md_parent_section": "§SM.1 [Example 1]", "md_verbatim": "| 2 | XYZ | MH | 002 | 1 | TYPE 2 DIABETES | Type 2 diabetes mellitus | DIAGNOSIS | Y | Y | 2013-08-06 | 2010-05-15 | | 1 | DIAG |", "score": 0.3876, "match_basis": "verbatim_token+domain_route:SM"}, {"md_atom_id": "md_dmSM_ex_a017", "md_file": "knowledge_base/domains/SM/examples.md", "md_atom_type": "TABLE_ROW", "md_parent_section": "§SM.1 [Example 1]", "md_verbatim": "| 1 | XYZ | MH | 001 | 1 | TYPE 2 DIABETES | Type 2 diabetes mellitus | DIAGNOSIS | Y | Y | 2013-08-06 | 2005-10 | | | DIAG |", "score": 0.3869, "match_basis": "verbatim_token+domain_route:SM"}], "candidate_count": 5, "zero_candidate": false}
{"pdf_atom_id": "ig34_p0084_a008", "pdf_atom_type": "TABLE_ROW", "pdf_source": "SDTMIG_v3.4", "pdf_page": 84, "pdf_parent_section": "§5.4 [Subject Disease Milestones (SM)]", "pdf_verbatim": "STUDYID | Study Identifier | Char |  | Identifier | Unique identifier for a study. | Req", "figure_ref": null, "candidates": [{"md_atom_id": "md_dmSM_ex_a011", "md_file": "knowledge_base/domains/SM/examples.md", "md_atom_type": "TABLE_ROW", "md_parent_section": "§SM.1 [Example 1]", "md_verbatim": "| 3 | XYZ | SM | 001 | 3 | HYPO2 | HYPOGLYCEMIC EVENT | 2013-09-24T6:48 | | 50 | |", "score": 0.415, "match_basis": "verbatim_token+domain_route:SM"}, {"md_atom_id": "md_dmSM_ex_a010", "md_file": "knowledge_base/domains/SM/examples.md", "md_atom_type": "TABLE_ROW", "md_parent_section": "§SM.1 [Example 1]", "md_verbatim": "| 2 | XYZ | SM | 001 | 2 | HYPO1 | HYPOGLYCEMIC EVENT | 2013-09-01T11:00 | | 25 | |", "score": 0.4146, "match_basis": "verbatim_token+domain_route:SM"}, {"md_atom_id": "md_dmSM_ex_a022", "md_file": "knowledge_base/domains/SM/examples.md", "md_atom_type": "TABLE_ROW", "md_parent_section": "§SM.1 [Example 1]", "md_verbatim": "| 1 | XYZ | CE | 001 | 1 | HYPOGLYCEMIC EVENT | Hypoglycaemia | HYPOGLYCEMIC EVENT | Y | Y | 2013-09-01T11:00 | 2013-09-01T12:30 | HYPO1 |", "score": 0.413, "match_basis": "verbatim_token+domain_route:SM"}, {"md_atom_id": "md_dmSM_ex_a023", "md_file": "knowledge_base/domains/SM/examples.md", "md_atom_type": "TABLE_ROW", "md_parent_section": "§SM.1 [Example 1]", "md_verbatim": "| 2 | XYZ | CE | 001 | 2 | HYPOGLYCEMIC EVENT | Hypoglycaemia | HYPOGLYCEMIC EVENT | Y | Y | 2013-09-24T6:48 | 2013-09-24T10:00 | HYPO2 |", "score": 0.413, "match_basis": "verbatim_token+domain_route:SM"}, {"md_atom_id": "md_dmSM_ex_a008", "md_file": "knowledge_base/domains/SM/examples.md", "md_atom_type": "TABLE_HEADER", "md_parent_section": "§SM.1 [Example 1]", "md_verbatim": "| Row | STUDYID | DOMAIN | USUBJID | SMSEQ | MIDS | MIDSTYPE | SMSTDTC | SMENDTC | SMSTDY | SMENDY |", "score": 0.4, "match_basis": "verbatim_token+domain_route:SM"}], "candidate_count": 5, "zero_candidate": false}
{"pdf_atom_id": "ig34_p0084_a009", "pdf_atom_type": "TABLE_ROW", "pdf_source": "SDTMIG_v3.4", "pdf_page": 84, "pdf_parent_section": "§5.4 [Subject Disease Milestones (SM)]", "pdf_verbatim": "DOMAIN | Domain Abbreviation | Char | SM | Identifier | Two-character abbreviation for the domain. | Req", "figure_ref": null, "candidates": [{"md_atom_id": "md_dmSM_ex_a011", "md_file": "knowledge_base/domains/SM/examples.md", "md_atom_type": "TABLE_ROW", "md_parent_section": "§SM.1 [Example 1]", "md_verbatim": "| 3 | XYZ | SM | 001 | 3 | HYPO2 | HYPOGLYCEMIC EVENT | 2013-09-24T6:48 | | 50 | |", "score": 0.4115, "match_basis": "verbatim_token+domain_route:SM"}, {"md_atom_id": "md_dmSM_ex_a010", "md_file": "knowledge_base/domains/SM/examples.md", "md_atom_type": "TABLE_ROW", "md_parent_section": "§SM.1 [Example 1]", "md_verbatim": "| 2 | XYZ | SM | 001 | 2 | HYPO1 | HYPOGLYCEMIC EVENT | 2013-09-01T11:00 | | 25 | |", "score": 0.4113, "match_basis": "verbatim_token+domain_route:SM"}, {"md_atom_id": "md_dmSM_ex_a022", "md_file": "knowledge_base/domains/SM/examples.md", "md_atom_type": "TABLE_ROW", "md_parent_section": "§SM.1 [Example 1]", "md_verbatim": "| 1 | XYZ | CE | 001 | 1 | HYPOGLYCEMIC EVENT | Hypoglycaemia | HYPOGLYCEMIC EVENT | Y | Y | 2013-09-01T11:00 | 2013-09-01T12:30 | HYPO1 |", "score": 0.4103, "match_basis": "verbatim_token+domain_route:SM"}, {"md_atom_id": "md_dmSM_ex_a023", "md_file": "knowledge_base/domains/SM/examples.md", "md_atom_type": "TABLE_ROW", "md_parent_section": "§SM.1 [Example 1]", "md_verbatim": "| 2 | XYZ | CE | 001 | 2 | HYPOGLYCEMIC EVENT | Hypoglycaemia | HYPOGLYCEMIC EVENT | Y | Y | 2013-09-24T6:48 | 2013-09-24T10:00 | HYPO2 |", "score": 0.4103, "match_basis": "verbatim_token+domain_route:SM"}, {"md_atom_id": "md_dmSM_ex_a009", "md_file": "knowledge_base/domains/SM/examples.md", "md_atom_type": "TABLE_ROW", "md_parent_section": "§SM.1 [Example 1]", "md_verbatim": "| 1 | XYZ | SM | 001 | 1 | DIAG | DIAGNOSIS | 2005-10 | | | |", "score": 0.4, "match_basis": "verbatim_token+domain_route:SM"}], "candidate_count": 5, "zero_candidate": false}
{"pdf_atom_id": "ig34_p0084_a010", "pdf_atom_type": "TABLE_ROW", "pdf_source": "SDTMIG_v3.4", "pdf_page": 84, "pdf_parent_section": "§5.4 [Subject Disease Milestones (SM)]", "pdf_verbatim": "USUBJID | Unique Subject Identifier | Char |  | Identifier | Identifier used to uniquely identify a subject across all studies for all applications or submissions involving the product. | Req", "figure_ref": null, "candidates": [{"md_atom_id": "md_dmSM_ex_a011", "md_file": "knowledge_base/domains/SM/examples.md", "md_atom_type": "TABLE_ROW", "md_parent_section": "§SM.1 [Example 1]", "md_verbatim": "| 3 | XYZ | SM | 001 | 3 | HYPO2 | HYPOGLYCEMIC EVENT | 2013-09-24T6:48 | | 50 | |", "score": 0.4069, "match_basis": "verbatim_token+domain_route:SM"}, {"md_atom_id": "md_dmSM_ex_a010", "md_file": "knowledge_base/domains/SM/examples.md", "md_atom_type": "TABLE_ROW", "md_parent_section": "§SM.1 [Example 1]", "md_verbatim": "| 2 | XYZ | SM | 001 | 2 | HYPO1 | HYPOGLYCEMIC EVENT | 2013-09-01T11:00 | | 25 | |", "score": 0.4068, "match_basis": "verbatim_token+domain_route:SM"}, {"md_atom_id": "md_dmSM_ex_a022", "md_file": "knowledge_base/domains/SM/examples.md", "md_atom_type": "TABLE_ROW", "md_parent_section": "§SM.1 [Example 1]", "md_verbatim": "| 1 | XYZ | CE | 001 | 1 | HYPOGLYCEMIC EVENT | Hypoglycaemia | HYPOGLYCEMIC EVENT | Y | Y | 2013-09-01T11:00 | 2013-09-01T12:30 | HYPO1 |", "score": 0.4065, "match_basis": "verbatim_token+domain_route:SM"}, {"md_atom_id": "md_dmSM_ex_a023", "md_file": "knowledge_base/domains/SM/examples.md", "md_atom_type": "TABLE_ROW", "md_parent_section": "§SM.1 [Example 1]", "md_verbatim": "| 2 | XYZ | CE | 001 | 2 | HYPOGLYCEMIC EVENT | Hypoglycaemia | HYPOGLYCEMIC EVENT | Y | Y | 2013-09-24T6:48 | 2013-09-24T10:00 | HYPO2 |", "score": 0.4065, "match_basis": "verbatim_token+domain_route:SM"}, {"md_atom_id": "md_dmSM_ex_a009", "md_file": "knowledge_base/domains/SM/examples.md", "md_atom_type": "TABLE_ROW", "md_parent_section": "§SM.1 [Example 1]", "md_verbatim": "| 1 | XYZ | SM | 001 | 1 | DIAG | DIAGNOSIS | 2005-10 | | | |", "score": 0.4, "match_basis": "verbatim_token+domain_route:SM"}], "candidate_count": 5, "zero_candidate": false}
{"pdf_atom_id": "ig34_p0084_a011", "pdf_atom_type": "TABLE_ROW", "pdf_source": "SDTMIG_v3.4", "pdf_page": 84, "pdf_parent_section": "§5.4 [Subject Disease Milestones (SM)]", "pdf_verbatim": "SMSEQ | Sequence Number | Num |  | Identifier | Sequence number to ensure uniqueness of subject records. Should be assigned to be consistent chronological order. | Req", "figure_ref": null, "candidates": [{"md_atom_id": "md_dmSM_ex_a009", "md_file": "knowledge_base/domains/SM/examples.md", "md_atom_type": "TABLE_ROW", "md_parent_section": "§SM.1 [Example 1]", "md_verbatim": "| 1 | XYZ | SM | 001 | 1 | DIAG | DIAGNOSIS | 2005-10 | | | |", "score": 0.4074, "match_basis": "verbatim_token+domain_route:SM"}, {"md_atom_id": "md_dmSM_ex_a012", "md_file": "knowledge_base/domains/SM/examples.md", "md_atom_type": "TABLE_ROW", "md_parent_section": "§SM.1 [Example 1]", "md_verbatim": "| 4 | XYZ | SM | 002 | 1 | DIAG | DIAGNOSIS | 2010-05-15 | | -1046 | |", "score": 0.4072, "match_basis": "verbatim_token+domain_route:SM"}, {"md_atom_id": "md_dmSM_ex_a011", "md_file": "knowledge_base/domains/SM/examples.md", "md_atom_type": "TABLE_ROW", "md_parent_section": "§SM.1 [Example 1]", "md_verbatim": "| 3 | XYZ | SM | 001 | 3 | HYPO2 | HYPOGLYCEMIC EVENT | 2013-09-24T6:48 | | 50 | |", "score": 0.4067, "match_basis": "verbatim_token+domain_route:SM"}, {"md_atom_id": "md_dmSM_ex_a010", "md_file": "knowledge_base/domains/SM/examples.md", "md_atom_type": "TABLE_ROW", "md_parent_section": "§SM.1 [Example 1]", "md_verbatim": "| 2 | XYZ | SM | 001 | 2 | HYPO1 | HYPOGLYCEMIC EVENT | 2013-09-01T11:00 | | 25 | |", "score": 0.4066, "match_basis": "verbatim_token+domain_route:SM"}, {"md_atom_id": "md_dmSM_ex_a018", "md_file": "knowledge_base/domains/SM/examples.md", "md_atom_type": "TABLE_ROW", "md_parent_section": "§SM.1 [Example 1]", "md_verbatim": "| 2 | XYZ | MH | 002 | 1 | TYPE 2 DIABETES | Type 2 diabetes mellitus | DIAGNOSIS | Y | Y | 2013-08-06 | 2010-05-15 | | 1 | DIAG |", "score": 0.4063, "match_basis": "verbatim_token+domain_route:SM"}], "candidate_count": 5, "zero_candidate": false}
{"pdf_atom_id": "ig34_p0084_a012", "pdf_atom_type": "TABLE_ROW", "pdf_source": "SDTMIG_v3.4", "pdf_page": 84, "pdf_parent_section": "§5.4 [Subject Disease Milestones (SM)]", "pdf_verbatim": "MIDS | Disease Milestone Instance Name | Char | * | Topic | Name of the specific disease milestone. For types of disease milestones that can occur multiple times, the name will end with a sequence number. Example: \"HYPO1\". | Req", "figure_ref": null, "candidates": [{"md_atom_id": "md_dmSM_assn_a005", "md_file": "knowledge_base/domains/SM/assumptions.md", "md_atom_type": "LIST_ITEM", "md_parent_section": "§SM [SM — Assumptions]", "md_verbatim": "   b. For types of disease milestones that can occur multiple times, MIDS will usually be an abbreviated version of MIDSTYPE and will always end with a sequence number. Sequence numbers should start with 1 and indicate the chronological order of the instances of this type of disease milestone.", "score": 0.4758, "match_basis": "verbatim_token+domain_route:SM"}, {"md_atom_id": "md_dmSM_ex_a010", "md_file": "knowledge_base/domains/SM/examples.md", "md_atom_type": "TABLE_ROW", "md_parent_section": "§SM.1 [Example 1]", "md_verbatim": "| 2 | XYZ | SM | 001 | 2 | HYPO1 | HYPOGLYCEMIC EVENT | 2013-09-01T11:00 | | 25 | |", "score": 0.4191, "match_basis": "verbatim_token+domain_route:SM"}, {"md_atom_id": "md_dmSM_ex_a022", "md_file": "knowledge_base/domains/SM/examples.md", "md_atom_type": "TABLE_ROW", "md_parent_section": "§SM.1 [Example 1]", "md_verbatim": "| 1 | XYZ | CE | 001 | 1 | HYPOGLYCEMIC EVENT | Hypoglycaemia | HYPOGLYCEMIC EVENT | Y | Y | 2013-09-01T11:00 | 2013-09-01T12:30 | HYPO1 |", "score": 0.4182, "match_basis": "verbatim_token+domain_route:SM"}, {"md_atom_id": "md_dmSM_ex_a011", "md_file": "knowledge_base/domains/SM/examples.md", "md_atom_type": "TABLE_ROW", "md_parent_section": "§SM.1 [Example 1]", "md_verbatim": "| 3 | XYZ | SM | 001 | 3 | HYPO2 | HYPOGLYCEMIC EVENT | 2013-09-24T6:48 | | 50 | |", "score": 0.4128, "match_basis": "verbatim_token+domain_route:SM"}, {"md_atom_id": "md_dmSM_ex_a018", "md_file": "knowledge_base/domains/SM/examples.md", "md_atom_type": "TABLE_ROW", "md_parent_section": "§SM.1 [Example 1]", "md_verbatim": "| 2 | XYZ | MH | 002 | 1 | TYPE 2 DIABETES | Type 2 diabetes mellitus | DIAGNOSIS | Y | Y | 2013-08-06 | 2010-05-15 | | 1 | DIAG |", "score": 0.4121, "match_basis": "verbatim_token+domain_route:SM"}], "candidate_count": 5, "zero_candidate": false}
{"pdf_atom_id": "ig34_p0084_a013", "pdf_atom_type": "TABLE_ROW", "pdf_source": "SDTMIG_v3.4", "pdf_page": 84, "pdf_parent_section": "§5.4 [Subject Disease Milestones (SM)]", "pdf_verbatim": "MIDSTYPE | Disease Milestone Type | Char | * | Record Qualifier | The type of disease milestone. Example: \"HYPOGLYCEMIC EVENT\". | Req", "figure_ref": null, "candidates": [{"md_atom_id": "md_dmSM_ex_a011", "md_file": "knowledge_base/domains/SM/examples.md", "md_atom_type": "TABLE_ROW", "md_parent_section": "§SM.1 [Example 1]", "md_verbatim": "| 3 | XYZ | SM | 001 | 3 | HYPO2 | HYPOGLYCEMIC EVENT | 2013-09-24T6:48 | | 50 | |", "score": 0.5345, "match_basis": "verbatim_token+domain_route:SM"}, {"md_atom_id": "md_dmSM_ex_a010", "md_file": "knowledge_base/domains/SM/examples.md", "md_atom_type": "TABLE_ROW", "md_parent_section": "§SM.1 [Example 1]", "md_verbatim": "| 2 | XYZ | SM | 001 | 2 | HYPO1 | HYPOGLYCEMIC EVENT | 2013-09-01T11:00 | | 25 | |", "score": 0.5322, "match_basis": "verbatim_token+domain_route:SM"}, {"md_atom_id": "md_dmSM_ex_a022", "md_file": "knowledge_base/domains/SM/examples.md", "md_atom_type": "TABLE_ROW", "md_parent_section": "§SM.1 [Example 1]", "md_verbatim": "| 1 | XYZ | CE | 001 | 1 | HYPOGLYCEMIC EVENT | Hypoglycaemia | HYPOGLYCEMIC EVENT | Y | Y | 2013-09-01T11:00 | 2013-09-01T12:30 | HYPO1 |", "score": 0.5219, "match_basis": "verbatim_token+domain_route:SM"}, {"md_atom_id": "md_dmSM_ex_a023", "md_file": "knowledge_base/domains/SM/examples.md", "md_atom_type": "TABLE_ROW", "md_parent_section": "§SM.1 [Example 1]", "md_verbatim": "| 2 | XYZ | CE | 001 | 2 | HYPOGLYCEMIC EVENT | Hypoglycaemia | HYPOGLYCEMIC EVENT | Y | Y | 2013-09-24T6:48 | 2013-09-24T10:00 | HYPO2 |", "score": 0.5219, "match_basis": "verbatim_token+domain_route:SM"}, {"md_atom_id": "md_dmSM_ex_a003", "md_file": "knowledge_base/domains/SM/examples.md", "md_atom_type": "SENTENCE", "md_parent_section": "§SM.1 [Example 1]", "md_verbatim": "In this study, the disease milestones of interest were initial diagnosis and hypoglycemic events, as shown in Section 7.3.3, Trial Disease Milestones, Example 1.", "score": 0.4338, "match_basis": "verbatim_token+domain_route:SM"}], "candidate_count": 5, "zero_candidate": false}
{"pdf_atom_id": "ig34_p0084_a014", "pdf_atom_type": "TABLE_ROW", "pdf_source": "SDTMIG_v3.4", "pdf_page": 84, "pdf_parent_section": "§5.4 [Subject Disease Milestones (SM)]", "pdf_verbatim": "SMSTDTC | Start Date/Time of Milestone | Char | ISO 8601 datetime or interval | Timing | Start date/time of milestone instance (if milestone is an intervention or event) or date of milestone (if Milestone is a finding). | Exp", "figure_ref": null, "candidates": [{"md_atom_id": "md_dmSM_ex_a011", "md_file": "knowledge_base/domains/SM/examples.md", "md_atom_type": "TABLE_ROW", "md_parent_section": "§SM.1 [Example 1]", "md_verbatim": "| 3 | XYZ | SM | 001 | 3 | HYPO2 | HYPOGLYCEMIC EVENT | 2013-09-24T6:48 | | 50 | |", "score": 0.4261, "match_basis": "verbatim_token+domain_route:SM"}, {"md_atom_id": "md_dmSM_ex_a010", "md_file": "knowledge_base/domains/SM/examples.md", "md_atom_type": "TABLE_ROW", "md_parent_section": "§SM.1 [Example 1]", "md_verbatim": "| 2 | XYZ | SM | 001 | 2 | HYPO1 | HYPOGLYCEMIC EVENT | 2013-09-01T11:00 | | 25 | |", "score": 0.4257, "match_basis": "verbatim_token+domain_route:SM"}, {"md_atom_id": "md_dmSM_ex_a022", "md_file": "knowledge_base/domains/SM/examples.md", "md_atom_type": "TABLE_ROW", "md_parent_section": "§SM.1 [Example 1]", "md_verbatim": "| 1 | XYZ | CE | 001 | 1 | HYPOGLYCEMIC EVENT | Hypoglycaemia | HYPOGLYCEMIC EVENT | Y | Y | 2013-09-01T11:00 | 2013-09-01T12:30 | HYPO1 |", "score": 0.424, "match_basis": "verbatim_token+domain_route:SM"}, {"md_atom_id": "md_dmSM_ex_a023", "md_file": "knowledge_base/domains/SM/examples.md", "md_atom_type": "TABLE_ROW", "md_parent_section": "§SM.1 [Example 1]", "md_verbatim": "| 2 | XYZ | CE | 001 | 2 | HYPOGLYCEMIC EVENT | Hypoglycaemia | HYPOGLYCEMIC EVENT | Y | Y | 2013-09-24T6:48 | 2013-09-24T10:00 | HYPO2 |", "score": 0.424, "match_basis": "verbatim_token+domain_route:SM"}, {"md_atom_id": "md_dmSM_assn_a009", "md_file": "knowledge_base/domains/SM/assumptions.md", "md_atom_type": "LIST_ITEM", "md_parent_section": "§SM [SM — Assumptions]", "md_verbatim": "   c. The end date/time for the disease milestone is less important than the start date/time. It will not be populated if the disease milestone is a finding without an end date/time or if it is an event or intervention for which an end date/time has not yet occurred or was not collected.", "score": 0.4042, "match_basis": "verbatim_token+domain_route:SM"}], "candidate_count": 5, "zero_candidate": false}
{"pdf_atom_id": "ig34_p0084_a015", "pdf_atom_type": "TABLE_ROW", "pdf_source": "SDTMIG_v3.4", "pdf_page": 84, "pdf_parent_section": "§5.4 [Subject Disease Milestones (SM)]", "pdf_verbatim": "SMENDTC | End Date/Time of Milestone | Char | ISO 8601 datetime or interval | Timing | End date/time of disease milestone instance. | Exp", "figure_ref": null, "candidates": [{"md_atom_id": "md_dmSM_ex_a009", "md_file": "knowledge_base/domains/SM/examples.md", "md_atom_type": "TABLE_ROW", "md_parent_section": "§SM.1 [Example 1]", "md_verbatim": "| 1 | XYZ | SM | 001 | 1 | DIAG | DIAGNOSIS | 2005-10 | | | |", "score": 0.4, "match_basis": "verbatim_token+domain_route:SM"}, {"md_atom_id": "md_dmSM_ex_a010", "md_file": "knowledge_base/domains/SM/examples.md", "md_atom_type": "TABLE_ROW", "md_parent_section": "§SM.1 [Example 1]", "md_verbatim": "| 2 | XYZ | SM | 001 | 2 | HYPO1 | HYPOGLYCEMIC EVENT | 2013-09-01T11:00 | | 25 | |", "score": 0.4, "match_basis": "verbatim_token+domain_route:SM"}, {"md_atom_id": "md_dmSM_ex_a011", "md_file": "knowledge_base/domains/SM/examples.md", "md_atom_type": "TABLE_ROW", "md_parent_section": "§SM.1 [Example 1]", "md_verbatim": "| 3 | XYZ | SM | 001 | 3 | HYPO2 | HYPOGLYCEMIC EVENT | 2013-09-24T6:48 | | 50 | |", "score": 0.4, "match_basis": "verbatim_token+domain_route:SM"}, {"md_atom_id": "md_dmSM_ex_a012", "md_file": "knowledge_base/domains/SM/examples.md", "md_atom_type": "TABLE_ROW", "md_parent_section": "§SM.1 [Example 1]", "md_verbatim": "| 4 | XYZ | SM | 002 | 1 | DIAG | DIAGNOSIS | 2010-05-15 | | -1046 | |", "score": 0.4, "match_basis": "verbatim_token+domain_route:SM"}, {"md_atom_id": "md_dmSM_ex_a017", "md_file": "knowledge_base/domains/SM/examples.md", "md_atom_type": "TABLE_ROW", "md_parent_section": "§SM.1 [Example 1]", "md_verbatim": "| 1 | XYZ | MH | 001 | 1 | TYPE 2 DIABETES | Type 2 diabetes mellitus | DIAGNOSIS | Y | Y | 2013-08-06 | 2005-10 | | | DIAG |", "score": 0.4, "match_basis": "verbatim_token+domain_route:SM"}], "candidate_count": 5, "zero_candidate": false}
{"pdf_atom_id": "ig34_p0084_a016", "pdf_atom_type": "TABLE_ROW", "pdf_source": "SDTMIG_v3.4", "pdf_page": 84, "pdf_parent_section": "§5.4 [Subject Disease Milestones (SM)]", "pdf_verbatim": "SMSTDY | Study Day of Start of Milestone | Num |  | Timing | Study day of start of disease milestone instance, relative to the sponsor-defined RFSTDTC. | Exp", "figure_ref": null, "candidates": [{"md_atom_id": "md_dmSM_assn_a006", "md_file": "knowledge_base/domains/SM/assumptions.md", "md_atom_type": "LIST_ITEM", "md_parent_section": "§SM [SM — Assumptions]", "md_verbatim": "3. The timing variables SMSTDTC and SMENDTC hold start and end date/times of data collected for the disease milestone(s) for each subject. SMSTDY and SMENDY represent the corresponding study day variables.", "score": 0.4082, "match_basis": "verbatim_token+domain_route:SM"}, {"md_atom_id": "md_dmSM_ex_a008", "md_file": "knowledge_base/domains/SM/examples.md", "md_atom_type": "TABLE_HEADER", "md_parent_section": "§SM.1 [Example 1]", "md_verbatim": "| Row | STUDYID | DOMAIN | USUBJID | SMSEQ | MIDS | MIDSTYPE | SMSTDTC | SMENDTC | SMSTDY | SMENDY |", "score": 0.4075, "match_basis": "verbatim_token+domain_route:SM"}, {"md_atom_id": "md_dmSM_ex_a009", "md_file": "knowledge_base/domains/SM/examples.md", "md_atom_type": "TABLE_ROW", "md_parent_section": "§SM.1 [Example 1]", "md_verbatim": "| 1 | XYZ | SM | 001 | 1 | DIAG | DIAGNOSIS | 2005-10 | | | |", "score": 0.4, "match_basis": "verbatim_token+domain_route:SM"}, {"md_atom_id": "md_dmSM_ex_a010", "md_file": "knowledge_base/domains/SM/examples.md", "md_atom_type": "TABLE_ROW", "md_parent_section": "§SM.1 [Example 1]", "md_verbatim": "| 2 | XYZ | SM | 001 | 2 | HYPO1 | HYPOGLYCEMIC EVENT | 2013-09-01T11:00 | | 25 | |", "score": 0.4, "match_basis": "verbatim_token+domain_route:SM"}, {"md_atom_id": "md_dmSM_ex_a011", "md_file": "knowledge_base/domains/SM/examples.md", "md_atom_type": "TABLE_ROW", "md_parent_section": "§SM.1 [Example 1]", "md_verbatim": "| 3 | XYZ | SM | 001 | 3 | HYPO2 | HYPOGLYCEMIC EVENT | 2013-09-24T6:48 | | 50 | |", "score": 0.4, "match_basis": "verbatim_token+domain_route:SM"}], "candidate_count": 5, "zero_candidate": false}
{"pdf_atom_id": "ig34_p0084_a017", "pdf_atom_type": "TABLE_ROW", "pdf_source": "SDTMIG_v3.4", "pdf_page": 84, "pdf_parent_section": "§5.4 [Subject Disease Milestones (SM)]", "pdf_verbatim": "SMENDY | Study Day of End of Milestone | Num |  | Timing | Study day of end of disease milestone instance, relative to the sponsor-defined RFSTDTC. | Exp", "figure_ref": null, "candidates": [{"md_atom_id": "md_dmSM_ex_a008", "md_file": "knowledge_base/domains/SM/examples.md", "md_atom_type": "TABLE_HEADER", "md_parent_section": "§SM.1 [Example 1]", "md_verbatim": "| Row | STUDYID | DOMAIN | USUBJID | SMSEQ | MIDS | MIDSTYPE | SMSTDTC | SMENDTC | SMSTDY | SMENDY |", "score": 0.4169, "match_basis": "verbatim_token+domain_route:SM"}, {"md_atom_id": "md_dmSM_assn_a006", "md_file": "knowledge_base/domains/SM/assumptions.md", "md_atom_type": "LIST_ITEM", "md_parent_section": "§SM [SM — Assumptions]", "md_verbatim": "3. The timing variables SMSTDTC and SMENDTC hold start and end date/times of data collected for the disease milestone(s) for each subject. SMSTDY and SMENDY represent the corresponding study day variables.", "score": 0.4024, "match_basis": "verbatim_token+domain_route:SM"}, {"md_atom_id": "md_dmSM_ex_a009", "md_file": "knowledge_base/domains/SM/examples.md", "md_atom_type": "TABLE_ROW", "md_parent_section": "§SM.1 [Example 1]", "md_verbatim": "| 1 | XYZ | SM | 001 | 1 | DIAG | DIAGNOSIS | 2005-10 | | | |", "score": 0.4, "match_basis": "verbatim_token+domain_route:SM"}, {"md_atom_id": "md_dmSM_ex_a010", "md_file": "knowledge_base/domains/SM/examples.md", "md_atom_type": "TABLE_ROW", "md_parent_section": "§SM.1 [Example 1]", "md_verbatim": "| 2 | XYZ | SM | 001 | 2 | HYPO1 | HYPOGLYCEMIC EVENT | 2013-09-01T11:00 | | 25 | |", "score": 0.4, "match_basis": "verbatim_token+domain_route:SM"}, {"md_atom_id": "md_dmSM_ex_a011", "md_file": "knowledge_base/domains/SM/examples.md", "md_atom_type": "TABLE_ROW", "md_parent_section": "§SM.1 [Example 1]", "md_verbatim": "| 3 | XYZ | SM | 001 | 3 | HYPO2 | HYPOGLYCEMIC EVENT | 2013-09-24T6:48 | | 50 | |", "score": 0.4, "match_basis": "verbatim_token+domain_route:SM"}], "candidate_count": 5, "zero_candidate": false}
{"pdf_atom_id": "ig34_p0084_a018", "pdf_atom_type": "NOTE", "pdf_source": "SDTMIG_v3.4", "pdf_page": 84, "pdf_parent_section": "§5.4 [Subject Disease Milestones (SM)]", "pdf_verbatim": "¹In this column, an asterisk (*) indicates that the variable may be subject to controlled terminology. CDISC/NCI codelist values are enclosed in parentheses.", "figure_ref": null, "candidates": [{"md_atom_id": "md_dmSM_ex_a005", "md_file": "knowledge_base/domains/SM/examples.md", "md_atom_type": "SENTENCE", "md_parent_section": "§SM.1 [Example 1]", "md_verbatim": "**Rows 2-3:** Show that subject 001 had 2 hypoglycemic events. In this case, only start date/times have been collected. Because these date/times include full dates, SMSTDY has been populated in each case.", "score": 0.3926, "match_basis": "verbatim_token+domain_route:SM"}, {"md_atom_id": "md_dmSM_ex_a014", "md_file": "knowledge_base/domains/SM/examples.md", "md_atom_type": "SENTENCE", "md_parent_section": "§SM.1 [Example 1]", "md_verbatim": "The MH records for diabetes (MHEVDTYP = \"DIAGNOSIS\") are the records which represent the disease milestones for the defined MIDSTYPE of \"DIAGNOSIS\", so these records include the MIDS variable with the value \"DIAG\". Because these are records for disease milestones rather than associated records, the variables RELMIDS and MIDSDTC are not needed.", "score": 0.3795, "match_basis": "verbatim_token+domain_route:SM"}, {"md_atom_id": "md_dmSM_ex_a006", "md_file": "knowledge_base/domains/SM/examples.md", "md_atom_type": "SENTENCE", "md_parent_section": "§SM.1 [Example 1]", "md_verbatim": "**Row 4:** Shows that subject 002's initial diagnosis of diabetes occurred on May 15, 2010. Because a full date was collected, the study day of this disease milestone was populated. Diagnosis was pre-study, so the study day of the disease milestone is negative. No hypoglycemic events were recorded for this subject.", "score": 0.3783, "match_basis": "verbatim_token+domain_route:SM"}, {"md_atom_id": "md_dmSM_ex_a019", "md_file": "knowledge_base/domains/SM/examples.md", "md_atom_type": "SENTENCE", "md_parent_section": "§SM.1 [Example 1]", "md_verbatim": "In this study, information about hypoglycemic events was collected in a separate CRF module, and CE records recorded in this module were represented with CECAT = \"HYPOGLYCEMIC EVENT\". Each CE record for a hypoglycemic event is a disease milestone, and records for a study have distinct values of MIDS.", "score": 0.3738, "match_basis": "verbatim_token+domain_route:SM"}, {"md_atom_id": "md_dmSM_ex_a004", "md_file": "knowledge_base/domains/SM/examples.md", "md_atom_type": "SENTENCE", "md_parent_section": "§SM.1 [Example 1]", "md_verbatim": "**Row 1:** Shows that subject 001's initial diagnosis of diabetes occurred in October 2005. Because this is a partial date, SMDY is not populated. No end date/time was recorded for this milestone.", "score": 0.3634, "match_basis": "verbatim_token+domain_route:SM"}], "candidate_count": 5, "zero_candidate": false}
{"pdf_atom_id": "ig34_p0084_a019", "pdf_atom_type": "HEADING", "pdf_source": "SDTMIG_v3.4", "pdf_page": 84, "pdf_parent_section": "§5.4 [Subject Disease Milestones (SM)]", "pdf_verbatim": "SM – Assumptions", "figure_ref": null, "candidates": [{"md_atom_id": "md_dmSM_assn_a001", "md_file": "knowledge_base/domains/SM/assumptions.md", "md_atom_type": "HEADING", "md_parent_section": "§SM [SM — Assumptions]", "md_verbatim": "# SM — Assumptions", "score": 1.0, "match_basis": "verbatim_token+domain_route:SM"}, {"md_atom_id": "md_dmSM_ex_a001", "md_file": "knowledge_base/domains/SM/examples.md", "md_atom_type": "HEADING", "md_parent_section": "§SM [SM — Examples]", "md_verbatim": "# SM — Examples", "score": 0.4, "match_basis": "verbatim_token+domain_route:SM"}, {"md_atom_id": "md_dmSM_ex_a002", "md_file": "knowledge_base/domains/SM/examples.md", "md_atom_type": "HEADING", "md_parent_section": "§SM [SM — Examples]", "md_verbatim": "## Example 1", "score": 0.4, "match_basis": "verbatim_token+domain_route:SM"}], "candidate_count": 3, "zero_candidate": false}
{"pdf_atom_id": "ig34_p0084_a020", "pdf_atom_type": "LIST_ITEM", "pdf_source": "SDTMIG_v3.4", "pdf_page": 84, "pdf_parent_section": "§5.4 [Subject Disease Milestones (SM)]", "pdf_verbatim": "1. Disease milestones are observations or activities whose timings are of interest in the study. The types of disease milestones are defined at the study level in the TM dataset. The purpose of the SM dataset is to provide a summary timeline of the milestones for a particular subject.", "figure_ref": null, "candidates": [{"md_atom_id": "md_dmSM_assn_a002", "md_file": "knowledge_base/domains/SM/assumptions.md", "md_atom_type": "LIST_ITEM", "md_parent_section": "§SM [SM — Assumptions]", "md_verbatim": "1. Disease milestones are observations or activities whose timings are of interest in the study. The types of disease milestones are defined at the study level in the TM dataset. The purpose of the SM dataset is to provide a summary timeline of the milestones for a particular subject.", "score": 1.0, "match_basis": "verbatim_token+domain_route:SM"}, {"md_atom_id": "md_dmSM_assn_a007", "md_file": "knowledge_base/domains/SM/assumptions.md", "md_atom_type": "LIST_ITEM", "md_parent_section": "§SM [SM — Assumptions]", "md_verbatim": "   a. The start date/time of the disease milestone is the critical date/time, and must be populated. If the disease milestone is an event, then the meaning of \"start date\" for the event may need to be defined.", "score": 0.5388, "match_basis": "verbatim_token+domain_route:SM"}, {"md_atom_id": "md_dmSM_assn_a006", "md_file": "knowledge_base/domains/SM/assumptions.md", "md_atom_type": "LIST_ITEM", "md_parent_section": "§SM [SM — Assumptions]", "md_verbatim": "3. The timing variables SMSTDTC and SMENDTC hold start and end date/times of data collected for the disease milestone(s) for each subject. SMSTDY and SMENDY represent the corresponding study day variables.", "score": 0.5292, "match_basis": "verbatim_token+domain_route:SM"}, {"md_atom_id": "md_dmSM_assn_a009", "md_file": "knowledge_base/domains/SM/assumptions.md", "md_atom_type": "LIST_ITEM", "md_parent_section": "§SM [SM — Assumptions]", "md_verbatim": "   c. The end date/time for the disease milestone is less important than the start date/time. It will not be populated if the disease milestone is a finding without an end date/time or if it is an event or intervention for which an end date/time has not yet occurred or was not collected.", "score": 0.5184, "match_basis": "verbatim_token+domain_route:SM"}, {"md_atom_id": "md_dmSM_assn_a004", "md_file": "knowledge_base/domains/SM/assumptions.md", "md_atom_type": "LIST_ITEM", "md_parent_section": "§SM [SM — Assumptions]", "md_verbatim": "   a. For disease milestones that can occur only once (TMRPT = \"N\"), the value of MIDS may be the value in MIDSTYPE or may an abbreviated version.", "score": 0.4831, "match_basis": "verbatim_token+domain_route:SM"}], "candidate_count": 5, "zero_candidate": false}
{"pdf_atom_id": "ig34_p0084_a021", "pdf_atom_type": "LIST_ITEM", "pdf_source": "SDTMIG_v3.4", "pdf_page": 84, "pdf_parent_section": "§5.4 [Subject Disease Milestones (SM)]", "pdf_verbatim": "2. The name of the disease milestone is recorded in MIDS.", "figure_ref": null, "candidates": [{"md_atom_id": "md_dmSM_assn_a003", "md_file": "knowledge_base/domains/SM/assumptions.md", "md_atom_type": "LIST_ITEM", "md_parent_section": "§SM [SM — Assumptions]", "md_verbatim": "2. The name of the disease milestone is recorded in MIDS.", "score": 1.0, "match_basis": "verbatim_token+domain_route:SM"}, {"md_atom_id": "md_dmSM_assn_a004", "md_file": "knowledge_base/domains/SM/assumptions.md", "md_atom_type": "LIST_ITEM", "md_parent_section": "§SM [SM — Assumptions]", "md_verbatim": "   a. For disease milestones that can occur only once (TMRPT = \"N\"), the value of MIDS may be the value in MIDSTYPE or may an abbreviated version.", "score": 0.55, "match_basis": "verbatim_token+domain_route:SM"}, {"md_atom_id": "md_dmSM_assn_a007", "md_file": "knowledge_base/domains/SM/assumptions.md", "md_atom_type": "LIST_ITEM", "md_parent_section": "§SM [SM — Assumptions]", "md_verbatim": "   a. The start date/time of the disease milestone is the critical date/time, and must be populated. If the disease milestone is an event, then the meaning of \"start date\" for the event may need to be defined.", "score": 0.5238, "match_basis": "verbatim_token+domain_route:SM"}, {"md_atom_id": "md_dmSM_assn_a006", "md_file": "knowledge_base/domains/SM/assumptions.md", "md_atom_type": "LIST_ITEM", "md_parent_section": "§SM [SM — Assumptions]", "md_verbatim": "3. The timing variables SMSTDTC and SMENDTC hold start and end date/times of data collected for the disease milestone(s) for each subject. SMSTDY and SMENDY represent the corresponding study day variables.", "score": 0.4955, "match_basis": "verbatim_token+domain_route:SM"}, {"md_atom_id": "md_dmSM_assn_a005", "md_file": "knowledge_base/domains/SM/assumptions.md", "md_atom_type": "LIST_ITEM", "md_parent_section": "§SM [SM — Assumptions]", "md_verbatim": "   b. For types of disease milestones that can occur multiple times, MIDS will usually be an abbreviated version of MIDSTYPE and will always end with a sequence number. Sequence numbers should start with 1 and indicate the chronological order of the instances of this type of disease milestone.", "score": 0.4895, "match_basis": "verbatim_token+domain_route:SM"}], "candidate_count": 5, "zero_candidate": false}
{"pdf_atom_id": "ig34_p0084_a022", "pdf_atom_type": "LIST_ITEM", "pdf_source": "SDTMIG_v3.4", "pdf_page": 84, "pdf_parent_section": "§5.4 [Subject Disease Milestones (SM)]", "pdf_verbatim": "a. For disease milestones that can occur only once (TMRPT = \"N\"), the value of MIDS may be the value in MIDSTYPE or may an abbreviated version.", "figure_ref": null, "candidates": [{"md_atom_id": "md_dmSM_assn_a004", "md_file": "knowledge_base/domains/SM/assumptions.md", "md_atom_type": "LIST_ITEM", "md_parent_section": "§SM [SM — Assumptions]", "md_verbatim": "   a. For disease milestones that can occur only once (TMRPT = \"N\"), the value of MIDS may be the value in MIDSTYPE or may an abbreviated version.", "score": 1.0, "match_basis": "verbatim_token+domain_route:SM"}, {"md_atom_id": "md_dmSM_assn_a005", "md_file": "knowledge_base/domains/SM/assumptions.md", "md_atom_type": "LIST_ITEM", "md_parent_section": "§SM [SM — Assumptions]", "md_verbatim": "   b. For types of disease milestones that can occur multiple times, MIDS will usually be an abbreviated version of MIDSTYPE and will always end with a sequence number. Sequence numbers should start with 1 and indicate the chronological order of the instances of this type of disease milestone.", "score": 0.6136, "match_basis": "verbatim_token+domain_route:SM"}, {"md_atom_id": "md_dmSM_assn_a003", "md_file": "knowledge_base/domains/SM/assumptions.md", "md_atom_type": "LIST_ITEM", "md_parent_section": "§SM [SM — Assumptions]", "md_verbatim": "2. The name of the disease milestone is recorded in MIDS.", "score": 0.55, "match_basis": "verbatim_token+domain_route:SM"}, {"md_atom_id": "md_dmSM_assn_a007", "md_file": "knowledge_base/domains/SM/assumptions.md", "md_atom_type": "LIST_ITEM", "md_parent_section": "§SM [SM — Assumptions]", "md_verbatim": "   a. The start date/time of the disease milestone is the critical date/time, and must be populated. If the disease milestone is an event, then the meaning of \"start date\" for the event may need to be defined.", "score": 0.5159, "match_basis": "verbatim_token+domain_route:SM"}, {"md_atom_id": "md_dmSM_assn_a009", "md_file": "knowledge_base/domains/SM/assumptions.md", "md_atom_type": "LIST_ITEM", "md_parent_section": "§SM [SM — Assumptions]", "md_verbatim": "   c. The end date/time for the disease milestone is less important than the start date/time. It will not be populated if the disease milestone is a finding without an end date/time or if it is an event or intervention for which an end date/time has not yet occurred or was not collected.", "score": 0.5135, "match_basis": "verbatim_token+domain_route:SM"}], "candidate_count": 5, "zero_candidate": false}
{"pdf_atom_id": "ig34_p0085_a001", "pdf_atom_type": "LIST_ITEM", "pdf_source": "SDTMIG_v3.4", "pdf_page": 85, "pdf_parent_section": "§5.4 [Subject Disease Milestones (SM)]", "pdf_verbatim": "b. For types of disease milestones that can occur multiple times, MIDS will usually be an abbreviated version of MIDSTYPE and will always end with a sequence number. Sequence numbers should start with 1 and indicate the chronological order of the instances of this type of disease milestone.", "figure_ref": null, "candidates": [{"md_atom_id": "md_dmSM_assn_a005", "md_file": "knowledge_base/domains/SM/assumptions.md", "md_atom_type": "LIST_ITEM", "md_parent_section": "§SM [SM — Assumptions]", "md_verbatim": "   b. For types of disease milestones that can occur multiple times, MIDS will usually be an abbreviated version of MIDSTYPE and will always end with a sequence number. Sequence numbers should start with 1 and indicate the chronological order of the instances of this type of disease milestone.", "score": 1.0, "match_basis": "verbatim_token+domain_route:SM"}, {"md_atom_id": "md_dmSM_assn_a004", "md_file": "knowledge_base/domains/SM/assumptions.md", "md_atom_type": "LIST_ITEM", "md_parent_section": "§SM [SM — Assumptions]", "md_verbatim": "   a. For disease milestones that can occur only once (TMRPT = \"N\"), the value of MIDS may be the value in MIDSTYPE or may an abbreviated version.", "score": 0.6136, "match_basis": "verbatim_token+domain_route:SM"}, {"md_atom_id": "md_dmSM_assn_a009", "md_file": "knowledge_base/domains/SM/assumptions.md", "md_atom_type": "LIST_ITEM", "md_parent_section": "§SM [SM — Assumptions]", "md_verbatim": "   c. The end date/time for the disease milestone is less important than the start date/time. It will not be populated if the disease milestone is a finding without an end date/time or if it is an event or intervention for which an end date/time has not yet occurred or was not collected.", "score": 0.5373, "match_basis": "verbatim_token+domain_route:SM"}, {"md_atom_id": "md_dmSM_assn_a007", "md_file": "knowledge_base/domains/SM/assumptions.md", "md_atom_type": "LIST_ITEM", "md_parent_section": "§SM [SM — Assumptions]", "md_verbatim": "   a. The start date/time of the disease milestone is the critical date/time, and must be populated. If the disease milestone is an event, then the meaning of \"start date\" for the event may need to be defined.", "score": 0.5051, "match_basis": "verbatim_token+domain_route:SM"}, {"md_atom_id": "md_dmSM_assn_a006", "md_file": "knowledge_base/domains/SM/assumptions.md", "md_atom_type": "LIST_ITEM", "md_parent_section": "§SM [SM — Assumptions]", "md_verbatim": "3. The timing variables SMSTDTC and SMENDTC hold start and end date/times of data collected for the disease milestone(s) for each subject. SMSTDY and SMENDY represent the corresponding study day variables.", "score": 0.4926, "match_basis": "verbatim_token+domain_route:SM"}], "candidate_count": 5, "zero_candidate": false}
{"pdf_atom_id": "ig34_p0085_a002", "pdf_atom_type": "LIST_ITEM", "pdf_source": "SDTMIG_v3.4", "pdf_page": 85, "pdf_parent_section": "§5.4 [Subject Disease Milestones (SM)]", "pdf_verbatim": "3. The timing variables SMSTDTC and SMENDTC hold start and end date/times of data collected for the disease milestone(s) for each subject. SMSTDY and SMENDY represent the corresponding study day variables.", "figure_ref": null, "candidates": [{"md_atom_id": "md_dmSM_assn_a006", "md_file": "knowledge_base/domains/SM/assumptions.md", "md_atom_type": "LIST_ITEM", "md_parent_section": "§SM [SM — Assumptions]", "md_verbatim": "3. The timing variables SMSTDTC and SMENDTC hold start and end date/times of data collected for the disease milestone(s) for each subject. SMSTDY and SMENDY represent the corresponding study day variables.", "score": 1.0, "match_basis": "verbatim_token+domain_route:SM"}, {"md_atom_id": "md_dmSM_assn_a009", "md_file": "knowledge_base/domains/SM/assumptions.md", "md_atom_type": "LIST_ITEM", "md_parent_section": "§SM [SM — Assumptions]", "md_verbatim": "   c. The end date/time for the disease milestone is less important than the start date/time. It will not be populated if the disease milestone is a finding without an end date/time or if it is an event or intervention for which an end date/time has not yet occurred or was not collected.", "score": 0.5632, "match_basis": "verbatim_token+domain_route:SM"}, {"md_atom_id": "md_dmSM_assn_a007", "md_file": "knowledge_base/domains/SM/assumptions.md", "md_atom_type": "LIST_ITEM", "md_parent_section": "§SM [SM — Assumptions]", "md_verbatim": "   a. The start date/time of the disease milestone is the critical date/time, and must be populated. If the disease milestone is an event, then the meaning of \"start date\" for the event may need to be defined.", "score": 0.5402, "match_basis": "verbatim_token+domain_route:SM"}, {"md_atom_id": "md_dmSM_assn_a002", "md_file": "knowledge_base/domains/SM/assumptions.md", "md_atom_type": "LIST_ITEM", "md_parent_section": "§SM [SM — Assumptions]", "md_verbatim": "1. Disease milestones are observations or activities whose timings are of interest in the study. The types of disease milestones are defined at the study level in the TM dataset. The purpose of the SM dataset is to provide a summary timeline of the milestones for a particular subject.", "score": 0.5292, "match_basis": "verbatim_token+domain_route:SM"}, {"md_atom_id": "md_dmSM_assn_a003", "md_file": "knowledge_base/domains/SM/assumptions.md", "md_atom_type": "LIST_ITEM", "md_parent_section": "§SM [SM — Assumptions]", "md_verbatim": "2. The name of the disease milestone is recorded in MIDS.", "score": 0.4955, "match_basis": "verbatim_token+domain_route:SM"}], "candidate_count": 5, "zero_candidate": false}
{"pdf_atom_id": "ig34_p0085_a003", "pdf_atom_type": "LIST_ITEM", "pdf_source": "SDTMIG_v3.4", "pdf_page": 85, "pdf_parent_section": "§5.4 [Subject Disease Milestones (SM)]", "pdf_verbatim": "a. The start date/time of the disease milestone is the critical date/time, and must be populated. If the disease milestone is an event, then the meaning of \"start date\" for the event may need to be defined.", "figure_ref": null, "candidates": [{"md_atom_id": "md_dmSM_assn_a007", "md_file": "knowledge_base/domains/SM/assumptions.md", "md_atom_type": "LIST_ITEM", "md_parent_section": "§SM [SM — Assumptions]", "md_verbatim": "   a. The start date/time of the disease milestone is the critical date/time, and must be populated. If the disease milestone is an event, then the meaning of \"start date\" for the event may need to be defined.", "score": 1.0, "match_basis": "verbatim_token+domain_route:SM"}, {"md_atom_id": "md_dmSM_assn_a009", "md_file": "knowledge_base/domains/SM/assumptions.md", "md_atom_type": "LIST_ITEM", "md_parent_section": "§SM [SM — Assumptions]", "md_verbatim": "   c. The end date/time for the disease milestone is less important than the start date/time. It will not be populated if the disease milestone is a finding without an end date/time or if it is an event or intervention for which an end date/time has not yet occurred or was not collected.", "score": 0.5901, "match_basis": "verbatim_token+domain_route:SM"}, {"md_atom_id": "md_dmSM_assn_a006", "md_file": "knowledge_base/domains/SM/assumptions.md", "md_atom_type": "LIST_ITEM", "md_parent_section": "§SM [SM — Assumptions]", "md_verbatim": "3. The timing variables SMSTDTC and SMENDTC hold start and end date/times of data collected for the disease milestone(s) for each subject. SMSTDY and SMENDY represent the corresponding study day variables.", "score": 0.5402, "match_basis": "verbatim_token+domain_route:SM"}, {"md_atom_id": "md_dmSM_assn_a002", "md_file": "knowledge_base/domains/SM/assumptions.md", "md_atom_type": "LIST_ITEM", "md_parent_section": "§SM [SM — Assumptions]", "md_verbatim": "1. Disease milestones are observations or activities whose timings are of interest in the study. The types of disease milestones are defined at the study level in the TM dataset. The purpose of the SM dataset is to provide a summary timeline of the milestones for a particular subject.", "score": 0.5388, "match_basis": "verbatim_token+domain_route:SM"}, {"md_atom_id": "md_dmSM_assn_a003", "md_file": "knowledge_base/domains/SM/assumptions.md", "md_atom_type": "LIST_ITEM", "md_parent_section": "§SM [SM — Assumptions]", "md_verbatim": "2. The name of the disease milestone is recorded in MIDS.", "score": 0.5238, "match_basis": "verbatim_token+domain_route:SM"}], "candidate_count": 5, "zero_candidate": false}
{"pdf_atom_id": "ig34_p0085_a004", "pdf_atom_type": "LIST_ITEM", "pdf_source": "SDTMIG_v3.4", "pdf_page": 85, "pdf_parent_section": "§5.4 [Subject Disease Milestones (SM)]", "pdf_verbatim": "b. The start study day will not be populated if the start date/time includes only a year or only a year and month.", "figure_ref": null, "candidates": [{"md_atom_id": "md_dmSM_assn_a008", "md_file": "knowledge_base/domains/SM/assumptions.md", "md_atom_type": "LIST_ITEM", "md_parent_section": "§SM [SM — Assumptions]", "md_verbatim": "   b. The start study day will not be populated if the start date/time includes only a year or only a year and month.", "score": 1.0, "match_basis": "verbatim_token+domain_route:SM"}, {"md_atom_id": "md_dmSM_assn_a010", "md_file": "knowledge_base/domains/SM/assumptions.md", "md_atom_type": "LIST_ITEM", "md_parent_section": "§SM [SM — Assumptions]", "md_verbatim": "   d. The end study day will not be populated if the end date/time includes only a year or only a year and month.", "score": 0.9333, "match_basis": "verbatim_token+domain_route:SM"}, {"md_atom_id": "md_dmSM_assn_a007", "md_file": "knowledge_base/domains/SM/assumptions.md", "md_atom_type": "LIST_ITEM", "md_parent_section": "§SM [SM — Assumptions]", "md_verbatim": "   a. The start date/time of the disease milestone is the critical date/time, and must be populated. If the disease milestone is an event, then the meaning of \"start date\" for the event may need to be defined.", "score": 0.5233, "match_basis": "verbatim_token+domain_route:SM"}, {"md_atom_id": "md_dmSM_assn_a009", "md_file": "knowledge_base/domains/SM/assumptions.md", "md_atom_type": "LIST_ITEM", "md_parent_section": "§SM [SM — Assumptions]", "md_verbatim": "   c. The end date/time for the disease milestone is less important than the start date/time. It will not be populated if the disease milestone is a finding without an end date/time or if it is an event or intervention for which an end date/time has not yet occurred or was not collected.", "score": 0.5041, "match_basis": "verbatim_token+domain_route:SM"}, {"md_atom_id": "md_dmSM_assn_a006", "md_file": "knowledge_base/domains/SM/assumptions.md", "md_atom_type": "LIST_ITEM", "md_parent_section": "§SM [SM — Assumptions]", "md_verbatim": "3. The timing variables SMSTDTC and SMENDTC hold start and end date/times of data collected for the disease milestone(s) for each subject. SMSTDY and SMENDY represent the corresponding study day variables.", "score": 0.484, "match_basis": "verbatim_token+domain_route:SM"}], "candidate_count": 5, "zero_candidate": false}
{"pdf_atom_id": "ig34_p0085_a005", "pdf_atom_type": "LIST_ITEM", "pdf_source": "SDTMIG_v3.4", "pdf_page": 85, "pdf_parent_section": "§5.4 [Subject Disease Milestones (SM)]", "pdf_verbatim": "c. The end date/time for the disease milestone is less important than the start date/time. It will not be populated if the disease milestone is a finding without an end date/time or if it is an event or intervention for which an end date/time has not yet occurred or was not collected.", "figure_ref": null, "candidates": [{"md_atom_id": "md_dmSM_assn_a009", "md_file": "knowledge_base/domains/SM/assumptions.md", "md_atom_type": "LIST_ITEM", "md_parent_section": "§SM [SM — Assumptions]", "md_verbatim": "   c. The end date/time for the disease milestone is less important than the start date/time. It will not be populated if the disease milestone is a finding without an end date/time or if it is an event or intervention for which an end date/time has not yet occurred or was not collected.", "score": 1.0, "match_basis": "verbatim_token+domain_route:SM"}, {"md_atom_id": "md_dmSM_assn_a007", "md_file": "knowledge_base/domains/SM/assumptions.md", "md_atom_type": "LIST_ITEM", "md_parent_section": "§SM [SM — Assumptions]", "md_verbatim": "   a. The start date/time of the disease milestone is the critical date/time, and must be populated. If the disease milestone is an event, then the meaning of \"start date\" for the event may need to be defined.", "score": 0.5901, "match_basis": "verbatim_token+domain_route:SM"}, {"md_atom_id": "md_dmSM_assn_a006", "md_file": "knowledge_base/domains/SM/assumptions.md", "md_atom_type": "LIST_ITEM", "md_parent_section": "§SM [SM — Assumptions]", "md_verbatim": "3. The timing variables SMSTDTC and SMENDTC hold start and end date/times of data collected for the disease milestone(s) for each subject. SMSTDY and SMENDY represent the corresponding study day variables.", "score": 0.5632, "match_basis": "verbatim_token+domain_route:SM"}, {"md_atom_id": "md_dmSM_assn_a005", "md_file": "knowledge_base/domains/SM/assumptions.md", "md_atom_type": "LIST_ITEM", "md_parent_section": "§SM [SM — Assumptions]", "md_verbatim": "   b. For types of disease milestones that can occur multiple times, MIDS will usually be an abbreviated version of MIDSTYPE and will always end with a sequence number. Sequence numbers should start with 1 and indicate the chronological order of the instances of this type of disease milestone.", "score": 0.5373, "match_basis": "verbatim_token+domain_route:SM"}, {"md_atom_id": "md_dmSM_assn_a002", "md_file": "knowledge_base/domains/SM/assumptions.md", "md_atom_type": "LIST_ITEM", "md_parent_section": "§SM [SM — Assumptions]", "md_verbatim": "1. Disease milestones are observations or activities whose timings are of interest in the study. The types of disease milestones are defined at the study level in the TM dataset. The purpose of the SM dataset is to provide a summary timeline of the milestones for a particular subject.", "score": 0.5184, "match_basis": "verbatim_token+domain_route:SM"}], "candidate_count": 5, "zero_candidate": false}
{"pdf_atom_id": "ig34_p0085_a006", "pdf_atom_type": "LIST_ITEM", "pdf_source": "SDTMIG_v3.4", "pdf_page": 85, "pdf_parent_section": "§5.4 [Subject Disease Milestones (SM)]", "pdf_verbatim": "d. The end study day will not be populated if the end date/time includes only a year or only a year and month.", "figure_ref": null, "candidates": [{"md_atom_id": "md_dmSM_assn_a010", "md_file": "knowledge_base/domains/SM/assumptions.md", "md_atom_type": "LIST_ITEM", "md_parent_section": "§SM [SM — Assumptions]", "md_verbatim": "   d. The end study day will not be populated if the end date/time includes only a year or only a year and month.", "score": 1.0, "match_basis": "verbatim_token+domain_route:SM"}, {"md_atom_id": "md_dmSM_assn_a008", "md_file": "knowledge_base/domains/SM/assumptions.md", "md_atom_type": "LIST_ITEM", "md_parent_section": "§SM [SM — Assumptions]", "md_verbatim": "   b. The start study day will not be populated if the start date/time includes only a year or only a year and month.", "score": 0.9333, "match_basis": "verbatim_token+domain_route:SM"}, {"md_atom_id": "md_dmSM_assn_a007", "md_file": "knowledge_base/domains/SM/assumptions.md", "md_atom_type": "LIST_ITEM", "md_parent_section": "§SM [SM — Assumptions]", "md_verbatim": "   a. The start date/time of the disease milestone is the critical date/time, and must be populated. If the disease milestone is an event, then the meaning of \"start date\" for the event may need to be defined.", "score": 0.4973, "match_basis": "verbatim_token+domain_route:SM"}, {"md_atom_id": "md_dmSM_assn_a009", "md_file": "knowledge_base/domains/SM/assumptions.md", "md_atom_type": "LIST_ITEM", "md_parent_section": "§SM [SM — Assumptions]", "md_verbatim": "   c. The end date/time for the disease milestone is less important than the start date/time. It will not be populated if the disease milestone is a finding without an end date/time or if it is an event or intervention for which an end date/time has not yet occurred or was not collected.", "score": 0.4918, "match_basis": "verbatim_token+domain_route:SM"}, {"md_atom_id": "md_dmSM_assn_a006", "md_file": "knowledge_base/domains/SM/assumptions.md", "md_atom_type": "LIST_ITEM", "md_parent_section": "§SM [SM — Assumptions]", "md_verbatim": "3. The timing variables SMSTDTC and SMENDTC hold start and end date/times of data collected for the disease milestone(s) for each subject. SMSTDY and SMENDY represent the corresponding study day variables.", "score": 0.472, "match_basis": "verbatim_token+domain_route:SM"}], "candidate_count": 5, "zero_candidate": false}
{"pdf_atom_id": "ig34_p0085_a007", "pdf_atom_type": "HEADING", "pdf_source": "SDTMIG_v3.4", "pdf_page": 85, "pdf_parent_section": "§5.4 [Subject Disease Milestones (SM)]", "pdf_verbatim": "SM – Examples", "figure_ref": null, "candidates": [{"md_atom_id": "md_dmSM_ex_a001", "md_file": "knowledge_base/domains/SM/examples.md", "md_atom_type": "HEADING", "md_parent_section": "§SM [SM — Examples]", "md_verbatim": "# SM — Examples", "score": 1.0, "match_basis": "verbatim_token+domain_route:SM"}, {"md_atom_id": "md_dmSM_ex_a002", "md_file": "knowledge_base/domains/SM/examples.md", "md_atom_type": "HEADING", "md_parent_section": "§SM [SM — Examples]", "md_verbatim": "## Example 1", "score": 0.9, "match_basis": "verbatim_token+domain_route:SM"}, {"md_atom_id": "md_dmSM_assn_a001", "md_file": "knowledge_base/domains/SM/assumptions.md", "md_atom_type": "HEADING", "md_parent_section": "§SM [SM — Assumptions]", "md_verbatim": "# SM — Assumptions", "score": 0.4, "match_basis": "verbatim_token+domain_route:SM"}], "candidate_count": 3, "zero_candidate": false}
{"pdf_atom_id": "ig34_p0085_a008", "pdf_atom_type": "HEADING", "pdf_source": "SDTMIG_v3.4", "pdf_page": 85, "pdf_parent_section": "§5.4 [Subject Disease Milestones (SM)]", "pdf_verbatim": "Example 1", "figure_ref": null, "candidates": [{"md_atom_id": "md_dmSM_ex_a002", "md_file": "knowledge_base/domains/SM/examples.md", "md_atom_type": "HEADING", "md_parent_section": "§SM [SM — Examples]", "md_verbatim": "## Example 1", "score": 1.0, "match_basis": "verbatim_token+domain_route:SM"}, {"md_atom_id": "md_dmSM_ex_a001", "md_file": "knowledge_base/domains/SM/examples.md", "md_atom_type": "HEADING", "md_parent_section": "§SM [SM — Examples]", "md_verbatim": "# SM — Examples", "score": 0.9, "match_basis": "verbatim_token+domain_route:SM"}, {"md_atom_id": "md_dmSM_assn_a001", "md_file": "knowledge_base/domains/SM/assumptions.md", "md_atom_type": "HEADING", "md_parent_section": "§SM [SM — Assumptions]", "md_verbatim": "# SM — Assumptions", "score": 0.4, "match_basis": "verbatim_token+domain_route:SM"}], "candidate_count": 3, "zero_candidate": false}
{"pdf_atom_id": "ig34_p0085_a009", "pdf_atom_type": "SENTENCE", "pdf_source": "SDTMIG_v3.4", "pdf_page": 85, "pdf_parent_section": "§5.4 [Subject Disease Milestones (SM)]", "pdf_verbatim": "In this study, the disease milestones of interest were initial diagnosis and hypoglycemic events, as shown in Section 7.3.3, Trial Disease Milestones, Example 1.", "figure_ref": null, "candidates": [{"md_atom_id": "md_dmSM_ex_a003", "md_file": "knowledge_base/domains/SM/examples.md", "md_atom_type": "SENTENCE", "md_parent_section": "§SM.1 [Example 1]", "md_verbatim": "In this study, the disease milestones of interest were initial diagnosis and hypoglycemic events, as shown in Section 7.3.3, Trial Disease Milestones, Example 1.", "score": 1.0, "match_basis": "verbatim_token+domain_route:SM"}, {"md_atom_id": "md_dmSM_ex_a006", "md_file": "knowledge_base/domains/SM/examples.md", "md_atom_type": "SENTENCE", "md_parent_section": "§SM.1 [Example 1]", "md_verbatim": "**Row 4:** Shows that subject 002's initial diagnosis of diabetes occurred on May 15, 2010. Because a full date was collected, the study day of this disease milestone was populated. Diagnosis was pre-study, so the study day of the disease milestone is negative. No hypoglycemic events were recorded for this subject.", "score": 0.6333, "match_basis": "verbatim_token+domain_route:SM"}, {"md_atom_id": "md_dmSM_ex_a013", "md_file": "knowledge_base/domains/SM/examples.md", "md_atom_type": "SENTENCE", "md_parent_section": "§SM.1 [Example 1]", "md_verbatim": "Information in SM is taken from records in other domains. In this study, diagnosis was represented in the Medical History (MH) domain, and hypoglycemic events were represented in the Clinical Events (CE) domain.", "score": 0.5982, "match_basis": "verbatim_token+domain_route:SM"}, {"md_atom_id": "md_dmSM_ex_a019", "md_file": "knowledge_base/domains/SM/examples.md", "md_atom_type": "SENTENCE", "md_parent_section": "§SM.1 [Example 1]", "md_verbatim": "In this study, information about hypoglycemic events was collected in a separate CRF module, and CE records recorded in this module were represented with CECAT = \"HYPOGLYCEMIC EVENT\". Each CE record for a hypoglycemic event is a disease milestone, and records for a study have distinct values of MIDS.", "score": 0.5843, "match_basis": "verbatim_token+domain_route:SM"}, {"md_atom_id": "md_dmSM_ex_a004", "md_file": "knowledge_base/domains/SM/examples.md", "md_atom_type": "SENTENCE", "md_parent_section": "§SM.1 [Example 1]", "md_verbatim": "**Row 1:** Shows that subject 001's initial diagnosis of diabetes occurred in October 2005. Because this is a partial date, SMDY is not populated. No end date/time was recorded for this milestone.", "score": 0.5161, "match_basis": "verbatim_token+domain_route:SM"}], "candidate_count": 5, "zero_candidate": false}
