{"pdf_atom_id": "ig34_p0332_a012", "pdf_atom_type": "LIST_ITEM", "pdf_source": "SDTMIG_v3.4", "pdf_page": 332, "pdf_parent_section": "§6.3.9.3.1 Disease Response Use Case", "pdf_verbatim": "c.  Refer to the Controlled Terminology Rules for Oncology for more information (available at https://www.cdisc.org/standards/terminology/controlled-terminology).", "figure_ref": null, "candidates": [{"md_atom_id": "md_dmRS_assn_a008", "md_file": "knowledge_base/domains/RS/assumptions.md", "md_atom_type": "LIST_ITEM", "md_parent_section": "§RS [RS — Assumptions]", "md_verbatim": "   c. Refer to the Controlled Terminology Rules for Oncology for more information (available at https://www.cdisc.org/standards/terminology/controlled-terminology).", "score": 0.9, "match_basis": "verbatim_token+global_search"}, {"md_atom_id": "md_dmLB_assn_a009", "md_file": "knowledge_base/domains/LB/assumptions.md", "md_atom_type": "LIST_ITEM", "md_parent_section": "§LB [LB — Assumptions]", "md_verbatim": "   a. CDISC Controlled Terminology Rules for Lab and Unit are available at https://www.cdisc.org/standards/terminology/controlled-terminology.", "score": 0.7095, "match_basis": "verbatim_token+global_search"}, {"md_atom_id": "md_dmPC_assn_a003", "md_file": "knowledge_base/domains/PC/assumptions.md", "md_atom_type": "LIST_ITEM", "md_parent_section": "§PC [PC — Assumptions]", "md_verbatim": "2. CDISC Controlled Terminology Rules for Pharmacokinetics are available at https://www.cdisc.org/standards/terminology/controlled-terminology.", "score": 0.6568, "match_basis": "verbatim_token+global_search"}, {"md_atom_id": "md_dmMB_assn_a011", "md_file": "knowledge_base/domains/MB/assumptions.md", "md_atom_type": "LIST_ITEM", "md_parent_section": "§MB [MB — Assumptions]", "md_verbatim": "      iv. CDISC Controlled Terminology Rules for Microbiology (MB/MS) domains are available at https://www.cdisc.org/standards/terminology/controlled-terminology.", "score": 0.6534, "match_basis": "verbatim_token+global_search"}, {"md_atom_id": "md_dmMS_assn_a008", "md_file": "knowledge_base/domains/MS/assumptions.md", "md_atom_type": "LIST_ITEM", "md_parent_section": "§MS [MS — Assumptions]", "md_verbatim": "   c. CDISC Controlled Terminology Rules for Microbiology (MB/MS) domains are available at https://www.cdisc.org/standards/terminology/controlled-terminology.", "score": 0.6534, "match_basis": "verbatim_token+global_search"}], "candidate_count": 5, "zero_candidate": false}
{"pdf_atom_id": "ig34_p0332_a013", "pdf_atom_type": "LIST_ITEM", "pdf_source": "SDTMIG_v3.4", "pdf_page": 332, "pdf_parent_section": "§6.3.9.3.1 Disease Response Use Case", "pdf_verbatim": "d.  RSTESTCD/RSTEST values for this domain are published as Controlled Terminology. For some RSTESTCD/RSTEST values, CDISC CT includes codelists for use with RSORRES. The associations between the test values and results are in the Oncology codetable, available at https://www.cdisc.org/standards/terminology/controlled-terminology.", "figure_ref": null, "candidates": [{"md_atom_id": "md_dmRS_assn_a009", "md_file": "knowledge_base/domains/RS/assumptions.md", "md_atom_type": "LIST_ITEM", "md_parent_section": "§RS [RS — Assumptions]", "md_verbatim": "   d. RSTESTCD/RSTEST values for this domain are published as Controlled Terminology. For some RSTESTCD/RSTEST values, CDISC CT includes codelists for use with RSORRES. The associations between the test values and results are in the Oncology codetable, available at https://www.cdisc.org/standards/terminology/controlled-terminology.", "score": 0.9, "match_basis": "verbatim_token+global_search"}, {"md_atom_id": "md_dmDS_assn_a012", "md_file": "knowledge_base/domains/DS/assumptions.md", "md_atom_type": "LIST_ITEM", "md_parent_section": "§DS [DS — Assumptions]", "md_verbatim": "   f. Associations between DSCAT and some DSDECOD codelist values are described in the DS Codetable (available at https://www.cdisc.org/standards/terminology/controlled-terminology).", "score": 0.6456, "match_basis": "verbatim_token+global_search"}, {"md_atom_id": "md_dmRP_assn_a005", "md_file": "knowledge_base/domains/RP/assumptions.md", "md_atom_type": "LIST_ITEM", "md_parent_section": "§RP [RP — Assumptions]", "md_verbatim": "   a. Associations between RP tests and response codelists are described in the RP Codetable, available at https://www.cdisc.org/standards/terminology/controlled-terminology.", "score": 0.6443, "match_basis": "verbatim_token+global_search"}, {"md_atom_id": "md_dmSS_assn_a005", "md_file": "knowledge_base/domains/SS/assumptions.md", "md_atom_type": "LIST_ITEM", "md_parent_section": "§SS [SS — Assumptions]", "md_verbatim": "   a. Associations between the SS tests and response codelists are described in the SS Codetable, available at https://www.cdisc.org/standards/terminology/controlled-terminology.", "score": 0.6443, "match_basis": "verbatim_token+global_search"}, {"md_atom_id": "md_dmVS_assn_a004", "md_file": "knowledge_base/domains/VS/assumptions.md", "md_atom_type": "LIST_ITEM", "md_parent_section": "§VS [VS — Assumptions]", "md_verbatim": "3. Associations between some vital sign tests and qualifier codelists are described in the VS codetable, available at https://www.cdisc.org/standards/terminology/controlled-terminology.", "score": 0.6277, "match_basis": "verbatim_token+global_search"}], "candidate_count": 5, "zero_candidate": false}
{"pdf_atom_id": "ig34_p0333_a001", "pdf_atom_type": "LIST_ITEM", "pdf_source": "SDTMIG_v3.4", "pdf_page": 333, "pdf_parent_section": "§6.3.9.3.1 Disease Response Use Case", "pdf_verbatim": "3.  The RS domain disease response criteria use case may include records derived by the investigator or with a data collection tool, but not sponsor-derived records. Sponsor-derived records and results should be provided in an analysis dataset (ADaM).", "figure_ref": null, "candidates": [{"md_atom_id": "md_dmRS_assn_a010", "md_file": "knowledge_base/domains/RS/assumptions.md", "md_atom_type": "LIST_ITEM", "md_parent_section": "§RS [RS — Assumptions]", "md_verbatim": "3. The RS domain disease response criteria use case may include records derived by the investigator or with a data collection tool, but not sponsor-derived records. Sponsor-derived records and results should be provided in an analysis dataset (ADaM).", "score": 0.9, "match_basis": "verbatim_token+global_search"}, {"md_atom_id": "md_dmRS_assn_a011", "md_file": "knowledge_base/domains/RS/assumptions.md", "md_atom_type": "LIST_ITEM", "md_parent_section": "§RS [RS — Assumptions]", "md_verbatim": "   a. For disease response criteria, the BEST Response assessment records are included in the RS domain only when provided by the investigator or an independent assessor (i.e., Best responses that are derived by the sponsor for the analysis are not included in the RS domain).", "score": 0.6128, "match_basis": "verbatim_token+global_search"}, {"md_atom_id": "md_dmRS_assn_a023", "md_file": "knowledge_base/domains/RS/assumptions.md", "md_atom_type": "LIST_ITEM", "md_parent_section": "§RS [RS — Assumptions]", "md_verbatim": "   a. RSACPTFL should not be derived by the sponsor. If a derivation is needed to make the record selection, then this derivation should be done in the analysis dataset (ADaM).", "score": 0.5071, "match_basis": "verbatim_token+global_search"}, {"md_atom_id": "md_dmSU_assn_a010", "md_file": "knowledge_base/domains/SU/assumptions.md", "md_atom_type": "LIST_ITEM", "md_parent_section": "§SU [SU — Assumptions]", "md_verbatim": "   a. SUCAT and SUSCAT should not be redundant with the domain code or dictionary classification provided by SUDECOD, or with SUTRT. That is, they should provide a different means of defining or classifying SU records. For example, a sponsor may be interested in identifying all substances that the investigator feels might represent opium use, and to collect such use on a separate CRF page. This categorization might differ from the categorization derived from the coding dictionary.", "score": 0.4652, "match_basis": "verbatim_token+global_search"}, {"md_atom_id": "md_dmCE_assn_a012", "md_file": "knowledge_base/domains/CE/assumptions.md", "md_atom_type": "LIST_ITEM", "md_parent_section": "§CE [CE — Assumptions]", "md_verbatim": "3. The collection of write-in events on a CE CRF should be considered with caution. Sponsors must ensure that all adverse events are recorded in the AE domain.", "score": 0.461, "match_basis": "verbatim_token+global_search"}], "candidate_count": 5, "zero_candidate": false}
{"pdf_atom_id": "ig34_p0333_a002", "pdf_atom_type": "LIST_ITEM", "pdf_source": "SDTMIG_v3.4", "pdf_page": 333, "pdf_parent_section": "§6.3.9.3.1 Disease Response Use Case", "pdf_verbatim": "a.  For disease response criteria, the BEST Response assessment records are included in the RS domain only when provided by the investigator or an independent assessor (i.e., Best responses that are derived by the sponsor for the analysis are not included in the RS domain).", "figure_ref": null, "candidates": [{"md_atom_id": "md_dmRS_assn_a011", "md_file": "knowledge_base/domains/RS/assumptions.md", "md_atom_type": "LIST_ITEM", "md_parent_section": "§RS [RS — Assumptions]", "md_verbatim": "   a. For disease response criteria, the BEST Response assessment records are included in the RS domain only when provided by the investigator or an independent assessor (i.e., Best responses that are derived by the sponsor for the analysis are not included in the RS domain).", "score": 0.9, "match_basis": "verbatim_token+global_search"}, {"md_atom_id": "md_dmRS_assn_a010", "md_file": "knowledge_base/domains/RS/assumptions.md", "md_atom_type": "LIST_ITEM", "md_parent_section": "§RS [RS — Assumptions]", "md_verbatim": "3. The RS domain disease response criteria use case may include records derived by the investigator or with a data collection tool, but not sponsor-derived records. Sponsor-derived records and results should be provided in an analysis dataset (ADaM).", "score": 0.6128, "match_basis": "verbatim_token+global_search"}, {"md_atom_id": "md_dmOE_ex_a042", "md_file": "knowledge_base/domains/OE/examples.md", "md_atom_type": "LIST_ITEM", "md_parent_section": "§OE.3 [Example 3]", "md_verbatim": "- Partial results of the macula examination performed by the site investigator, as well as results provided by an independent assessor, for 1 visit", "score": 0.4714, "match_basis": "verbatim_token+global_search"}, {"md_atom_id": "md_dmRS_assn_a024", "md_file": "knowledge_base/domains/RS/assumptions.md", "md_atom_type": "LIST_ITEM", "md_parent_section": "§RS [RS — Assumptions]", "md_verbatim": "9. Disease recurrence can be represented in the RS domain using RSTEST = \"Disease Recurrence Indicator\" to indicate that there was an assessment of whether there was disease recurrence. The RSCAT = \"PROTOCOL DEFINED RESPONSE CRITERIA\" can be used to indicate that the response assessment of disease recurrence was based on protocol-specified criteria rather than published response criteria.", "score": 0.457, "match_basis": "verbatim_token+global_search"}, {"md_atom_id": "md_dmRS_assn_a016", "md_file": "knowledge_base/domains/RS/assumptions.md", "md_atom_type": "LIST_ITEM", "md_parent_section": "§RS [RS — Assumptions]", "md_verbatim": "   c. Oncology response assessments sometimes include symptomatic deterioration. Symptomatic deterioration may be considered as non-radiologic evidence of progressive disease. Symptomatic deterioration is recorded in RS with RSTEST = \"Symptomatic Deterioration\" and the standardized response (e.g., \"PD\") in RSSTRESC.", "score": 0.4519, "match_basis": "verbatim_token+global_search"}], "candidate_count": 5, "zero_candidate": false}
{"pdf_atom_id": "ig34_p0333_a003", "pdf_atom_type": "LIST_ITEM", "pdf_source": "SDTMIG_v3.4", "pdf_page": 333, "pdf_parent_section": "§6.3.9.3.1 Disease Response Use Case", "pdf_verbatim": "4.  The RSLNKGRP variable is used to provide a link between the records in a findings domain (e.g., Tumor/Lesion Results, TR; Laboratory Test Results, LB) that contribute to a record in the RS domain. Records should exist in the RELREC dataset to support this relationship. A RELREC relationship could also be defined using RSLNKID when a response evaluation or clinical classification measure relates back to another source dataset (e.g., tumor assessment in TR). The domain in which data that contribute to an assessment of response reside should not affect whether a link to the RS record through a RELREC relationship is created. For example, a set of oncology response criteria might require lab results in the LB domain, not only tumor results in the TR domain.", "figure_ref": null, "candidates": [{"md_atom_id": "md_dmRS_assn_a012", "md_file": "knowledge_base/domains/RS/assumptions.md", "md_atom_type": "LIST_ITEM", "md_parent_section": "§RS [RS — Assumptions]", "md_verbatim": "4. The RSLNKGRP variable is used to provide a link between the records in a findings domain (e.g., Tumor/Lesion Results, TR; Laboratory Test Results, LB) that contribute to a record in the RS domain. Records should exist in the RELREC dataset to support this relationship. A RELREC relationship could also be defined using RSLNKID when a response evaluation or clinical classification measure relates back to another source dataset (e.g., tumor assessment in TR). The domain in which data that contribute to an assessment of response reside should not affect whether a link to the RS record through a RELREC relationship is created. For example, a set of oncology response criteria might require lab results in the LB domain, not only tumor results in the TR domain.", "score": 0.9, "match_basis": "verbatim_token+global_search"}, {"md_atom_id": "md_dmTR_assn_a010", "md_file": "knowledge_base/domains/TR/assumptions.md", "md_atom_type": "LIST_ITEM", "md_parent_section": "§TR [TR — Assumptions]", "md_verbatim": "2. TRLNKGRP is used to relate records in the TR domain to a response assessment record in the RS domain. The organization of data across the TR and RS domains requires a RELREC relationship to link the related data rows. A dataset-to-dataset link would be the most appropriate linking mechanism. Utilizing 1 of the existing ID variables is not possible because --GRPID, --REFID, and --SPID may be used for other purposes, per the SDTM. The --LNKGRP variable is used for values that support a RELREC dataset-to-dataset relationship and to provide a unique code for each response and associated tumor/lesion measurements/assessments.", "score": 0.5077, "match_basis": "verbatim_token+global_search"}, {"md_atom_id": "md_dmTR_assn_a009", "md_file": "knowledge_base/domains/TR/assumptions.md", "md_atom_type": "LIST_ITEM", "md_parent_section": "§TR [TR — Assumptions]", "md_verbatim": "1. TRLNKID is used to relate records in the TR domain to an identification record in TU domain. The organization of data across the TU and TR domains requires a RELREC relationship to link the related data rows. A dataset-to-dataset link would be the most appropriate linking mechanism. Utilizing 1 of the existing ID variables is not possible, because --GRPID, --REFID, and --SPID may be used for other purposes, per the SDTM. The --LNKID variable is used for values that support a RELREC dataset-to-dataset relationship and to provide a unique code for each identified tumor/lesion/location of interest.", "score": 0.4848, "match_basis": "verbatim_token+global_search"}, {"md_atom_id": "md_dmTU_assn_a010", "md_file": "knowledge_base/domains/TU/assumptions.md", "md_atom_type": "LIST_ITEM", "md_parent_section": "§TU [TU — Assumptions]", "md_verbatim": "2. TRLNKID is used to relate an identification record in the TU domain to assessment records in the Tumor/Lesion Results (TR) domain. The organization of data across the TU and TR domains requires a linking mechanism. The TULNKID variable is used to provide a unique code for each identified tumor/lesion. The values of TULNKID are compound values that may carry the following information: an indication of the role (or assessor) providing the data record, when it is someone other than the principal investigator; an indication of whether the data record is for a target or non-target tumor/lesion; a tracking identifier or number; and an indication of whether the tumor/lesion has split (see assumption 3 for details on splitting). A RELREC relationship record can be created to describe the link, probably as a dataset-to-dataset link.", "score": 0.4778, "match_basis": "verbatim_token+global_search"}, {"md_atom_id": "md_dmTU_assn_a043", "md_file": "knowledge_base/domains/TU/assumptions.md", "md_atom_type": "LIST_ITEM", "md_parent_section": "§TU [TU — Assumptions]", "md_verbatim": "c. The sponsor records the occurrence of a new tumor/lesion to the same level of detail as target tumors/lesions. For example, with the occurrence of a new tumor, its anatomical location and its measurement might be recorded. In this case, it is expected that a record would be created where TUTEST = \"Tumor Identification\" and TUORRES = \"NEW\". The TULOC variable would be populated with the anatomical location information (the additional location variables may be populated depending on the level of detail collected) and the identifier, TULNKID, would be populated in order to link to the associated information in the TR domain. In this scenario, measurements/assessments would also be recorded in the TR domain.", "score": 0.4748, "match_basis": "verbatim_token+global_search"}], "candidate_count": 5, "zero_candidate": false}
{"pdf_atom_id": "ig34_p0333_a004", "pdf_atom_type": "LIST_ITEM", "pdf_source": "SDTMIG_v3.4", "pdf_page": 333, "pdf_parent_section": "§6.3.9.3.1 Disease Response Use Case", "pdf_verbatim": "5.  When using the RS domain to represent response evaluation or clinical classification instruments that incorporate data from other domains:", "figure_ref": null, "candidates": [{"md_atom_id": "md_dmRS_assn_a013", "md_file": "knowledge_base/domains/RS/assumptions.md", "md_atom_type": "LIST_ITEM", "md_parent_section": "§RS [RS — Assumptions]", "md_verbatim": "5. When using the RS domain to represent response evaluation or clinical classification instruments that incorporate data from other domains:", "score": 0.9, "match_basis": "verbatim_token+global_search"}, {"md_atom_id": "md_dmRS_assn_a032", "md_file": "knowledge_base/domains/RS/assumptions.md", "md_atom_type": "LIST_ITEM", "md_parent_section": "§RS [RS — Assumptions]", "md_verbatim": "3. When using the RS domain to represent a clinical classification instrument that incorporates data from other domains:", "score": 0.7971, "match_basis": "verbatim_token+global_search"}, {"md_atom_id": "md_dmRS_assn_a033", "md_file": "knowledge_base/domains/RS/assumptions.md", "md_atom_type": "LIST_ITEM", "md_parent_section": "§RS [RS — Assumptions]", "md_verbatim": "   a. Whenever possible, all source data must be represented in the topic-based domain(s) to which they pertain. For example, if a lab test value is collected and then scored for a response evaluation or clinical classification instrument, the lab test value must be recorded in the LB domain using the rules that apply to that domain and the tests being represented.", "score": 0.5489, "match_basis": "verbatim_token+global_search"}, {"md_atom_id": "md_dmRS_assn_a035", "md_file": "knowledge_base/domains/RS/assumptions.md", "md_atom_type": "LIST_ITEM", "md_parent_section": "§RS [RS — Assumptions]", "md_verbatim": "   c. If a clinical classification uses a source value by comparing it to a range (e.g., \"2-5\", \">3\"), then the source value will exist only in the source domain; the range is represented in the corresponding RS record in RSORRES and RSORRESU.", "score": 0.5094, "match_basis": "verbatim_token+global_search"}, {"md_atom_id": "md_dmRS_assn_a029", "md_file": "knowledge_base/domains/RS/assumptions.md", "md_atom_type": "LIST_ITEM", "md_parent_section": "§RS [RS — Assumptions]", "md_verbatim": "1. Clinical classifications are named instruments whose output is an ordinal or categorical score that serves as a surrogate for or ranking of disease status or other physiological or biological status.", "score": 0.4667, "match_basis": "verbatim_token+global_search"}], "candidate_count": 5, "zero_candidate": false}
{"pdf_atom_id": "ig34_p0333_a005", "pdf_atom_type": "LIST_ITEM", "pdf_source": "SDTMIG_v3.4", "pdf_page": 333, "pdf_parent_section": "§6.3.9.3.1 Disease Response Use Case", "pdf_verbatim": "a.  Whenever possible, all source data must be represented in the topic-based domain(s) to which they pertain. For example, if a lab test value is collected and then scored for a response evaluation, the lab test value must be recorded in the LB domain using the rules that apply to the domain and the tests being represented.", "figure_ref": null, "candidates": [{"md_atom_id": "md_dmRS_assn_a014", "md_file": "knowledge_base/domains/RS/assumptions.md", "md_atom_type": "LIST_ITEM", "md_parent_section": "§RS [RS — Assumptions]", "md_verbatim": "   a. Whenever possible, all source data must be represented in the topic-based domain(s) to which they pertain. For example, if a lab test value is collected and then scored for a response evaluation, the lab test value must be recorded in the LB domain using the rules that apply to that domain and the tests being represented.", "score": 0.9, "match_basis": "verbatim_token+global_search"}, {"md_atom_id": "md_dmRS_assn_a033", "md_file": "knowledge_base/domains/RS/assumptions.md", "md_atom_type": "LIST_ITEM", "md_parent_section": "§RS [RS — Assumptions]", "md_verbatim": "   a. Whenever possible, all source data must be represented in the topic-based domain(s) to which they pertain. For example, if a lab test value is collected and then scored for a response evaluation or clinical classification instrument, the lab test value must be recorded in the LB domain using the rules that apply to that domain and the tests being represented.", "score": 0.8016, "match_basis": "verbatim_token+global_search"}, {"md_atom_id": "md_dmSV_assn_a022", "md_file": "knowledge_base/domains/SV/assumptions.md", "md_atom_type": "LIST_ITEM", "md_parent_section": "§SV [SV — Assumptions]", "md_verbatim": "    b. The purpose of --DTC and --DY in other domains with start and end dates (Event and Intervention Domains) is to record the date on which data was collected. For a visit that occurred, it is not necessary to submit the date on which information about the visit was collected. When SVPRESP = \"Y\" and SVOCCUR = \"N\", --DTC and --DY are available for use to represent the date on which it was recorded that the visit did not take place.", "score": 0.4669, "match_basis": "verbatim_token+global_search"}, {"md_atom_id": "md_dmRS_assn_a013", "md_file": "knowledge_base/domains/RS/assumptions.md", "md_atom_type": "LIST_ITEM", "md_parent_section": "§RS [RS — Assumptions]", "md_verbatim": "5. When using the RS domain to represent response evaluation or clinical classification instruments that incorporate data from other domains:", "score": 0.46, "match_basis": "verbatim_token+global_search"}, {"md_atom_id": "md_dmRS_assn_a035", "md_file": "knowledge_base/domains/RS/assumptions.md", "md_atom_type": "LIST_ITEM", "md_parent_section": "§RS [RS — Assumptions]", "md_verbatim": "   c. If a clinical classification uses a source value by comparing it to a range (e.g., \"2-5\", \">3\"), then the source value will exist only in the source domain; the range is represented in the corresponding RS record in RSORRES and RSORRESU.", "score": 0.4489, "match_basis": "verbatim_token+global_search"}], "candidate_count": 5, "zero_candidate": false}
{"pdf_atom_id": "ig34_p0333_a006", "pdf_atom_type": "LIST_ITEM", "pdf_source": "SDTMIG_v3.4", "pdf_page": 333, "pdf_parent_section": "§6.3.9.3.1 Disease Response Use Case", "pdf_verbatim": "b.  In the oncology setting, the response to therapy would often be determined, at least in part, from data in the TR domain. Data from other sources (in other SDTM domains) might also be used in an assessment of response (e.g., lab test results, assessments of symptoms).", "figure_ref": null, "candidates": [{"md_atom_id": "md_dmRS_assn_a015", "md_file": "knowledge_base/domains/RS/assumptions.md", "md_atom_type": "LIST_ITEM", "md_parent_section": "§RS [RS — Assumptions]", "md_verbatim": "   b. In the oncology setting, the response to therapy would often be determined, at least in part, from data in the TR domain. Data from other sources (in other SDTM domains) might also be used in an assessment of response (e.g., lab test results, assessments of symptoms).", "score": 0.9, "match_basis": "verbatim_token+global_search"}, {"md_atom_id": "md_dmRS_assn_a004", "md_file": "knowledge_base/domains/RS/assumptions.md", "md_atom_type": "LIST_ITEM", "md_parent_section": "§RS [RS — Assumptions]", "md_verbatim": "1. RSCAT is used to group a set of assessments based on a disease response criterion (published or protocol-defined). One of the codelists for RSCAT is ONCRSCAT. The ONCRSCAT codelist contains controlled terminology for oncology disease response assessments.", "score": 0.4447, "match_basis": "verbatim_token+global_search"}, {"md_atom_id": "md_dmRS_assn_a012", "md_file": "knowledge_base/domains/RS/assumptions.md", "md_atom_type": "LIST_ITEM", "md_parent_section": "§RS [RS — Assumptions]", "md_verbatim": "4. The RSLNKGRP variable is used to provide a link between the records in a findings domain (e.g., Tumor/Lesion Results, TR; Laboratory Test Results, LB) that contribute to a record in the RS domain. Records should exist in the RELREC dataset to support this relationship. A RELREC relationship could also be defined using RSLNKID when a response evaluation or clinical classification measure relates back to another source dataset (e.g., tumor assessment in TR). The domain in which data that contribute to an assessment of response reside should not affect whether a link to the RS record through a RELREC relationship is created. For example, a set of oncology response criteria might require lab results in the LB domain, not only tumor results in the TR domain.", "score": 0.4375, "match_basis": "verbatim_token+global_search"}, {"md_atom_id": "md_dmSS_assn_a003", "md_file": "knowledge_base/domains/SS/assumptions.md", "md_atom_type": "LIST_ITEM", "md_parent_section": "§SS [SS — Assumptions]", "md_verbatim": "2. RELREC may be used to link assessments in SS with data in other domains that were collected as a result of the subject's status assessment.", "score": 0.4368, "match_basis": "verbatim_token+global_search"}, {"md_atom_id": "md_dmRS_assn_a016", "md_file": "knowledge_base/domains/RS/assumptions.md", "md_atom_type": "LIST_ITEM", "md_parent_section": "§RS [RS — Assumptions]", "md_verbatim": "   c. Oncology response assessments sometimes include symptomatic deterioration. Symptomatic deterioration may be considered as non-radiologic evidence of progressive disease. Symptomatic deterioration is recorded in RS with RSTEST = \"Symptomatic Deterioration\" and the standardized response (e.g., \"PD\") in RSSTRESC.", "score": 0.4236, "match_basis": "verbatim_token+global_search"}], "candidate_count": 5, "zero_candidate": false}
{"pdf_atom_id": "ig34_p0333_a007", "pdf_atom_type": "LIST_ITEM", "pdf_source": "SDTMIG_v3.4", "pdf_page": 333, "pdf_parent_section": "§6.3.9.3.1 Disease Response Use Case", "pdf_verbatim": "c.  Oncology response assessments sometimes include symptomatic deterioration.", "figure_ref": null, "candidates": [{"md_atom_id": "md_dmRS_assn_a016", "md_file": "knowledge_base/domains/RS/assumptions.md", "md_atom_type": "LIST_ITEM", "md_parent_section": "§RS [RS — Assumptions]", "md_verbatim": "   c. Oncology response assessments sometimes include symptomatic deterioration. Symptomatic deterioration may be considered as non-radiologic evidence of progressive disease. Symptomatic deterioration is recorded in RS with RSTEST = \"Symptomatic Deterioration\" and the standardized response (e.g., \"PD\") in RSSTRESC.", "score": 0.5786, "match_basis": "verbatim_token+global_search"}, {"md_atom_id": "md_dmRS_assn_a015", "md_file": "knowledge_base/domains/RS/assumptions.md", "md_atom_type": "LIST_ITEM", "md_parent_section": "§RS [RS — Assumptions]", "md_verbatim": "   b. In the oncology setting, the response to therapy would often be determined, at least in part, from data in the TR domain. Data from other sources (in other SDTM domains) might also be used in an assessment of response (e.g., lab test results, assessments of symptoms).", "score": 0.4651, "match_basis": "verbatim_token+global_search"}, {"md_atom_id": "md_dmRS_assn_a004", "md_file": "knowledge_base/domains/RS/assumptions.md", "md_atom_type": "LIST_ITEM", "md_parent_section": "§RS [RS — Assumptions]", "md_verbatim": "1. RSCAT is used to group a set of assessments based on a disease response criterion (published or protocol-defined). One of the codelists for RSCAT is ONCRSCAT. The ONCRSCAT codelist contains controlled terminology for oncology disease response assessments.", "score": 0.4304, "match_basis": "verbatim_token+global_search"}, {"md_atom_id": "md_dmRS_assn_a011", "md_file": "knowledge_base/domains/RS/assumptions.md", "md_atom_type": "LIST_ITEM", "md_parent_section": "§RS [RS — Assumptions]", "md_verbatim": "   a. For disease response criteria, the BEST Response assessment records are included in the RS domain only when provided by the investigator or an independent assessor (i.e., Best responses that are derived by the sponsor for the analysis are not included in the RS domain).", "score": 0.4138, "match_basis": "verbatim_token+global_search"}, {"md_atom_id": "md_dmIS_assn_a015", "md_file": "knowledge_base/domains/IS/assumptions.md", "md_atom_type": "LIST_ITEM", "md_parent_section": "§IS [IS — Assumptions]", "md_verbatim": "   c. For assessments measuring the induced-antibody response, ISSCAT = HUMORAL IMMUNITY.", "score": 0.4116, "match_basis": "verbatim_token+global_search"}], "candidate_count": 5, "zero_candidate": false}
{"pdf_atom_id": "ig34_p0333_a008", "pdf_atom_type": "SENTENCE", "pdf_source": "SDTMIG_v3.4", "pdf_page": 333, "pdf_parent_section": "§6.3.9.3.1 Disease Response Use Case", "pdf_verbatim": "Symptomatic deterioration may be considered as non-radiologic evidence of progressive disease. Symptomatic deterioration is recorded in RS with RSTEST = \"Symptomatic Deterioration\" and the standardized response (e.g., \"PD\") in RSSTRESC.", "figure_ref": null, "candidates": [{"md_atom_id": "md_dmRS_assn_a016", "md_file": "knowledge_base/domains/RS/assumptions.md", "md_atom_type": "LIST_ITEM", "md_parent_section": "§RS [RS — Assumptions]", "md_verbatim": "   c. Oncology response assessments sometimes include symptomatic deterioration. Symptomatic deterioration may be considered as non-radiologic evidence of progressive disease. Symptomatic deterioration is recorded in RS with RSTEST = \"Symptomatic Deterioration\" and the standardized response (e.g., \"PD\") in RSSTRESC.", "score": 0.6814, "match_basis": "verbatim_token+global_search"}, {"md_atom_id": "md_dmRS_ex_a005", "md_file": "knowledge_base/domains/RS/examples.md", "md_atom_type": "SENTENCE", "md_parent_section": "§RS.1.1 [Example 1]", "md_verbatim": "This example shows response assessments determined from the TR domain based on RECIST 1.1 criteria and also shows a case where progressive disease due to symptomatic deterioration was determined based on a clinical assessment by the investigator.", "score": 0.4755, "match_basis": "verbatim_token+global_search"}, {"md_atom_id": "md_dmRS_ex_a018", "md_file": "knowledge_base/domains/RS/examples.md", "md_atom_type": "SENTENCE", "md_parent_section": "§RS.1.2 [Example 2]", "md_verbatim": "This example shows response assessments determined from the TR domain based on RECIST 1.1 criteria and also shows a confirmation of an equivocal new lesion progression.", "score": 0.4091, "match_basis": "verbatim_token+global_search"}, {"md_atom_id": "md_dmRS_ex_a036", "md_file": "knowledge_base/domains/RS/examples.md", "md_atom_type": "SENTENCE", "md_parent_section": "§RS.1.3 [Example 3]", "md_verbatim": "**Rows 4-5:** Show best response and progression to a follow-up anti-cancer therapy. The date of best response and date of progression are represented in RSDTC. RSSTTPT and RSSTRTPT represent that the best response and progression were after study treatment discontinuation. RSCAT = \"UNSPECIFIED\" indicates that the criteria used to determine the best response and progression was unknown or not collected. RSPLNKGRP = \"CM3\" is used to link this record in RS to the prior chemotherapy in CM where the CMLNKGRP = \"CM3\".", "score": 0.4083, "match_basis": "verbatim_token+global_search"}, {"md_atom_id": "md_dmRS_ex_a007", "md_file": "knowledge_base/domains/RS/examples.md", "md_atom_type": "SENTENCE", "md_parent_section": "§RS.1.1 [Example 1]", "md_verbatim": "**Rows 4-7:** Show the target response and non-target response by the investigator using RECIST 1.1, as well as the determination of symptomatic determination (pleural effusion) and overall response using protocol-defined response criteria, at the week 12 visit.", "score": 0.408, "match_basis": "verbatim_token+global_search"}], "candidate_count": 5, "zero_candidate": false}
{"pdf_atom_id": "ig34_p0333_a009", "pdf_atom_type": "TABLE_HEADER", "pdf_source": "SDTMIG_v3.4", "pdf_page": 333, "pdf_parent_section": "§6.3.9.3.1 Disease Response Use Case", "pdf_verbatim": "| RSTESTCD | RSTEST | RSCAT | RSORRES | RSSTRESC |", "figure_ref": null, "candidates": [{"md_atom_id": "md_dmRS_ex_a050", "md_file": "knowledge_base/domains/RS/examples.md", "md_atom_type": "TABLE_HEADER", "md_parent_section": "§RS.2.1 [Example 1]", "md_verbatim": "| Row | STUDYID | DOMAIN | USUBJID | RSSEQ | RSTESTCD | RSTEST | RSCAT | RSORRES | RSSTRESC | RSSTRESN | RSLOBXFL | VISITNUM | RSDTC |\n|-----|---------|--------|---------|-------|----------|--------|-------|---------|----------|----------|----------|----------|-------|", "score": 0.5192, "match_basis": "verbatim_token+global_search"}, {"md_atom_id": "md_dmTR_assn_a013", "md_file": "knowledge_base/domains/TR/assumptions.md", "md_atom_type": "TABLE_HEADER", "md_parent_section": "§TR [TR — Assumptions]", "md_verbatim": "| TRLNKID | TRTESTCD | TRTEST | TRORRES | TRORRESU | TRSTRESC | TRSTRESN | TRSTRESN |", "score": 0.5129, "match_basis": "verbatim_token+global_search"}, {"md_atom_id": "md_dmRS_ex_a009", "md_file": "knowledge_base/domains/RS/examples.md", "md_atom_type": "TABLE_HEADER", "md_parent_section": "§RS.1.1 [Example 1]", "md_verbatim": "| Row | STUDYID | DOMAIN | USUBJID | RSSEQ | RSLNKGRP | RSTESTCD | RSTEST | RSCAT | RSORRES | RSSTRESC | RSEVAL | VISITNUM | VISIT | RSDTC | RSDY |\n|-----|---------|--------|---------|-------|----------|----------|--------|-------|---------|----------|--------|----------|-------|-------|------|", "score": 0.5036, "match_basis": "verbatim_token+global_search"}, {"md_atom_id": "md_ch04_a883", "md_file": "knowledge_base/chapters/ch04_general_assumptions.md", "md_atom_type": "TABLE_HEADER", "md_parent_section": "§4.5.1.3 [Examples of Original and Standard Units and Test Not Done]", "md_verbatim": "| Row | VSTESTCD | VSORRES | VSORRESU | VSSTRESC | VSSTRESN | VSSTRESU | VSSTAT | VSDRVFL | VISITNUM | VSDTC |\n|-----|----------|---------|----------|----------|----------|----------|--------|---------|----------|-------|", "score": 0.495, "match_basis": "verbatim_token+global_search"}, {"md_atom_id": "md_ch04_a308", "md_file": "knowledge_base/chapters/ch04_general_assumptions.md", "md_atom_type": "TABLE_HEADER", "md_parent_section": "§4.2.7.2 [\"Specify\" Values for Result Qualifier Variables]", "md_verbatim": "   | SCTEST    | SCORRES     | SCSTRESC |\n   |-----------|-------------|----------|", "score": 0.492, "match_basis": "verbatim_token+global_search"}], "candidate_count": 5, "zero_candidate": false}
{"pdf_atom_id": "ig34_p0333_a010", "pdf_atom_type": "TABLE_ROW", "pdf_source": "SDTMIG_v3.4", "pdf_page": 333, "pdf_parent_section": "§6.3.9.3.1 Disease Response Use Case", "pdf_verbatim": "| SYMPTDTR | Symptomatic Deterioration | PROTOCOL DEFINED RESPONSE CRITERIA | Increased weakness and weight loss | PD |", "figure_ref": null, "candidates": [{"md_atom_id": "md_dmRS_ex_a015", "md_file": "knowledge_base/domains/RS/examples.md", "md_atom_type": "TABLE_ROW", "md_parent_section": "§RS.1.1 [Example 1]", "md_verbatim": "| 6 | ABC | RS | 44444 | 6 | | SYMPTDTR | Symptomatic Deterioration | PROTOCOL DEFINED RESPONSE CRITERIA | Pleural Effusion | PD | INVESTIGATOR | 60 | WEEK 12 | 2010-04-02 | 88 |", "score": 0.5899, "match_basis": "verbatim_token+global_search"}, {"md_atom_id": "md_dmRS_ex_a016", "md_file": "knowledge_base/domains/RS/examples.md", "md_atom_type": "TABLE_ROW", "md_parent_section": "§RS.1.1 [Example 1]", "md_verbatim": "| 7 | ABC | RS | 44444 | 7 | A3 | OVRLRESP | Overall Response | PROTOCOL DEFINED RESPONSE CRITERIA | PD | PD | INVESTIGATOR | 60 | WEEK 12 | 2010-04-02 | 88 |", "score": 0.4568, "match_basis": "verbatim_token+global_search"}, {"md_atom_id": "md_model05_a129", "md_file": "knowledge_base/model/05_study_level_data.md", "md_atom_type": "TABLE_ROW", "md_parent_section": "§ Trial Inclusion/Exclusion Criteria (TI)", "md_verbatim": "| 8 | TIVERS | Protocol Criteria Versions | Char | Record Qualifier |", "score": 0.4024, "match_basis": "verbatim_token+global_search"}, {"md_atom_id": "md_model02_a218", "md_file": "knowledge_base/model/02_observation_classes.md", "md_atom_type": "TABLE_ROW", "md_parent_section": "§3.1.5 > Time Point Variables", "md_verbatim": "| 28 | --TPT | Planned Time Point Name | Char | Protocol-defined time point description |", "score": 0.4012, "match_basis": "verbatim_token+global_search"}, {"md_atom_id": "md_varindex_a1522", "md_file": "knowledge_base/VARIABLE_INDEX.md", "md_atom_type": "TABLE_ROW", "md_parent_section": "§ 二、领域专属变量（仅 1 个域，共 1499 个），按域分组", "md_verbatim": "| TIVERS | Protocol Criteria Versions | Char | Record Qualifier | Perm | — |", "score": 0.4, "match_basis": "verbatim_token+global_search"}], "candidate_count": 5, "zero_candidate": false}
{"pdf_atom_id": "ig34_p0333_a011", "pdf_atom_type": "LIST_ITEM", "pdf_source": "SDTMIG_v3.4", "pdf_page": 333, "pdf_parent_section": "§6.3.9.3.1 Disease Response Use Case", "pdf_verbatim": "d.  In all cases, RSSTRESC should be populated as indicated in controlled terminology.", "figure_ref": null, "candidates": [{"md_atom_id": "md_dmRS_assn_a017", "md_file": "knowledge_base/domains/RS/assumptions.md", "md_atom_type": "LIST_ITEM", "md_parent_section": "§RS [RS — Assumptions]", "md_verbatim": "   d. In all cases, RSSTRESC should be populated as indicated in controlled terminology.", "score": 0.9, "match_basis": "verbatim_token+global_search"}, {"md_atom_id": "md_dmRS_assn_a036", "md_file": "knowledge_base/domains/RS/assumptions.md", "md_atom_type": "LIST_ITEM", "md_parent_section": "§RS [RS — Assumptions]", "md_verbatim": "   d. In all cases, RSSTRESC/RSSTRESN should be populated with the assigned ordinal score as indicated on the instrument.", "score": 0.5294, "match_basis": "verbatim_token+global_search"}, {"md_atom_id": "md_ch04_a248", "md_file": "knowledge_base/chapters/ch04_general_assumptions.md", "md_atom_type": "LIST_ITEM", "md_parent_section": "§4.2.6 [Grouping Variables and Categorization]", "md_verbatim": "3. --CAT/--SCAT may have some controlled terminology.", "score": 0.5204, "match_basis": "verbatim_token+global_search"}, {"md_atom_id": "md_varindex_a008", "md_file": "knowledge_base/VARIABLE_INDEX.md", "md_atom_type": "LIST_ITEM", "md_parent_section": "§ 使用说明", "md_verbatim": "- **CT 交叉引用**：按 CDISC Controlled Terminology Code 分组，列出所有引用该 CT 的变量", "score": 0.5125, "match_basis": "verbatim_token+global_search"}, {"md_atom_id": "md_ch10_a143", "md_file": "knowledge_base/chapters/ch10_appendices.md", "md_atom_type": "LIST_ITEM", "md_parent_section": "§10.E [Revision History]", "md_verbatim": "- Values updated to current CDISC Controlled Terminology", "score": 0.4966, "match_basis": "verbatim_token+global_search"}], "candidate_count": 5, "zero_candidate": false}
{"pdf_atom_id": "ig34_p0333_a012", "pdf_atom_type": "LIST_ITEM", "pdf_source": "SDTMIG_v3.4", "pdf_page": 333, "pdf_parent_section": "§6.3.9.3.1 Disease Response Use Case", "pdf_verbatim": "6.  Best response, duration of response, or the progression to prior therapies and follow-up therapies may be represented in the RS domain.", "figure_ref": null, "candidates": [{"md_atom_id": "md_dmRS_assn_a018", "md_file": "knowledge_base/domains/RS/assumptions.md", "md_atom_type": "LIST_ITEM", "md_parent_section": "§RS [RS — Assumptions]", "md_verbatim": "6. Best response, duration of response, or the progression to prior therapies and follow-up therapies may be represented in the RS domain.", "score": 0.9, "match_basis": "verbatim_token+global_search"}, {"md_atom_id": "md_dmRS_ex_a032", "md_file": "knowledge_base/domains/RS/examples.md", "md_atom_type": "SENTENCE", "md_parent_section": "§RS.1.3 [Example 3]", "md_verbatim": "This example shows best response and the overall response of progression to prior therapies and follow-up therapies.", "score": 0.5052, "match_basis": "verbatim_token+global_search"}, {"md_atom_id": "md_dmSR_assn_a002", "md_file": "knowledge_base/domains/SR/assumptions.md", "md_atom_type": "LIST_ITEM", "md_parent_section": "§SR [SR — Assumptions]", "md_verbatim": "1. The Skin Response (SR) domain is used to represent findings about an intervention, but it has its own domain code, SR, rather than the domain code FA.", "score": 0.4714, "match_basis": "verbatim_token+global_search"}, {"md_atom_id": "md_ch02_a099", "md_file": "knowledge_base/chapters/ch02_fundamentals.md", "md_atom_type": "LIST_ITEM", "md_parent_section": "§2.6 [Creating a New Domain]", "md_verbatim": "- Do not create separate domains based on time (represent both prior and current in one domain; AE and MH are exceptions)", "score": 0.4481, "match_basis": "verbatim_token+global_search"}, {"md_atom_id": "md_dmMB_assn_a002", "md_file": "knowledge_base/domains/MB/assumptions.md", "md_atom_type": "LIST_ITEM", "md_parent_section": "§MB [MB — Assumptions]", "md_verbatim": "1. Representation of findings in the Microbiology Specimen domain should be handled as follows:", "score": 0.4463, "match_basis": "verbatim_token+global_search"}], "candidate_count": 5, "zero_candidate": false}
{"pdf_atom_id": "ig34_p0333_a013", "pdf_atom_type": "LIST_ITEM", "pdf_source": "SDTMIG_v3.4", "pdf_page": 333, "pdf_parent_section": "§6.3.9.3.1 Disease Response Use Case", "pdf_verbatim": "a.  The record in RS may be related and linked to record(s) in Concomitant/Prior Medications (CM) using CMLNKGRP and RSLNKGRP. Likewise, the link to Procedures (PR; e.g., radiotherapy, surgery) would be made using PRLNKGRP.", "figure_ref": null, "candidates": [{"md_atom_id": "md_dmRS_assn_a019", "md_file": "knowledge_base/domains/RS/assumptions.md", "md_atom_type": "LIST_ITEM", "md_parent_section": "§RS [RS — Assumptions]", "md_verbatim": "   a. The record in RS may be related and linked to record(s) in Concomitant/Prior Medications (CM) using CMLNKGRP and RSLNKGRP. Likewise, the link to Procedures (PR; e.g., radiotherapy, surgery) would be made using PRLNKGRP.", "score": 0.9, "match_basis": "verbatim_token+global_search"}, {"md_atom_id": "md_dmAE_assn_a020", "md_file": "knowledge_base/domains/AE/assumptions.md", "md_atom_type": "LIST_ITEM", "md_parent_section": "§AE [AE — Assumptions]", "md_verbatim": "   a. AECONTRT is a Y/N variable. If the non-study treatment is collected, the name and other information about the treatment should be represented in the appropriate Interventions domain—usually Concomitant/Prior Medications (CM) or Procedures (PR)—and linked to the AE record with RELREC.", "score": 0.4804, "match_basis": "verbatim_token+global_search"}, {"md_atom_id": "md_dmMH_assn_a002", "md_file": "knowledge_base/domains/MH/assumptions.md", "md_atom_type": "LIST_ITEM", "md_parent_section": "§MH [MH — Assumptions]", "md_verbatim": "1. Prior treatments, including prior medications and procedures, should be submitted in an appropriate dataset from the Interventions class (e.g., Concomitant/Prior Medications (CM) or Procedures (PR)).", "score": 0.4701, "match_basis": "verbatim_token+global_search"}, {"md_atom_id": "md_dmML_assn_a002", "md_file": "knowledge_base/domains/ML/assumptions.md", "md_atom_type": "LIST_ITEM", "md_parent_section": "§ML [ML — Assumptions]", "md_verbatim": "1. The ML domain is used to represent consumption of any food or nutritional item that would not be represented in the exposure domains (EC/EX), Concomitant/Prior Medications (CM), Procedure Agents (AG), or Substance Use (SU). Examples of nutritional items that would be represented in other domains include:", "score": 0.4563, "match_basis": "verbatim_token+global_search"}, {"md_atom_id": "md_dmAG_assn_a003", "md_file": "knowledge_base/domains/AG/assumptions.md", "md_atom_type": "LIST_ITEM", "md_parent_section": "§AG [AG — Assumptions]", "md_verbatim": "   a. The Concomitant/Prior Medications (CM) domain seemed particularly inappropriate when the substance was one that would never be given as a medication. Even substances that are medications are not being used as such when they are given as part of a testing procedure.", "score": 0.4457, "match_basis": "verbatim_token+global_search"}], "candidate_count": 5, "zero_candidate": false}
{"pdf_atom_id": "ig34_p0333_a014", "pdf_atom_type": "LIST_ITEM", "pdf_source": "SDTMIG_v3.4", "pdf_page": 333, "pdf_parent_section": "§6.3.9.3.1 Disease Response Use Case", "pdf_verbatim": "b.  If the criteria used to determine the response is unknown or not collected, this is represented as RSCAT = \"UNSPECIFIED\".", "figure_ref": null, "candidates": [{"md_atom_id": "md_dmRS_assn_a020", "md_file": "knowledge_base/domains/RS/assumptions.md", "md_atom_type": "LIST_ITEM", "md_parent_section": "§RS [RS — Assumptions]", "md_verbatim": "   b. If the criteria used to determine the response is unknown or not collected, this is represented as RSCAT = \"UNSPECIFIED\".", "score": 0.9, "match_basis": "verbatim_token+global_search"}, {"md_atom_id": "md_dmRS_ex_a035", "md_file": "knowledge_base/domains/RS/examples.md", "md_atom_type": "SENTENCE", "md_parent_section": "§RS.1.3 [Example 3]", "md_verbatim": "**Row 3:** Shows best response to prior radiotherapy. The date of best response is represented in RSDTC. RSENTPT and RSENRTPT represent that the best response was prior to screening. RSCAT = \"UNSPECIFIED\" indicates that the criteria used to determine the best response was unknown or not collected. RSPLNKGRP = \"PR2\" is used to link this record in RS to the prior radiotherapy in PR where the PRLNKGRP = \"PR2\".", "score": 0.4897, "match_basis": "verbatim_token+global_search"}, {"md_atom_id": "md_dmRS_ex_a034", "md_file": "knowledge_base/domains/RS/examples.md", "md_atom_type": "SENTENCE", "md_parent_section": "§RS.1.3 [Example 3]", "md_verbatim": "**Row 2:** Shows best response to prior chemotherapy regimen. The date of best response is represented in RSDTC. RSENTPT and RSENRTPT represent that the best response was prior to screening. RSCAT = \"UNSPECIFIED\" indicates that the criteria used to determine the best response was unknown or not collected. RSPLNKGRP = \"CM2\" is used to link this record in RS to the prior chemotherapy in CM where the CMLNKGRP = \"CM2\".", "score": 0.4783, "match_basis": "verbatim_token+global_search"}, {"md_atom_id": "md_dmRS_assn_a024", "md_file": "knowledge_base/domains/RS/assumptions.md", "md_atom_type": "LIST_ITEM", "md_parent_section": "§RS [RS — Assumptions]", "md_verbatim": "9. Disease recurrence can be represented in the RS domain using RSTEST = \"Disease Recurrence Indicator\" to indicate that there was an assessment of whether there was disease recurrence. The RSCAT = \"PROTOCOL DEFINED RESPONSE CRITERIA\" can be used to indicate that the response assessment of disease recurrence was based on protocol-specified criteria rather than published response criteria.", "score": 0.4721, "match_basis": "verbatim_token+global_search"}, {"md_atom_id": "md_dmMB_assn_a012", "md_file": "knowledge_base/domains/MB/assumptions.md", "md_atom_type": "LIST_ITEM", "md_parent_section": "§MB [MB — Assumptions]", "md_verbatim": "2. MBDTC represents the date the specimen was collected.", "score": 0.4662, "match_basis": "verbatim_token+global_search"}], "candidate_count": 5, "zero_candidate": false}
{"pdf_atom_id": "ig34_p0333_a015", "pdf_atom_type": "LIST_ITEM", "pdf_source": "SDTMIG_v3.4", "pdf_page": 333, "pdf_parent_section": "§6.3.9.3.1 Disease Response Use Case", "pdf_verbatim": "7.  The evaluator identifier variable (RSEVALID) can be used in conjunction with RSEVAL to provide additional detail of who is providing the assessment. For example, RSEVAL = \"INDEPENDENT ASSESSOR\" and RSEVALID = \"RADIOLOGIST 1\" may further qualify the RSEVALID variable. RSEVALID may be subject to controlled terminology but may also represent free text values depending on the use case. When used with disease response data, RSEVALID is subject to MEDEVAL controlled terminology.", "figure_ref": null, "candidates": [{"md_atom_id": "md_dmRS_assn_a021", "md_file": "knowledge_base/domains/RS/assumptions.md", "md_atom_type": "LIST_ITEM", "md_parent_section": "§RS [RS — Assumptions]", "md_verbatim": "7. The evaluator identifier variable (RSEVALID) can be used in conjunction with RSEVAL to provide additional detail of who is providing the assessment. For example, RSEVAL = \"INDEPENDENT ASSESSOR\" and RSEVALID = \"RADIOLOGIST 1\" may further qualify the RSEVALID variable. RSEVALID may be subject to controlled terminology but may also represent free text values depending on the use case. When used with disease response data, RSEVALID is subject to MEDEVAL controlled terminology.", "score": 0.9, "match_basis": "verbatim_token+global_search"}, {"md_atom_id": "md_dmTR_assn_a017", "md_file": "knowledge_base/domains/TR/assumptions.md", "md_atom_type": "LIST_ITEM", "md_parent_section": "§TR [TR — Assumptions]", "md_verbatim": "6. The evaluator-specified variable (TREVALID) is used in conjunction with TREVAL to provide additional detail of who is providing measurements or assessments (e.g., TREVAL = \"INDEPENDENT ASSESSOR\", TREVALID = \"RADIOLOGIST 1\"). The TREVALID variable is subject to controlled terminology.", "score": 0.6491, "match_basis": "verbatim_token+global_search"}, {"md_atom_id": "md_dmTU_assn_a045", "md_file": "knowledge_base/domains/TU/assumptions.md", "md_atom_type": "LIST_ITEM", "md_parent_section": "§TU [TU — Assumptions]", "md_verbatim": "8. The evaluator-specified variable TUEVALID is used in conjunction with TUEVAL to provide additional detail regarding who is providing tumor identification information (e.g., TUEVAL = \"INDEPENDENT ASSESSOR\", TUEVALID = \"RADIOLOGIST 1\"). The TUEVALID variable is subject to controlled terminology.", "score": 0.6257, "match_basis": "verbatim_token+global_search"}, {"md_atom_id": "md_dmRS_assn_a022", "md_file": "knowledge_base/domains/RS/assumptions.md", "md_atom_type": "LIST_ITEM", "md_parent_section": "§RS [RS — Assumptions]", "md_verbatim": "8. In cases where an independent assessor identifies one of multiple assessments/measurements to be the accepted one, the accepted record flag variable (RSACPTFL) identifies records that have been determined to be the accepted assessments/measurements by an independent assessor. This flag would be provided by an independent assessor when multiple assessors (e.g., \"RADIOLOGIST 1\", \"RADIOLOGIST 2\", \"ADJUDICATOR\") provide assessments or evaluations at the same time point or for an overall evaluation.", "score": 0.4765, "match_basis": "verbatim_token+global_search"}, {"md_atom_id": "md_dmDM_assn_a019", "md_file": "knowledge_base/domains/DM/assumptions.md", "md_atom_type": "LIST_ITEM", "md_parent_section": "§DM [DM — Assumptions]", "md_verbatim": "6. Submission of multiple race responses should be represented in the Demographics (DM) domain and Supplemental Qualifiers (SUPPDM) dataset as described in Section 4.2.8.3, Multiple Values for a Non-result Qualifier Variable. If multiple races are collected, then the value of RACE should be \"MULTIPLE\" and the additional information will be included in the Supplemental Qualifiers dataset. Controlled terminology for RACE should be used in both DM and SUPPDM so that consistent values are available for summaries regardless of whether the data are found in a column or row. If multiple races were collected and 1 was designated as primary, RACE in DM should be the primary race and additional races should be reported in SUPPDM. When additional free-text information is reported about subject's race using \"Other, Specify\", sponsors should refer to Section 4.2.7.1, \"Specify\" Values for Non-Result Qualifier Variables. If race was collected via an \"Other, Specify\" field and the sponsor chooses not to map the value as described in the current FDA guidance (see CDISC Notes for RACE in the domain specification), then the value of RACE should be \"OTHER\". For subjects who refuse to provide or do not know their race information, the value of RACE could be \"UNKNOWN\". See DM Example 4, DM Example 5, DM Example 6, and DM Example 7.", "score": 0.4727, "match_basis": "verbatim_token+global_search"}], "candidate_count": 5, "zero_candidate": false}
{"pdf_atom_id": "ig34_p0333_a016", "pdf_atom_type": "LIST_ITEM", "pdf_source": "SDTMIG_v3.4", "pdf_page": 333, "pdf_parent_section": "§6.3.9.3.1 Disease Response Use Case", "pdf_verbatim": "8.  In cases where an independent assessor identifies one of multiple assessments/measurements to be the accepted one, the accepted record flag variable (RSACPTFL) identifies records that have been determined to be the accepted assessments/measurements by an independent assessor. This flag would [TRUNCATED_AT_PAGE_BOUNDARY]", "figure_ref": null, "candidates": [{"md_atom_id": "md_dmRS_assn_a022", "md_file": "knowledge_base/domains/RS/assumptions.md", "md_atom_type": "LIST_ITEM", "md_parent_section": "§RS [RS — Assumptions]", "md_verbatim": "8. In cases where an independent assessor identifies one of multiple assessments/measurements to be the accepted one, the accepted record flag variable (RSACPTFL) identifies records that have been determined to be the accepted assessments/measurements by an independent assessor. This flag would be provided by an independent assessor when multiple assessors (e.g., \"RADIOLOGIST 1\", \"RADIOLOGIST 2\", \"ADJUDICATOR\") provide assessments or evaluations at the same time point or for an overall evaluation.", "score": 0.6608, "match_basis": "verbatim_token+global_search"}, {"md_atom_id": "md_dmTU_assn_a044", "md_file": "knowledge_base/domains/TU/assumptions.md", "md_atom_type": "LIST_ITEM", "md_parent_section": "§TU [TU — Assumptions]", "md_verbatim": "7. The acceptance flag variable (TUACPTFL) identifies records that have been determined to be the accepted assessments/measurements by an independent assessor. This flag would be provided by an independent assessor and when multiple evaluators (e.g., \"RADIOLOGIST 1\", \"RADIOLOGIST 2\", \"ADJUDICATOR\") provide assessments or evaluations at the same time point or an overall evaluation. This flag should not be used by a sponsor for any other purpose. It is not expected that the TUACPTFL flag would be populated by the sponsor; instead, that type of record selection should be handled in the analysis dataset (ADaM).", "score": 0.5464, "match_basis": "verbatim_token+global_search"}, {"md_atom_id": "md_dmTR_assn_a016", "md_file": "knowledge_base/domains/TR/assumptions.md", "md_atom_type": "LIST_ITEM", "md_parent_section": "§TR [TR — Assumptions]", "md_verbatim": "5. The acceptance flag variable (TRACPTFL) identifies those records that have been determined to be the accepted assessments/measurements by an independent assessor. This flag would be provided by an independent assessor and when multiple assessors (e.g., \"RADIOLOGIST 1\", \"RADIOLOGIST 2\", \"ADJUDICATOR\") provide assessments or evaluations at the same time point or an overall evaluation. This flag should not be used by a sponsor for any other purpose. It is not expected that the TRACPTFL flag would be populated by the sponsor; instead, that type of record selection should be handled in the analysis dataset (ADaM).", "score": 0.544, "match_basis": "verbatim_token+global_search"}, {"md_atom_id": "md_dmTU_assn_a043", "md_file": "knowledge_base/domains/TU/assumptions.md", "md_atom_type": "LIST_ITEM", "md_parent_section": "§TU [TU — Assumptions]", "md_verbatim": "c. The sponsor records the occurrence of a new tumor/lesion to the same level of detail as target tumors/lesions. For example, with the occurrence of a new tumor, its anatomical location and its measurement might be recorded. In this case, it is expected that a record would be created where TUTEST = \"Tumor Identification\" and TUORRES = \"NEW\". The TULOC variable would be populated with the anatomical location information (the additional location variables may be populated depending on the level of detail collected) and the identifier, TULNKID, would be populated in order to link to the associated information in the TR domain. In this scenario, measurements/assessments would also be recorded in the TR domain.", "score": 0.4507, "match_basis": "verbatim_token+global_search"}, {"md_atom_id": "md_dmTR_assn_a017", "md_file": "knowledge_base/domains/TR/assumptions.md", "md_atom_type": "LIST_ITEM", "md_parent_section": "§TR [TR — Assumptions]", "md_verbatim": "6. The evaluator-specified variable (TREVALID) is used in conjunction with TREVAL to provide additional detail of who is providing measurements or assessments (e.g., TREVAL = \"INDEPENDENT ASSESSOR\", TREVALID = \"RADIOLOGIST 1\"). The TREVALID variable is subject to controlled terminology.", "score": 0.4439, "match_basis": "verbatim_token+global_search"}], "candidate_count": 5, "zero_candidate": false}
{"pdf_atom_id": "ig34_p0334_a001", "pdf_atom_type": "LIST_ITEM", "pdf_source": "SDTMIG_v3.4", "pdf_page": 334, "pdf_parent_section": "§6.3.9.3.1 Disease Response Use Case", "pdf_verbatim": "be provided by an independent assessor when multiple assessors (e.g., \"RADIOLOGIST 1\", \"RADIOLOGIST 2\", \"ADJUDICATOR\") provide assessments or evaluations at the same time point or for an overall evaluation.", "figure_ref": null, "candidates": [{"md_atom_id": "md_dmRS_assn_a022", "md_file": "knowledge_base/domains/RS/assumptions.md", "md_atom_type": "LIST_ITEM", "md_parent_section": "§RS [RS — Assumptions]", "md_verbatim": "8. In cases where an independent assessor identifies one of multiple assessments/measurements to be the accepted one, the accepted record flag variable (RSACPTFL) identifies records that have been determined to be the accepted assessments/measurements by an independent assessor. This flag would be provided by an independent assessor when multiple assessors (e.g., \"RADIOLOGIST 1\", \"RADIOLOGIST 2\", \"ADJUDICATOR\") provide assessments or evaluations at the same time point or for an overall evaluation.", "score": 0.6289, "match_basis": "verbatim_token+global_search"}, {"md_atom_id": "md_dmTU_assn_a044", "md_file": "knowledge_base/domains/TU/assumptions.md", "md_atom_type": "LIST_ITEM", "md_parent_section": "§TU [TU — Assumptions]", "md_verbatim": "7. The acceptance flag variable (TUACPTFL) identifies records that have been determined to be the accepted assessments/measurements by an independent assessor. This flag would be provided by an independent assessor and when multiple evaluators (e.g., \"RADIOLOGIST 1\", \"RADIOLOGIST 2\", \"ADJUDICATOR\") provide assessments or evaluations at the same time point or an overall evaluation. This flag should not be used by a sponsor for any other purpose. It is not expected that the TUACPTFL flag would be populated by the sponsor; instead, that type of record selection should be handled in the analysis dataset (ADaM).", "score": 0.5337, "match_basis": "verbatim_token+global_search"}, {"md_atom_id": "md_dmTR_assn_a016", "md_file": "knowledge_base/domains/TR/assumptions.md", "md_atom_type": "LIST_ITEM", "md_parent_section": "§TR [TR — Assumptions]", "md_verbatim": "5. The acceptance flag variable (TRACPTFL) identifies those records that have been determined to be the accepted assessments/measurements by an independent assessor. This flag would be provided by an independent assessor and when multiple assessors (e.g., \"RADIOLOGIST 1\", \"RADIOLOGIST 2\", \"ADJUDICATOR\") provide assessments or evaluations at the same time point or an overall evaluation. This flag should not be used by a sponsor for any other purpose. It is not expected that the TRACPTFL flag would be populated by the sponsor; instead, that type of record selection should be handled in the analysis dataset (ADaM).", "score": 0.5312, "match_basis": "verbatim_token+global_search"}, {"md_atom_id": "md_dmTR_assn_a017", "md_file": "knowledge_base/domains/TR/assumptions.md", "md_atom_type": "LIST_ITEM", "md_parent_section": "§TR [TR — Assumptions]", "md_verbatim": "6. The evaluator-specified variable (TREVALID) is used in conjunction with TREVAL to provide additional detail of who is providing measurements or assessments (e.g., TREVAL = \"INDEPENDENT ASSESSOR\", TREVALID = \"RADIOLOGIST 1\"). The TREVALID variable is subject to controlled terminology.", "score": 0.4775, "match_basis": "verbatim_token+global_search"}, {"md_atom_id": "md_dmTU_assn_a045", "md_file": "knowledge_base/domains/TU/assumptions.md", "md_atom_type": "LIST_ITEM", "md_parent_section": "§TU [TU — Assumptions]", "md_verbatim": "8. The evaluator-specified variable TUEVALID is used in conjunction with TUEVAL to provide additional detail regarding who is providing tumor identification information (e.g., TUEVAL = \"INDEPENDENT ASSESSOR\", TUEVALID = \"RADIOLOGIST 1\"). The TUEVALID variable is subject to controlled terminology.", "score": 0.4669, "match_basis": "verbatim_token+global_search"}], "candidate_count": 5, "zero_candidate": false}
{"pdf_atom_id": "ig34_p0334_a002", "pdf_atom_type": "LIST_ITEM", "pdf_source": "SDTMIG_v3.4", "pdf_page": 334, "pdf_parent_section": "§6.3.9.3.1 Disease Response Use Case", "pdf_verbatim": "a.  RSACPTFL should not be derived by the sponsor. If a derivation is needed to make the record selection, then this derivation should be done in the analysis dataset (ADaM).", "figure_ref": null, "candidates": [{"md_atom_id": "md_dmRS_assn_a023", "md_file": "knowledge_base/domains/RS/assumptions.md", "md_atom_type": "LIST_ITEM", "md_parent_section": "§RS [RS — Assumptions]", "md_verbatim": "   a. RSACPTFL should not be derived by the sponsor. If a derivation is needed to make the record selection, then this derivation should be done in the analysis dataset (ADaM).", "score": 0.9, "match_basis": "verbatim_token+global_search"}, {"md_atom_id": "md_dmRS_assn_a010", "md_file": "knowledge_base/domains/RS/assumptions.md", "md_atom_type": "LIST_ITEM", "md_parent_section": "§RS [RS — Assumptions]", "md_verbatim": "3. The RS domain disease response criteria use case may include records derived by the investigator or with a data collection tool, but not sponsor-derived records. Sponsor-derived records and results should be provided in an analysis dataset (ADaM).", "score": 0.5071, "match_basis": "verbatim_token+global_search"}, {"md_atom_id": "md_dmEC_assn_a022", "md_file": "knowledge_base/domains/EC/assumptions.md", "md_atom_type": "LIST_ITEM", "md_parent_section": "§EC [EC — Assumptions]", "md_verbatim": "6. The degree of summarization of records from EC to EX is sponsor-defined to support study purpose and analysis. When the relationship between EC and EX records can be described in RELREC, then it should be defined. EX derivations must be described in the Define-XML document.", "score": 0.4392, "match_basis": "verbatim_token+global_search"}, {"md_atom_id": "md_dmTU_assn_a044", "md_file": "knowledge_base/domains/TU/assumptions.md", "md_atom_type": "LIST_ITEM", "md_parent_section": "§TU [TU — Assumptions]", "md_verbatim": "7. The acceptance flag variable (TUACPTFL) identifies records that have been determined to be the accepted assessments/measurements by an independent assessor. This flag would be provided by an independent assessor and when multiple evaluators (e.g., \"RADIOLOGIST 1\", \"RADIOLOGIST 2\", \"ADJUDICATOR\") provide assessments or evaluations at the same time point or an overall evaluation. This flag should not be used by a sponsor for any other purpose. It is not expected that the TUACPTFL flag would be populated by the sponsor; instead, that type of record selection should be handled in the analysis dataset (ADaM).", "score": 0.4282, "match_basis": "verbatim_token+global_search"}, {"md_atom_id": "md_dmTR_assn_a016", "md_file": "knowledge_base/domains/TR/assumptions.md", "md_atom_type": "LIST_ITEM", "md_parent_section": "§TR [TR — Assumptions]", "md_verbatim": "5. The acceptance flag variable (TRACPTFL) identifies those records that have been determined to be the accepted assessments/measurements by an independent assessor. This flag would be provided by an independent assessor and when multiple assessors (e.g., \"RADIOLOGIST 1\", \"RADIOLOGIST 2\", \"ADJUDICATOR\") provide assessments or evaluations at the same time point or an overall evaluation. This flag should not be used by a sponsor for any other purpose. It is not expected that the TRACPTFL flag would be populated by the sponsor; instead, that type of record selection should be handled in the analysis dataset (ADaM).", "score": 0.4269, "match_basis": "verbatim_token+global_search"}], "candidate_count": 5, "zero_candidate": false}
{"pdf_atom_id": "ig34_p0334_a003", "pdf_atom_type": "LIST_ITEM", "pdf_source": "SDTMIG_v3.4", "pdf_page": 334, "pdf_parent_section": "§6.3.9.3.1 Disease Response Use Case", "pdf_verbatim": "9.  Disease recurrence can be represented in the RS domain using RSTEST = \"Disease Recurrence Indicator\" to indicate that there was an assessment of whether there was disease recurrence. The RSCAT = \"PROTOCOL DEFINED RESPONSE CRITERIA\" can be used to indicate that the response assessment of disease recurrence was based on protocol-specified criteria rather than published response criteria.", "figure_ref": null, "candidates": [{"md_atom_id": "md_dmRS_assn_a024", "md_file": "knowledge_base/domains/RS/assumptions.md", "md_atom_type": "LIST_ITEM", "md_parent_section": "§RS [RS — Assumptions]", "md_verbatim": "9. Disease recurrence can be represented in the RS domain using RSTEST = \"Disease Recurrence Indicator\" to indicate that there was an assessment of whether there was disease recurrence. The RSCAT = \"PROTOCOL DEFINED RESPONSE CRITERIA\" can be used to indicate that the response assessment of disease recurrence was based on protocol-specified criteria rather than published response criteria.", "score": 0.9, "match_basis": "verbatim_token+global_search"}, {"md_atom_id": "md_dmRS_assn_a004", "md_file": "knowledge_base/domains/RS/assumptions.md", "md_atom_type": "LIST_ITEM", "md_parent_section": "§RS [RS — Assumptions]", "md_verbatim": "1. RSCAT is used to group a set of assessments based on a disease response criterion (published or protocol-defined). One of the codelists for RSCAT is ONCRSCAT. The ONCRSCAT codelist contains controlled terminology for oncology disease response assessments.", "score": 0.5143, "match_basis": "verbatim_token+global_search"}, {"md_atom_id": "md_dmRS_assn_a020", "md_file": "knowledge_base/domains/RS/assumptions.md", "md_atom_type": "LIST_ITEM", "md_parent_section": "§RS [RS — Assumptions]", "md_verbatim": "   b. If the criteria used to determine the response is unknown or not collected, this is represented as RSCAT = \"UNSPECIFIED\".", "score": 0.4721, "match_basis": "verbatim_token+global_search"}, {"md_atom_id": "md_dmTU_assn_a058", "md_file": "knowledge_base/domains/TU/assumptions.md", "md_atom_type": "LIST_ITEM", "md_parent_section": "§TU [TU — Assumptions]", "md_verbatim": "10. Disease recurrence can be represented in the TU domain as an identification for the appearance of new tumors. The TUTEST Disease Recurrence Relative Location is used identify the region or relative location for the disease recurrence. The image identifier is in TUREFID and may match a PRREFID in the Procedures (PR) domain. The PR domain would contain the scans performed per protocol at each assessment; only when new tumors appear would records be included in TU.", "score": 0.4696, "match_basis": "verbatim_token+global_search"}, {"md_atom_id": "md_dmCE_assn_a006", "md_file": "knowledge_base/domains/CE/assumptions.md", "md_atom_type": "LIST_ITEM", "md_parent_section": "§CE [CE — Assumptions]", "md_verbatim": "2. CEOCCUR and CEPRESP are used together to indicate whether the event in CETERM was prespecified and whether it occurred. CEPRESP can be used to separate records that correspond to probing questions for prespecified events from those that represent spontaneously reported events, whereas CEOCCUR contains the responses to such questions. The following table shows how these variables are populated in various situations.", "score": 0.4602, "match_basis": "verbatim_token+global_search"}], "candidate_count": 5, "zero_candidate": false}
{"pdf_atom_id": "ig34_p0334_a004", "pdf_atom_type": "LIST_ITEM", "pdf_source": "SDTMIG_v3.4", "pdf_page": 334, "pdf_parent_section": "§6.3.9.3.1 Disease Response Use Case", "pdf_verbatim": "10.  When a disease response result is based on multiple procedures/scans/images/physical exams performed on different dates, RSDTC may be derived .", "figure_ref": null, "candidates": [{"md_atom_id": "md_dmRS_assn_a025", "md_file": "knowledge_base/domains/RS/assumptions.md", "md_atom_type": "LIST_ITEM", "md_parent_section": "§RS [RS — Assumptions]", "md_verbatim": "10. When a disease response result is based on multiple procedures/scans/images/physical exams performed on different dates, RSDTC may be derived.", "score": 0.9, "match_basis": "verbatim_token+global_search"}, {"md_atom_id": "md_dmPP_assn_a002", "md_file": "knowledge_base/domains/PP/assumptions.md", "md_atom_type": "LIST_ITEM", "md_parent_section": "§PP [PP — Assumptions]", "md_verbatim": "1. Pharmacokinetics Parameters is a derived dataset, and may be produced from an analysis dataset with a different structure. As a result, some sponsors may need to normalize their analysis dataset in order for it to fit into the SDTM-based PP domain.", "score": 0.431, "match_basis": "verbatim_token+global_search"}, {"md_atom_id": "md_dmTU_assn_a058", "md_file": "knowledge_base/domains/TU/assumptions.md", "md_atom_type": "LIST_ITEM", "md_parent_section": "§TU [TU — Assumptions]", "md_verbatim": "10. Disease recurrence can be represented in the TU domain as an identification for the appearance of new tumors. The TUTEST Disease Recurrence Relative Location is used identify the region or relative location for the disease recurrence. The image identifier is in TUREFID and may match a PRREFID in the Procedures (PR) domain. The PR domain would contain the scans performed per protocol at each assessment; only when new tumors appear would records be included in TU.", "score": 0.4228, "match_basis": "verbatim_token+global_search"}, {"md_atom_id": "md_dmEG_assn_a009", "md_file": "knowledge_base/domains/EG/assumptions.md", "md_atom_type": "LIST_ITEM", "md_parent_section": "§EG [EG — Assumptions]", "md_verbatim": "7. EGREPNUM is used to differentiate between multiple repetitions of a test within a given time frame.", "score": 0.4019, "match_basis": "verbatim_token+global_search"}, {"md_atom_id": "md_dmRS_assn_a010", "md_file": "knowledge_base/domains/RS/assumptions.md", "md_atom_type": "LIST_ITEM", "md_parent_section": "§RS [RS — Assumptions]", "md_verbatim": "3. The RS domain disease response criteria use case may include records derived by the investigator or with a data collection tool, but not sponsor-derived records. Sponsor-derived records and results should be provided in an analysis dataset (ADaM).", "score": 0.3979, "match_basis": "verbatim_token+global_search"}], "candidate_count": 5, "zero_candidate": false}
{"pdf_atom_id": "ig34_p0334_a005", "pdf_atom_type": "LIST_ITEM", "pdf_source": "SDTMIG_v3.4", "pdf_page": 334, "pdf_parent_section": "§6.3.9.3.1 Disease Response Use Case", "pdf_verbatim": "11.  Any Identifiers, Timing variables, or Findings general observation class qualifiers may be added to the RS domain, but the following qualifiers would not generally be used: --POS, --BODSYS, --ORNRLO, --ORNRHI, --STNRLO, --STNRHI, --STNRC, --NRIND, --XFN, --LOINC, --SPEC, --SPCCND, --FAST, --TOX, --TOXGR, --SEV.", "figure_ref": null, "candidates": [{"md_atom_id": "md_dmRS_assn_a026", "md_file": "knowledge_base/domains/RS/assumptions.md", "md_atom_type": "LIST_ITEM", "md_parent_section": "§RS [RS — Assumptions]", "md_verbatim": "11. Any Identifiers, Timing variables, or Findings general observation class qualifiers may be added to the RS domain, but the following qualifiers would not generally be used: --POS, --BODSYS, --ORNRLO, --ORNRHI, --STNRLO, --STNRHI, --STNRC, --NRIND, --XFN, --LOINC, --SPEC, --SPCCND, --FAST, --TOX, --TOXGR, --SEV.", "score": 0.9, "match_basis": "verbatim_token+global_search"}, {"md_atom_id": "md_dmTR_assn_a020", "md_file": "knowledge_base/domains/TR/assumptions.md", "md_atom_type": "LIST_ITEM", "md_parent_section": "§TR [TR — Assumptions]", "md_verbatim": "8. Any Identifiers, Timing variables, or Findings general observation class qualifiers may be added to the TR domain, but the following qualifiers would not generally be used: --POS, --BODSYS, --ORNRLO, --ORNRHI, --STNRLO, --STNRHI, --STNRC, --NRIND, --XFN, --LOINC, --SPEC, --SPCCND, --FAST, --TOX, --TOXGR, --SEV.", "score": 0.9, "match_basis": "verbatim_token+global_search"}, {"md_atom_id": "md_dmFT_assn_a038", "md_file": "knowledge_base/domains/FT/assumptions.md", "md_atom_type": "LIST_ITEM", "md_parent_section": "§FT [FT — Assumptions]", "md_verbatim": "10. Any identifiers, timing variables, or findings general observation class qualifiers may be added to a QRS domain, but the following qualifiers would generally not be used: --POS, --BODSYS, --ORNRLO, --ORNRHI, --STNRLO, --STNRHI, --STNRC, --NRIND, --XFN, --LOINC, --SPEC, --SPCCND, --LOC, --FAST, --TOX, --TOXGR, --SEV.", "score": 0.8886, "match_basis": "verbatim_token+global_search"}, {"md_atom_id": "md_dmQS_assn_a014", "md_file": "knowledge_base/domains/QS/assumptions.md", "md_atom_type": "LIST_ITEM", "md_parent_section": "§QS [QS — Assumptions]", "md_verbatim": "10. Any identifiers, timing variables, or findings general observation class qualifiers may be added to a QRS domain, but the following qualifiers would generally not be used: --POS, --BODSYS, --ORNRLO, --ORNRHI, --STNRLO, --STNRHI, --STNRC, --NRIND, --XFN, --LOINC, --SPEC, --SPCCND, --LOC, --FAST, --TOX, --TOXGR, --SEV.", "score": 0.8886, "match_basis": "verbatim_token+global_search"}, {"md_atom_id": "md_dmTU_assn_a075", "md_file": "knowledge_base/domains/TU/assumptions.md", "md_atom_type": "LIST_ITEM", "md_parent_section": "§TU [TU — Assumptions]", "md_verbatim": "13. Any Identifiers, Timing variables, or Findings general observation class qualifiers may be added to the TU domain, but the following qualifiers would not generally be used: --MODIFY, --POS, --BODSYS, --ORNRLO, --ORNRHI, --STNRLO, --STNRHI, --STNRC, --NRIND, --XFN, --LOINC, --SPEC, --SPCCND, --FAST, --TOX, --TOXGR, --SEV.", "score": 0.8776, "match_basis": "verbatim_token+global_search"}], "candidate_count": 5, "zero_candidate": false}
{"pdf_atom_id": "ig34_p0334_a006", "pdf_atom_type": "HEADING", "pdf_source": "SDTMIG_v3.4", "pdf_page": 334, "pdf_parent_section": "§6.3.9.3.1 Disease Response Use Case", "pdf_verbatim": "RS – Examples - Disease Response", "figure_ref": null, "candidates": [{"md_atom_id": "md_dmRS_ex_a002", "md_file": "knowledge_base/domains/RS/examples.md", "md_atom_type": "HEADING", "md_parent_section": "§RS [RS — Examples]", "md_verbatim": "## RS — Examples - Disease Response", "score": 0.9, "match_basis": "verbatim_token+global_search"}, {"md_atom_id": "md_dmRS_assn_a002", "md_file": "knowledge_base/domains/RS/assumptions.md", "md_atom_type": "HEADING", "md_parent_section": "§RS [RS — Assumptions]", "md_verbatim": "## RS — Disease Response Use Case Assumptions", "score": 0.5444, "match_basis": "verbatim_token+global_search"}, {"md_atom_id": "md_dmCM_ex_a001", "md_file": "knowledge_base/domains/CM/examples.md", "md_atom_type": "HEADING", "md_parent_section": "§CM [CM — Examples]", "md_verbatim": "# CM — Examples", "score": 0.5118, "match_basis": "verbatim_token+global_search"}, {"md_atom_id": "md_ch08_a184", "md_file": "knowledge_base/chapters/ch08_relationships.md", "md_atom_type": "HEADING", "md_parent_section": "§8.4 [Relating Non-standard Variable Values to a Parent Domain]", "md_verbatim": "### 8.4.3 Examples", "score": 0.5118, "match_basis": "verbatim_token+global_search"}, {"md_atom_id": "md_dmAE_ex_a001", "md_file": "knowledge_base/domains/AE/examples.md", "md_atom_type": "HEADING", "md_parent_section": "§AE [AE — Examples]", "md_verbatim": "# AE — Examples", "score": 0.5118, "match_basis": "verbatim_token+global_search"}], "candidate_count": 5, "zero_candidate": false}
{"pdf_atom_id": "ig34_p0334_a007", "pdf_atom_type": "SENTENCE", "pdf_source": "SDTMIG_v3.4", "pdf_page": 334, "pdf_parent_section": "§6.3.9.3.1 Disease Response Use Case", "pdf_verbatim": "The following are examples for oncology response criteria.", "figure_ref": null, "candidates": [{"md_atom_id": "md_dmRS_ex_a003", "md_file": "knowledge_base/domains/RS/examples.md", "md_atom_type": "SENTENCE", "md_parent_section": "§RS.1 [RS — Examples - Disease Response]", "md_verbatim": "The following are examples for oncology response criteria.", "score": 0.9, "match_basis": "verbatim_token+global_search"}, {"md_atom_id": "md_ch08_a018", "md_file": "knowledge_base/chapters/ch08_relationships.md", "md_atom_type": "SENTENCE", "md_parent_section": "§8 [Representing Relationships and Data]", "md_verbatim": "The following are examples of variables that could be used in IDVAR:", "score": 0.5, "match_basis": "verbatim_token+global_search"}, {"md_atom_id": "md_dmRELREC_assn_a009", "md_file": "knowledge_base/domains/RELREC/assumptions.md", "md_atom_type": "SENTENCE", "md_parent_section": "§RELREC [RELREC — Assumptions]", "md_verbatim": "The following are examples of variables that could be used in IDVAR:", "score": 0.5, "match_basis": "verbatim_token+global_search"}, {"md_atom_id": "md_dmTU_assn_a005", "md_file": "knowledge_base/domains/TU/assumptions.md", "md_atom_type": "SENTENCE", "md_parent_section": "§TU [TU — Assumptions]", "md_verbatim": "For example, an oncology study using RECIST criteria would identify target, non-target, and new tumors.", "score": 0.481, "match_basis": "verbatim_token+global_search"}, {"md_atom_id": "md_dmFA_ex_a097", "md_file": "knowledge_base/domains/FA/examples.md", "md_atom_type": "SENTENCE", "md_parent_section": "§FA.4 [Example 4]", "md_verbatim": "Note that not all AE expected variables are included in the following example.", "score": 0.4714, "match_basis": "verbatim_token+global_search"}], "candidate_count": 5, "zero_candidate": false}
{"pdf_atom_id": "ig34_p0334_a008", "pdf_atom_type": "HEADING", "pdf_source": "SDTMIG_v3.4", "pdf_page": 334, "pdf_parent_section": "§6.3.9.3.1 Disease Response Use Case", "pdf_verbatim": "Example 1", "figure_ref": null, "candidates": [{"md_atom_id": "md_dmCM_ex_a002", "md_file": "knowledge_base/domains/CM/examples.md", "md_atom_type": "HEADING", "md_parent_section": "§CM.1 [Example 1]", "md_verbatim": "## Example 1", "score": 0.9, "match_basis": "verbatim_token+global_search"}, {"md_atom_id": "md_dmCM_ex_a022", "md_file": "knowledge_base/domains/CM/examples.md", "md_atom_type": "HEADING", "md_parent_section": "§CM.2 [Example 2]", "md_verbatim": "## Example 2", "score": 0.9, "match_basis": "verbatim_token+global_search"}, {"md_atom_id": "md_dmCM_ex_a029", "md_file": "knowledge_base/domains/CM/examples.md", "md_atom_type": "HEADING", "md_parent_section": "§CM.3 [Example 3]", "md_verbatim": "## Example 3", "score": 0.9, "match_basis": "verbatim_token+global_search"}, {"md_atom_id": "md_dmCM_ex_a047", "md_file": "knowledge_base/domains/CM/examples.md", "md_atom_type": "HEADING", "md_parent_section": "§CM.4 [Example 4]", "md_verbatim": "## Example 4", "score": 0.9, "match_basis": "verbatim_token+global_search"}, {"md_atom_id": "md_dmCM_ex_a060", "md_file": "knowledge_base/domains/CM/examples.md", "md_atom_type": "HEADING", "md_parent_section": "§CM.5 [Example 5]", "md_verbatim": "## Example 5", "score": 0.9, "match_basis": "verbatim_token+global_search"}, {"md_atom_id": "md_ch08_a292", "md_file": "knowledge_base/chapters/ch08_relationships.md", "md_atom_type": "HEADING", "md_parent_section": "§8.7 [Related Subjects (RELSUB)]", "md_verbatim": "### Example", "score": 0.9, "match_basis": "verbatim_token+global_search"}, {"md_atom_id": "md_ch08_a331", "md_file": "knowledge_base/chapters/ch08_relationships.md", "md_atom_type": "HEADING", "md_parent_section": "§8.8 [Related Specimens (RELSPEC)]", "md_verbatim": "### Example", "score": 0.9, "match_basis": "verbatim_token+global_search"}, {"md_atom_id": "md_dmAE_ex_a002", "md_file": "knowledge_base/domains/AE/examples.md", "md_atom_type": "HEADING", "md_parent_section": "§AE.1 [Example 1]", "md_verbatim": "## Example 1", "score": 0.9, "match_basis": "verbatim_token+global_search"}, {"md_atom_id": "md_dmAE_ex_a020", "md_file": "knowledge_base/domains/AE/examples.md", "md_atom_type": "HEADING", "md_parent_section": "§AE.2 [Example 2]", "md_verbatim": "## Example 2", "score": 0.9, "match_basis": "verbatim_token+global_search"}, {"md_atom_id": "md_dmAE_ex_a035", "md_file": "knowledge_base/domains/AE/examples.md", "md_atom_type": "HEADING", "md_parent_section": "§AE.3 [Example 3]", "md_verbatim": "## Example 3", "score": 0.9, "match_basis": "verbatim_token+global_search"}], "candidate_count": 10, "zero_candidate": false}
{"pdf_atom_id": "ig34_p0334_a009", "pdf_atom_type": "SENTENCE", "pdf_source": "SDTMIG_v3.4", "pdf_page": 334, "pdf_parent_section": "§6.3.9.3.1 Disease Response Use Case", "pdf_verbatim": "This example shows response assessments determined from the TR domain based on RECIST 1.1 criteria and also shows a case where progressive disease due to symptomatic deterioration was determined based on a clinical assessment by the investigator.", "figure_ref": null, "candidates": [{"md_atom_id": "md_dmRS_ex_a005", "md_file": "knowledge_base/domains/RS/examples.md", "md_atom_type": "SENTENCE", "md_parent_section": "§RS.1.1 [Example 1]", "md_verbatim": "This example shows response assessments determined from the TR domain based on RECIST 1.1 criteria and also shows a case where progressive disease due to symptomatic deterioration was determined based on a clinical assessment by the investigator.", "score": 0.9, "match_basis": "verbatim_token+global_search"}, {"md_atom_id": "md_dmRS_ex_a018", "md_file": "knowledge_base/domains/RS/examples.md", "md_atom_type": "SENTENCE", "md_parent_section": "§RS.1.2 [Example 2]", "md_verbatim": "This example shows response assessments determined from the TR domain based on RECIST 1.1 criteria and also shows a confirmation of an equivocal new lesion progression.", "score": 0.6305, "match_basis": "verbatim_token+global_search"}, {"md_atom_id": "md_dmRS_ex_a007", "md_file": "knowledge_base/domains/RS/examples.md", "md_atom_type": "SENTENCE", "md_parent_section": "§RS.1.1 [Example 1]", "md_verbatim": "**Rows 4-7:** Show the target response and non-target response by the investigator using RECIST 1.1, as well as the determination of symptomatic determination (pleural effusion) and overall response using protocol-defined response criteria, at the week 12 visit.", "score": 0.5186, "match_basis": "verbatim_token+global_search"}, {"md_atom_id": "md_dmTU_assn_a004", "md_file": "knowledge_base/domains/TU/assumptions.md", "md_atom_type": "SENTENCE", "md_parent_section": "§TU [TU — Assumptions]", "md_verbatim": "Commonly, tumors/lesions/locations of interest are identified by an investigator and/or independent assessor and classified according to the disease assessment criteria.", "score": 0.4562, "match_basis": "verbatim_token+global_search"}, {"md_atom_id": "md_dmTD_ex_a028", "md_file": "knowledge_base/domains/TD/examples.md", "md_atom_type": "SENTENCE", "md_parent_section": "§TD.3 [Example 3]", "md_verbatim": "This example shows a study where subjects are randomized to standard treatment or an experimental treatment. The subjects who are randomized to standard treatment are given the option to receive experimental treatment after they end the standard treatment (e.g., due to disease progression on standard treatment). In the randomized treatment epoch, the disease assessment schedule changes over the course of the study. At the start of the extension treatment epoch, subjects are re-baselined, i.e., an extension baseline disease assessment is performed and the disease assessment schedule is restarted.", "score": 0.4524, "match_basis": "verbatim_token+global_search"}], "candidate_count": 5, "zero_candidate": false}
{"pdf_atom_id": "ig34_p0334_a010", "pdf_atom_type": "LIST_ITEM", "pdf_source": "SDTMIG_v3.4", "pdf_page": 334, "pdf_parent_section": "§6.3.9.3.1 Disease Response Use Case", "pdf_verbatim": "Rows 1-3:  Show the target response, non-target response, and the overall response by the investigator using RECIST 1.1 at the week 6 visit.", "figure_ref": null, "candidates": [{"md_atom_id": "md_dmRS_ex_a006", "md_file": "knowledge_base/domains/RS/examples.md", "md_atom_type": "SENTENCE", "md_parent_section": "§RS.1.1 [Example 1]", "md_verbatim": "**Rows 1-3:** Show the target response, non-target response, and the overall response by the investigator using RECIST 1.1 at the week 6 visit.", "score": 0.81, "match_basis": "verbatim_token+global_search"}, {"md_atom_id": "md_dmRS_ex_a007", "md_file": "knowledge_base/domains/RS/examples.md", "md_atom_type": "SENTENCE", "md_parent_section": "§RS.1.1 [Example 1]", "md_verbatim": "**Rows 4-7:** Show the target response and non-target response by the investigator using RECIST 1.1, as well as the determination of symptomatic determination (pleural effusion) and overall response using protocol-defined response criteria, at the week 12 visit.", "score": 0.5066, "match_basis": "verbatim_token+global_search"}, {"md_atom_id": "md_dmRS_ex_a011", "md_file": "knowledge_base/domains/RS/examples.md", "md_atom_type": "TABLE_ROW", "md_parent_section": "§RS.1.1 [Example 1]", "md_verbatim": "| 2 | ABC | RS | 44444 | 2 | | NTRGRESP | Non-target Response | RECIST 1.1 | SD | SD | INVESTIGATOR | 40 | WEEK 6 | 2010-02-18 | 46 |", "score": 0.4615, "match_basis": "verbatim_token+global_search"}, {"md_atom_id": "md_dmRS_ex_a012", "md_file": "knowledge_base/domains/RS/examples.md", "md_atom_type": "TABLE_ROW", "md_parent_section": "§RS.1.1 [Example 1]", "md_verbatim": "| 3 | ABC | RS | 44444 | 3 | A2 | OVRLRESP | Overall Response | RECIST 1.1 | PR | PR | INVESTIGATOR | 40 | WEEK 6 | 2010-02-18 | 46 |", "score": 0.4615, "match_basis": "verbatim_token+global_search"}, {"md_atom_id": "md_dmRS_ex_a014", "md_file": "knowledge_base/domains/RS/examples.md", "md_atom_type": "TABLE_ROW", "md_parent_section": "§RS.1.1 [Example 1]", "md_verbatim": "| 5 | ABC | RS | 44444 | 5 | | NTRGRESP | Non-target Response | RECIST 1.1 | NE | NE | INVESTIGATOR | 60 | WEEK 12 | 2010-04-02 | 88 |", "score": 0.4615, "match_basis": "verbatim_token+global_search"}], "candidate_count": 5, "zero_candidate": false}
{"pdf_atom_id": "ig34_p0334_a011", "pdf_atom_type": "LIST_ITEM", "pdf_source": "SDTMIG_v3.4", "pdf_page": 334, "pdf_parent_section": "§6.3.9.3.1 Disease Response Use Case", "pdf_verbatim": "Rows 4-7:  Show the target response and non-target response by the investigator using RECIST 1.1, as well as the determination of symptomatic determination (pleural effusion) and overall response using protocol-defined response criteria, at the week 12 visit.", "figure_ref": null, "candidates": [{"md_atom_id": "md_dmRS_ex_a007", "md_file": "knowledge_base/domains/RS/examples.md", "md_atom_type": "SENTENCE", "md_parent_section": "§RS.1.1 [Example 1]", "md_verbatim": "**Rows 4-7:** Show the target response and non-target response by the investigator using RECIST 1.1, as well as the determination of symptomatic determination (pleural effusion) and overall response using protocol-defined response criteria, at the week 12 visit.", "score": 0.81, "match_basis": "verbatim_token+global_search"}, {"md_atom_id": "md_dmRS_ex_a006", "md_file": "knowledge_base/domains/RS/examples.md", "md_atom_type": "SENTENCE", "md_parent_section": "§RS.1.1 [Example 1]", "md_verbatim": "**Rows 1-3:** Show the target response, non-target response, and the overall response by the investigator using RECIST 1.1 at the week 6 visit.", "score": 0.5066, "match_basis": "verbatim_token+global_search"}, {"md_atom_id": "md_dmRS_ex_a015", "md_file": "knowledge_base/domains/RS/examples.md", "md_atom_type": "TABLE_ROW", "md_parent_section": "§RS.1.1 [Example 1]", "md_verbatim": "| 6 | ABC | RS | 44444 | 6 | | SYMPTDTR | Symptomatic Deterioration | PROTOCOL DEFINED RESPONSE CRITERIA | Pleural Effusion | PD | INVESTIGATOR | 60 | WEEK 12 | 2010-04-02 | 88 |", "score": 0.498, "match_basis": "verbatim_token+global_search"}, {"md_atom_id": "md_dmRS_ex_a005", "md_file": "knowledge_base/domains/RS/examples.md", "md_atom_type": "SENTENCE", "md_parent_section": "§RS.1.1 [Example 1]", "md_verbatim": "This example shows response assessments determined from the TR domain based on RECIST 1.1 criteria and also shows a case where progressive disease due to symptomatic deterioration was determined based on a clinical assessment by the investigator.", "score": 0.4286, "match_basis": "verbatim_token+global_search"}, {"md_atom_id": "md_dmRS_assn_a024", "md_file": "knowledge_base/domains/RS/assumptions.md", "md_atom_type": "LIST_ITEM", "md_parent_section": "§RS [RS — Assumptions]", "md_verbatim": "9. Disease recurrence can be represented in the RS domain using RSTEST = \"Disease Recurrence Indicator\" to indicate that there was an assessment of whether there was disease recurrence. The RSCAT = \"PROTOCOL DEFINED RESPONSE CRITERIA\" can be used to indicate that the response assessment of disease recurrence was based on protocol-specified criteria rather than published response criteria.", "score": 0.4253, "match_basis": "verbatim_token+global_search"}], "candidate_count": 5, "zero_candidate": false}
{"pdf_atom_id": "ig34_p0334_a012", "pdf_atom_type": "CODE_LITERAL", "pdf_source": "SDTMIG_v3.4", "pdf_page": 334, "pdf_parent_section": "§6.3.9.3.1 Disease Response Use Case", "pdf_verbatim": "rs.xpt", "figure_ref": null, "candidates": [{"md_atom_id": "md_ch04_a207", "md_file": "knowledge_base/chapters/ch04_general_assumptions.md", "md_atom_type": "CODE_LITERAL", "md_parent_section": "§4.2.3 [Use of \"Subject\" and USUBJID]", "md_verbatim": "dm.xpt:", "score": 0.69, "match_basis": "verbatim_token+global_search"}, {"md_atom_id": "md_ch04_a210", "md_file": "knowledge_base/chapters/ch04_general_assumptions.md", "md_atom_type": "CODE_LITERAL", "md_parent_section": "§4.2.3 [Use of \"Subject\" and USUBJID]", "md_verbatim": "dm.xpt:", "score": 0.69, "match_basis": "verbatim_token+global_search"}, {"md_atom_id": "md_dmCM_ex_a010", "md_file": "knowledge_base/domains/CM/examples.md", "md_atom_type": "NOTE", "md_parent_section": "§CM.1 [Example 1]", "md_verbatim": "**cm.xpt**", "score": 0.69, "match_basis": "verbatim_token+global_search"}, {"md_atom_id": "md_dmCM_ex_a025", "md_file": "knowledge_base/domains/CM/examples.md", "md_atom_type": "NOTE", "md_parent_section": "§CM.2 [Example 2]", "md_verbatim": "**cm.xpt**", "score": 0.69, "match_basis": "verbatim_token+global_search"}, {"md_atom_id": "md_dmCM_ex_a042", "md_file": "knowledge_base/domains/CM/examples.md", "md_atom_type": "NOTE", "md_parent_section": "§CM.3 [Example 3]", "md_verbatim": "**cm.xpt**", "score": 0.69, "match_basis": "verbatim_token+global_search"}, {"md_atom_id": "md_dmCM_ex_a052", "md_file": "knowledge_base/domains/CM/examples.md", "md_atom_type": "NOTE", "md_parent_section": "§CM.4 [Example 4]", "md_verbatim": "**cm.xpt**", "score": 0.69, "match_basis": "verbatim_token+global_search"}, {"md_atom_id": "md_dmCM_ex_a070", "md_file": "knowledge_base/domains/CM/examples.md", "md_atom_type": "NOTE", "md_parent_section": "§CM.5 [Example 5]", "md_verbatim": "**cm.xpt**", "score": 0.69, "match_basis": "verbatim_token+global_search"}, {"md_atom_id": "md_ch04_a368", "md_file": "knowledge_base/chapters/ch04_general_assumptions.md", "md_atom_type": "CODE_LITERAL", "md_parent_section": "§4.2.8.3 [Multiple Values for a Non-result Qualifier Variable]", "md_verbatim": "ae.xpt:", "score": 0.69, "match_basis": "verbatim_token+global_search"}, {"md_atom_id": "md_ch04_a378", "md_file": "knowledge_base/chapters/ch04_general_assumptions.md", "md_atom_type": "CODE_LITERAL", "md_parent_section": "§4.2.8.3 [Multiple Values for a Non-result Qualifier Variable]", "md_verbatim": "ae.xpt:", "score": 0.69, "match_basis": "verbatim_token+global_search"}, {"md_atom_id": "md_ch04_a391", "md_file": "knowledge_base/chapters/ch04_general_assumptions.md", "md_atom_type": "CODE_LITERAL", "md_parent_section": "§4.2.8.3 [Multiple Values for a Non-result Qualifier Variable]", "md_verbatim": "ae.xpt:", "score": 0.69, "match_basis": "verbatim_token+global_search"}], "candidate_count": 10, "zero_candidate": false}
{"pdf_atom_id": "ig34_p0334_a013", "pdf_atom_type": "TABLE_HEADER", "pdf_source": "SDTMIG_v3.4", "pdf_page": 334, "pdf_parent_section": "§6.3.9.3.1 Disease Response Use Case", "pdf_verbatim": "| Row | STUDYID | DOMAIN | USUBJID | RSSEQ | RSLNKGRP | RSTESTCD | RSTEST | RSCAT | RSORRES | RSSTRESC | RSEVAL | VISITNUM | VISIT | RSDTC | RSDY |", "figure_ref": null, "candidates": [{"md_atom_id": "md_dmRS_ex_a009", "md_file": "knowledge_base/domains/RS/examples.md", "md_atom_type": "TABLE_HEADER", "md_parent_section": "§RS.1.1 [Example 1]", "md_verbatim": "| Row | STUDYID | DOMAIN | USUBJID | RSSEQ | RSLNKGRP | RSTESTCD | RSTEST | RSCAT | RSORRES | RSSTRESC | RSEVAL | VISITNUM | VISIT | RSDTC | RSDY |\n|-----|---------|--------|---------|-------|----------|----------|--------|-------|---------|----------|--------|----------|-------|-------|------|", "score": 0.9, "match_basis": "verbatim_token+global_search"}, {"md_atom_id": "md_dmRS_ex_a022", "md_file": "knowledge_base/domains/RS/examples.md", "md_atom_type": "TABLE_HEADER", "md_parent_section": "§RS.1.2 [Example 2]", "md_verbatim": "| Row | STUDYID | DOMAIN | USUBJID | RSSEQ | RSLNKGRP | RSTESTCD | RSTEST | RSCAT | RSORRES | RSSTRESC | RSNAM | RSEVAL | RSEVALID | RSACPTFL | VISITNUM | VISIT | RSDTC | RSDY |\n|-----|---------|--------|---------|-------|----------|----------|--------|-------|---------|----------|-------|--------|----------|----------|----------|-------|-------|------|", "score": 0.8015, "match_basis": "verbatim_token+global_search"}, {"md_atom_id": "md_dmRS_ex_a038", "md_file": "knowledge_base/domains/RS/examples.md", "md_atom_type": "TABLE_HEADER", "md_parent_section": "§RS.1.3 [Example 3]", "md_verbatim": "| Row | STUDYID | DOMAIN | USUBJID | RSSEQ | RSLNKGRP | RSTESTCD | RSTEST | RSCAT | RSORRES | RSORRESU | RSSTRESC | RSSTRESN | RSSTRESU | RSEVAL | VISITNUM | VISIT | RSDTC | RSDY | RSSTRTPT | RSSTTPT | RSENRTPT | RSENTPT |\n|-----|---------|--------|---------|-------|----------|----------|--------|-------|---------|----------|----------|----------|----------|--------|----------|-------|-------|------|----------|---------|----------|---------|", "score": 0.7941, "match_basis": "verbatim_token+global_search"}, {"md_atom_id": "md_dmRS_ex_a050", "md_file": "knowledge_base/domains/RS/examples.md", "md_atom_type": "TABLE_HEADER", "md_parent_section": "§RS.2.1 [Example 1]", "md_verbatim": "| Row | STUDYID | DOMAIN | USUBJID | RSSEQ | RSTESTCD | RSTEST | RSCAT | RSORRES | RSSTRESC | RSSTRESN | RSLOBXFL | VISITNUM | RSDTC |\n|-----|---------|--------|---------|-------|----------|--------|-------|---------|----------|----------|----------|----------|-------|", "score": 0.7452, "match_basis": "verbatim_token+global_search"}, {"md_atom_id": "md_ch04_a091", "md_file": "knowledge_base/chapters/ch04_general_assumptions.md", "md_atom_type": "TABLE_HEADER", "md_parent_section": "§4.1.7.1 [Example of Splitting Questionnaires]", "md_verbatim": "| Row | STUDYID | DOMAIN | USUBJID | QSSEQ | QSTESTCD | QSTEST | QSCAT | QSORRES | QSSTRESC | QSSTRESN | QSLOBXFL | VISITNUM | QSDTC | QSDY |", "score": 0.6618, "match_basis": "verbatim_token+global_search"}], "candidate_count": 5, "zero_candidate": false}
{"pdf_atom_id": "ig34_p0334_a014", "pdf_atom_type": "TABLE_ROW", "pdf_source": "SDTMIG_v3.4", "pdf_page": 334, "pdf_parent_section": "§6.3.9.3.1 Disease Response Use Case", "pdf_verbatim": "| 1 | ABC | RS | 44444 | 1 | | TRGRESP | Target Response | RECIST 1.1 | PR | PR | INVESTIGATOR | 40 | WEEK 6 | 2010-02-18 | 46 |", "figure_ref": null, "candidates": [{"md_atom_id": "md_dmRS_ex_a010", "md_file": "knowledge_base/domains/RS/examples.md", "md_atom_type": "TABLE_ROW", "md_parent_section": "§RS.1.1 [Example 1]", "md_verbatim": "| 1 | ABC | RS | 44444 | 1 | | TRGRESP | Target Response | RECIST 1.1 | PR | PR | INVESTIGATOR | 40 | WEEK 6 | 2010-02-18 | 46 |", "score": 0.9, "match_basis": "verbatim_token+global_search"}, {"md_atom_id": "md_dmRS_ex_a013", "md_file": "knowledge_base/domains/RS/examples.md", "md_atom_type": "TABLE_ROW", "md_parent_section": "§RS.1.1 [Example 1]", "md_verbatim": "| 4 | ABC | RS | 44444 | 4 | | TRGRESP | Target Response | RECIST 1.1 | NE | NE | INVESTIGATOR | 60 | WEEK 12 | 2010-04-02 | 88 |", "score": 0.9, "match_basis": "verbatim_token+global_search"}, {"md_atom_id": "md_dmRS_ex_a011", "md_file": "knowledge_base/domains/RS/examples.md", "md_atom_type": "TABLE_ROW", "md_parent_section": "§RS.1.1 [Example 1]", "md_verbatim": "| 2 | ABC | RS | 44444 | 2 | | NTRGRESP | Non-target Response | RECIST 1.1 | SD | SD | INVESTIGATOR | 40 | WEEK 6 | 2010-02-18 | 46 |", "score": 0.8657, "match_basis": "verbatim_token+global_search"}, {"md_atom_id": "md_dmRS_ex_a014", "md_file": "knowledge_base/domains/RS/examples.md", "md_atom_type": "TABLE_ROW", "md_parent_section": "§RS.1.1 [Example 1]", "md_verbatim": "| 5 | ABC | RS | 44444 | 5 | | NTRGRESP | Non-target Response | RECIST 1.1 | NE | NE | INVESTIGATOR | 60 | WEEK 12 | 2010-04-02 | 88 |", "score": 0.8657, "match_basis": "verbatim_token+global_search"}, {"md_atom_id": "md_dmRS_ex_a012", "md_file": "knowledge_base/domains/RS/examples.md", "md_atom_type": "TABLE_ROW", "md_parent_section": "§RS.1.1 [Example 1]", "md_verbatim": "| 3 | ABC | RS | 44444 | 3 | A2 | OVRLRESP | Overall Response | RECIST 1.1 | PR | PR | INVESTIGATOR | 40 | WEEK 6 | 2010-02-18 | 46 |", "score": 0.6714, "match_basis": "verbatim_token+global_search"}], "candidate_count": 5, "zero_candidate": false}
{"pdf_atom_id": "ig34_p0334_a015", "pdf_atom_type": "TABLE_ROW", "pdf_source": "SDTMIG_v3.4", "pdf_page": 334, "pdf_parent_section": "§6.3.9.3.1 Disease Response Use Case", "pdf_verbatim": "| 2 | ABC | RS | 44444 | 2 | | NTRGRESP | Non-target Response | RECIST 1.1 | SD | SD | INVESTIGATOR | 40 | WEEK 6 | 2010-02-18 | 46 |", "figure_ref": null, "candidates": [{"md_atom_id": "md_dmRS_ex_a011", "md_file": "knowledge_base/domains/RS/examples.md", "md_atom_type": "TABLE_ROW", "md_parent_section": "§RS.1.1 [Example 1]", "md_verbatim": "| 2 | ABC | RS | 44444 | 2 | | NTRGRESP | Non-target Response | RECIST 1.1 | SD | SD | INVESTIGATOR | 40 | WEEK 6 | 2010-02-18 | 46 |", "score": 0.9, "match_basis": "verbatim_token+global_search"}, {"md_atom_id": "md_dmRS_ex_a014", "md_file": "knowledge_base/domains/RS/examples.md", "md_atom_type": "TABLE_ROW", "md_parent_section": "§RS.1.1 [Example 1]", "md_verbatim": "| 5 | ABC | RS | 44444 | 5 | | NTRGRESP | Non-target Response | RECIST 1.1 | NE | NE | INVESTIGATOR | 60 | WEEK 12 | 2010-04-02 | 88 |", "score": 0.9, "match_basis": "verbatim_token+global_search"}, {"md_atom_id": "md_dmRS_ex_a010", "md_file": "knowledge_base/domains/RS/examples.md", "md_atom_type": "TABLE_ROW", "md_parent_section": "§RS.1.1 [Example 1]", "md_verbatim": "| 1 | ABC | RS | 44444 | 1 | | TRGRESP | Target Response | RECIST 1.1 | PR | PR | INVESTIGATOR | 40 | WEEK 6 | 2010-02-18 | 46 |", "score": 0.8657, "match_basis": "verbatim_token+global_search"}, {"md_atom_id": "md_dmRS_ex_a013", "md_file": "knowledge_base/domains/RS/examples.md", "md_atom_type": "TABLE_ROW", "md_parent_section": "§RS.1.1 [Example 1]", "md_verbatim": "| 4 | ABC | RS | 44444 | 4 | | TRGRESP | Target Response | RECIST 1.1 | NE | NE | INVESTIGATOR | 60 | WEEK 12 | 2010-04-02 | 88 |", "score": 0.8657, "match_basis": "verbatim_token+global_search"}, {"md_atom_id": "md_dmRS_ex_a012", "md_file": "knowledge_base/domains/RS/examples.md", "md_atom_type": "TABLE_ROW", "md_parent_section": "§RS.1.1 [Example 1]", "md_verbatim": "| 3 | ABC | RS | 44444 | 3 | A2 | OVRLRESP | Overall Response | RECIST 1.1 | PR | PR | INVESTIGATOR | 40 | WEEK 6 | 2010-02-18 | 46 |", "score": 0.6545, "match_basis": "verbatim_token+global_search"}], "candidate_count": 5, "zero_candidate": false}
{"pdf_atom_id": "ig34_p0334_a016", "pdf_atom_type": "TABLE_ROW", "pdf_source": "SDTMIG_v3.4", "pdf_page": 334, "pdf_parent_section": "§6.3.9.3.1 Disease Response Use Case", "pdf_verbatim": "| 3 | ABC | RS | 44444 | 3 | A2 | OVRLRESP | Overall Response | RECIST 1.1 | PR | PR | INVESTIGATOR | 40 | WEEK 6 | 2010-02-18 | 46 |", "figure_ref": null, "candidates": [{"md_atom_id": "md_dmRS_ex_a012", "md_file": "knowledge_base/domains/RS/examples.md", "md_atom_type": "TABLE_ROW", "md_parent_section": "§RS.1.1 [Example 1]", "md_verbatim": "| 3 | ABC | RS | 44444 | 3 | A2 | OVRLRESP | Overall Response | RECIST 1.1 | PR | PR | INVESTIGATOR | 40 | WEEK 6 | 2010-02-18 | 46 |", "score": 0.9, "match_basis": "verbatim_token+global_search"}, {"md_atom_id": "md_dmRS_ex_a010", "md_file": "knowledge_base/domains/RS/examples.md", "md_atom_type": "TABLE_ROW", "md_parent_section": "§RS.1.1 [Example 1]", "md_verbatim": "| 1 | ABC | RS | 44444 | 1 | | TRGRESP | Target Response | RECIST 1.1 | PR | PR | INVESTIGATOR | 40 | WEEK 6 | 2010-02-18 | 46 |", "score": 0.6714, "match_basis": "verbatim_token+global_search"}, {"md_atom_id": "md_dmRS_ex_a013", "md_file": "knowledge_base/domains/RS/examples.md", "md_atom_type": "TABLE_ROW", "md_parent_section": "§RS.1.1 [Example 1]", "md_verbatim": "| 4 | ABC | RS | 44444 | 4 | | TRGRESP | Target Response | RECIST 1.1 | NE | NE | INVESTIGATOR | 60 | WEEK 12 | 2010-04-02 | 88 |", "score": 0.6714, "match_basis": "verbatim_token+global_search"}, {"md_atom_id": "md_dmRS_ex_a016", "md_file": "knowledge_base/domains/RS/examples.md", "md_atom_type": "TABLE_ROW", "md_parent_section": "§RS.1.1 [Example 1]", "md_verbatim": "| 7 | ABC | RS | 44444 | 7 | A3 | OVRLRESP | Overall Response | PROTOCOL DEFINED RESPONSE CRITERIA | PD | PD | INVESTIGATOR | 60 | WEEK 12 | 2010-04-02 | 88 |", "score": 0.6577, "match_basis": "verbatim_token+global_search"}, {"md_atom_id": "md_dmRS_ex_a011", "md_file": "knowledge_base/domains/RS/examples.md", "md_atom_type": "TABLE_ROW", "md_parent_section": "§RS.1.1 [Example 1]", "md_verbatim": "| 2 | ABC | RS | 44444 | 2 | | NTRGRESP | Non-target Response | RECIST 1.1 | SD | SD | INVESTIGATOR | 40 | WEEK 6 | 2010-02-18 | 46 |", "score": 0.6545, "match_basis": "verbatim_token+global_search"}], "candidate_count": 5, "zero_candidate": false}
{"pdf_atom_id": "ig34_p0334_a017", "pdf_atom_type": "TABLE_ROW", "pdf_source": "SDTMIG_v3.4", "pdf_page": 334, "pdf_parent_section": "§6.3.9.3.1 Disease Response Use Case", "pdf_verbatim": "| 4 | ABC | RS | 44444 | 4 | | TRGRESP | Target Response | RECIST 1.1 | NE | NE | INVESTIGATOR | 60 | WEEK 12 | 2010-04-02 | 88 |", "figure_ref": null, "candidates": [{"md_atom_id": "md_dmRS_ex_a010", "md_file": "knowledge_base/domains/RS/examples.md", "md_atom_type": "TABLE_ROW", "md_parent_section": "§RS.1.1 [Example 1]", "md_verbatim": "| 1 | ABC | RS | 44444 | 1 | | TRGRESP | Target Response | RECIST 1.1 | PR | PR | INVESTIGATOR | 40 | WEEK 6 | 2010-02-18 | 46 |", "score": 0.9, "match_basis": "verbatim_token+global_search"}, {"md_atom_id": "md_dmRS_ex_a013", "md_file": "knowledge_base/domains/RS/examples.md", "md_atom_type": "TABLE_ROW", "md_parent_section": "§RS.1.1 [Example 1]", "md_verbatim": "| 4 | ABC | RS | 44444 | 4 | | TRGRESP | Target Response | RECIST 1.1 | NE | NE | INVESTIGATOR | 60 | WEEK 12 | 2010-04-02 | 88 |", "score": 0.9, "match_basis": "verbatim_token+global_search"}, {"md_atom_id": "md_dmRS_ex_a011", "md_file": "knowledge_base/domains/RS/examples.md", "md_atom_type": "TABLE_ROW", "md_parent_section": "§RS.1.1 [Example 1]", "md_verbatim": "| 2 | ABC | RS | 44444 | 2 | | NTRGRESP | Non-target Response | RECIST 1.1 | SD | SD | INVESTIGATOR | 40 | WEEK 6 | 2010-02-18 | 46 |", "score": 0.8657, "match_basis": "verbatim_token+global_search"}, {"md_atom_id": "md_dmRS_ex_a014", "md_file": "knowledge_base/domains/RS/examples.md", "md_atom_type": "TABLE_ROW", "md_parent_section": "§RS.1.1 [Example 1]", "md_verbatim": "| 5 | ABC | RS | 44444 | 5 | | NTRGRESP | Non-target Response | RECIST 1.1 | NE | NE | INVESTIGATOR | 60 | WEEK 12 | 2010-04-02 | 88 |", "score": 0.8657, "match_basis": "verbatim_token+global_search"}, {"md_atom_id": "md_dmRS_ex_a012", "md_file": "knowledge_base/domains/RS/examples.md", "md_atom_type": "TABLE_ROW", "md_parent_section": "§RS.1.1 [Example 1]", "md_verbatim": "| 3 | ABC | RS | 44444 | 3 | A2 | OVRLRESP | Overall Response | RECIST 1.1 | PR | PR | INVESTIGATOR | 40 | WEEK 6 | 2010-02-18 | 46 |", "score": 0.6714, "match_basis": "verbatim_token+global_search"}], "candidate_count": 5, "zero_candidate": false}
{"pdf_atom_id": "ig34_p0334_a018", "pdf_atom_type": "TABLE_ROW", "pdf_source": "SDTMIG_v3.4", "pdf_page": 334, "pdf_parent_section": "§6.3.9.3.1 Disease Response Use Case", "pdf_verbatim": "| 5 | ABC | RS | 44444 | 5 | | NTRGRESP | Non-target Response | RECIST 1.1 | NE | NE | INVESTIGATOR | 60 | WEEK 12 | 2010-04-02 | 88 |", "figure_ref": null, "candidates": [{"md_atom_id": "md_dmRS_ex_a011", "md_file": "knowledge_base/domains/RS/examples.md", "md_atom_type": "TABLE_ROW", "md_parent_section": "§RS.1.1 [Example 1]", "md_verbatim": "| 2 | ABC | RS | 44444 | 2 | | NTRGRESP | Non-target Response | RECIST 1.1 | SD | SD | INVESTIGATOR | 40 | WEEK 6 | 2010-02-18 | 46 |", "score": 0.9, "match_basis": "verbatim_token+global_search"}, {"md_atom_id": "md_dmRS_ex_a014", "md_file": "knowledge_base/domains/RS/examples.md", "md_atom_type": "TABLE_ROW", "md_parent_section": "§RS.1.1 [Example 1]", "md_verbatim": "| 5 | ABC | RS | 44444 | 5 | | NTRGRESP | Non-target Response | RECIST 1.1 | NE | NE | INVESTIGATOR | 60 | WEEK 12 | 2010-04-02 | 88 |", "score": 0.9, "match_basis": "verbatim_token+global_search"}, {"md_atom_id": "md_dmRS_ex_a010", "md_file": "knowledge_base/domains/RS/examples.md", "md_atom_type": "TABLE_ROW", "md_parent_section": "§RS.1.1 [Example 1]", "md_verbatim": "| 1 | ABC | RS | 44444 | 1 | | TRGRESP | Target Response | RECIST 1.1 | PR | PR | INVESTIGATOR | 40 | WEEK 6 | 2010-02-18 | 46 |", "score": 0.8657, "match_basis": "verbatim_token+global_search"}, {"md_atom_id": "md_dmRS_ex_a013", "md_file": "knowledge_base/domains/RS/examples.md", "md_atom_type": "TABLE_ROW", "md_parent_section": "§RS.1.1 [Example 1]", "md_verbatim": "| 4 | ABC | RS | 44444 | 4 | | TRGRESP | Target Response | RECIST 1.1 | NE | NE | INVESTIGATOR | 60 | WEEK 12 | 2010-04-02 | 88 |", "score": 0.8657, "match_basis": "verbatim_token+global_search"}, {"md_atom_id": "md_dmRS_ex_a012", "md_file": "knowledge_base/domains/RS/examples.md", "md_atom_type": "TABLE_ROW", "md_parent_section": "§RS.1.1 [Example 1]", "md_verbatim": "| 3 | ABC | RS | 44444 | 3 | A2 | OVRLRESP | Overall Response | RECIST 1.1 | PR | PR | INVESTIGATOR | 40 | WEEK 6 | 2010-02-18 | 46 |", "score": 0.6545, "match_basis": "verbatim_token+global_search"}], "candidate_count": 5, "zero_candidate": false}
{"pdf_atom_id": "ig34_p0334_a019", "pdf_atom_type": "TABLE_ROW", "pdf_source": "SDTMIG_v3.4", "pdf_page": 334, "pdf_parent_section": "§6.3.9.3.1 Disease Response Use Case", "pdf_verbatim": "| 6 | ABC | RS | 44444 | 6 | | SYMPTDTR | Symptomatic Deterioration | PROTOCOL DEFINED RESPONSE CRITERIA | Pleural Effusion | PD | INVESTIGATOR | 60 | WEEK 12 | 2010-04-02 | 88 |", "figure_ref": null, "candidates": [{"md_atom_id": "md_dmRS_ex_a015", "md_file": "knowledge_base/domains/RS/examples.md", "md_atom_type": "TABLE_ROW", "md_parent_section": "§RS.1.1 [Example 1]", "md_verbatim": "| 6 | ABC | RS | 44444 | 6 | | SYMPTDTR | Symptomatic Deterioration | PROTOCOL DEFINED RESPONSE CRITERIA | Pleural Effusion | PD | INVESTIGATOR | 60 | WEEK 12 | 2010-04-02 | 88 |", "score": 0.9, "match_basis": "verbatim_token+global_search"}, {"md_atom_id": "md_dmRS_ex_a016", "md_file": "knowledge_base/domains/RS/examples.md", "md_atom_type": "TABLE_ROW", "md_parent_section": "§RS.1.1 [Example 1]", "md_verbatim": "| 7 | ABC | RS | 44444 | 7 | A3 | OVRLRESP | Overall Response | PROTOCOL DEFINED RESPONSE CRITERIA | PD | PD | INVESTIGATOR | 60 | WEEK 12 | 2010-04-02 | 88 |", "score": 0.6117, "match_basis": "verbatim_token+global_search"}, {"md_atom_id": "md_dmRS_ex_a012", "md_file": "knowledge_base/domains/RS/examples.md", "md_atom_type": "TABLE_ROW", "md_parent_section": "§RS.1.1 [Example 1]", "md_verbatim": "| 3 | ABC | RS | 44444 | 3 | A2 | OVRLRESP | Overall Response | RECIST 1.1 | PR | PR | INVESTIGATOR | 40 | WEEK 6 | 2010-02-18 | 46 |", "score": 0.4704, "match_basis": "verbatim_token+global_search"}, {"md_atom_id": "md_dmRS_ex_a007", "md_file": "knowledge_base/domains/RS/examples.md", "md_atom_type": "SENTENCE", "md_parent_section": "§RS.1.1 [Example 1]", "md_verbatim": "**Rows 4-7:** Show the target response and non-target response by the investigator using RECIST 1.1, as well as the determination of symptomatic determination (pleural effusion) and overall response using protocol-defined response criteria, at the week 12 visit.", "score": 0.468, "match_basis": "verbatim_token+global_search"}, {"md_atom_id": "md_dmRS_ex_a010", "md_file": "knowledge_base/domains/RS/examples.md", "md_atom_type": "TABLE_ROW", "md_parent_section": "§RS.1.1 [Example 1]", "md_verbatim": "| 1 | ABC | RS | 44444 | 1 | | TRGRESP | Target Response | RECIST 1.1 | PR | PR | INVESTIGATOR | 40 | WEEK 6 | 2010-02-18 | 46 |", "score": 0.465, "match_basis": "verbatim_token+global_search"}], "candidate_count": 5, "zero_candidate": false}
{"pdf_atom_id": "ig34_p0334_a020", "pdf_atom_type": "TABLE_ROW", "pdf_source": "SDTMIG_v3.4", "pdf_page": 334, "pdf_parent_section": "§6.3.9.3.1 Disease Response Use Case", "pdf_verbatim": "| 7 | ABC | RS | 44444 | 7 | A3 | OVRLRESP | Overall Response | PROTOCOL DEFINED RESPONSE CRITERIA | PD | PD | INVESTIGATOR | 60 | WEEK 12 | 2010-04-02 | 88 |", "figure_ref": null, "candidates": [{"md_atom_id": "md_dmRS_ex_a016", "md_file": "knowledge_base/domains/RS/examples.md", "md_atom_type": "TABLE_ROW", "md_parent_section": "§RS.1.1 [Example 1]", "md_verbatim": "| 7 | ABC | RS | 44444 | 7 | A3 | OVRLRESP | Overall Response | PROTOCOL DEFINED RESPONSE CRITERIA | PD | PD | INVESTIGATOR | 60 | WEEK 12 | 2010-04-02 | 88 |", "score": 0.9, "match_basis": "verbatim_token+global_search"}, {"md_atom_id": "md_dmRS_ex_a012", "md_file": "knowledge_base/domains/RS/examples.md", "md_atom_type": "TABLE_ROW", "md_parent_section": "§RS.1.1 [Example 1]", "md_verbatim": "| 3 | ABC | RS | 44444 | 3 | A2 | OVRLRESP | Overall Response | RECIST 1.1 | PR | PR | INVESTIGATOR | 40 | WEEK 6 | 2010-02-18 | 46 |", "score": 0.6577, "match_basis": "verbatim_token+global_search"}, {"md_atom_id": "md_dmRS_ex_a015", "md_file": "knowledge_base/domains/RS/examples.md", "md_atom_type": "TABLE_ROW", "md_parent_section": "§RS.1.1 [Example 1]", "md_verbatim": "| 6 | ABC | RS | 44444 | 6 | | SYMPTDTR | Symptomatic Deterioration | PROTOCOL DEFINED RESPONSE CRITERIA | Pleural Effusion | PD | INVESTIGATOR | 60 | WEEK 12 | 2010-04-02 | 88 |", "score": 0.6117, "match_basis": "verbatim_token+global_search"}, {"md_atom_id": "md_dmRS_ex_a039", "md_file": "knowledge_base/domains/RS/examples.md", "md_atom_type": "TABLE_ROW", "md_parent_section": "§RS.1.3 [Example 3]", "md_verbatim": "| 1 | ABC | RS | 55555 | 1 | CM1 | OVRLRESP | Overall Response | UNSPECIFIED | PD | | PD | | | INVESTIGATOR | 10 | SCREEN | 2015-02-18 | -32 | | | BEFORE | SCREEN |", "score": 0.5382, "match_basis": "verbatim_token+global_search"}, {"md_atom_id": "md_dmRS_ex_a010", "md_file": "knowledge_base/domains/RS/examples.md", "md_atom_type": "TABLE_ROW", "md_parent_section": "§RS.1.1 [Example 1]", "md_verbatim": "| 1 | ABC | RS | 44444 | 1 | | TRGRESP | Target Response | RECIST 1.1 | PR | PR | INVESTIGATOR | 40 | WEEK 6 | 2010-02-18 | 46 |", "score": 0.5237, "match_basis": "verbatim_token+global_search"}], "candidate_count": 5, "zero_candidate": false}
{"pdf_atom_id": "ig34_p0334_a021", "pdf_atom_type": "HEADING", "pdf_source": "SDTMIG_v3.4", "pdf_page": 334, "pdf_parent_section": "§6.3.9.3.1 Disease Response Use Case", "pdf_verbatim": "Example 2", "figure_ref": null, "candidates": [{"md_atom_id": "md_dmCM_ex_a002", "md_file": "knowledge_base/domains/CM/examples.md", "md_atom_type": "HEADING", "md_parent_section": "§CM.1 [Example 1]", "md_verbatim": "## Example 1", "score": 0.9, "match_basis": "verbatim_token+global_search"}, {"md_atom_id": "md_dmCM_ex_a022", "md_file": "knowledge_base/domains/CM/examples.md", "md_atom_type": "HEADING", "md_parent_section": "§CM.2 [Example 2]", "md_verbatim": "## Example 2", "score": 0.9, "match_basis": "verbatim_token+global_search"}, {"md_atom_id": "md_dmCM_ex_a029", "md_file": "knowledge_base/domains/CM/examples.md", "md_atom_type": "HEADING", "md_parent_section": "§CM.3 [Example 3]", "md_verbatim": "## Example 3", "score": 0.9, "match_basis": "verbatim_token+global_search"}, {"md_atom_id": "md_dmCM_ex_a047", "md_file": "knowledge_base/domains/CM/examples.md", "md_atom_type": "HEADING", "md_parent_section": "§CM.4 [Example 4]", "md_verbatim": "## Example 4", "score": 0.9, "match_basis": "verbatim_token+global_search"}, {"md_atom_id": "md_dmCM_ex_a060", "md_file": "knowledge_base/domains/CM/examples.md", "md_atom_type": "HEADING", "md_parent_section": "§CM.5 [Example 5]", "md_verbatim": "## Example 5", "score": 0.9, "match_basis": "verbatim_token+global_search"}, {"md_atom_id": "md_ch08_a292", "md_file": "knowledge_base/chapters/ch08_relationships.md", "md_atom_type": "HEADING", "md_parent_section": "§8.7 [Related Subjects (RELSUB)]", "md_verbatim": "### Example", "score": 0.9, "match_basis": "verbatim_token+global_search"}, {"md_atom_id": "md_ch08_a331", "md_file": "knowledge_base/chapters/ch08_relationships.md", "md_atom_type": "HEADING", "md_parent_section": "§8.8 [Related Specimens (RELSPEC)]", "md_verbatim": "### Example", "score": 0.9, "match_basis": "verbatim_token+global_search"}, {"md_atom_id": "md_dmAE_ex_a002", "md_file": "knowledge_base/domains/AE/examples.md", "md_atom_type": "HEADING", "md_parent_section": "§AE.1 [Example 1]", "md_verbatim": "## Example 1", "score": 0.9, "match_basis": "verbatim_token+global_search"}, {"md_atom_id": "md_dmAE_ex_a020", "md_file": "knowledge_base/domains/AE/examples.md", "md_atom_type": "HEADING", "md_parent_section": "§AE.2 [Example 2]", "md_verbatim": "## Example 2", "score": 0.9, "match_basis": "verbatim_token+global_search"}, {"md_atom_id": "md_dmAE_ex_a035", "md_file": "knowledge_base/domains/AE/examples.md", "md_atom_type": "HEADING", "md_parent_section": "§AE.3 [Example 3]", "md_verbatim": "## Example 3", "score": 0.9, "match_basis": "verbatim_token+global_search"}], "candidate_count": 10, "zero_candidate": false}
{"pdf_atom_id": "ig34_p0334_a022", "pdf_atom_type": "SENTENCE", "pdf_source": "SDTMIG_v3.4", "pdf_page": 334, "pdf_parent_section": "§6.3.9.3.1 Disease Response Use Case", "pdf_verbatim": "This example shows response assessments determined from the TR domain based on RECIST 1.1 criteria and also shows a confirmation of an equivocal new lesion progression.", "figure_ref": null, "candidates": [{"md_atom_id": "md_dmRS_ex_a018", "md_file": "knowledge_base/domains/RS/examples.md", "md_atom_type": "SENTENCE", "md_parent_section": "§RS.1.2 [Example 2]", "md_verbatim": "This example shows response assessments determined from the TR domain based on RECIST 1.1 criteria and also shows a confirmation of an equivocal new lesion progression.", "score": 0.9, "match_basis": "verbatim_token+global_search"}, {"md_atom_id": "md_dmRS_ex_a005", "md_file": "knowledge_base/domains/RS/examples.md", "md_atom_type": "SENTENCE", "md_parent_section": "§RS.1.1 [Example 1]", "md_verbatim": "This example shows response assessments determined from the TR domain based on RECIST 1.1 criteria and also shows a case where progressive disease due to symptomatic deterioration was determined based on a clinical assessment by the investigator.", "score": 0.6305, "match_basis": "verbatim_token+global_search"}, {"md_atom_id": "md_dmRS_ex_a020", "md_file": "knowledge_base/domains/RS/examples.md", "md_atom_type": "SENTENCE", "md_parent_section": "§RS.1.2 [Example 2]", "md_verbatim": "**Rows 5-8:** Show the target response, non-target response, and the overall response by the independent assessor Radiologist 1 using RECIST 1.1 at the week 12 visit. At this week 12 visit, the new lesion was determined to be unequivocally a new lesion.", "score": 0.5083, "match_basis": "verbatim_token+global_search"}, {"md_atom_id": "md_dmRS_ex_a019", "md_file": "knowledge_base/domains/RS/examples.md", "md_atom_type": "SENTENCE", "md_parent_section": "§RS.1.2 [Example 2]", "md_verbatim": "**Rows 1-4:** Show the target response, non-target response, and the overall response by the independent assessor Radiologist 1 using RECIST 1.1 at the week 6 visit. At this week 6 visit, an equivocal new lesion was identified.", "score": 0.4645, "match_basis": "verbatim_token+global_search"}, {"md_atom_id": "md_dmRS_ex_a007", "md_file": "knowledge_base/domains/RS/examples.md", "md_atom_type": "SENTENCE", "md_parent_section": "§RS.1.1 [Example 1]", "md_verbatim": "**Rows 4-7:** Show the target response and non-target response by the investigator using RECIST 1.1, as well as the determination of symptomatic determination (pleural effusion) and overall response using protocol-defined response criteria, at the week 12 visit.", "score": 0.4612, "match_basis": "verbatim_token+global_search"}], "candidate_count": 5, "zero_candidate": false}
{"pdf_atom_id": "ig34_p0335_a001", "pdf_atom_type": "LIST_ITEM", "pdf_source": "SDTMIG_v3.4", "pdf_page": 335, "pdf_parent_section": "§6.3.9.3.1 Disease Response Use Case", "pdf_verbatim": "Rows 1-4:  Show the target response, non-target response, and the overall response by the independent assessor Radiologist 1 using RECIST 1.1 at the week 6 visit. At this week 6 visit, an equivocal new lesion was identified.", "figure_ref": null, "candidates": [{"md_atom_id": "md_dmRS_ex_a019", "md_file": "knowledge_base/domains/RS/examples.md", "md_atom_type": "SENTENCE", "md_parent_section": "§RS.1.2 [Example 2]", "md_verbatim": "**Rows 1-4:** Show the target response, non-target response, and the overall response by the independent assessor Radiologist 1 using RECIST 1.1 at the week 6 visit. At this week 6 visit, an equivocal new lesion was identified.", "score": 0.81, "match_basis": "verbatim_token+global_search"}, {"md_atom_id": "md_dmRS_ex_a020", "md_file": "knowledge_base/domains/RS/examples.md", "md_atom_type": "SENTENCE", "md_parent_section": "§RS.1.2 [Example 2]", "md_verbatim": "**Rows 5-8:** Show the target response, non-target response, and the overall response by the independent assessor Radiologist 1 using RECIST 1.1 at the week 12 visit. At this week 12 visit, the new lesion was determined to be unequivocally a new lesion.", "score": 0.6941, "match_basis": "verbatim_token+global_search"}, {"md_atom_id": "md_dmRS_ex_a006", "md_file": "knowledge_base/domains/RS/examples.md", "md_atom_type": "SENTENCE", "md_parent_section": "§RS.1.1 [Example 1]", "md_verbatim": "**Rows 1-3:** Show the target response, non-target response, and the overall response by the investigator using RECIST 1.1 at the week 6 visit.", "score": 0.4445, "match_basis": "verbatim_token+global_search"}, {"md_atom_id": "md_dmRS_assn_a022", "md_file": "knowledge_base/domains/RS/assumptions.md", "md_atom_type": "LIST_ITEM", "md_parent_section": "§RS [RS — Assumptions]", "md_verbatim": "8. In cases where an independent assessor identifies one of multiple assessments/measurements to be the accepted one, the accepted record flag variable (RSACPTFL) identifies records that have been determined to be the accepted assessments/measurements by an independent assessor. This flag would be provided by an independent assessor when multiple assessors (e.g., \"RADIOLOGIST 1\", \"RADIOLOGIST 2\", \"ADJUDICATOR\") provide assessments or evaluations at the same time point or for an overall evaluation.", "score": 0.4353, "match_basis": "verbatim_token+global_search"}, {"md_atom_id": "md_dmTU_ex_a054", "md_file": "knowledge_base/domains/TU/examples.md", "md_atom_type": "NOTE", "md_parent_section": "§TU.3 [Example 3]", "md_verbatim": "**Rows 1-5:** Show the target and non-target tumors identified at screening by the independent assessor, Radiologist 1.", "score": 0.4328, "match_basis": "verbatim_token+global_search"}], "candidate_count": 5, "zero_candidate": false}
{"pdf_atom_id": "ig34_p0335_a002", "pdf_atom_type": "LIST_ITEM", "pdf_source": "SDTMIG_v3.4", "pdf_page": 335, "pdf_parent_section": "§6.3.9.3.1 Disease Response Use Case", "pdf_verbatim": "Rows 5-8:  Show the target response, non-target response, and the overall response by the independent assessor Radiologist 1 using RECIST 1.1 at the week 12 visit. At this week 12 visit, the new lesion was determined to be unequivocally a new lesion.", "figure_ref": null, "candidates": [{"md_atom_id": "md_dmRS_ex_a020", "md_file": "knowledge_base/domains/RS/examples.md", "md_atom_type": "SENTENCE", "md_parent_section": "§RS.1.2 [Example 2]", "md_verbatim": "**Rows 5-8:** Show the target response, non-target response, and the overall response by the independent assessor Radiologist 1 using RECIST 1.1 at the week 12 visit. At this week 12 visit, the new lesion was determined to be unequivocally a new lesion.", "score": 0.81, "match_basis": "verbatim_token+global_search"}, {"md_atom_id": "md_dmRS_ex_a019", "md_file": "knowledge_base/domains/RS/examples.md", "md_atom_type": "SENTENCE", "md_parent_section": "§RS.1.2 [Example 2]", "md_verbatim": "**Rows 1-4:** Show the target response, non-target response, and the overall response by the independent assessor Radiologist 1 using RECIST 1.1 at the week 6 visit. At this week 6 visit, an equivocal new lesion was identified.", "score": 0.6941, "match_basis": "verbatim_token+global_search"}, {"md_atom_id": "md_dmRS_assn_a022", "md_file": "knowledge_base/domains/RS/assumptions.md", "md_atom_type": "LIST_ITEM", "md_parent_section": "§RS [RS — Assumptions]", "md_verbatim": "8. In cases where an independent assessor identifies one of multiple assessments/measurements to be the accepted one, the accepted record flag variable (RSACPTFL) identifies records that have been determined to be the accepted assessments/measurements by an independent assessor. This flag would be provided by an independent assessor when multiple assessors (e.g., \"RADIOLOGIST 1\", \"RADIOLOGIST 2\", \"ADJUDICATOR\") provide assessments or evaluations at the same time point or for an overall evaluation.", "score": 0.444, "match_basis": "verbatim_token+global_search"}, {"md_atom_id": "md_dmRS_ex_a006", "md_file": "knowledge_base/domains/RS/examples.md", "md_atom_type": "SENTENCE", "md_parent_section": "§RS.1.1 [Example 1]", "md_verbatim": "**Rows 1-3:** Show the target response, non-target response, and the overall response by the investigator using RECIST 1.1 at the week 6 visit.", "score": 0.4317, "match_basis": "verbatim_token+global_search"}, {"md_atom_id": "md_dmTU_assn_a044", "md_file": "knowledge_base/domains/TU/assumptions.md", "md_atom_type": "LIST_ITEM", "md_parent_section": "§TU [TU — Assumptions]", "md_verbatim": "7. The acceptance flag variable (TUACPTFL) identifies records that have been determined to be the accepted assessments/measurements by an independent assessor. This flag would be provided by an independent assessor and when multiple evaluators (e.g., \"RADIOLOGIST 1\", \"RADIOLOGIST 2\", \"ADJUDICATOR\") provide assessments or evaluations at the same time point or an overall evaluation. This flag should not be used by a sponsor for any other purpose. It is not expected that the TUACPTFL flag would be populated by the sponsor; instead, that type of record selection should be handled in the analysis dataset (ADaM).", "score": 0.4221, "match_basis": "verbatim_token+global_search"}], "candidate_count": 5, "zero_candidate": false}
{"pdf_atom_id": "ig34_p0335_a003", "pdf_atom_type": "CODE_LITERAL", "pdf_source": "SDTMIG_v3.4", "pdf_page": 335, "pdf_parent_section": "§6.3.9.3.1 Disease Response Use Case", "pdf_verbatim": "rs.xpt", "figure_ref": null, "candidates": [{"md_atom_id": "md_ch04_a207", "md_file": "knowledge_base/chapters/ch04_general_assumptions.md", "md_atom_type": "CODE_LITERAL", "md_parent_section": "§4.2.3 [Use of \"Subject\" and USUBJID]", "md_verbatim": "dm.xpt:", "score": 0.69, "match_basis": "verbatim_token+global_search"}, {"md_atom_id": "md_ch04_a210", "md_file": "knowledge_base/chapters/ch04_general_assumptions.md", "md_atom_type": "CODE_LITERAL", "md_parent_section": "§4.2.3 [Use of \"Subject\" and USUBJID]", "md_verbatim": "dm.xpt:", "score": 0.69, "match_basis": "verbatim_token+global_search"}, {"md_atom_id": "md_dmCM_ex_a010", "md_file": "knowledge_base/domains/CM/examples.md", "md_atom_type": "NOTE", "md_parent_section": "§CM.1 [Example 1]", "md_verbatim": "**cm.xpt**", "score": 0.69, "match_basis": "verbatim_token+global_search"}, {"md_atom_id": "md_dmCM_ex_a025", "md_file": "knowledge_base/domains/CM/examples.md", "md_atom_type": "NOTE", "md_parent_section": "§CM.2 [Example 2]", "md_verbatim": "**cm.xpt**", "score": 0.69, "match_basis": "verbatim_token+global_search"}, {"md_atom_id": "md_dmCM_ex_a042", "md_file": "knowledge_base/domains/CM/examples.md", "md_atom_type": "NOTE", "md_parent_section": "§CM.3 [Example 3]", "md_verbatim": "**cm.xpt**", "score": 0.69, "match_basis": "verbatim_token+global_search"}, {"md_atom_id": "md_dmCM_ex_a052", "md_file": "knowledge_base/domains/CM/examples.md", "md_atom_type": "NOTE", "md_parent_section": "§CM.4 [Example 4]", "md_verbatim": "**cm.xpt**", "score": 0.69, "match_basis": "verbatim_token+global_search"}, {"md_atom_id": "md_dmCM_ex_a070", "md_file": "knowledge_base/domains/CM/examples.md", "md_atom_type": "NOTE", "md_parent_section": "§CM.5 [Example 5]", "md_verbatim": "**cm.xpt**", "score": 0.69, "match_basis": "verbatim_token+global_search"}, {"md_atom_id": "md_ch04_a368", "md_file": "knowledge_base/chapters/ch04_general_assumptions.md", "md_atom_type": "CODE_LITERAL", "md_parent_section": "§4.2.8.3 [Multiple Values for a Non-result Qualifier Variable]", "md_verbatim": "ae.xpt:", "score": 0.69, "match_basis": "verbatim_token+global_search"}, {"md_atom_id": "md_ch04_a378", "md_file": "knowledge_base/chapters/ch04_general_assumptions.md", "md_atom_type": "CODE_LITERAL", "md_parent_section": "§4.2.8.3 [Multiple Values for a Non-result Qualifier Variable]", "md_verbatim": "ae.xpt:", "score": 0.69, "match_basis": "verbatim_token+global_search"}, {"md_atom_id": "md_ch04_a391", "md_file": "knowledge_base/chapters/ch04_general_assumptions.md", "md_atom_type": "CODE_LITERAL", "md_parent_section": "§4.2.8.3 [Multiple Values for a Non-result Qualifier Variable]", "md_verbatim": "ae.xpt:", "score": 0.69, "match_basis": "verbatim_token+global_search"}], "candidate_count": 10, "zero_candidate": false}
{"pdf_atom_id": "ig34_p0335_a004", "pdf_atom_type": "TABLE_HEADER", "pdf_source": "SDTMIG_v3.4", "pdf_page": 335, "pdf_parent_section": "§6.3.9.3.1 Disease Response Use Case", "pdf_verbatim": "| Row | STUDYID | DOMAIN | USUBJID | RSSEQ | RSLNKGRP | RSTESTCD | RSTEST | RSCAT | RSORRES | RSSTRESC | RSNAM | RSEVAL | RSEVALID | RSACPTFL | VISITNUM | VISIT | RSDTC | RSDY |", "figure_ref": null, "candidates": [{"md_atom_id": "md_dmRS_ex_a022", "md_file": "knowledge_base/domains/RS/examples.md", "md_atom_type": "TABLE_HEADER", "md_parent_section": "§RS.1.2 [Example 2]", "md_verbatim": "| Row | STUDYID | DOMAIN | USUBJID | RSSEQ | RSLNKGRP | RSTESTCD | RSTEST | RSCAT | RSORRES | RSSTRESC | RSNAM | RSEVAL | RSEVALID | RSACPTFL | VISITNUM | VISIT | RSDTC | RSDY |\n|-----|---------|--------|---------|-------|----------|----------|--------|-------|---------|----------|-------|--------|----------|----------|----------|-------|-------|------|", "score": 0.9, "match_basis": "verbatim_token+global_search"}, {"md_atom_id": "md_dmRS_ex_a009", "md_file": "knowledge_base/domains/RS/examples.md", "md_atom_type": "TABLE_HEADER", "md_parent_section": "§RS.1.1 [Example 1]", "md_verbatim": "| Row | STUDYID | DOMAIN | USUBJID | RSSEQ | RSLNKGRP | RSTESTCD | RSTEST | RSCAT | RSORRES | RSSTRESC | RSEVAL | VISITNUM | VISIT | RSDTC | RSDY |\n|-----|---------|--------|---------|-------|----------|----------|--------|-------|---------|----------|--------|----------|-------|-------|------|", "score": 0.8015, "match_basis": "verbatim_token+global_search"}, {"md_atom_id": "md_dmRS_ex_a038", "md_file": "knowledge_base/domains/RS/examples.md", "md_atom_type": "TABLE_HEADER", "md_parent_section": "§RS.1.3 [Example 3]", "md_verbatim": "| Row | STUDYID | DOMAIN | USUBJID | RSSEQ | RSLNKGRP | RSTESTCD | RSTEST | RSCAT | RSORRES | RSORRESU | RSSTRESC | RSSTRESN | RSSTRESU | RSEVAL | VISITNUM | VISIT | RSDTC | RSDY | RSSTRTPT | RSSTTPT | RSENRTPT | RSENTPT |\n|-----|---------|--------|---------|-------|----------|----------|--------|-------|---------|----------|----------|----------|----------|--------|----------|-------|-------|------|----------|---------|----------|---------|", "score": 0.7253, "match_basis": "verbatim_token+global_search"}, {"md_atom_id": "md_dmRS_ex_a050", "md_file": "knowledge_base/domains/RS/examples.md", "md_atom_type": "TABLE_HEADER", "md_parent_section": "§RS.2.1 [Example 1]", "md_verbatim": "| Row | STUDYID | DOMAIN | USUBJID | RSSEQ | RSTESTCD | RSTEST | RSCAT | RSORRES | RSSTRESC | RSSTRESN | RSLOBXFL | VISITNUM | RSDTC |\n|-----|---------|--------|---------|-------|----------|--------|-------|---------|----------|----------|----------|----------|-------|", "score": 0.6781, "match_basis": "verbatim_token+global_search"}, {"md_atom_id": "md_ch04_a091", "md_file": "knowledge_base/chapters/ch04_general_assumptions.md", "md_atom_type": "TABLE_HEADER", "md_parent_section": "§4.1.7.1 [Example of Splitting Questionnaires]", "md_verbatim": "| Row | STUDYID | DOMAIN | USUBJID | QSSEQ | QSTESTCD | QSTEST | QSCAT | QSORRES | QSSTRESC | QSSTRESN | QSLOBXFL | VISITNUM | QSDTC | QSDY |", "score": 0.6114, "match_basis": "verbatim_token+global_search"}], "candidate_count": 5, "zero_candidate": false}
{"pdf_atom_id": "ig34_p0335_a005", "pdf_atom_type": "TABLE_ROW", "pdf_source": "SDTMIG_v3.4", "pdf_page": 335, "pdf_parent_section": "§6.3.9.3.1 Disease Response Use Case", "pdf_verbatim": "| 1 | ABC | RS | 55555 | 1 | | TRGRESP | Target Response | RECIST 1.1 | PR | PR | ACE IMAGING | INDEPENDENT ASSESSOR | RADIOLOGIST 1 | Y | 40 | WEEK 6 | 2010-02-18 | 46 |", "figure_ref": null, "candidates": [{"md_atom_id": "md_dmRS_ex_a023", "md_file": "knowledge_base/domains/RS/examples.md", "md_atom_type": "TABLE_ROW", "md_parent_section": "§RS.1.2 [Example 2]", "md_verbatim": "| 1 | ABC | RS | 55555 | 1 | | TRGRESP | Target Response | RECIST 1.1 | PR | PR | ACE IMAGING | INDEPENDENT ASSESSOR | RADIOLOGIST 1 | Y | 40 | WEEK 6 | 2010-02-18 | 46 |", "score": 0.9, "match_basis": "verbatim_token+global_search"}, {"md_atom_id": "md_dmRS_ex_a027", "md_file": "knowledge_base/domains/RS/examples.md", "md_atom_type": "TABLE_ROW", "md_parent_section": "§RS.1.2 [Example 2]", "md_verbatim": "| 5 | ABC | RS | 55555 | 5 | | TRGRESP | Target Response | RECIST 1.1 | PD | PD | ACE IMAGING | INDEPENDENT ASSESSOR | RADIOLOGIST 1 | Y | 60 | WEEK 12 | 2010-04-02 | 88 |", "score": 0.9, "match_basis": "verbatim_token+global_search"}, {"md_atom_id": "md_dmRS_ex_a024", "md_file": "knowledge_base/domains/RS/examples.md", "md_atom_type": "TABLE_ROW", "md_parent_section": "§RS.1.2 [Example 2]", "md_verbatim": "| 2 | ABC | RS | 55555 | 2 | | NTRGRESP | Non-target Response | RECIST 1.1 | CR | CR | ACE IMAGING | INDEPENDENT ASSESSOR | RADIOLOGIST 1 | Y | 40 | WEEK 6 | 2010-02-18 | 46 |", "score": 0.8774, "match_basis": "verbatim_token+global_search"}, {"md_atom_id": "md_dmRS_ex_a028", "md_file": "knowledge_base/domains/RS/examples.md", "md_atom_type": "TABLE_ROW", "md_parent_section": "§RS.1.2 [Example 2]", "md_verbatim": "| 6 | ABC | RS | 55555 | 6 | | NTRGRESP | Non-target Response | RECIST 1.1 | CR | CR | ACE IMAGING | INDEPENDENT ASSESSOR | RADIOLOGIST 1 | Y | 60 | WEEK 12 | 2010-04-02 | 88 |", "score": 0.8774, "match_basis": "verbatim_token+global_search"}, {"md_atom_id": "md_dmRS_ex_a026", "md_file": "knowledge_base/domains/RS/examples.md", "md_atom_type": "TABLE_ROW", "md_parent_section": "§RS.1.2 [Example 2]", "md_verbatim": "| 4 | ABC | RS | 55555 | 4 | A2 | OVRLRESP | Overall Response | RECIST 1.1 | PR | PR | ACE IMAGING | INDEPENDENT ASSESSOR | RADIOLOGIST 1 | Y | 40 | WEEK 6 | 2010-02-18 | 46 |", "score": 0.74, "match_basis": "verbatim_token+global_search"}], "candidate_count": 5, "zero_candidate": false}
{"pdf_atom_id": "ig34_p0335_a006", "pdf_atom_type": "TABLE_ROW", "pdf_source": "SDTMIG_v3.4", "pdf_page": 335, "pdf_parent_section": "§6.3.9.3.1 Disease Response Use Case", "pdf_verbatim": "| 2 | ABC | RS | 55555 | 2 | | NTRGRESP | Non-target Response | RECIST 1.1 | CR | CR | ACE IMAGING | INDEPENDENT ASSESSOR | RADIOLOGIST 1 | Y | 40 | WEEK 6 | 2010-02-18 | 46 |", "figure_ref": null, "candidates": [{"md_atom_id": "md_dmRS_ex_a024", "md_file": "knowledge_base/domains/RS/examples.md", "md_atom_type": "TABLE_ROW", "md_parent_section": "§RS.1.2 [Example 2]", "md_verbatim": "| 2 | ABC | RS | 55555 | 2 | | NTRGRESP | Non-target Response | RECIST 1.1 | CR | CR | ACE IMAGING | INDEPENDENT ASSESSOR | RADIOLOGIST 1 | Y | 40 | WEEK 6 | 2010-02-18 | 46 |", "score": 0.9, "match_basis": "verbatim_token+global_search"}, {"md_atom_id": "md_dmRS_ex_a028", "md_file": "knowledge_base/domains/RS/examples.md", "md_atom_type": "TABLE_ROW", "md_parent_section": "§RS.1.2 [Example 2]", "md_verbatim": "| 6 | ABC | RS | 55555 | 6 | | NTRGRESP | Non-target Response | RECIST 1.1 | CR | CR | ACE IMAGING | INDEPENDENT ASSESSOR | RADIOLOGIST 1 | Y | 60 | WEEK 12 | 2010-04-02 | 88 |", "score": 0.9, "match_basis": "verbatim_token+global_search"}, {"md_atom_id": "md_dmRS_ex_a023", "md_file": "knowledge_base/domains/RS/examples.md", "md_atom_type": "TABLE_ROW", "md_parent_section": "§RS.1.2 [Example 2]", "md_verbatim": "| 1 | ABC | RS | 55555 | 1 | | TRGRESP | Target Response | RECIST 1.1 | PR | PR | ACE IMAGING | INDEPENDENT ASSESSOR | RADIOLOGIST 1 | Y | 40 | WEEK 6 | 2010-02-18 | 46 |", "score": 0.8774, "match_basis": "verbatim_token+global_search"}, {"md_atom_id": "md_dmRS_ex_a027", "md_file": "knowledge_base/domains/RS/examples.md", "md_atom_type": "TABLE_ROW", "md_parent_section": "§RS.1.2 [Example 2]", "md_verbatim": "| 5 | ABC | RS | 55555 | 5 | | TRGRESP | Target Response | RECIST 1.1 | PD | PD | ACE IMAGING | INDEPENDENT ASSESSOR | RADIOLOGIST 1 | Y | 60 | WEEK 12 | 2010-04-02 | 88 |", "score": 0.8774, "match_basis": "verbatim_token+global_search"}, {"md_atom_id": "md_dmRS_ex_a026", "md_file": "knowledge_base/domains/RS/examples.md", "md_atom_type": "TABLE_ROW", "md_parent_section": "§RS.1.2 [Example 2]", "md_verbatim": "| 4 | ABC | RS | 55555 | 4 | A2 | OVRLRESP | Overall Response | RECIST 1.1 | PR | PR | ACE IMAGING | INDEPENDENT ASSESSOR | RADIOLOGIST 1 | Y | 40 | WEEK 6 | 2010-02-18 | 46 |", "score": 0.7258, "match_basis": "verbatim_token+global_search"}], "candidate_count": 5, "zero_candidate": false}
{"pdf_atom_id": "ig34_p0335_a007", "pdf_atom_type": "TABLE_ROW", "pdf_source": "SDTMIG_v3.4", "pdf_page": 335, "pdf_parent_section": "§6.3.9.3.1 Disease Response Use Case", "pdf_verbatim": "| 3 | ABC | RS | 55555 | 3 | | NEWLPROG | New Lesion Progression | RECIST 1.1 | EQUIVOCAL | EQUIVOCAL | ACE IMAGING | INDEPENDENT ASSESSOR | RADIOLOGIST 1 | Y | 40 | WEEK 6 | 2010-02-18 | 46 |", "figure_ref": null, "candidates": [{"md_atom_id": "md_dmRS_ex_a025", "md_file": "knowledge_base/domains/RS/examples.md", "md_atom_type": "TABLE_ROW", "md_parent_section": "§RS.1.2 [Example 2]", "md_verbatim": "| 3 | ABC | RS | 55555 | 3 | | NEWLPROG | New Lesion Progression | RECIST 1.1 | EQUIVOCAL | EQUIVOCAL | ACE IMAGING | INDEPENDENT ASSESSOR | RADIOLOGIST 1 | Y | 40 | WEEK 6 | 2010-02-18 | 46 |", "score": 0.9, "match_basis": "verbatim_token+global_search"}, {"md_atom_id": "md_dmRS_ex_a029", "md_file": "knowledge_base/domains/RS/examples.md", "md_atom_type": "TABLE_ROW", "md_parent_section": "§RS.1.2 [Example 2]", "md_verbatim": "| 7 | ABC | RS | 55555 | 7 | | NEWLPROG | New Lesion Progression | RECIST 1.1 | UNEQUIVOCAL | UNEQUIVOCAL | ACE IMAGING | INDEPENDENT ASSESSOR | RADIOLOGIST 1 | Y | 60 | WEEK 12 | 2010-04-02 | 88 |", "score": 0.8803, "match_basis": "verbatim_token+global_search"}, {"md_atom_id": "md_dmTR_ex_a074", "md_file": "knowledge_base/domains/TR/examples.md", "md_atom_type": "TABLE_ROW", "md_parent_section": "§TR.2 [Example 3 (continued from TU)]", "md_verbatim": "| 19 | ABC | TR | 55555 | 19 | NON-TARGET | A2 | R1-NEW01 | TUMSTATE | Tumor State | EQUIVOCAL | | EQUIVOCAL | | | | ACE IMAGING | INDEPENDENT ASSESSOR | RADIOLOGIST 1 | 40 | WEEK 6 | 2010-02-18 | |", "score": 0.6486, "match_basis": "verbatim_token+global_search"}, {"md_atom_id": "md_dmRS_ex_a023", "md_file": "knowledge_base/domains/RS/examples.md", "md_atom_type": "TABLE_ROW", "md_parent_section": "§RS.1.2 [Example 2]", "md_verbatim": "| 1 | ABC | RS | 55555 | 1 | | TRGRESP | Target Response | RECIST 1.1 | PR | PR | ACE IMAGING | INDEPENDENT ASSESSOR | RADIOLOGIST 1 | Y | 40 | WEEK 6 | 2010-02-18 | 46 |", "score": 0.6429, "match_basis": "verbatim_token+global_search"}, {"md_atom_id": "md_dmRS_ex_a027", "md_file": "knowledge_base/domains/RS/examples.md", "md_atom_type": "TABLE_ROW", "md_parent_section": "§RS.1.2 [Example 2]", "md_verbatim": "| 5 | ABC | RS | 55555 | 5 | | TRGRESP | Target Response | RECIST 1.1 | PD | PD | ACE IMAGING | INDEPENDENT ASSESSOR | RADIOLOGIST 1 | Y | 60 | WEEK 12 | 2010-04-02 | 88 |", "score": 0.6429, "match_basis": "verbatim_token+global_search"}], "candidate_count": 5, "zero_candidate": false}
{"pdf_atom_id": "ig34_p0335_a008", "pdf_atom_type": "TABLE_ROW", "pdf_source": "SDTMIG_v3.4", "pdf_page": 335, "pdf_parent_section": "§6.3.9.3.1 Disease Response Use Case", "pdf_verbatim": "| 4 | ABC | RS | 55555 | 4 | A2 | OVRLRESP | Overall Response | RECIST 1.1 | PR | PR | ACE IMAGING | INDEPENDENT ASSESSOR | RADIOLOGIST 1 | Y | 40 | WEEK 6 | 2010-02-18 | 46 |", "figure_ref": null, "candidates": [{"md_atom_id": "md_dmRS_ex_a026", "md_file": "knowledge_base/domains/RS/examples.md", "md_atom_type": "TABLE_ROW", "md_parent_section": "§RS.1.2 [Example 2]", "md_verbatim": "| 4 | ABC | RS | 55555 | 4 | A2 | OVRLRESP | Overall Response | RECIST 1.1 | PR | PR | ACE IMAGING | INDEPENDENT ASSESSOR | RADIOLOGIST 1 | Y | 40 | WEEK 6 | 2010-02-18 | 46 |", "score": 0.9, "match_basis": "verbatim_token+global_search"}, {"md_atom_id": "md_dmRS_ex_a030", "md_file": "knowledge_base/domains/RS/examples.md", "md_atom_type": "TABLE_ROW", "md_parent_section": "§RS.1.2 [Example 2]", "md_verbatim": "| 8 | ABC | RS | 55555 | 8 | A3 | OVRLRESP | Overall Response | RECIST 1.1 | PD | PD | ACE IMAGING | INDEPENDENT ASSESSOR | RADIOLOGIST 1 | Y | 60 | WEEK 12 | 2010-04-02 | 88 |", "score": 0.9, "match_basis": "verbatim_token+global_search"}, {"md_atom_id": "md_dmRS_ex_a023", "md_file": "knowledge_base/domains/RS/examples.md", "md_atom_type": "TABLE_ROW", "md_parent_section": "§RS.1.2 [Example 2]", "md_verbatim": "| 1 | ABC | RS | 55555 | 1 | | TRGRESP | Target Response | RECIST 1.1 | PR | PR | ACE IMAGING | INDEPENDENT ASSESSOR | RADIOLOGIST 1 | Y | 40 | WEEK 6 | 2010-02-18 | 46 |", "score": 0.74, "match_basis": "verbatim_token+global_search"}, {"md_atom_id": "md_dmRS_ex_a027", "md_file": "knowledge_base/domains/RS/examples.md", "md_atom_type": "TABLE_ROW", "md_parent_section": "§RS.1.2 [Example 2]", "md_verbatim": "| 5 | ABC | RS | 55555 | 5 | | TRGRESP | Target Response | RECIST 1.1 | PD | PD | ACE IMAGING | INDEPENDENT ASSESSOR | RADIOLOGIST 1 | Y | 60 | WEEK 12 | 2010-04-02 | 88 |", "score": 0.74, "match_basis": "verbatim_token+global_search"}, {"md_atom_id": "md_dmRS_ex_a024", "md_file": "knowledge_base/domains/RS/examples.md", "md_atom_type": "TABLE_ROW", "md_parent_section": "§RS.1.2 [Example 2]", "md_verbatim": "| 2 | ABC | RS | 55555 | 2 | | NTRGRESP | Non-target Response | RECIST 1.1 | CR | CR | ACE IMAGING | INDEPENDENT ASSESSOR | RADIOLOGIST 1 | Y | 40 | WEEK 6 | 2010-02-18 | 46 |", "score": 0.7258, "match_basis": "verbatim_token+global_search"}], "candidate_count": 5, "zero_candidate": false}
{"pdf_atom_id": "ig34_p0335_a009", "pdf_atom_type": "TABLE_ROW", "pdf_source": "SDTMIG_v3.4", "pdf_page": 335, "pdf_parent_section": "§6.3.9.3.1 Disease Response Use Case", "pdf_verbatim": "| 5 | ABC | RS | 55555 | 5 | | TRGRESP | Target Response | RECIST 1.1 | PD | PD | ACE IMAGING | INDEPENDENT ASSESSOR | RADIOLOGIST 1 | Y | 60 | WEEK 12 | 2010-04-02 | 88 |", "figure_ref": null, "candidates": [{"md_atom_id": "md_dmRS_ex_a023", "md_file": "knowledge_base/domains/RS/examples.md", "md_atom_type": "TABLE_ROW", "md_parent_section": "§RS.1.2 [Example 2]", "md_verbatim": "| 1 | ABC | RS | 55555 | 1 | | TRGRESP | Target Response | RECIST 1.1 | PR | PR | ACE IMAGING | INDEPENDENT ASSESSOR | RADIOLOGIST 1 | Y | 40 | WEEK 6 | 2010-02-18 | 46 |", "score": 0.9, "match_basis": "verbatim_token+global_search"}, {"md_atom_id": "md_dmRS_ex_a027", "md_file": "knowledge_base/domains/RS/examples.md", "md_atom_type": "TABLE_ROW", "md_parent_section": "§RS.1.2 [Example 2]", "md_verbatim": "| 5 | ABC | RS | 55555 | 5 | | TRGRESP | Target Response | RECIST 1.1 | PD | PD | ACE IMAGING | INDEPENDENT ASSESSOR | RADIOLOGIST 1 | Y | 60 | WEEK 12 | 2010-04-02 | 88 |", "score": 0.9, "match_basis": "verbatim_token+global_search"}, {"md_atom_id": "md_dmRS_ex_a024", "md_file": "knowledge_base/domains/RS/examples.md", "md_atom_type": "TABLE_ROW", "md_parent_section": "§RS.1.2 [Example 2]", "md_verbatim": "| 2 | ABC | RS | 55555 | 2 | | NTRGRESP | Non-target Response | RECIST 1.1 | CR | CR | ACE IMAGING | INDEPENDENT ASSESSOR | RADIOLOGIST 1 | Y | 40 | WEEK 6 | 2010-02-18 | 46 |", "score": 0.8774, "match_basis": "verbatim_token+global_search"}, {"md_atom_id": "md_dmRS_ex_a028", "md_file": "knowledge_base/domains/RS/examples.md", "md_atom_type": "TABLE_ROW", "md_parent_section": "§RS.1.2 [Example 2]", "md_verbatim": "| 6 | ABC | RS | 55555 | 6 | | NTRGRESP | Non-target Response | RECIST 1.1 | CR | CR | ACE IMAGING | INDEPENDENT ASSESSOR | RADIOLOGIST 1 | Y | 60 | WEEK 12 | 2010-04-02 | 88 |", "score": 0.8774, "match_basis": "verbatim_token+global_search"}, {"md_atom_id": "md_dmRS_ex_a026", "md_file": "knowledge_base/domains/RS/examples.md", "md_atom_type": "TABLE_ROW", "md_parent_section": "§RS.1.2 [Example 2]", "md_verbatim": "| 4 | ABC | RS | 55555 | 4 | A2 | OVRLRESP | Overall Response | RECIST 1.1 | PR | PR | ACE IMAGING | INDEPENDENT ASSESSOR | RADIOLOGIST 1 | Y | 40 | WEEK 6 | 2010-02-18 | 46 |", "score": 0.74, "match_basis": "verbatim_token+global_search"}], "candidate_count": 5, "zero_candidate": false}
{"pdf_atom_id": "ig34_p0335_a010", "pdf_atom_type": "TABLE_ROW", "pdf_source": "SDTMIG_v3.4", "pdf_page": 335, "pdf_parent_section": "§6.3.9.3.1 Disease Response Use Case", "pdf_verbatim": "| 6 | ABC | RS | 55555 | 6 | | NTRGRESP | Non-target Response | RECIST 1.1 | CR | CR | ACE IMAGING | INDEPENDENT ASSESSOR | RADIOLOGIST 1 | Y | 60 | WEEK 12 | 2010-04-02 | 88 |", "figure_ref": null, "candidates": [{"md_atom_id": "md_dmRS_ex_a024", "md_file": "knowledge_base/domains/RS/examples.md", "md_atom_type": "TABLE_ROW", "md_parent_section": "§RS.1.2 [Example 2]", "md_verbatim": "| 2 | ABC | RS | 55555 | 2 | | NTRGRESP | Non-target Response | RECIST 1.1 | CR | CR | ACE IMAGING | INDEPENDENT ASSESSOR | RADIOLOGIST 1 | Y | 40 | WEEK 6 | 2010-02-18 | 46 |", "score": 0.9, "match_basis": "verbatim_token+global_search"}, {"md_atom_id": "md_dmRS_ex_a028", "md_file": "knowledge_base/domains/RS/examples.md", "md_atom_type": "TABLE_ROW", "md_parent_section": "§RS.1.2 [Example 2]", "md_verbatim": "| 6 | ABC | RS | 55555 | 6 | | NTRGRESP | Non-target Response | RECIST 1.1 | CR | CR | ACE IMAGING | INDEPENDENT ASSESSOR | RADIOLOGIST 1 | Y | 60 | WEEK 12 | 2010-04-02 | 88 |", "score": 0.9, "match_basis": "verbatim_token+global_search"}, {"md_atom_id": "md_dmRS_ex_a023", "md_file": "knowledge_base/domains/RS/examples.md", "md_atom_type": "TABLE_ROW", "md_parent_section": "§RS.1.2 [Example 2]", "md_verbatim": "| 1 | ABC | RS | 55555 | 1 | | TRGRESP | Target Response | RECIST 1.1 | PR | PR | ACE IMAGING | INDEPENDENT ASSESSOR | RADIOLOGIST 1 | Y | 40 | WEEK 6 | 2010-02-18 | 46 |", "score": 0.8774, "match_basis": "verbatim_token+global_search"}, {"md_atom_id": "md_dmRS_ex_a027", "md_file": "knowledge_base/domains/RS/examples.md", "md_atom_type": "TABLE_ROW", "md_parent_section": "§RS.1.2 [Example 2]", "md_verbatim": "| 5 | ABC | RS | 55555 | 5 | | TRGRESP | Target Response | RECIST 1.1 | PD | PD | ACE IMAGING | INDEPENDENT ASSESSOR | RADIOLOGIST 1 | Y | 60 | WEEK 12 | 2010-04-02 | 88 |", "score": 0.8774, "match_basis": "verbatim_token+global_search"}, {"md_atom_id": "md_dmRS_ex_a026", "md_file": "knowledge_base/domains/RS/examples.md", "md_atom_type": "TABLE_ROW", "md_parent_section": "§RS.1.2 [Example 2]", "md_verbatim": "| 4 | ABC | RS | 55555 | 4 | A2 | OVRLRESP | Overall Response | RECIST 1.1 | PR | PR | ACE IMAGING | INDEPENDENT ASSESSOR | RADIOLOGIST 1 | Y | 40 | WEEK 6 | 2010-02-18 | 46 |", "score": 0.7258, "match_basis": "verbatim_token+global_search"}], "candidate_count": 5, "zero_candidate": false}
{"pdf_atom_id": "ig34_p0335_a011", "pdf_atom_type": "TABLE_ROW", "pdf_source": "SDTMIG_v3.4", "pdf_page": 335, "pdf_parent_section": "§6.3.9.3.1 Disease Response Use Case", "pdf_verbatim": "| 7 | ABC | RS | 55555 | 7 | | NEWLPROG | New Lesion Progression | RECIST 1.1 | UNEQUIVOCAL | UNEQUIVOCAL | ACE IMAGING | INDEPENDENT ASSESSOR | RADIOLOGIST 1 | Y | 60 | WEEK 12 | 2010-04-02 | 88 |", "figure_ref": null, "candidates": [{"md_atom_id": "md_dmRS_ex_a029", "md_file": "knowledge_base/domains/RS/examples.md", "md_atom_type": "TABLE_ROW", "md_parent_section": "§RS.1.2 [Example 2]", "md_verbatim": "| 7 | ABC | RS | 55555 | 7 | | NEWLPROG | New Lesion Progression | RECIST 1.1 | UNEQUIVOCAL | UNEQUIVOCAL | ACE IMAGING | INDEPENDENT ASSESSOR | RADIOLOGIST 1 | Y | 60 | WEEK 12 | 2010-04-02 | 88 |", "score": 0.9, "match_basis": "verbatim_token+global_search"}, {"md_atom_id": "md_dmRS_ex_a025", "md_file": "knowledge_base/domains/RS/examples.md", "md_atom_type": "TABLE_ROW", "md_parent_section": "§RS.1.2 [Example 2]", "md_verbatim": "| 3 | ABC | RS | 55555 | 3 | | NEWLPROG | New Lesion Progression | RECIST 1.1 | EQUIVOCAL | EQUIVOCAL | ACE IMAGING | INDEPENDENT ASSESSOR | RADIOLOGIST 1 | Y | 40 | WEEK 6 | 2010-02-18 | 46 |", "score": 0.8803, "match_basis": "verbatim_token+global_search"}, {"md_atom_id": "md_dmTR_ex_a074", "md_file": "knowledge_base/domains/TR/examples.md", "md_atom_type": "TABLE_ROW", "md_parent_section": "§TR.2 [Example 3 (continued from TU)]", "md_verbatim": "| 19 | ABC | TR | 55555 | 19 | NON-TARGET | A2 | R1-NEW01 | TUMSTATE | Tumor State | EQUIVOCAL | | EQUIVOCAL | | | | ACE IMAGING | INDEPENDENT ASSESSOR | RADIOLOGIST 1 | 40 | WEEK 6 | 2010-02-18 | |", "score": 0.6395, "match_basis": "verbatim_token+global_search"}, {"md_atom_id": "md_dmRS_ex_a023", "md_file": "knowledge_base/domains/RS/examples.md", "md_atom_type": "TABLE_ROW", "md_parent_section": "§RS.1.2 [Example 2]", "md_verbatim": "| 1 | ABC | RS | 55555 | 1 | | TRGRESP | Target Response | RECIST 1.1 | PR | PR | ACE IMAGING | INDEPENDENT ASSESSOR | RADIOLOGIST 1 | Y | 40 | WEEK 6 | 2010-02-18 | 46 |", "score": 0.6333, "match_basis": "verbatim_token+global_search"}, {"md_atom_id": "md_dmRS_ex_a027", "md_file": "knowledge_base/domains/RS/examples.md", "md_atom_type": "TABLE_ROW", "md_parent_section": "§RS.1.2 [Example 2]", "md_verbatim": "| 5 | ABC | RS | 55555 | 5 | | TRGRESP | Target Response | RECIST 1.1 | PD | PD | ACE IMAGING | INDEPENDENT ASSESSOR | RADIOLOGIST 1 | Y | 60 | WEEK 12 | 2010-04-02 | 88 |", "score": 0.6333, "match_basis": "verbatim_token+global_search"}], "candidate_count": 5, "zero_candidate": false}
{"pdf_atom_id": "ig34_p0335_a012", "pdf_atom_type": "TABLE_ROW", "pdf_source": "SDTMIG_v3.4", "pdf_page": 335, "pdf_parent_section": "§6.3.9.3.1 Disease Response Use Case", "pdf_verbatim": "| 8 | ABC | RS | 55555 | 8 | A3 | OVRLRESP | Overall Response | RECIST 1.1 | PD | PD | ACE IMAGING | INDEPENDENT ASSESSOR | RADIOLOGIST 1 | Y | 60 | WEEK 12 | 2010-04-02 | 88 |", "figure_ref": null, "candidates": [{"md_atom_id": "md_dmRS_ex_a026", "md_file": "knowledge_base/domains/RS/examples.md", "md_atom_type": "TABLE_ROW", "md_parent_section": "§RS.1.2 [Example 2]", "md_verbatim": "| 4 | ABC | RS | 55555 | 4 | A2 | OVRLRESP | Overall Response | RECIST 1.1 | PR | PR | ACE IMAGING | INDEPENDENT ASSESSOR | RADIOLOGIST 1 | Y | 40 | WEEK 6 | 2010-02-18 | 46 |", "score": 0.9, "match_basis": "verbatim_token+global_search"}, {"md_atom_id": "md_dmRS_ex_a030", "md_file": "knowledge_base/domains/RS/examples.md", "md_atom_type": "TABLE_ROW", "md_parent_section": "§RS.1.2 [Example 2]", "md_verbatim": "| 8 | ABC | RS | 55555 | 8 | A3 | OVRLRESP | Overall Response | RECIST 1.1 | PD | PD | ACE IMAGING | INDEPENDENT ASSESSOR | RADIOLOGIST 1 | Y | 60 | WEEK 12 | 2010-04-02 | 88 |", "score": 0.9, "match_basis": "verbatim_token+global_search"}, {"md_atom_id": "md_dmRS_ex_a023", "md_file": "knowledge_base/domains/RS/examples.md", "md_atom_type": "TABLE_ROW", "md_parent_section": "§RS.1.2 [Example 2]", "md_verbatim": "| 1 | ABC | RS | 55555 | 1 | | TRGRESP | Target Response | RECIST 1.1 | PR | PR | ACE IMAGING | INDEPENDENT ASSESSOR | RADIOLOGIST 1 | Y | 40 | WEEK 6 | 2010-02-18 | 46 |", "score": 0.74, "match_basis": "verbatim_token+global_search"}, {"md_atom_id": "md_dmRS_ex_a027", "md_file": "knowledge_base/domains/RS/examples.md", "md_atom_type": "TABLE_ROW", "md_parent_section": "§RS.1.2 [Example 2]", "md_verbatim": "| 5 | ABC | RS | 55555 | 5 | | TRGRESP | Target Response | RECIST 1.1 | PD | PD | ACE IMAGING | INDEPENDENT ASSESSOR | RADIOLOGIST 1 | Y | 60 | WEEK 12 | 2010-04-02 | 88 |", "score": 0.74, "match_basis": "verbatim_token+global_search"}, {"md_atom_id": "md_dmRS_ex_a024", "md_file": "knowledge_base/domains/RS/examples.md", "md_atom_type": "TABLE_ROW", "md_parent_section": "§RS.1.2 [Example 2]", "md_verbatim": "| 2 | ABC | RS | 55555 | 2 | | NTRGRESP | Non-target Response | RECIST 1.1 | CR | CR | ACE IMAGING | INDEPENDENT ASSESSOR | RADIOLOGIST 1 | Y | 40 | WEEK 6 | 2010-02-18 | 46 |", "score": 0.7258, "match_basis": "verbatim_token+global_search"}], "candidate_count": 5, "zero_candidate": false}
{"pdf_atom_id": "ig34_p0335_a013", "pdf_atom_type": "HEADING", "pdf_source": "SDTMIG_v3.4", "pdf_page": 335, "pdf_parent_section": "§6.3.9.3.1 Disease Response Use Case", "pdf_verbatim": "Example 3", "figure_ref": null, "candidates": [{"md_atom_id": "md_dmCM_ex_a002", "md_file": "knowledge_base/domains/CM/examples.md", "md_atom_type": "HEADING", "md_parent_section": "§CM.1 [Example 1]", "md_verbatim": "## Example 1", "score": 0.9, "match_basis": "verbatim_token+global_search"}, {"md_atom_id": "md_dmCM_ex_a022", "md_file": "knowledge_base/domains/CM/examples.md", "md_atom_type": "HEADING", "md_parent_section": "§CM.2 [Example 2]", "md_verbatim": "## Example 2", "score": 0.9, "match_basis": "verbatim_token+global_search"}, {"md_atom_id": "md_dmCM_ex_a029", "md_file": "knowledge_base/domains/CM/examples.md", "md_atom_type": "HEADING", "md_parent_section": "§CM.3 [Example 3]", "md_verbatim": "## Example 3", "score": 0.9, "match_basis": "verbatim_token+global_search"}, {"md_atom_id": "md_dmCM_ex_a047", "md_file": "knowledge_base/domains/CM/examples.md", "md_atom_type": "HEADING", "md_parent_section": "§CM.4 [Example 4]", "md_verbatim": "## Example 4", "score": 0.9, "match_basis": "verbatim_token+global_search"}, {"md_atom_id": "md_dmCM_ex_a060", "md_file": "knowledge_base/domains/CM/examples.md", "md_atom_type": "HEADING", "md_parent_section": "§CM.5 [Example 5]", "md_verbatim": "## Example 5", "score": 0.9, "match_basis": "verbatim_token+global_search"}, {"md_atom_id": "md_ch08_a292", "md_file": "knowledge_base/chapters/ch08_relationships.md", "md_atom_type": "HEADING", "md_parent_section": "§8.7 [Related Subjects (RELSUB)]", "md_verbatim": "### Example", "score": 0.9, "match_basis": "verbatim_token+global_search"}, {"md_atom_id": "md_ch08_a331", "md_file": "knowledge_base/chapters/ch08_relationships.md", "md_atom_type": "HEADING", "md_parent_section": "§8.8 [Related Specimens (RELSPEC)]", "md_verbatim": "### Example", "score": 0.9, "match_basis": "verbatim_token+global_search"}, {"md_atom_id": "md_dmAE_ex_a002", "md_file": "knowledge_base/domains/AE/examples.md", "md_atom_type": "HEADING", "md_parent_section": "§AE.1 [Example 1]", "md_verbatim": "## Example 1", "score": 0.9, "match_basis": "verbatim_token+global_search"}, {"md_atom_id": "md_dmAE_ex_a020", "md_file": "knowledge_base/domains/AE/examples.md", "md_atom_type": "HEADING", "md_parent_section": "§AE.2 [Example 2]", "md_verbatim": "## Example 2", "score": 0.9, "match_basis": "verbatim_token+global_search"}, {"md_atom_id": "md_dmAE_ex_a035", "md_file": "knowledge_base/domains/AE/examples.md", "md_atom_type": "HEADING", "md_parent_section": "§AE.3 [Example 3]", "md_verbatim": "## Example 3", "score": 0.9, "match_basis": "verbatim_token+global_search"}], "candidate_count": 10, "zero_candidate": false}
{"pdf_atom_id": "ig34_p0335_a014", "pdf_atom_type": "SENTENCE", "pdf_source": "SDTMIG_v3.4", "pdf_page": 335, "pdf_parent_section": "§6.3.9.3.1 Disease Response Use Case", "pdf_verbatim": "This example shows best response and the overall response of progression to prior therapies and follow-up therapies.", "figure_ref": null, "candidates": [{"md_atom_id": "md_dmRS_ex_a032", "md_file": "knowledge_base/domains/RS/examples.md", "md_atom_type": "SENTENCE", "md_parent_section": "§RS.1.3 [Example 3]", "md_verbatim": "This example shows best response and the overall response of progression to prior therapies and follow-up therapies.", "score": 0.9, "match_basis": "verbatim_token+global_search"}, {"md_atom_id": "md_dmRS_assn_a018", "md_file": "knowledge_base/domains/RS/assumptions.md", "md_atom_type": "LIST_ITEM", "md_parent_section": "§RS [RS — Assumptions]", "md_verbatim": "6. Best response, duration of response, or the progression to prior therapies and follow-up therapies may be represented in the RS domain.", "score": 0.5052, "match_basis": "verbatim_token+global_search"}, {"md_atom_id": "md_dmRS_ex_a018", "md_file": "knowledge_base/domains/RS/examples.md", "md_atom_type": "SENTENCE", "md_parent_section": "§RS.1.2 [Example 2]", "md_verbatim": "This example shows response assessments determined from the TR domain based on RECIST 1.1 criteria and also shows a confirmation of an equivocal new lesion progression.", "score": 0.456, "match_basis": "verbatim_token+global_search"}, {"md_atom_id": "md_dmRS_ex_a003", "md_file": "knowledge_base/domains/RS/examples.md", "md_atom_type": "SENTENCE", "md_parent_section": "§RS.1 [RS — Examples - Disease Response]", "md_verbatim": "The following are examples for oncology response criteria.", "score": 0.4524, "match_basis": "verbatim_token+global_search"}, {"md_atom_id": "md_dmTU_assn_a015", "md_file": "knowledge_base/domains/TU/assumptions.md", "md_atom_type": "SENTENCE", "md_parent_section": "§TU [TU — Assumptions]", "md_verbatim": "The following example shows the preferred approach for representing split lesions in TU.", "score": 0.4479, "match_basis": "verbatim_token+global_search"}], "candidate_count": 5, "zero_candidate": false}
{"pdf_atom_id": "ig34_p0335_a015", "pdf_atom_type": "LIST_ITEM", "pdf_source": "SDTMIG_v3.4", "pdf_page": 335, "pdf_parent_section": "§6.3.9.3.1 Disease Response Use Case", "pdf_verbatim": "Row 1:  Shows disease progression on or after a prior chemotherapy regimen. The date of progression is represented in RSDTC. RSENTPT and RSENRTPT represent that the disease progression was prior to screening. RSCAT = \"UNSPECIFIED\" indicates that the criteria used to determine the disease progression was unknown or not collected. RSPLNKGRP = \"CM1\" is used to link this record in RS to the prior chemotherapy in CM where the CMLNKGRP = \"CM1\".", "figure_ref": null, "candidates": [{"md_atom_id": "md_dmRS_ex_a033", "md_file": "knowledge_base/domains/RS/examples.md", "md_atom_type": "SENTENCE", "md_parent_section": "§RS.1.3 [Example 3]", "md_verbatim": "**Row 1:** Shows disease progression on or after a prior chemotherapy regimen. The date of progression is represented in RSDTC. RSENTPT and RSENRTPT represent that the disease progression was prior to screening. RSCAT = \"UNSPECIFIED\" indicates that the criteria used to determine the disease progression was unknown or not collected. RSPLNKGRP = \"CM1\" is used to link this record in RS to the prior chemotherapy in CM where the CMLNKGRP = \"CM1\".", "score": 0.81, "match_basis": "verbatim_token+global_search"}, {"md_atom_id": "md_dmRS_ex_a034", "md_file": "knowledge_base/domains/RS/examples.md", "md_atom_type": "SENTENCE", "md_parent_section": "§RS.1.3 [Example 3]", "md_verbatim": "**Row 2:** Shows best response to prior chemotherapy regimen. The date of best response is represented in RSDTC. RSENTPT and RSENRTPT represent that the best response was prior to screening. RSCAT = \"UNSPECIFIED\" indicates that the criteria used to determine the best response was unknown or not collected. RSPLNKGRP = \"CM2\" is used to link this record in RS to the prior chemotherapy in CM where the CMLNKGRP = \"CM2\".", "score": 0.7064, "match_basis": "verbatim_token+global_search"}, {"md_atom_id": "md_dmRS_ex_a035", "md_file": "knowledge_base/domains/RS/examples.md", "md_atom_type": "SENTENCE", "md_parent_section": "§RS.1.3 [Example 3]", "md_verbatim": "**Row 3:** Shows best response to prior radiotherapy. The date of best response is represented in RSDTC. RSENTPT and RSENRTPT represent that the best response was prior to screening. RSCAT = \"UNSPECIFIED\" indicates that the criteria used to determine the best response was unknown or not collected. RSPLNKGRP = \"PR2\" is used to link this record in RS to the prior radiotherapy in PR where the PRLNKGRP = \"PR2\".", "score": 0.6403, "match_basis": "verbatim_token+global_search"}, {"md_atom_id": "md_dmRS_ex_a036", "md_file": "knowledge_base/domains/RS/examples.md", "md_atom_type": "SENTENCE", "md_parent_section": "§RS.1.3 [Example 3]", "md_verbatim": "**Rows 4-5:** Show best response and progression to a follow-up anti-cancer therapy. The date of best response and date of progression are represented in RSDTC. RSSTTPT and RSSTRTPT represent that the best response and progression were after study treatment discontinuation. RSCAT = \"UNSPECIFIED\" indicates that the criteria used to determine the best response and progression was unknown or not collected. RSPLNKGRP = \"CM3\" is used to link this record in RS to the prior chemotherapy in CM where the CMLNKGRP = \"CM3\".", "score": 0.5928, "match_basis": "verbatim_token+global_search"}, {"md_atom_id": "md_dmRS_assn_a020", "md_file": "knowledge_base/domains/RS/assumptions.md", "md_atom_type": "LIST_ITEM", "md_parent_section": "§RS [RS — Assumptions]", "md_verbatim": "   b. If the criteria used to determine the response is unknown or not collected, this is represented as RSCAT = \"UNSPECIFIED\".", "score": 0.5206, "match_basis": "verbatim_token+global_search"}], "candidate_count": 5, "zero_candidate": false}
{"pdf_atom_id": "ig34_p0335_a016", "pdf_atom_type": "LIST_ITEM", "pdf_source": "SDTMIG_v3.4", "pdf_page": 335, "pdf_parent_section": "§6.3.9.3.1 Disease Response Use Case", "pdf_verbatim": "Row 2:  Shows best response to prior chemotherapy regimen. The date of best response is represented in RSDTC. RSENTPT and RSENRTPT represent that the best response was prior to screening. RSCAT = \"UNSPECIFIED\" indicates that the criteria used to determine the best response was unknown or not collected. RSPLNKGRP = \"CM2\" is used to link this record in RS to the prior chemotherapy in CM where the CMLNKGRP = \"CM2\".", "figure_ref": null, "candidates": [{"md_atom_id": "md_dmRS_ex_a034", "md_file": "knowledge_base/domains/RS/examples.md", "md_atom_type": "SENTENCE", "md_parent_section": "§RS.1.3 [Example 3]", "md_verbatim": "**Row 2:** Shows best response to prior chemotherapy regimen. The date of best response is represented in RSDTC. RSENTPT and RSENRTPT represent that the best response was prior to screening. RSCAT = \"UNSPECIFIED\" indicates that the criteria used to determine the best response was unknown or not collected. RSPLNKGRP = \"CM2\" is used to link this record in RS to the prior chemotherapy in CM where the CMLNKGRP = \"CM2\".", "score": 0.81, "match_basis": "verbatim_token+global_search"}, {"md_atom_id": "md_dmRS_ex_a035", "md_file": "knowledge_base/domains/RS/examples.md", "md_atom_type": "SENTENCE", "md_parent_section": "§RS.1.3 [Example 3]", "md_verbatim": "**Row 3:** Shows best response to prior radiotherapy. The date of best response is represented in RSDTC. RSENTPT and RSENRTPT represent that the best response was prior to screening. RSCAT = \"UNSPECIFIED\" indicates that the criteria used to determine the best response was unknown or not collected. RSPLNKGRP = \"PR2\" is used to link this record in RS to the prior radiotherapy in PR where the PRLNKGRP = \"PR2\".", "score": 0.7223, "match_basis": "verbatim_token+global_search"}, {"md_atom_id": "md_dmRS_ex_a033", "md_file": "knowledge_base/domains/RS/examples.md", "md_atom_type": "SENTENCE", "md_parent_section": "§RS.1.3 [Example 3]", "md_verbatim": "**Row 1:** Shows disease progression on or after a prior chemotherapy regimen. The date of progression is represented in RSDTC. RSENTPT and RSENRTPT represent that the disease progression was prior to screening. RSCAT = \"UNSPECIFIED\" indicates that the criteria used to determine the disease progression was unknown or not collected. RSPLNKGRP = \"CM1\" is used to link this record in RS to the prior chemotherapy in CM where the CMLNKGRP = \"CM1\".", "score": 0.7064, "match_basis": "verbatim_token+global_search"}, {"md_atom_id": "md_dmRS_ex_a036", "md_file": "knowledge_base/domains/RS/examples.md", "md_atom_type": "SENTENCE", "md_parent_section": "§RS.1.3 [Example 3]", "md_verbatim": "**Rows 4-5:** Show best response and progression to a follow-up anti-cancer therapy. The date of best response and date of progression are represented in RSDTC. RSSTTPT and RSSTRTPT represent that the best response and progression were after study treatment discontinuation. RSCAT = \"UNSPECIFIED\" indicates that the criteria used to determine the best response and progression was unknown or not collected. RSPLNKGRP = \"CM3\" is used to link this record in RS to the prior chemotherapy in CM where the CMLNKGRP = \"CM3\".", "score": 0.5876, "match_basis": "verbatim_token+global_search"}, {"md_atom_id": "md_dmRS_assn_a020", "md_file": "knowledge_base/domains/RS/assumptions.md", "md_atom_type": "LIST_ITEM", "md_parent_section": "§RS [RS — Assumptions]", "md_verbatim": "   b. If the criteria used to determine the response is unknown or not collected, this is represented as RSCAT = \"UNSPECIFIED\".", "score": 0.5683, "match_basis": "verbatim_token+global_search"}], "candidate_count": 5, "zero_candidate": false}
{"pdf_atom_id": "ig34_p0335_a017", "pdf_atom_type": "LIST_ITEM", "pdf_source": "SDTMIG_v3.4", "pdf_page": 335, "pdf_parent_section": "§6.3.9.3.1 Disease Response Use Case", "pdf_verbatim": "Row 3:  Shows best response to prior radiotherapy. The date of best response is represented in RSDTC. RSENTPT and RSENRTPT represent that the best response was prior to screening. RSCAT = \"UNSPECIFIED\" indicates that the criteria used to determine the best response was unknown or not collected. RSPLNKGRP = \"PR2\" is used to link this record in RS to the prior radiotherapy in PR where the PRLNKGRP = \"PR2\".", "figure_ref": null, "candidates": [{"md_atom_id": "md_dmRS_ex_a035", "md_file": "knowledge_base/domains/RS/examples.md", "md_atom_type": "SENTENCE", "md_parent_section": "§RS.1.3 [Example 3]", "md_verbatim": "**Row 3:** Shows best response to prior radiotherapy. The date of best response is represented in RSDTC. RSENTPT and RSENRTPT represent that the best response was prior to screening. RSCAT = \"UNSPECIFIED\" indicates that the criteria used to determine the best response was unknown or not collected. RSPLNKGRP = \"PR2\" is used to link this record in RS to the prior radiotherapy in PR where the PRLNKGRP = \"PR2\".", "score": 0.81, "match_basis": "verbatim_token+global_search"}, {"md_atom_id": "md_dmRS_ex_a034", "md_file": "knowledge_base/domains/RS/examples.md", "md_atom_type": "SENTENCE", "md_parent_section": "§RS.1.3 [Example 3]", "md_verbatim": "**Row 2:** Shows best response to prior chemotherapy regimen. The date of best response is represented in RSDTC. RSENTPT and RSENRTPT represent that the best response was prior to screening. RSCAT = \"UNSPECIFIED\" indicates that the criteria used to determine the best response was unknown or not collected. RSPLNKGRP = \"CM2\" is used to link this record in RS to the prior chemotherapy in CM where the CMLNKGRP = \"CM2\".", "score": 0.7223, "match_basis": "verbatim_token+global_search"}, {"md_atom_id": "md_dmRS_ex_a033", "md_file": "knowledge_base/domains/RS/examples.md", "md_atom_type": "SENTENCE", "md_parent_section": "§RS.1.3 [Example 3]", "md_verbatim": "**Row 1:** Shows disease progression on or after a prior chemotherapy regimen. The date of progression is represented in RSDTC. RSENTPT and RSENRTPT represent that the disease progression was prior to screening. RSCAT = \"UNSPECIFIED\" indicates that the criteria used to determine the disease progression was unknown or not collected. RSPLNKGRP = \"CM1\" is used to link this record in RS to the prior chemotherapy in CM where the CMLNKGRP = \"CM1\".", "score": 0.6403, "match_basis": "verbatim_token+global_search"}, {"md_atom_id": "md_dmRS_assn_a020", "md_file": "knowledge_base/domains/RS/assumptions.md", "md_atom_type": "LIST_ITEM", "md_parent_section": "§RS [RS — Assumptions]", "md_verbatim": "   b. If the criteria used to determine the response is unknown or not collected, this is represented as RSCAT = \"UNSPECIFIED\".", "score": 0.5797, "match_basis": "verbatim_token+global_search"}, {"md_atom_id": "md_dmRS_ex_a036", "md_file": "knowledge_base/domains/RS/examples.md", "md_atom_type": "SENTENCE", "md_parent_section": "§RS.1.3 [Example 3]", "md_verbatim": "**Rows 4-5:** Show best response and progression to a follow-up anti-cancer therapy. The date of best response and date of progression are represented in RSDTC. RSSTTPT and RSSTRTPT represent that the best response and progression were after study treatment discontinuation. RSCAT = \"UNSPECIFIED\" indicates that the criteria used to determine the best response and progression was unknown or not collected. RSPLNKGRP = \"CM3\" is used to link this record in RS to the prior chemotherapy in CM where the CMLNKGRP = \"CM3\".", "score": 0.5588, "match_basis": "verbatim_token+global_search"}], "candidate_count": 5, "zero_candidate": false}
{"pdf_atom_id": "ig34_p0335_a018", "pdf_atom_type": "LIST_ITEM", "pdf_source": "SDTMIG_v3.4", "pdf_page": 335, "pdf_parent_section": "§6.3.9.3.1 Disease Response Use Case", "pdf_verbatim": "Rows 4-5:  Show best response and progression to a follow-up anti-cancer therapy. The date of best response and date of progression are represented in RSDTC. RSSTTPT and RSSTRTPT represent that the best response and progression were after study treatment discontinuation. RSCAT = \"UNSPECIFIED\" indicates that the criteria used to determine the best response and progression was unknown or not collected. RSPLNKGRP = \"CM3\" is used to link this record in RS to the prior chemotherapy in CM where the CMLNKGRP = \"CM3\".", "figure_ref": null, "candidates": [{"md_atom_id": "md_dmRS_ex_a036", "md_file": "knowledge_base/domains/RS/examples.md", "md_atom_type": "SENTENCE", "md_parent_section": "§RS.1.3 [Example 3]", "md_verbatim": "**Rows 4-5:** Show best response and progression to a follow-up anti-cancer therapy. The date of best response and date of progression are represented in RSDTC. RSSTTPT and RSSTRTPT represent that the best response and progression were after study treatment discontinuation. RSCAT = \"UNSPECIFIED\" indicates that the criteria used to determine the best response and progression was unknown or not collected. RSPLNKGRP = \"CM3\" is used to link this record in RS to the prior chemotherapy in CM where the CMLNKGRP = \"CM3\".", "score": 0.81, "match_basis": "verbatim_token+global_search"}, {"md_atom_id": "md_dmRS_ex_a033", "md_file": "knowledge_base/domains/RS/examples.md", "md_atom_type": "SENTENCE", "md_parent_section": "§RS.1.3 [Example 3]", "md_verbatim": "**Row 1:** Shows disease progression on or after a prior chemotherapy regimen. The date of progression is represented in RSDTC. RSENTPT and RSENRTPT represent that the disease progression was prior to screening. RSCAT = \"UNSPECIFIED\" indicates that the criteria used to determine the disease progression was unknown or not collected. RSPLNKGRP = \"CM1\" is used to link this record in RS to the prior chemotherapy in CM where the CMLNKGRP = \"CM1\".", "score": 0.5928, "match_basis": "verbatim_token+global_search"}, {"md_atom_id": "md_dmRS_ex_a034", "md_file": "knowledge_base/domains/RS/examples.md", "md_atom_type": "SENTENCE", "md_parent_section": "§RS.1.3 [Example 3]", "md_verbatim": "**Row 2:** Shows best response to prior chemotherapy regimen. The date of best response is represented in RSDTC. RSENTPT and RSENRTPT represent that the best response was prior to screening. RSCAT = \"UNSPECIFIED\" indicates that the criteria used to determine the best response was unknown or not collected. RSPLNKGRP = \"CM2\" is used to link this record in RS to the prior chemotherapy in CM where the CMLNKGRP = \"CM2\".", "score": 0.5876, "match_basis": "verbatim_token+global_search"}, {"md_atom_id": "md_dmRS_ex_a035", "md_file": "knowledge_base/domains/RS/examples.md", "md_atom_type": "SENTENCE", "md_parent_section": "§RS.1.3 [Example 3]", "md_verbatim": "**Row 3:** Shows best response to prior radiotherapy. The date of best response is represented in RSDTC. RSENTPT and RSENRTPT represent that the best response was prior to screening. RSCAT = \"UNSPECIFIED\" indicates that the criteria used to determine the best response was unknown or not collected. RSPLNKGRP = \"PR2\" is used to link this record in RS to the prior radiotherapy in PR where the PRLNKGRP = \"PR2\".", "score": 0.5588, "match_basis": "verbatim_token+global_search"}, {"md_atom_id": "md_dmRS_assn_a020", "md_file": "knowledge_base/domains/RS/assumptions.md", "md_atom_type": "LIST_ITEM", "md_parent_section": "§RS [RS — Assumptions]", "md_verbatim": "   b. If the criteria used to determine the response is unknown or not collected, this is represented as RSCAT = \"UNSPECIFIED\".", "score": 0.5143, "match_basis": "verbatim_token+global_search"}], "candidate_count": 5, "zero_candidate": false}
{"pdf_atom_id": "ig34_p0336_a001", "pdf_atom_type": "CODE_LITERAL", "pdf_source": "SDTMIG_v3.4", "pdf_page": 336, "pdf_parent_section": "§6.3.9.3.1 Disease Response Use Case", "pdf_verbatim": "rs.xpt", "figure_ref": null, "candidates": [{"md_atom_id": "md_ch04_a207", "md_file": "knowledge_base/chapters/ch04_general_assumptions.md", "md_atom_type": "CODE_LITERAL", "md_parent_section": "§4.2.3 [Use of \"Subject\" and USUBJID]", "md_verbatim": "dm.xpt:", "score": 0.69, "match_basis": "verbatim_token+global_search"}, {"md_atom_id": "md_ch04_a210", "md_file": "knowledge_base/chapters/ch04_general_assumptions.md", "md_atom_type": "CODE_LITERAL", "md_parent_section": "§4.2.3 [Use of \"Subject\" and USUBJID]", "md_verbatim": "dm.xpt:", "score": 0.69, "match_basis": "verbatim_token+global_search"}, {"md_atom_id": "md_dmCM_ex_a010", "md_file": "knowledge_base/domains/CM/examples.md", "md_atom_type": "NOTE", "md_parent_section": "§CM.1 [Example 1]", "md_verbatim": "**cm.xpt**", "score": 0.69, "match_basis": "verbatim_token+global_search"}, {"md_atom_id": "md_dmCM_ex_a025", "md_file": "knowledge_base/domains/CM/examples.md", "md_atom_type": "NOTE", "md_parent_section": "§CM.2 [Example 2]", "md_verbatim": "**cm.xpt**", "score": 0.69, "match_basis": "verbatim_token+global_search"}, {"md_atom_id": "md_dmCM_ex_a042", "md_file": "knowledge_base/domains/CM/examples.md", "md_atom_type": "NOTE", "md_parent_section": "§CM.3 [Example 3]", "md_verbatim": "**cm.xpt**", "score": 0.69, "match_basis": "verbatim_token+global_search"}, {"md_atom_id": "md_dmCM_ex_a052", "md_file": "knowledge_base/domains/CM/examples.md", "md_atom_type": "NOTE", "md_parent_section": "§CM.4 [Example 4]", "md_verbatim": "**cm.xpt**", "score": 0.69, "match_basis": "verbatim_token+global_search"}, {"md_atom_id": "md_dmCM_ex_a070", "md_file": "knowledge_base/domains/CM/examples.md", "md_atom_type": "NOTE", "md_parent_section": "§CM.5 [Example 5]", "md_verbatim": "**cm.xpt**", "score": 0.69, "match_basis": "verbatim_token+global_search"}, {"md_atom_id": "md_ch04_a368", "md_file": "knowledge_base/chapters/ch04_general_assumptions.md", "md_atom_type": "CODE_LITERAL", "md_parent_section": "§4.2.8.3 [Multiple Values for a Non-result Qualifier Variable]", "md_verbatim": "ae.xpt:", "score": 0.69, "match_basis": "verbatim_token+global_search"}, {"md_atom_id": "md_ch04_a378", "md_file": "knowledge_base/chapters/ch04_general_assumptions.md", "md_atom_type": "CODE_LITERAL", "md_parent_section": "§4.2.8.3 [Multiple Values for a Non-result Qualifier Variable]", "md_verbatim": "ae.xpt:", "score": 0.69, "match_basis": "verbatim_token+global_search"}, {"md_atom_id": "md_ch04_a391", "md_file": "knowledge_base/chapters/ch04_general_assumptions.md", "md_atom_type": "CODE_LITERAL", "md_parent_section": "§4.2.8.3 [Multiple Values for a Non-result Qualifier Variable]", "md_verbatim": "ae.xpt:", "score": 0.69, "match_basis": "verbatim_token+global_search"}], "candidate_count": 10, "zero_candidate": false}
{"pdf_atom_id": "ig34_p0336_a002", "pdf_atom_type": "TABLE_HEADER", "pdf_source": "SDTMIG_v3.4", "pdf_page": 336, "pdf_parent_section": "§6.3.9.3.1 Disease Response Use Case", "pdf_verbatim": "| Row | STUDYID | DOMAIN | USUBJID | RSSEQ | RSLNKGRP | RSTESTCD | RSTEST | RSCAT | RSORRES | RSORRESU | RSSTRESC | RSSTRESN | RSSTRESU | RSEVAL | VISITNUM | VISIT | RSDTC | RSDY | RSSTRTPT | RSSTTPT | RSENRTPT | RSENTPT |", "figure_ref": null, "candidates": [{"md_atom_id": "md_dmRS_ex_a038", "md_file": "knowledge_base/domains/RS/examples.md", "md_atom_type": "TABLE_HEADER", "md_parent_section": "§RS.1.3 [Example 3]", "md_verbatim": "| Row | STUDYID | DOMAIN | USUBJID | RSSEQ | RSLNKGRP | RSTESTCD | RSTEST | RSCAT | RSORRES | RSORRESU | RSSTRESC | RSSTRESN | RSSTRESU | RSEVAL | VISITNUM | VISIT | RSDTC | RSDY | RSSTRTPT | RSSTTPT | RSENRTPT | RSENTPT |\n|-----|---------|--------|---------|-------|----------|----------|--------|-------|---------|----------|----------|----------|----------|--------|----------|-------|-------|------|----------|---------|----------|---------|", "score": 0.9, "match_basis": "verbatim_token+global_search"}, {"md_atom_id": "md_dmRS_ex_a009", "md_file": "knowledge_base/domains/RS/examples.md", "md_atom_type": "TABLE_HEADER", "md_parent_section": "§RS.1.1 [Example 1]", "md_verbatim": "| Row | STUDYID | DOMAIN | USUBJID | RSSEQ | RSLNKGRP | RSTESTCD | RSTEST | RSCAT | RSORRES | RSSTRESC | RSEVAL | VISITNUM | VISIT | RSDTC | RSDY |\n|-----|---------|--------|---------|-------|----------|----------|--------|-------|---------|----------|--------|----------|-------|-------|------|", "score": 0.7941, "match_basis": "verbatim_token+global_search"}, {"md_atom_id": "md_dmRS_ex_a022", "md_file": "knowledge_base/domains/RS/examples.md", "md_atom_type": "TABLE_HEADER", "md_parent_section": "§RS.1.2 [Example 2]", "md_verbatim": "| Row | STUDYID | DOMAIN | USUBJID | RSSEQ | RSLNKGRP | RSTESTCD | RSTEST | RSCAT | RSORRES | RSSTRESC | RSNAM | RSEVAL | RSEVALID | RSACPTFL | VISITNUM | VISIT | RSDTC | RSDY |\n|-----|---------|--------|---------|-------|----------|----------|--------|-------|---------|----------|-------|--------|----------|----------|----------|-------|-------|------|", "score": 0.7253, "match_basis": "verbatim_token+global_search"}, {"md_atom_id": "md_dmRS_ex_a050", "md_file": "knowledge_base/domains/RS/examples.md", "md_atom_type": "TABLE_HEADER", "md_parent_section": "§RS.2.1 [Example 1]", "md_verbatim": "| Row | STUDYID | DOMAIN | USUBJID | RSSEQ | RSTESTCD | RSTEST | RSCAT | RSORRES | RSSTRESC | RSSTRESN | RSLOBXFL | VISITNUM | RSDTC |\n|-----|---------|--------|---------|-------|----------|--------|-------|---------|----------|----------|----------|----------|-------|", "score": 0.6863, "match_basis": "verbatim_token+global_search"}, {"md_atom_id": "md_dmEX_ex_a238", "md_file": "knowledge_base/domains/EX/examples.md", "md_atom_type": "TABLE_HEADER", "md_parent_section": "§EX.7 [Example 7]", "md_verbatim": "| Row | STUDYID | DOMAIN | USUBJID | VSSEQ | VSLNKID | VSLNKGRP | VSTESTCD | VSTEST | VSORRES | VSORRESU | VSSTRESC | VSSTRESN | VSSTRESU | VSLOBXFL | VISITNUM | VISIT | VSDTC | EPOCH |\n|-----|---------|--------|---------|-------|---------|----------|----------|--------|---------|----------|----------|----------|----------|----------|----------|-------|-------|-------|", "score": 0.6253, "match_basis": "verbatim_token+global_search"}], "candidate_count": 5, "zero_candidate": false}
{"pdf_atom_id": "ig34_p0336_a003", "pdf_atom_type": "TABLE_ROW", "pdf_source": "SDTMIG_v3.4", "pdf_page": 336, "pdf_parent_section": "§6.3.9.3.1 Disease Response Use Case", "pdf_verbatim": "| 1 | ABC | RS | 00001 | 1 | CM1 | DIAMETER | Overall Response | UNSPECIFIED | PD | | | SD | | | INVESTIGATOR | 10 | SCREEN | | | | | |", "figure_ref": null, "candidates": [{"md_atom_id": "md_dmRS_ex_a039", "md_file": "knowledge_base/domains/RS/examples.md", "md_atom_type": "TABLE_ROW", "md_parent_section": "§RS.1.3 [Example 3]", "md_verbatim": "| 1 | ABC | RS | 55555 | 1 | CM1 | OVRLRESP | Overall Response | UNSPECIFIED | PD | | PD | | | INVESTIGATOR | 10 | SCREEN | 2015-02-18 | -32 | | | BEFORE | SCREEN |", "score": 0.6927, "match_basis": "verbatim_token+global_search"}, {"md_atom_id": "md_dmRS_ex_a040", "md_file": "knowledge_base/domains/RS/examples.md", "md_atom_type": "TABLE_ROW", "md_parent_section": "§RS.1.3 [Example 3]", "md_verbatim": "| 2 | ABC | RS | 66666 | 2 | CM2 | BESTRESP | Best Response | UNSPECIFIED | SD | | SD | | | INVESTIGATOR | 10 | SCREEN | | | | | BEFORE | SCREEN |", "score": 0.6396, "match_basis": "verbatim_token+global_search"}, {"md_atom_id": "md_dmRS_ex_a041", "md_file": "knowledge_base/domains/RS/examples.md", "md_atom_type": "TABLE_ROW", "md_parent_section": "§RS.1.3 [Example 3]", "md_verbatim": "| 3 | ABC | RS | 66666 | 3 | PR2 | BESTRESP | Best Response | UNSPECIFIED | MINIMAL RESPONSE | | MINIMAL RESPONSE | | | INVESTIGATOR | 10 | SCREEN | | | | | BEFORE | SCREEN |", "score": 0.6103, "match_basis": "verbatim_token+global_search"}, {"md_atom_id": "md_dmRS_ex_a012", "md_file": "knowledge_base/domains/RS/examples.md", "md_atom_type": "TABLE_ROW", "md_parent_section": "§RS.1.1 [Example 1]", "md_verbatim": "| 3 | ABC | RS | 44444 | 3 | A2 | OVRLRESP | Overall Response | RECIST 1.1 | PR | PR | INVESTIGATOR | 40 | WEEK 6 | 2010-02-18 | 46 |", "score": 0.5464, "match_basis": "verbatim_token+global_search"}, {"md_atom_id": "md_dmTR_ex_a019", "md_file": "knowledge_base/domains/TR/examples.md", "md_atom_type": "TABLE_ROW", "md_parent_section": "§TR.1 [Example 2 (continued from TU)]", "md_verbatim": "| 5 | ABC | TR | 44444 | 5 | TARGET | A1 | | SUMDIAM | Sum of Diameter | 62 | mm | 62 | 62 | mm | | | | INVESTIGATOR | 10 | SCREEN | | |", "score": 0.5423, "match_basis": "verbatim_token+global_search"}], "candidate_count": 5, "zero_candidate": false}
{"pdf_atom_id": "ig34_p0336_a004", "pdf_atom_type": "TABLE_ROW", "pdf_source": "SDTMIG_v3.4", "pdf_page": 336, "pdf_parent_section": "§6.3.9.3.1 Disease Response Use Case", "pdf_verbatim": "| 2 | ABC | RS | 66666 | 2 | CM2 | BESTRESP | Best Response | UNSPECIFIED | SD | | | SD | | | INVESTIGATOR | 10 | SCREEN | 02-18 | | | BEFORE | SCREEN |", "figure_ref": null, "candidates": [{"md_atom_id": "md_dmRS_ex_a040", "md_file": "knowledge_base/domains/RS/examples.md", "md_atom_type": "TABLE_ROW", "md_parent_section": "§RS.1.3 [Example 3]", "md_verbatim": "| 2 | ABC | RS | 66666 | 2 | CM2 | BESTRESP | Best Response | UNSPECIFIED | SD | | SD | | | INVESTIGATOR | 10 | SCREEN | | | | | BEFORE | SCREEN |", "score": 0.9, "match_basis": "verbatim_token+global_search"}, {"md_atom_id": "md_dmRS_ex_a041", "md_file": "knowledge_base/domains/RS/examples.md", "md_atom_type": "TABLE_ROW", "md_parent_section": "§RS.1.3 [Example 3]", "md_verbatim": "| 3 | ABC | RS | 66666 | 3 | PR2 | BESTRESP | Best Response | UNSPECIFIED | MINIMAL RESPONSE | | MINIMAL RESPONSE | | | INVESTIGATOR | 10 | SCREEN | | | | | BEFORE | SCREEN |", "score": 0.8067, "match_basis": "verbatim_token+global_search"}, {"md_atom_id": "md_dmRS_ex_a039", "md_file": "knowledge_base/domains/RS/examples.md", "md_atom_type": "TABLE_ROW", "md_parent_section": "§RS.1.3 [Example 3]", "md_verbatim": "| 1 | ABC | RS | 55555 | 1 | CM1 | OVRLRESP | Overall Response | UNSPECIFIED | PD | | PD | | | INVESTIGATOR | 10 | SCREEN | 2015-02-18 | -32 | | | BEFORE | SCREEN |", "score": 0.6923, "match_basis": "verbatim_token+global_search"}, {"md_atom_id": "md_dmRS_ex_a042", "md_file": "knowledge_base/domains/RS/examples.md", "md_atom_type": "TABLE_ROW", "md_parent_section": "§RS.1.3 [Example 3]", "md_verbatim": "| 4 | ABC | RS | 77777 | 4 | CM3 | BESTRESP | Best Response | UNSPECIFIED | SD | | SD | | | INVESTIGATOR | 240 | FOLLOW-UP MONTH 6 | 2015-04-02 | 520 | AFTER | STUDY TREATMENT DISCONTINUATION | | |", "score": 0.5289, "match_basis": "verbatim_token+global_search"}, {"md_atom_id": "md_dmRS_ex_a010", "md_file": "knowledge_base/domains/RS/examples.md", "md_atom_type": "TABLE_ROW", "md_parent_section": "§RS.1.1 [Example 1]", "md_verbatim": "| 1 | ABC | RS | 44444 | 1 | | TRGRESP | Target Response | RECIST 1.1 | PR | PR | INVESTIGATOR | 40 | WEEK 6 | 2010-02-18 | 46 |", "score": 0.5, "match_basis": "verbatim_token+global_search"}], "candidate_count": 5, "zero_candidate": false}
{"pdf_atom_id": "ig34_p0336_a005", "pdf_atom_type": "TABLE_ROW", "pdf_source": "SDTMIG_v3.4", "pdf_page": 336, "pdf_parent_section": "§6.3.9.3.1 Disease Response Use Case", "pdf_verbatim": "| 3 | ABC | RS | 66666 | 3 | PR2 | BESTRESP | Best Response | UNSPECIFIED | MINIMAL RESPONSE | | MINIMAL RESPONSE | | | INVESTIGATOR | 10 | SCREEN | | | | BEFORE | SCREEN |", "figure_ref": null, "candidates": [{"md_atom_id": "md_dmRS_ex_a041", "md_file": "knowledge_base/domains/RS/examples.md", "md_atom_type": "TABLE_ROW", "md_parent_section": "§RS.1.3 [Example 3]", "md_verbatim": "| 3 | ABC | RS | 66666 | 3 | PR2 | BESTRESP | Best Response | UNSPECIFIED | MINIMAL RESPONSE | | MINIMAL RESPONSE | | | INVESTIGATOR | 10 | SCREEN | | | | | BEFORE | SCREEN |", "score": 0.9, "match_basis": "verbatim_token+global_search"}, {"md_atom_id": "md_dmRS_ex_a040", "md_file": "knowledge_base/domains/RS/examples.md", "md_atom_type": "TABLE_ROW", "md_parent_section": "§RS.1.3 [Example 3]", "md_verbatim": "| 2 | ABC | RS | 66666 | 2 | CM2 | BESTRESP | Best Response | UNSPECIFIED | SD | | SD | | | INVESTIGATOR | 10 | SCREEN | | | | | BEFORE | SCREEN |", "score": 0.8067, "match_basis": "verbatim_token+global_search"}, {"md_atom_id": "md_dmRS_ex_a039", "md_file": "knowledge_base/domains/RS/examples.md", "md_atom_type": "TABLE_ROW", "md_parent_section": "§RS.1.3 [Example 3]", "md_verbatim": "| 1 | ABC | RS | 55555 | 1 | CM1 | OVRLRESP | Overall Response | UNSPECIFIED | PD | | PD | | | INVESTIGATOR | 10 | SCREEN | 2015-02-18 | -32 | | | BEFORE | SCREEN |", "score": 0.6579, "match_basis": "verbatim_token+global_search"}, {"md_atom_id": "md_dmRS_ex_a042", "md_file": "knowledge_base/domains/RS/examples.md", "md_atom_type": "TABLE_ROW", "md_parent_section": "§RS.1.3 [Example 3]", "md_verbatim": "| 4 | ABC | RS | 77777 | 4 | CM3 | BESTRESP | Best Response | UNSPECIFIED | SD | | SD | | | INVESTIGATOR | 240 | FOLLOW-UP MONTH 6 | 2015-04-02 | 520 | AFTER | STUDY TREATMENT DISCONTINUATION | | |", "score": 0.5148, "match_basis": "verbatim_token+global_search"}, {"md_atom_id": "md_dmRS_ex_a010", "md_file": "knowledge_base/domains/RS/examples.md", "md_atom_type": "TABLE_ROW", "md_parent_section": "§RS.1.1 [Example 1]", "md_verbatim": "| 1 | ABC | RS | 44444 | 1 | | TRGRESP | Target Response | RECIST 1.1 | PR | PR | INVESTIGATOR | 40 | WEEK 6 | 2010-02-18 | 46 |", "score": 0.4831, "match_basis": "verbatim_token+global_search"}], "candidate_count": 5, "zero_candidate": false}
{"pdf_atom_id": "ig34_p0336_a006", "pdf_atom_type": "TABLE_ROW", "pdf_source": "SDTMIG_v3.4", "pdf_page": 336, "pdf_parent_section": "§6.3.9.3.1 Disease Response Use Case", "pdf_verbatim": "| 4 | ABC | RS | ????? | | CM3 | BESTRESP | Best Response | UNSPECIFIED | SD | | SD | | | INVESTIGATOR | 360 | FOLLOW UP MONTH 2 | 04-02 | SAD | AFTER | STUDY TREATMENT DISCONTINUATION |", "figure_ref": null, "candidates": [{"md_atom_id": "md_dmRS_ex_a042", "md_file": "knowledge_base/domains/RS/examples.md", "md_atom_type": "TABLE_ROW", "md_parent_section": "§RS.1.3 [Example 3]", "md_verbatim": "| 4 | ABC | RS | 77777 | 4 | CM3 | BESTRESP | Best Response | UNSPECIFIED | SD | | SD | | | INVESTIGATOR | 240 | FOLLOW-UP MONTH 6 | 2015-04-02 | 520 | AFTER | STUDY TREATMENT DISCONTINUATION | | |", "score": 0.8382, "match_basis": "verbatim_token+global_search"}, {"md_atom_id": "md_dmRS_ex_a043", "md_file": "knowledge_base/domains/RS/examples.md", "md_atom_type": "TABLE_ROW", "md_parent_section": "§RS.1.3 [Example 3]", "md_verbatim": "| 5 | ABC | RS | 77777 | 5 | CM3 | OVRLRESP | Overall Response | UNSPECIFIED | PD | | PD | | | INVESTIGATOR | 260 | FOLLOW-UP MONTH 8 | 2015-06-01 | 581 | AFTER | STUDY TREATMENT DISCONTINUATION | | |", "score": 0.7597, "match_basis": "verbatim_token+global_search"}, {"md_atom_id": "md_dmRS_ex_a040", "md_file": "knowledge_base/domains/RS/examples.md", "md_atom_type": "TABLE_ROW", "md_parent_section": "§RS.1.3 [Example 3]", "md_verbatim": "| 2 | ABC | RS | 66666 | 2 | CM2 | BESTRESP | Best Response | UNSPECIFIED | SD | | SD | | | INVESTIGATOR | 10 | SCREEN | | | | | BEFORE | SCREEN |", "score": 0.5384, "match_basis": "verbatim_token+global_search"}, {"md_atom_id": "md_dmRS_ex_a041", "md_file": "knowledge_base/domains/RS/examples.md", "md_atom_type": "TABLE_ROW", "md_parent_section": "§RS.1.3 [Example 3]", "md_verbatim": "| 3 | ABC | RS | 66666 | 3 | PR2 | BESTRESP | Best Response | UNSPECIFIED | MINIMAL RESPONSE | | MINIMAL RESPONSE | | | INVESTIGATOR | 10 | SCREEN | | | | | BEFORE | SCREEN |", "score": 0.5231, "match_basis": "verbatim_token+global_search"}, {"md_atom_id": "md_dmRS_ex_a039", "md_file": "knowledge_base/domains/RS/examples.md", "md_atom_type": "TABLE_ROW", "md_parent_section": "§RS.1.3 [Example 3]", "md_verbatim": "| 1 | ABC | RS | 55555 | 1 | CM1 | OVRLRESP | Overall Response | UNSPECIFIED | PD | | PD | | | INVESTIGATOR | 10 | SCREEN | 2015-02-18 | -32 | | | BEFORE | SCREEN |", "score": 0.4857, "match_basis": "verbatim_token+global_search"}], "candidate_count": 5, "zero_candidate": false}
{"pdf_atom_id": "ig34_p0336_a007", "pdf_atom_type": "TABLE_ROW", "pdf_source": "SDTMIG_v3.4", "pdf_page": 336, "pdf_parent_section": "§6.3.9.3.1 Disease Response Use Case", "pdf_verbatim": "| 5 | ABC | RS | ????? | | CM3 | DVRLPSDS | Overall Response | UNSPECIFIED | PD | | | PG | | | INVESTIGATOR | 360 | FOLLOW UP MONTH 2 | 05-01 | SAD | AFTER | STUDY TREATMENT DISCONTINUATION |", "figure_ref": null, "candidates": [{"md_atom_id": "md_dmRS_ex_a043", "md_file": "knowledge_base/domains/RS/examples.md", "md_atom_type": "TABLE_ROW", "md_parent_section": "§RS.1.3 [Example 3]", "md_verbatim": "| 5 | ABC | RS | 77777 | 5 | CM3 | OVRLRESP | Overall Response | UNSPECIFIED | PD | | PD | | | INVESTIGATOR | 260 | FOLLOW-UP MONTH 8 | 2015-06-01 | 581 | AFTER | STUDY TREATMENT DISCONTINUATION | | |", "score": 0.7875, "match_basis": "verbatim_token+global_search"}, {"md_atom_id": "md_dmRS_ex_a042", "md_file": "knowledge_base/domains/RS/examples.md", "md_atom_type": "TABLE_ROW", "md_parent_section": "§RS.1.3 [Example 3]", "md_verbatim": "| 4 | ABC | RS | 77777 | 4 | CM3 | BESTRESP | Best Response | UNSPECIFIED | SD | | SD | | | INVESTIGATOR | 240 | FOLLOW-UP MONTH 6 | 2015-04-02 | 520 | AFTER | STUDY TREATMENT DISCONTINUATION | | |", "score": 0.7481, "match_basis": "verbatim_token+global_search"}, {"md_atom_id": "md_dmRS_ex_a039", "md_file": "knowledge_base/domains/RS/examples.md", "md_atom_type": "TABLE_ROW", "md_parent_section": "§RS.1.3 [Example 3]", "md_verbatim": "| 1 | ABC | RS | 55555 | 1 | CM1 | OVRLRESP | Overall Response | UNSPECIFIED | PD | | PD | | | INVESTIGATOR | 10 | SCREEN | 2015-02-18 | -32 | | | BEFORE | SCREEN |", "score": 0.5207, "match_basis": "verbatim_token+global_search"}, {"md_atom_id": "md_dmRS_ex_a040", "md_file": "knowledge_base/domains/RS/examples.md", "md_atom_type": "TABLE_ROW", "md_parent_section": "§RS.1.3 [Example 3]", "md_verbatim": "| 2 | ABC | RS | 66666 | 2 | CM2 | BESTRESP | Best Response | UNSPECIFIED | SD | | SD | | | INVESTIGATOR | 10 | SCREEN | | | | | BEFORE | SCREEN |", "score": 0.4929, "match_basis": "verbatim_token+global_search"}, {"md_atom_id": "md_dmRS_ex_a041", "md_file": "knowledge_base/domains/RS/examples.md", "md_atom_type": "TABLE_ROW", "md_parent_section": "§RS.1.3 [Example 3]", "md_verbatim": "| 3 | ABC | RS | 66666 | 3 | PR2 | BESTRESP | Best Response | UNSPECIFIED | MINIMAL RESPONSE | | MINIMAL RESPONSE | | | INVESTIGATOR | 10 | SCREEN | | | | | BEFORE | SCREEN |", "score": 0.482, "match_basis": "verbatim_token+global_search"}], "candidate_count": 5, "zero_candidate": false}
{"pdf_atom_id": "ig34_p0336_a008", "pdf_atom_type": "HEADING", "pdf_source": "SDTMIG_v3.4", "pdf_page": 336, "pdf_parent_section": "§6.3.9.3.1 Disease Response Use Case", "pdf_verbatim": "References", "figure_ref": null, "candidates": [{"md_atom_id": "md_dmRS_ex_a063", "md_file": "knowledge_base/domains/RS/examples.md", "md_atom_type": "HEADING", "md_parent_section": "§RS.2 [RS — Examples - Clinical Classifications]", "md_verbatim": "### References", "score": 0.9, "match_basis": "verbatim_token+global_search"}, {"md_atom_id": "md_model05_a162", "md_file": "knowledge_base/model/05_study_level_data.md", "md_atom_type": "HEADING", "md_parent_section": "§ 5.2 Study References", "md_verbatim": "## 5.2 Study References", "score": 0.7364, "match_basis": "verbatim_token+global_search"}, {"md_atom_id": "md_index_a102", "md_file": "knowledge_base/INDEX.md", "md_atom_type": "HEADING", "md_parent_section": "§ Domains (63 domains)", "md_verbatim": "### Study Reference Domains", "score": 0.5625, "match_basis": "verbatim_token+global_search"}, {"md_atom_id": "md_ch10_a073", "md_file": "knowledge_base/chapters/ch10_appendices.md", "md_atom_type": "HEADING", "md_parent_section": "§10.D [CDISC Variable-naming Fragments]", "md_verbatim": "### Fragment Reference Table", "score": 0.5471, "match_basis": "verbatim_token+global_search"}, {"md_atom_id": "md_model03_a053", "md_file": "knowledge_base/model/03_special_purpose_domains.md", "md_atom_type": "HEADING", "md_parent_section": "§ Demographics (DM) > Key Reference Date Variables", "md_verbatim": "### Key Reference Date Variables", "score": 0.5333, "match_basis": "verbatim_token+global_search"}], "candidate_count": 5, "zero_candidate": false}
{"pdf_atom_id": "ig34_p0336_a009", "pdf_atom_type": "LIST_ITEM", "pdf_source": "SDTMIG_v3.4", "pdf_page": 336, "pdf_parent_section": "§6.3.9.3.1 Disease Response Use Case", "pdf_verbatim": "Eisenhauer EA, Therasse P, Bogaerts J, et al. New response evaluation criteria in solid tumours: revised RECIST guideline (version 1.1). Eur J Cancer. 2009;45(2):228-247. doi:10.1016/j.ejca.2008.10.026", "figure_ref": null, "candidates": [{"md_atom_id": "md_dmRS_ex_a064", "md_file": "knowledge_base/domains/RS/examples.md", "md_atom_type": "LIST_ITEM", "md_parent_section": "§RS.2.2 [References]", "md_verbatim": "1. Eisenhauer EA, Therasse P, Bogaerts J, et al. New response evaluation criteria in solid tumours: revised RECIST guideline (version 1.1). Eur J Cancer. 2009;45(2):228-247. doi:10.1016/j.ejca.2008.10.026", "score": 0.9, "match_basis": "verbatim_token+global_search"}, {"md_atom_id": "md_dmTA_assn_a006", "md_file": "knowledge_base/domains/TA/assumptions.md", "md_atom_type": "LIST_ITEM", "md_parent_section": "§TA [TA — Assumptions]", "md_verbatim": "4. Branch decision points may be based on decision processes other than randomizations (e.g., clinical evaluations of disease response, subject choice).", "score": 0.4116, "match_basis": "verbatim_token+global_search"}, {"md_atom_id": "md_dmRS_assn_a005", "md_file": "knowledge_base/domains/RS/assumptions.md", "md_atom_type": "LIST_ITEM", "md_parent_section": "§RS [RS — Assumptions]", "md_verbatim": "2. Oncology response criteria assess the change in tumor burden, an important feature of the clinical evaluation of cancer therapeutics: Both tumor shrinkage (objective response) and disease progression are useful endpoints in cancer clinical trials. The RS domain is applicable for representing responses to assessment criteria such as RECIST[1] or Lugano classification.[2] The SDTM domain examples provided reference RECIST. Disease Response supplements will be developed as 1 supplement per response criterion and will contain criterion-specific guidance and examples.", "score": 0.4037, "match_basis": "verbatim_token+global_search"}, {"md_atom_id": "md_dmRS_assn_a024", "md_file": "knowledge_base/domains/RS/assumptions.md", "md_atom_type": "LIST_ITEM", "md_parent_section": "§RS [RS — Assumptions]", "md_verbatim": "9. Disease recurrence can be represented in the RS domain using RSTEST = \"Disease Recurrence Indicator\" to indicate that there was an assessment of whether there was disease recurrence. The RSCAT = \"PROTOCOL DEFINED RESPONSE CRITERIA\" can be used to indicate that the response assessment of disease recurrence was based on protocol-specified criteria rather than published response criteria.", "score": 0.3889, "match_basis": "verbatim_token+global_search"}, {"md_atom_id": "md_dmTU_assn_a032", "md_file": "knowledge_base/domains/TU/assumptions.md", "md_atom_type": "LIST_ITEM", "md_parent_section": "§TU [TU — Assumptions]", "md_verbatim": "3. For some response criteria (e.g., Lugano, Kumar IMWG 2016), tumors are assessed by location of interest. A record is required in TU in order to link the assessments of the particular location of interest in TR. In TULNKID = \"L01\", the spleen is identified as a location of interest using computerized tomography (CT) scan. In TULNKID = \"L04\", the whole body is identified as a location of interest using positron emission tomography (PET) scan.", "score": 0.3866, "match_basis": "verbatim_token+global_search"}], "candidate_count": 5, "zero_candidate": false}
