{"pdf_atom_id": "ig34_p0370_a002", "pdf_atom_type": "TABLE_HEADER", "pdf_source": "SDTMIG_v3.4", "pdf_page": 370, "pdf_parent_section": "FA – Examples", "pdf_verbatim": "| Row | STUDYID | DOMAIN | USUBJID | AESEQ | AESPID | AETERM | AEBODSYS | AELOC | AELAT | AESEV | AESER | AEACN | AESTDTC |", "figure_ref": null, "candidates": [{"md_atom_id": "md_dmFA_ex_a042", "md_file": "knowledge_base/domains/FA/examples.md", "md_atom_type": "TABLE_HEADER", "md_parent_section": "§FA.2 [Example 2]", "md_verbatim": "| Row | STUDYID | DOMAIN | USUBJID | AESEQ | AESPID | AETERM | AEBODSYS | AELOC | AELAT | AESEV | AESER | AEACN | AESTDTC |\n|-----|---------|--------|---------|-------|--------|--------|----------|-------|-------|-------|-------|-------|---------|", "score": 1.0, "match_basis": "verbatim_token+domain_route:FA"}, {"md_atom_id": "md_dmFA_ex_a099", "md_file": "knowledge_base/domains/FA/examples.md", "md_atom_type": "TABLE_HEADER", "md_parent_section": "§FA.4 [Example 4]", "md_verbatim": "| Row | STUDYID | DOMAIN | USUBJID | AESEQ | AETERM | AEDECOD | AEPRESP | AEBODSYS | AESEV | AEACN | AESTDTC | AEENDTC |\n|-----|---------|--------|---------|-------|--------|---------|---------|----------|-------|-------|---------|---------|", "score": 0.7828, "match_basis": "verbatim_token+domain_route:FA"}, {"md_atom_id": "md_dmFA_ex_a006", "md_file": "knowledge_base/domains/FA/examples.md", "md_atom_type": "TABLE_HEADER", "md_parent_section": "§FA.1 [Example 1]", "md_verbatim": "| Row | STUDYID | DOMAIN | USUBJID | CESEQ | CESPID | CETERM | CEDECOD | CESTDTC |\n|-----|---------|--------|---------|-------|--------|--------|---------|---------|", "score": 0.7115, "match_basis": "verbatim_token+domain_route:FA"}, {"md_atom_id": "md_dmFA_ex_a141", "md_file": "knowledge_base/domains/FA/examples.md", "md_atom_type": "TABLE_HEADER", "md_parent_section": "§FA.6 [Example 6]", "md_verbatim": "| Row | DOMAIN | USUBJID | AESEQ | AESPID | AETERM | AEDECOD | AESEV | AESTDTC | AEENDTC |\n|-----|--------|---------|-------|--------|--------|---------|-------|---------|---------|", "score": 0.6778, "match_basis": "verbatim_token+domain_route:FA"}, {"md_atom_id": "md_dmFA_ex_a010", "md_file": "knowledge_base/domains/FA/examples.md", "md_atom_type": "TABLE_HEADER", "md_parent_section": "§FA.1 [Example 1]", "md_verbatim": "| Row | STUDYID | DOMAIN | USUBJID | EXSEQ | EXSPID | EXTRT | EXDOSE | EXDOSU | EXDOSFRM | EXDOSFRQ | EXROUTE | EPOCH | EXSTDTC | EXENDTC |\n|-----|---------|--------|---------|-------|--------|-------|--------|--------|----------|----------|---------|-------|---------|---------|", "score": 0.5726, "match_basis": "verbatim_token+domain_route:FA"}], "candidate_count": 5, "zero_candidate": false}
{"pdf_atom_id": "ig34_p0370_a003", "pdf_atom_type": "TABLE_ROW", "pdf_source": "SDTMIG_v3.4", "pdf_page": 370, "pdf_parent_section": "FA – Examples", "pdf_verbatim": "| 1 | XYZ | AE | XYZ-789 | 47869 | 5 | Injection site rash | General disorders and administration site conditions | ARM | LEFT | MILD | N | NOT APPLICABLE | 2007-05-10 |", "figure_ref": null, "candidates": [{"md_atom_id": "md_dmFA_ex_a043", "md_file": "knowledge_base/domains/FA/examples.md", "md_atom_type": "TABLE_ROW", "md_parent_section": "§FA.2 [Example 2]", "md_verbatim": "| 1 | XYZ | AE | XYZ-789 | 47869 | 5 | Injection site rash | General disorders and administration site conditions | ARM | LEFT | MILD | N | NOT APPLICABLE | 2007-05-10 |", "score": 1.0, "match_basis": "verbatim_token+domain_route:FA"}, {"md_atom_id": "md_dmFA_ex_a051", "md_file": "knowledge_base/domains/FA/examples.md", "md_atom_type": "TABLE_ROW", "md_parent_section": "§FA.2 [Example 2]", "md_verbatim": "| 6 | XYZ | FA | XYZ-789 | 123456 | 5 | SCBRNG | Number of Scabs Range | Injection Site Rash | 0 | | 0 | | 3 | 2007-05-12 |", "score": 0.5231, "match_basis": "verbatim_token+domain_route:FA"}, {"md_atom_id": "md_dmFA_ex_a058", "md_file": "knowledge_base/domains/FA/examples.md", "md_atom_type": "TABLE_ROW", "md_parent_section": "§FA.2 [Example 2]", "md_verbatim": "| 13 | XYZ | FA | XYZ-789 | 123464 | 5 | SCBRNG | Number of Scabs Range | Injection Site Rash | 0 | | 0 | | 4 | 2007-05-19 |", "score": 0.5231, "match_basis": "verbatim_token+domain_route:FA"}, {"md_atom_id": "md_dmFA_ex_a046", "md_file": "knowledge_base/domains/FA/examples.md", "md_atom_type": "TABLE_ROW", "md_parent_section": "§FA.2 [Example 2]", "md_verbatim": "| 1 | XYZ | FA | XYZ-789 | 123451 | 5 | LDIAM | Longest Diameter | Injection Site Rash | 2.5 | IN | 2.5 | IN | 3 | 2007-05-12 |", "score": 0.5169, "match_basis": "verbatim_token+domain_route:FA"}, {"md_atom_id": "md_dmFA_ex_a053", "md_file": "knowledge_base/domains/FA/examples.md", "md_atom_type": "TABLE_ROW", "md_parent_section": "§FA.2 [Example 2]", "md_verbatim": "| 8 | XYZ | FA | XYZ-789 | 123459 | 5 | LDIAM | Longest Diameter | Injection Site Rash | 1 | IN | 1 | IN | 4 | 2007-05-19 |", "score": 0.5169, "match_basis": "verbatim_token+domain_route:FA"}], "candidate_count": 5, "zero_candidate": false}
{"pdf_atom_id": "ig34_p0370_a004", "pdf_atom_type": "SENTENCE", "pdf_source": "SDTMIG_v3.4", "pdf_page": 370, "pdf_parent_section": "FA – Examples", "pdf_verbatim": "Additional data about the rash were collected at visits 3 and 4, which occurred 2 days and 9 days after the start of the rash. These data were represented in an FA dataset because they were not about the event as a whole (see Section 6.4.1, When to Use Findings About Events or Interventions, criterion 1). In addition, the measurement of the rash requires multiple variables (value and unit) for its representation and the numbers of various kinds of lesions within the rash are a set of similar assessments of the event (see Section 6.4.1, When to Use Findings About Events or Interventions, criterion 2).", "figure_ref": null, "candidates": [{"md_atom_id": "md_dmFA_ex_a040", "md_file": "knowledge_base/domains/FA/examples.md", "md_atom_type": "SENTENCE", "md_parent_section": "§FA.2 [Example 2]", "md_verbatim": "Additional data about the rash were collected at visits 3 and 4, which occurred 2 days and 9 days after the start of the rash. These data were represented in an FA dataset because they were not about the event as a whole (see Section 6.4.1, When to Use Findings About Events or Interventions, criterion 1). In addition, the measurement of the rash requires multiple variables (value and unit) for its representation and the numbers of various kinds of lesions within the rash are a set of similar assessments of the event (see Section 6.4.1, When to Use Findings About Events or Interventions, criterion 2).", "score": 1.0, "match_basis": "verbatim_token+domain_route:FA"}, {"md_atom_id": "md_dmFA_ex_a106", "md_file": "knowledge_base/domains/FA/examples.md", "md_atom_type": "SENTENCE", "md_parent_section": "§FA.5 [Example 5]", "md_verbatim": "The collected data were represented in FA because they meet criterion 1 in Section 6.4.1, When to Use Findings About Events or Interventions, that is, data that do not describe an event or intervention as a whole. In addition, the volume of vomit data met criterion 2 data (\"about\" an event or intervention), having qualifiers that can be represented in Findings variables (e.g., units, method).", "score": 0.6387, "match_basis": "verbatim_token+domain_route:FA"}, {"md_atom_id": "md_dmFA_ex_a136", "md_file": "knowledge_base/domains/FA/examples.md", "md_atom_type": "SENTENCE", "md_parent_section": "§FA.6 [Example 6]", "md_verbatim": "*Note: The FA Example 6 CRF shows severity assessed at Visits 2-6 for up to 3 concurrent AEs per subject. The data collected about severity at each visit represents snapshots or slices of the AE over time, meeting criterion 1 for When to Use Findings About Events or Interventions.*", "score": 0.5827, "match_basis": "verbatim_token+domain_route:FA"}, {"md_atom_id": "md_dmFA_ex_a083", "md_file": "knowledge_base/domains/FA/examples.md", "md_atom_type": "SENTENCE", "md_parent_section": "§FA.4 [Example 4]", "md_verbatim": "In this example, the occurrence of prespecified adverse events was solicited at every visit and the visit date was used as the date of collection. The data collected meet criterion 3 in Section 6.4.1, When to Use Findings About Events or Interventions; that is, data that indicate the occurrence of prespecified AEs.", "score": 0.575, "match_basis": "verbatim_token+domain_route:FA"}, {"md_atom_id": "md_dmFA_ex_a014", "md_file": "knowledge_base/domains/FA/examples.md", "md_atom_type": "SENTENCE", "md_parent_section": "§FA.1 [Example 1]", "md_verbatim": "**Rows 2-5, 7-10, 12-15:** The presence of symptoms associated with migraine was represented with the name of the symptom in FAOBJ, as the data collected is about the occurrence of a particular symptom. The test code value \"OCCUR\" is derived from the events class variable name --OCCUR, but is an assessment at a point in time, rather than about the event as a whole. The relationship of these symptoms to migraine is represented in FACAT, which indicates that these data were collected in the Migraine Symptoms Diary.", "score": 0.5744, "match_basis": "verbatim_token+domain_route:FA"}], "candidate_count": 5, "zero_candidate": false}
{"pdf_atom_id": "ig34_p0370_a005", "pdf_atom_type": "CODE_LITERAL", "pdf_source": "SDTMIG_v3.4", "pdf_page": 370, "pdf_parent_section": "FA – Examples", "pdf_verbatim": "faae.xpt", "figure_ref": null, "candidates": [{"md_atom_id": "md_dmFA_ex_a044", "md_file": "knowledge_base/domains/FA/examples.md", "md_atom_type": "SENTENCE", "md_parent_section": "§FA.2 [Example 2]", "md_verbatim": "**faae.xpt**", "score": 0.79, "match_basis": "verbatim_token+domain_route:FA"}, {"md_atom_id": "md_dmFA_ex_a088", "md_file": "knowledge_base/domains/FA/examples.md", "md_atom_type": "SENTENCE", "md_parent_section": "§FA.4 [Example 4]", "md_verbatim": "**faae.xpt**", "score": 0.79, "match_basis": "verbatim_token+domain_route:FA"}, {"md_atom_id": "md_dmFA_ex_a147", "md_file": "knowledge_base/domains/FA/examples.md", "md_atom_type": "SENTENCE", "md_parent_section": "§FA.6 [Example 6]", "md_verbatim": "**faae.xpt**", "score": 0.79, "match_basis": "verbatim_token+domain_route:FA"}, {"md_atom_id": "md_dmFA_ex_a005", "md_file": "knowledge_base/domains/FA/examples.md", "md_atom_type": "SENTENCE", "md_parent_section": "§FA.1 [Example 1]", "md_verbatim": "**ce.xpt**", "score": 0.39, "match_basis": "verbatim_token+domain_route:FA"}, {"md_atom_id": "md_dmFA_ex_a009", "md_file": "knowledge_base/domains/FA/examples.md", "md_atom_type": "SENTENCE", "md_parent_section": "§FA.1 [Example 1]", "md_verbatim": "**ex.xpt**", "score": 0.39, "match_basis": "verbatim_token+domain_route:FA"}, {"md_atom_id": "md_dmFA_ex_a041", "md_file": "knowledge_base/domains/FA/examples.md", "md_atom_type": "SENTENCE", "md_parent_section": "§FA.2 [Example 2]", "md_verbatim": "**ae.xpt**", "score": 0.39, "match_basis": "verbatim_token+domain_route:FA"}, {"md_atom_id": "md_dmFA_ex_a070", "md_file": "knowledge_base/domains/FA/examples.md", "md_atom_type": "SENTENCE", "md_parent_section": "§FA.3 [Example 3]", "md_verbatim": "**mh.xpt**", "score": 0.39, "match_basis": "verbatim_token+domain_route:FA"}, {"md_atom_id": "md_dmFA_ex_a098", "md_file": "knowledge_base/domains/FA/examples.md", "md_atom_type": "SENTENCE", "md_parent_section": "§FA.4 [Example 4]", "md_verbatim": "**ae.xpt**", "score": 0.39, "match_basis": "verbatim_token+domain_route:FA"}, {"md_atom_id": "md_dmFA_ex_a140", "md_file": "knowledge_base/domains/FA/examples.md", "md_atom_type": "SENTENCE", "md_parent_section": "§FA.6 [Example 6]", "md_verbatim": "**ae.xpt**", "score": 0.39, "match_basis": "verbatim_token+domain_route:FA"}, {"md_atom_id": "md_dmFA_ex_a015", "md_file": "knowledge_base/domains/FA/examples.md", "md_atom_type": "SENTENCE", "md_parent_section": "§FA.1 [Example 1]", "md_verbatim": "**face.xpt**", "score": 0.31, "match_basis": "verbatim_token+domain_route:FA"}], "candidate_count": 10, "zero_candidate": false}
{"pdf_atom_id": "ig34_p0370_a006", "pdf_atom_type": "TABLE_HEADER", "pdf_source": "SDTMIG_v3.4", "pdf_page": 370, "pdf_parent_section": "FA – Examples", "pdf_verbatim": "| Row | STUDYID | DOMAIN | USUBJID | FASEQ | FASPID | FATESTCD | FATEST | FAOBJ | FAORRES | FAORRESU | FASTRESC | FASTRESU | VISITNUM | FADTC |", "figure_ref": null, "candidates": [{"md_atom_id": "md_dmFA_ex_a045", "md_file": "knowledge_base/domains/FA/examples.md", "md_atom_type": "TABLE_HEADER", "md_parent_section": "§FA.2 [Example 2]", "md_verbatim": "| Row | STUDYID | DOMAIN | USUBJID | FASEQ | FASPID | FATESTCD | FATEST | FAOBJ | FAORRES | FAORRESU | FASTRESC | FASTRESU | VISITNUM | FADTC |\n|-----|---------|--------|---------|-------|--------|----------|--------|-------|---------|----------|----------|----------|----------|-------|", "score": 1.0, "match_basis": "verbatim_token+domain_route:FA"}, {"md_atom_id": "md_dmFA_ex_a089", "md_file": "knowledge_base/domains/FA/examples.md", "md_atom_type": "TABLE_HEADER", "md_parent_section": "§FA.4 [Example 4]", "md_verbatim": "| Row | STUDYID | DOMAIN | USUBJID | FASEQ | FATESTCD | FATEST | FAOBJ | FAORRES | FASTRESC | FASTAT | VISITNUM | VISIT | FADTC | FAEVINTX |\n|-----|---------|--------|---------|-------|----------|--------|-------|---------|----------|--------|----------|-------|-------|----------|", "score": 0.8714, "match_basis": "verbatim_token+domain_route:FA"}, {"md_atom_id": "md_dmFA_ex_a115", "md_file": "knowledge_base/domains/FA/examples.md", "md_atom_type": "TABLE_HEADER", "md_parent_section": "§FA.5 [Example 5]", "md_verbatim": "| Row | STUDYID | DOMAIN | USUBJID | FASEQ | FATESTCD | FATEST | FAOBJ | FACAT | FAORRES | FAORRESU | FASTRESC | FASTRESN | FASTRESU | FASTAT | VISITNUM | VISIT | FADTC | FAEVLINT |\n|-----|---------|--------|---------|-------|----------|--------|-------|-------|---------|----------|----------|----------|----------|--------|----------|-------|-------|----------|", "score": 0.85, "match_basis": "verbatim_token+domain_route:FA"}, {"md_atom_id": "md_dmFA_ex_a016", "md_file": "knowledge_base/domains/FA/examples.md", "md_atom_type": "TABLE_HEADER", "md_parent_section": "§FA.1 [Example 1]", "md_verbatim": "| Row | STUDYID | DOMAIN | USUBJID | FASEQ | FASPID | FATESTCD | FATEST | FAOBJ | FACAT | FAORRES | FASTRESC | FADTC | FATPT | FATPTNUM | FAELTM | FATPTREF |\n|-----|---------|--------|---------|-------|--------|----------|--------|-------|-------|---------|----------|-------|-------|----------|--------|----------|", "score": 0.83, "match_basis": "verbatim_token+domain_route:FA"}, {"md_atom_id": "md_dmFA_ex_a148", "md_file": "knowledge_base/domains/FA/examples.md", "md_atom_type": "TABLE_HEADER", "md_parent_section": "§FA.6 [Example 6]", "md_verbatim": "| Row | STUDYID | DOMAIN | USUBJID | FASEQ | FASPID | FATESTCD | FATEST | FAOBJ | FAORRES | FACOLSRT | VISITNUM | VISIT | FADTC | FAEVINTX |\n|-----|---------|--------|---------|-------|--------|----------|--------|-------|---------|----------|----------|-------|-------|----------|", "score": 0.83, "match_basis": "verbatim_token+domain_route:FA"}], "candidate_count": 5, "zero_candidate": false}
{"pdf_atom_id": "ig34_p0370_a007", "pdf_atom_type": "TABLE_ROW", "pdf_source": "SDTMIG_v3.4", "pdf_page": 370, "pdf_parent_section": "FA – Examples", "pdf_verbatim": "| 1 | XYZ | FA | XYZ-789 | 123451 | 5 | LDIAM | Longest Diameter | Injection Site Rash | 2.5 | IN | 2.5 | IN | 3 | 2007-05-12 |", "figure_ref": null, "candidates": [{"md_atom_id": "md_dmFA_ex_a046", "md_file": "knowledge_base/domains/FA/examples.md", "md_atom_type": "TABLE_ROW", "md_parent_section": "§FA.2 [Example 2]", "md_verbatim": "| 1 | XYZ | FA | XYZ-789 | 123451 | 5 | LDIAM | Longest Diameter | Injection Site Rash | 2.5 | IN | 2.5 | IN | 3 | 2007-05-12 |", "score": 1.0, "match_basis": "verbatim_token+domain_route:FA"}, {"md_atom_id": "md_dmFA_ex_a053", "md_file": "knowledge_base/domains/FA/examples.md", "md_atom_type": "TABLE_ROW", "md_parent_section": "§FA.2 [Example 2]", "md_verbatim": "| 8 | XYZ | FA | XYZ-789 | 123459 | 5 | LDIAM | Longest Diameter | Injection Site Rash | 1 | IN | 1 | IN | 4 | 2007-05-19 |", "score": 0.9625, "match_basis": "verbatim_token+domain_route:FA"}, {"md_atom_id": "md_dmFA_ex_a051", "md_file": "knowledge_base/domains/FA/examples.md", "md_atom_type": "TABLE_ROW", "md_parent_section": "§FA.2 [Example 2]", "md_verbatim": "| 6 | XYZ | FA | XYZ-789 | 123456 | 5 | SCBRNG | Number of Scabs Range | Injection Site Rash | 0 | | 0 | | 3 | 2007-05-12 |", "score": 0.6533, "match_basis": "verbatim_token+domain_route:FA"}, {"md_atom_id": "md_dmFA_ex_a052", "md_file": "knowledge_base/domains/FA/examples.md", "md_atom_type": "TABLE_ROW", "md_parent_section": "§FA.2 [Example 2]", "md_verbatim": "| 7 | XYZ | FA | XYZ-789 | 123457 | 5 | SCRRNG | Number of Scars Range | Injection Site Rash | 0 | | 0 | | 3 | 2007-05-12 |", "score": 0.6533, "match_basis": "verbatim_token+domain_route:FA"}, {"md_atom_id": "md_dmFA_ex_a047", "md_file": "knowledge_base/domains/FA/examples.md", "md_atom_type": "TABLE_ROW", "md_parent_section": "§FA.2 [Example 2]", "md_verbatim": "| 2 | XYZ | FA | XYZ-789 | 123452 | 5 | MACRNG | Number of Macules Range | Injection Site Rash | 26 to 100 | | 26 to 100 | | 3 | 2007-05-12 |", "score": 0.6426, "match_basis": "verbatim_token+domain_route:FA"}], "candidate_count": 5, "zero_candidate": false}
{"pdf_atom_id": "ig34_p0370_a008", "pdf_atom_type": "TABLE_ROW", "pdf_source": "SDTMIG_v3.4", "pdf_page": 370, "pdf_parent_section": "FA – Examples", "pdf_verbatim": "| 2 | XYZ | FA | XYZ-789 | 123452 | 5 | MACRNG | Number of Macules Range | Injection Site Rash | 26 to 100 | | 26 to 100 | | 3 | 2007-05-12 |", "figure_ref": null, "candidates": [{"md_atom_id": "md_dmFA_ex_a047", "md_file": "knowledge_base/domains/FA/examples.md", "md_atom_type": "TABLE_ROW", "md_parent_section": "§FA.2 [Example 2]", "md_verbatim": "| 2 | XYZ | FA | XYZ-789 | 123452 | 5 | MACRNG | Number of Macules Range | Injection Site Rash | 26 to 100 | | 26 to 100 | | 3 | 2007-05-12 |", "score": 1.0, "match_basis": "verbatim_token+domain_route:FA"}, {"md_atom_id": "md_dmFA_ex_a054", "md_file": "knowledge_base/domains/FA/examples.md", "md_atom_type": "TABLE_ROW", "md_parent_section": "§FA.2 [Example 2]", "md_verbatim": "| 9 | XYZ | FA | XYZ-789 | 123460 | 5 | MACRNG | Number of Macules Range | Injection Site Rash | 1 to 25 | | 1 to 25 | | 4 | 2007-05-19 |", "score": 0.9189, "match_basis": "verbatim_token+domain_route:FA"}, {"md_atom_id": "md_dmFA_ex_a048", "md_file": "knowledge_base/domains/FA/examples.md", "md_atom_type": "TABLE_ROW", "md_parent_section": "§FA.2 [Example 2]", "md_verbatim": "| 3 | XYZ | FA | XYZ-789 | 123453 | 5 | FAPRNG | Number of Papules Range | Injection Site Rash | 1 to 25 | | 1 to 25 | | 3 | 2007-05-12 |", "score": 0.8, "match_basis": "verbatim_token+domain_route:FA"}, {"md_atom_id": "md_dmFA_ex_a050", "md_file": "knowledge_base/domains/FA/examples.md", "md_atom_type": "TABLE_ROW", "md_parent_section": "§FA.2 [Example 2]", "md_verbatim": "| 5 | XYZ | FA | XYZ-789 | 123455 | 5 | PUSRNG | Number of Pustules Range | Injection Site Rash | 0 | | 0 | | 3 | 2007-05-12 |", "score": 0.8, "match_basis": "verbatim_token+domain_route:FA"}, {"md_atom_id": "md_dmFA_ex_a049", "md_file": "knowledge_base/domains/FA/examples.md", "md_atom_type": "TABLE_ROW", "md_parent_section": "§FA.2 [Example 2]", "md_verbatim": "| 4 | XYZ | FA | XYZ-789 | 123454 | 5 | VESRNG | Number of Vesicles Range | Injection Site Rash | 0 | | 0 | | 3 | 2007-05-12 |", "score": 0.7767, "match_basis": "verbatim_token+domain_route:FA"}], "candidate_count": 5, "zero_candidate": false}
{"pdf_atom_id": "ig34_p0370_a009", "pdf_atom_type": "TABLE_ROW", "pdf_source": "SDTMIG_v3.4", "pdf_page": 370, "pdf_parent_section": "FA – Examples", "pdf_verbatim": "| 3 | XYZ | FA | XYZ-789 | 123453 | 5 | PAPRNG | Number of Papules Range | Injection Site Rash | 1 to 25 | | 1 to 25 | | 3 | 2007-05-12 |", "figure_ref": null, "candidates": [{"md_atom_id": "md_dmFA_ex_a048", "md_file": "knowledge_base/domains/FA/examples.md", "md_atom_type": "TABLE_ROW", "md_parent_section": "§FA.2 [Example 2]", "md_verbatim": "| 3 | XYZ | FA | XYZ-789 | 123453 | 5 | FAPRNG | Number of Papules Range | Injection Site Rash | 1 to 25 | | 1 to 25 | | 3 | 2007-05-12 |", "score": 0.9829, "match_basis": "verbatim_token+domain_route:FA"}, {"md_atom_id": "md_dmFA_ex_a055", "md_file": "knowledge_base/domains/FA/examples.md", "md_atom_type": "TABLE_ROW", "md_parent_section": "§FA.2 [Example 2]", "md_verbatim": "| 10 | XYZ | FA | XYZ-789 | 123461 | 5 | FAPRNG | Number of Papules Range | Injection Site Rash | 1 to 25 | | 1 to 25 | | 4 | 2007-05-19 |", "score": 0.9189, "match_basis": "verbatim_token+domain_route:FA"}, {"md_atom_id": "md_dmFA_ex_a047", "md_file": "knowledge_base/domains/FA/examples.md", "md_atom_type": "TABLE_ROW", "md_parent_section": "§FA.2 [Example 2]", "md_verbatim": "| 2 | XYZ | FA | XYZ-789 | 123452 | 5 | MACRNG | Number of Macules Range | Injection Site Rash | 26 to 100 | | 26 to 100 | | 3 | 2007-05-12 |", "score": 0.8098, "match_basis": "verbatim_token+domain_route:FA"}, {"md_atom_id": "md_dmFA_ex_a050", "md_file": "knowledge_base/domains/FA/examples.md", "md_atom_type": "TABLE_ROW", "md_parent_section": "§FA.2 [Example 2]", "md_verbatim": "| 5 | XYZ | FA | XYZ-789 | 123455 | 5 | PUSRNG | Number of Pustules Range | Injection Site Rash | 0 | | 0 | | 3 | 2007-05-12 |", "score": 0.8098, "match_basis": "verbatim_token+domain_route:FA"}, {"md_atom_id": "md_dmFA_ex_a054", "md_file": "knowledge_base/domains/FA/examples.md", "md_atom_type": "TABLE_ROW", "md_parent_section": "§FA.2 [Example 2]", "md_verbatim": "| 9 | XYZ | FA | XYZ-789 | 123460 | 5 | MACRNG | Number of Macules Range | Injection Site Rash | 1 to 25 | | 1 to 25 | | 4 | 2007-05-19 |", "score": 0.7951, "match_basis": "verbatim_token+domain_route:FA"}], "candidate_count": 5, "zero_candidate": false}
{"pdf_atom_id": "ig34_p0370_a010", "pdf_atom_type": "TABLE_ROW", "pdf_source": "SDTMIG_v3.4", "pdf_page": 370, "pdf_parent_section": "FA – Examples", "pdf_verbatim": "| 4 | XYZ | FA | XYZ-789 | 123454 | 5 | VESRNG | Number of Vesicles Range | Injection Site Rash | 0 | | 0 | | 3 | 2007-05-12 |", "figure_ref": null, "candidates": [{"md_atom_id": "md_dmFA_ex_a049", "md_file": "knowledge_base/domains/FA/examples.md", "md_atom_type": "TABLE_ROW", "md_parent_section": "§FA.2 [Example 2]", "md_verbatim": "| 4 | XYZ | FA | XYZ-789 | 123454 | 5 | VESRNG | Number of Vesicles Range | Injection Site Rash | 0 | | 0 | | 3 | 2007-05-12 |", "score": 1.0, "match_basis": "verbatim_token+domain_route:FA"}, {"md_atom_id": "md_dmFA_ex_a056", "md_file": "knowledge_base/domains/FA/examples.md", "md_atom_type": "TABLE_ROW", "md_parent_section": "§FA.2 [Example 2]", "md_verbatim": "| 11 | XYZ | FA | XYZ-789 | 123462 | 5 | VESRNG | Number of Vesicles Range | Injection Site Rash | 0 | | 0 | | 4 | 2007-05-19 |", "score": 0.9351, "match_basis": "verbatim_token+domain_route:FA"}, {"md_atom_id": "md_dmFA_ex_a050", "md_file": "knowledge_base/domains/FA/examples.md", "md_atom_type": "TABLE_ROW", "md_parent_section": "§FA.2 [Example 2]", "md_verbatim": "| 5 | XYZ | FA | XYZ-789 | 123455 | 5 | PUSRNG | Number of Pustules Range | Injection Site Rash | 0 | | 0 | | 3 | 2007-05-12 |", "score": 0.8, "match_basis": "verbatim_token+domain_route:FA"}, {"md_atom_id": "md_dmFA_ex_a047", "md_file": "knowledge_base/domains/FA/examples.md", "md_atom_type": "TABLE_ROW", "md_parent_section": "§FA.2 [Example 2]", "md_verbatim": "| 2 | XYZ | FA | XYZ-789 | 123452 | 5 | MACRNG | Number of Macules Range | Injection Site Rash | 26 to 100 | | 26 to 100 | | 3 | 2007-05-12 |", "score": 0.7767, "match_basis": "verbatim_token+domain_route:FA"}, {"md_atom_id": "md_dmFA_ex_a048", "md_file": "knowledge_base/domains/FA/examples.md", "md_atom_type": "TABLE_ROW", "md_parent_section": "§FA.2 [Example 2]", "md_verbatim": "| 3 | XYZ | FA | XYZ-789 | 123453 | 5 | FAPRNG | Number of Papules Range | Injection Site Rash | 1 to 25 | | 1 to 25 | | 3 | 2007-05-12 |", "score": 0.7767, "match_basis": "verbatim_token+domain_route:FA"}], "candidate_count": 5, "zero_candidate": false}
{"pdf_atom_id": "ig34_p0370_a011", "pdf_atom_type": "TABLE_ROW", "pdf_source": "SDTMIG_v3.4", "pdf_page": 370, "pdf_parent_section": "FA – Examples", "pdf_verbatim": "| 5 | XYZ | FA | XYZ-789 | 123455 | 5 | PUSRNG | Number of Pustules Range | Injection Site Rash | 0 | | 0 | | 3 | 2007-05-12 |", "figure_ref": null, "candidates": [{"md_atom_id": "md_dmFA_ex_a050", "md_file": "knowledge_base/domains/FA/examples.md", "md_atom_type": "TABLE_ROW", "md_parent_section": "§FA.2 [Example 2]", "md_verbatim": "| 5 | XYZ | FA | XYZ-789 | 123455 | 5 | PUSRNG | Number of Pustules Range | Injection Site Rash | 0 | | 0 | | 3 | 2007-05-12 |", "score": 1.0, "match_basis": "verbatim_token+domain_route:FA"}, {"md_atom_id": "md_dmFA_ex_a057", "md_file": "knowledge_base/domains/FA/examples.md", "md_atom_type": "TABLE_ROW", "md_parent_section": "§FA.2 [Example 2]", "md_verbatim": "| 12 | XYZ | FA | XYZ-789 | 123463 | 5 | PUSRNG | Number of Pustules Range | Injection Site Rash | 0 | | 0 | | 4 | 2007-05-19 |", "score": 0.9351, "match_basis": "verbatim_token+domain_route:FA"}, {"md_atom_id": "md_dmFA_ex_a047", "md_file": "knowledge_base/domains/FA/examples.md", "md_atom_type": "TABLE_ROW", "md_parent_section": "§FA.2 [Example 2]", "md_verbatim": "| 2 | XYZ | FA | XYZ-789 | 123452 | 5 | MACRNG | Number of Macules Range | Injection Site Rash | 26 to 100 | | 26 to 100 | | 3 | 2007-05-12 |", "score": 0.8, "match_basis": "verbatim_token+domain_route:FA"}, {"md_atom_id": "md_dmFA_ex_a048", "md_file": "knowledge_base/domains/FA/examples.md", "md_atom_type": "TABLE_ROW", "md_parent_section": "§FA.2 [Example 2]", "md_verbatim": "| 3 | XYZ | FA | XYZ-789 | 123453 | 5 | FAPRNG | Number of Papules Range | Injection Site Rash | 1 to 25 | | 1 to 25 | | 3 | 2007-05-12 |", "score": 0.8, "match_basis": "verbatim_token+domain_route:FA"}, {"md_atom_id": "md_dmFA_ex_a049", "md_file": "knowledge_base/domains/FA/examples.md", "md_atom_type": "TABLE_ROW", "md_parent_section": "§FA.2 [Example 2]", "md_verbatim": "| 4 | XYZ | FA | XYZ-789 | 123454 | 5 | VESRNG | Number of Vesicles Range | Injection Site Rash | 0 | | 0 | | 3 | 2007-05-12 |", "score": 0.8, "match_basis": "verbatim_token+domain_route:FA"}], "candidate_count": 5, "zero_candidate": false}
{"pdf_atom_id": "ig34_p0370_a012", "pdf_atom_type": "TABLE_ROW", "pdf_source": "SDTMIG_v3.4", "pdf_page": 370, "pdf_parent_section": "FA – Examples", "pdf_verbatim": "| 6 | XYZ | FA | XYZ-789 | 123456 | 5 | SCBRNG | Number of Scabs Range | Injection Site Rash | 0 | | 0 | | 3 | 2007-05-12 |", "figure_ref": null, "candidates": [{"md_atom_id": "md_dmFA_ex_a051", "md_file": "knowledge_base/domains/FA/examples.md", "md_atom_type": "TABLE_ROW", "md_parent_section": "§FA.2 [Example 2]", "md_verbatim": "| 6 | XYZ | FA | XYZ-789 | 123456 | 5 | SCBRNG | Number of Scabs Range | Injection Site Rash | 0 | | 0 | | 3 | 2007-05-12 |", "score": 1.0, "match_basis": "verbatim_token+domain_route:FA"}, {"md_atom_id": "md_dmFA_ex_a058", "md_file": "knowledge_base/domains/FA/examples.md", "md_atom_type": "TABLE_ROW", "md_parent_section": "§FA.2 [Example 2]", "md_verbatim": "| 13 | XYZ | FA | XYZ-789 | 123464 | 5 | SCBRNG | Number of Scabs Range | Injection Site Rash | 0 | | 0 | | 4 | 2007-05-19 |", "score": 0.9314, "match_basis": "verbatim_token+domain_route:FA"}, {"md_atom_id": "md_dmFA_ex_a052", "md_file": "knowledge_base/domains/FA/examples.md", "md_atom_type": "TABLE_ROW", "md_parent_section": "§FA.2 [Example 2]", "md_verbatim": "| 7 | XYZ | FA | XYZ-789 | 123457 | 5 | SCRRNG | Number of Scars Range | Injection Site Rash | 0 | | 0 | | 3 | 2007-05-12 |", "score": 0.8154, "match_basis": "verbatim_token+domain_route:FA"}, {"md_atom_id": "md_dmFA_ex_a059", "md_file": "knowledge_base/domains/FA/examples.md", "md_atom_type": "TABLE_ROW", "md_parent_section": "§FA.2 [Example 2]", "md_verbatim": "| 14 | XYZ | FA | XYZ-789 | 123465 | 5 | SCRRNG | Number of Scars Range | Injection Site Rash | 0 | | 0 | | 4 | 2007-05-19 |", "score": 0.79, "match_basis": "verbatim_token+domain_route:FA"}, {"md_atom_id": "md_dmFA_ex_a047", "md_file": "knowledge_base/domains/FA/examples.md", "md_atom_type": "TABLE_ROW", "md_parent_section": "§FA.2 [Example 2]", "md_verbatim": "| 2 | XYZ | FA | XYZ-789 | 123452 | 5 | MACRNG | Number of Macules Range | Injection Site Rash | 26 to 100 | | 26 to 100 | | 3 | 2007-05-12 |", "score": 0.7714, "match_basis": "verbatim_token+domain_route:FA"}], "candidate_count": 5, "zero_candidate": false}
{"pdf_atom_id": "ig34_p0370_a013", "pdf_atom_type": "TABLE_ROW", "pdf_source": "SDTMIG_v3.4", "pdf_page": 370, "pdf_parent_section": "FA – Examples", "pdf_verbatim": "| 7 | XYZ | FA | XYZ-789 | 123457 | 5 | SCRRNG | Number of Scars Range | Injection Site Rash | 0 | | 0 | | 3 | 2007-05-12 |", "figure_ref": null, "candidates": [{"md_atom_id": "md_dmFA_ex_a052", "md_file": "knowledge_base/domains/FA/examples.md", "md_atom_type": "TABLE_ROW", "md_parent_section": "§FA.2 [Example 2]", "md_verbatim": "| 7 | XYZ | FA | XYZ-789 | 123457 | 5 | SCRRNG | Number of Scars Range | Injection Site Rash | 0 | | 0 | | 3 | 2007-05-12 |", "score": 1.0, "match_basis": "verbatim_token+domain_route:FA"}, {"md_atom_id": "md_dmFA_ex_a059", "md_file": "knowledge_base/domains/FA/examples.md", "md_atom_type": "TABLE_ROW", "md_parent_section": "§FA.2 [Example 2]", "md_verbatim": "| 14 | XYZ | FA | XYZ-789 | 123465 | 5 | SCRRNG | Number of Scars Range | Injection Site Rash | 0 | | 0 | | 4 | 2007-05-19 |", "score": 0.9314, "match_basis": "verbatim_token+domain_route:FA"}, {"md_atom_id": "md_dmFA_ex_a051", "md_file": "knowledge_base/domains/FA/examples.md", "md_atom_type": "TABLE_ROW", "md_parent_section": "§FA.2 [Example 2]", "md_verbatim": "| 6 | XYZ | FA | XYZ-789 | 123456 | 5 | SCBRNG | Number of Scabs Range | Injection Site Rash | 0 | | 0 | | 3 | 2007-05-12 |", "score": 0.8154, "match_basis": "verbatim_token+domain_route:FA"}, {"md_atom_id": "md_dmFA_ex_a058", "md_file": "knowledge_base/domains/FA/examples.md", "md_atom_type": "TABLE_ROW", "md_parent_section": "§FA.2 [Example 2]", "md_verbatim": "| 13 | XYZ | FA | XYZ-789 | 123464 | 5 | SCBRNG | Number of Scabs Range | Injection Site Rash | 0 | | 0 | | 4 | 2007-05-19 |", "score": 0.79, "match_basis": "verbatim_token+domain_route:FA"}, {"md_atom_id": "md_dmFA_ex_a047", "md_file": "knowledge_base/domains/FA/examples.md", "md_atom_type": "TABLE_ROW", "md_parent_section": "§FA.2 [Example 2]", "md_verbatim": "| 2 | XYZ | FA | XYZ-789 | 123452 | 5 | MACRNG | Number of Macules Range | Injection Site Rash | 26 to 100 | | 26 to 100 | | 3 | 2007-05-12 |", "score": 0.7714, "match_basis": "verbatim_token+domain_route:FA"}], "candidate_count": 5, "zero_candidate": false}
{"pdf_atom_id": "ig34_p0370_a014", "pdf_atom_type": "TABLE_ROW", "pdf_source": "SDTMIG_v3.4", "pdf_page": 370, "pdf_parent_section": "FA – Examples", "pdf_verbatim": "| 8 | XYZ | FA | XYZ-789 | 123459 | 5 | LDIAM | Longest Diameter | Injection Site Rash | 1 | IN | 1 | IN | 4 | 2007-05-19 |", "figure_ref": null, "candidates": [{"md_atom_id": "md_dmFA_ex_a053", "md_file": "knowledge_base/domains/FA/examples.md", "md_atom_type": "TABLE_ROW", "md_parent_section": "§FA.2 [Example 2]", "md_verbatim": "| 8 | XYZ | FA | XYZ-789 | 123459 | 5 | LDIAM | Longest Diameter | Injection Site Rash | 1 | IN | 1 | IN | 4 | 2007-05-19 |", "score": 1.0, "match_basis": "verbatim_token+domain_route:FA"}, {"md_atom_id": "md_dmFA_ex_a046", "md_file": "knowledge_base/domains/FA/examples.md", "md_atom_type": "TABLE_ROW", "md_parent_section": "§FA.2 [Example 2]", "md_verbatim": "| 1 | XYZ | FA | XYZ-789 | 123451 | 5 | LDIAM | Longest Diameter | Injection Site Rash | 2.5 | IN | 2.5 | IN | 3 | 2007-05-12 |", "score": 0.9625, "match_basis": "verbatim_token+domain_route:FA"}, {"md_atom_id": "md_dmFA_ex_a051", "md_file": "knowledge_base/domains/FA/examples.md", "md_atom_type": "TABLE_ROW", "md_parent_section": "§FA.2 [Example 2]", "md_verbatim": "| 6 | XYZ | FA | XYZ-789 | 123456 | 5 | SCBRNG | Number of Scabs Range | Injection Site Rash | 0 | | 0 | | 3 | 2007-05-12 |", "score": 0.6533, "match_basis": "verbatim_token+domain_route:FA"}, {"md_atom_id": "md_dmFA_ex_a052", "md_file": "knowledge_base/domains/FA/examples.md", "md_atom_type": "TABLE_ROW", "md_parent_section": "§FA.2 [Example 2]", "md_verbatim": "| 7 | XYZ | FA | XYZ-789 | 123457 | 5 | SCRRNG | Number of Scars Range | Injection Site Rash | 0 | | 0 | | 3 | 2007-05-12 |", "score": 0.6533, "match_basis": "verbatim_token+domain_route:FA"}, {"md_atom_id": "md_dmFA_ex_a047", "md_file": "knowledge_base/domains/FA/examples.md", "md_atom_type": "TABLE_ROW", "md_parent_section": "§FA.2 [Example 2]", "md_verbatim": "| 2 | XYZ | FA | XYZ-789 | 123452 | 5 | MACRNG | Number of Macules Range | Injection Site Rash | 26 to 100 | | 26 to 100 | | 3 | 2007-05-12 |", "score": 0.6426, "match_basis": "verbatim_token+domain_route:FA"}], "candidate_count": 5, "zero_candidate": false}
{"pdf_atom_id": "ig34_p0370_a015", "pdf_atom_type": "TABLE_ROW", "pdf_source": "SDTMIG_v3.4", "pdf_page": 370, "pdf_parent_section": "FA – Examples", "pdf_verbatim": "| 9 | XYZ | FA | XYZ-789 | 123460 | 5 | MACRNG | Number of Macules Range | Injection Site Rash | 1 to 25 | | 1 to 25 | | 4 | 2007-05-19 |", "figure_ref": null, "candidates": [{"md_atom_id": "md_dmFA_ex_a054", "md_file": "knowledge_base/domains/FA/examples.md", "md_atom_type": "TABLE_ROW", "md_parent_section": "§FA.2 [Example 2]", "md_verbatim": "| 9 | XYZ | FA | XYZ-789 | 123460 | 5 | MACRNG | Number of Macules Range | Injection Site Rash | 1 to 25 | | 1 to 25 | | 4 | 2007-05-19 |", "score": 1.0, "match_basis": "verbatim_token+domain_route:FA"}, {"md_atom_id": "md_dmFA_ex_a047", "md_file": "knowledge_base/domains/FA/examples.md", "md_atom_type": "TABLE_ROW", "md_parent_section": "§FA.2 [Example 2]", "md_verbatim": "| 2 | XYZ | FA | XYZ-789 | 123452 | 5 | MACRNG | Number of Macules Range | Injection Site Rash | 26 to 100 | | 26 to 100 | | 3 | 2007-05-12 |", "score": 0.9189, "match_basis": "verbatim_token+domain_route:FA"}, {"md_atom_id": "md_dmFA_ex_a055", "md_file": "knowledge_base/domains/FA/examples.md", "md_atom_type": "TABLE_ROW", "md_parent_section": "§FA.2 [Example 2]", "md_verbatim": "| 10 | XYZ | FA | XYZ-789 | 123461 | 5 | FAPRNG | Number of Papules Range | Injection Site Rash | 1 to 25 | | 1 to 25 | | 4 | 2007-05-19 |", "score": 0.8098, "match_basis": "verbatim_token+domain_route:FA"}, {"md_atom_id": "md_dmFA_ex_a057", "md_file": "knowledge_base/domains/FA/examples.md", "md_atom_type": "TABLE_ROW", "md_parent_section": "§FA.2 [Example 2]", "md_verbatim": "| 12 | XYZ | FA | XYZ-789 | 123463 | 5 | PUSRNG | Number of Pustules Range | Injection Site Rash | 0 | | 0 | | 4 | 2007-05-19 |", "score": 0.8098, "match_basis": "verbatim_token+domain_route:FA"}, {"md_atom_id": "md_dmFA_ex_a048", "md_file": "knowledge_base/domains/FA/examples.md", "md_atom_type": "TABLE_ROW", "md_parent_section": "§FA.2 [Example 2]", "md_verbatim": "| 3 | XYZ | FA | XYZ-789 | 123453 | 5 | FAPRNG | Number of Papules Range | Injection Site Rash | 1 to 25 | | 1 to 25 | | 3 | 2007-05-12 |", "score": 0.7857, "match_basis": "verbatim_token+domain_route:FA"}], "candidate_count": 5, "zero_candidate": false}
{"pdf_atom_id": "ig34_p0370_a016", "pdf_atom_type": "TABLE_ROW", "pdf_source": "SDTMIG_v3.4", "pdf_page": 370, "pdf_parent_section": "FA – Examples", "pdf_verbatim": "| 10 | XYZ | FA | XYZ-789 | 123461 | 5 | PAPRNG | Number of Papules Range | Injection Site Rash | 1 to 25 | | 1 to 25 | | 4 | 2007-05-19 |", "figure_ref": null, "candidates": [{"md_atom_id": "md_dmFA_ex_a055", "md_file": "knowledge_base/domains/FA/examples.md", "md_atom_type": "TABLE_ROW", "md_parent_section": "§FA.2 [Example 2]", "md_verbatim": "| 10 | XYZ | FA | XYZ-789 | 123461 | 5 | FAPRNG | Number of Papules Range | Injection Site Rash | 1 to 25 | | 1 to 25 | | 4 | 2007-05-19 |", "score": 0.9829, "match_basis": "verbatim_token+domain_route:FA"}, {"md_atom_id": "md_dmFA_ex_a048", "md_file": "knowledge_base/domains/FA/examples.md", "md_atom_type": "TABLE_ROW", "md_parent_section": "§FA.2 [Example 2]", "md_verbatim": "| 3 | XYZ | FA | XYZ-789 | 123453 | 5 | FAPRNG | Number of Papules Range | Injection Site Rash | 1 to 25 | | 1 to 25 | | 3 | 2007-05-12 |", "score": 0.9189, "match_basis": "verbatim_token+domain_route:FA"}, {"md_atom_id": "md_dmFA_ex_a054", "md_file": "knowledge_base/domains/FA/examples.md", "md_atom_type": "TABLE_ROW", "md_parent_section": "§FA.2 [Example 2]", "md_verbatim": "| 9 | XYZ | FA | XYZ-789 | 123460 | 5 | MACRNG | Number of Macules Range | Injection Site Rash | 1 to 25 | | 1 to 25 | | 4 | 2007-05-19 |", "score": 0.82, "match_basis": "verbatim_token+domain_route:FA"}, {"md_atom_id": "md_dmFA_ex_a057", "md_file": "knowledge_base/domains/FA/examples.md", "md_atom_type": "TABLE_ROW", "md_parent_section": "§FA.2 [Example 2]", "md_verbatim": "| 12 | XYZ | FA | XYZ-789 | 123463 | 5 | PUSRNG | Number of Pustules Range | Injection Site Rash | 0 | | 0 | | 4 | 2007-05-19 |", "score": 0.8098, "match_basis": "verbatim_token+domain_route:FA"}, {"md_atom_id": "md_dmFA_ex_a047", "md_file": "knowledge_base/domains/FA/examples.md", "md_atom_type": "TABLE_ROW", "md_parent_section": "§FA.2 [Example 2]", "md_verbatim": "| 2 | XYZ | FA | XYZ-789 | 123452 | 5 | MACRNG | Number of Macules Range | Injection Site Rash | 26 to 100 | | 26 to 100 | | 3 | 2007-05-12 |", "score": 0.7857, "match_basis": "verbatim_token+domain_route:FA"}], "candidate_count": 5, "zero_candidate": false}
{"pdf_atom_id": "ig34_p0370_a017", "pdf_atom_type": "TABLE_ROW", "pdf_source": "SDTMIG_v3.4", "pdf_page": 370, "pdf_parent_section": "FA – Examples", "pdf_verbatim": "| 11 | XYZ | FA | XYZ-789 | 123462 | 5 | VESRNG | Number of Vesicles Range | Injection Site Rash | 0 | | 0 | | 4 | 2007-05-19 |", "figure_ref": null, "candidates": [{"md_atom_id": "md_dmFA_ex_a056", "md_file": "knowledge_base/domains/FA/examples.md", "md_atom_type": "TABLE_ROW", "md_parent_section": "§FA.2 [Example 2]", "md_verbatim": "| 11 | XYZ | FA | XYZ-789 | 123462 | 5 | VESRNG | Number of Vesicles Range | Injection Site Rash | 0 | | 0 | | 4 | 2007-05-19 |", "score": 1.0, "match_basis": "verbatim_token+domain_route:FA"}, {"md_atom_id": "md_dmFA_ex_a049", "md_file": "knowledge_base/domains/FA/examples.md", "md_atom_type": "TABLE_ROW", "md_parent_section": "§FA.2 [Example 2]", "md_verbatim": "| 4 | XYZ | FA | XYZ-789 | 123454 | 5 | VESRNG | Number of Vesicles Range | Injection Site Rash | 0 | | 0 | | 3 | 2007-05-12 |", "score": 0.9351, "match_basis": "verbatim_token+domain_route:FA"}, {"md_atom_id": "md_dmFA_ex_a057", "md_file": "knowledge_base/domains/FA/examples.md", "md_atom_type": "TABLE_ROW", "md_parent_section": "§FA.2 [Example 2]", "md_verbatim": "| 12 | XYZ | FA | XYZ-789 | 123463 | 5 | PUSRNG | Number of Pustules Range | Injection Site Rash | 0 | | 0 | | 4 | 2007-05-19 |", "score": 0.8, "match_basis": "verbatim_token+domain_route:FA"}, {"md_atom_id": "md_dmFA_ex_a054", "md_file": "knowledge_base/domains/FA/examples.md", "md_atom_type": "TABLE_ROW", "md_parent_section": "§FA.2 [Example 2]", "md_verbatim": "| 9 | XYZ | FA | XYZ-789 | 123460 | 5 | MACRNG | Number of Macules Range | Injection Site Rash | 1 to 25 | | 1 to 25 | | 4 | 2007-05-19 |", "score": 0.7857, "match_basis": "verbatim_token+domain_route:FA"}, {"md_atom_id": "md_dmFA_ex_a050", "md_file": "knowledge_base/domains/FA/examples.md", "md_atom_type": "TABLE_ROW", "md_parent_section": "§FA.2 [Example 2]", "md_verbatim": "| 5 | XYZ | FA | XYZ-789 | 123455 | 5 | PUSRNG | Number of Pustules Range | Injection Site Rash | 0 | | 0 | | 3 | 2007-05-12 |", "score": 0.7767, "match_basis": "verbatim_token+domain_route:FA"}], "candidate_count": 5, "zero_candidate": false}
{"pdf_atom_id": "ig34_p0370_a018", "pdf_atom_type": "TABLE_ROW", "pdf_source": "SDTMIG_v3.4", "pdf_page": 370, "pdf_parent_section": "FA – Examples", "pdf_verbatim": "| 12 | XYZ | FA | XYZ-789 | 123463 | 5 | PUSRNG | Number of Pustules Range | Injection Site Rash | 0 | | 0 | | 4 | 2007-05-19 |", "figure_ref": null, "candidates": [{"md_atom_id": "md_dmFA_ex_a057", "md_file": "knowledge_base/domains/FA/examples.md", "md_atom_type": "TABLE_ROW", "md_parent_section": "§FA.2 [Example 2]", "md_verbatim": "| 12 | XYZ | FA | XYZ-789 | 123463 | 5 | PUSRNG | Number of Pustules Range | Injection Site Rash | 0 | | 0 | | 4 | 2007-05-19 |", "score": 1.0, "match_basis": "verbatim_token+domain_route:FA"}, {"md_atom_id": "md_dmFA_ex_a050", "md_file": "knowledge_base/domains/FA/examples.md", "md_atom_type": "TABLE_ROW", "md_parent_section": "§FA.2 [Example 2]", "md_verbatim": "| 5 | XYZ | FA | XYZ-789 | 123455 | 5 | PUSRNG | Number of Pustules Range | Injection Site Rash | 0 | | 0 | | 3 | 2007-05-12 |", "score": 0.9351, "match_basis": "verbatim_token+domain_route:FA"}, {"md_atom_id": "md_dmFA_ex_a054", "md_file": "knowledge_base/domains/FA/examples.md", "md_atom_type": "TABLE_ROW", "md_parent_section": "§FA.2 [Example 2]", "md_verbatim": "| 9 | XYZ | FA | XYZ-789 | 123460 | 5 | MACRNG | Number of Macules Range | Injection Site Rash | 1 to 25 | | 1 to 25 | | 4 | 2007-05-19 |", "score": 0.8098, "match_basis": "verbatim_token+domain_route:FA"}, {"md_atom_id": "md_dmFA_ex_a055", "md_file": "knowledge_base/domains/FA/examples.md", "md_atom_type": "TABLE_ROW", "md_parent_section": "§FA.2 [Example 2]", "md_verbatim": "| 10 | XYZ | FA | XYZ-789 | 123461 | 5 | FAPRNG | Number of Papules Range | Injection Site Rash | 1 to 25 | | 1 to 25 | | 4 | 2007-05-19 |", "score": 0.8, "match_basis": "verbatim_token+domain_route:FA"}, {"md_atom_id": "md_dmFA_ex_a056", "md_file": "knowledge_base/domains/FA/examples.md", "md_atom_type": "TABLE_ROW", "md_parent_section": "§FA.2 [Example 2]", "md_verbatim": "| 11 | XYZ | FA | XYZ-789 | 123462 | 5 | VESRNG | Number of Vesicles Range | Injection Site Rash | 0 | | 0 | | 4 | 2007-05-19 |", "score": 0.8, "match_basis": "verbatim_token+domain_route:FA"}], "candidate_count": 5, "zero_candidate": false}
{"pdf_atom_id": "ig34_p0370_a019", "pdf_atom_type": "TABLE_ROW", "pdf_source": "SDTMIG_v3.4", "pdf_page": 370, "pdf_parent_section": "FA – Examples", "pdf_verbatim": "| 13 | XYZ | FA | XYZ-789 | 123464 | 5 | SCBRNG | Number of Scabs Range | Injection Site Rash | 0 | | 0 | | 4 | 2007-05-19 |", "figure_ref": null, "candidates": [{"md_atom_id": "md_dmFA_ex_a058", "md_file": "knowledge_base/domains/FA/examples.md", "md_atom_type": "TABLE_ROW", "md_parent_section": "§FA.2 [Example 2]", "md_verbatim": "| 13 | XYZ | FA | XYZ-789 | 123464 | 5 | SCBRNG | Number of Scabs Range | Injection Site Rash | 0 | | 0 | | 4 | 2007-05-19 |", "score": 1.0, "match_basis": "verbatim_token+domain_route:FA"}, {"md_atom_id": "md_dmFA_ex_a051", "md_file": "knowledge_base/domains/FA/examples.md", "md_atom_type": "TABLE_ROW", "md_parent_section": "§FA.2 [Example 2]", "md_verbatim": "| 6 | XYZ | FA | XYZ-789 | 123456 | 5 | SCBRNG | Number of Scabs Range | Injection Site Rash | 0 | | 0 | | 3 | 2007-05-12 |", "score": 0.9314, "match_basis": "verbatim_token+domain_route:FA"}, {"md_atom_id": "md_dmFA_ex_a059", "md_file": "knowledge_base/domains/FA/examples.md", "md_atom_type": "TABLE_ROW", "md_parent_section": "§FA.2 [Example 2]", "md_verbatim": "| 14 | XYZ | FA | XYZ-789 | 123465 | 5 | SCRRNG | Number of Scars Range | Injection Site Rash | 0 | | 0 | | 4 | 2007-05-19 |", "score": 0.8154, "match_basis": "verbatim_token+domain_route:FA"}, {"md_atom_id": "md_dmFA_ex_a052", "md_file": "knowledge_base/domains/FA/examples.md", "md_atom_type": "TABLE_ROW", "md_parent_section": "§FA.2 [Example 2]", "md_verbatim": "| 7 | XYZ | FA | XYZ-789 | 123457 | 5 | SCRRNG | Number of Scars Range | Injection Site Rash | 0 | | 0 | | 3 | 2007-05-12 |", "score": 0.79, "match_basis": "verbatim_token+domain_route:FA"}, {"md_atom_id": "md_dmFA_ex_a054", "md_file": "knowledge_base/domains/FA/examples.md", "md_atom_type": "TABLE_ROW", "md_parent_section": "§FA.2 [Example 2]", "md_verbatim": "| 9 | XYZ | FA | XYZ-789 | 123460 | 5 | MACRNG | Number of Macules Range | Injection Site Rash | 1 to 25 | | 1 to 25 | | 4 | 2007-05-19 |", "score": 0.7805, "match_basis": "verbatim_token+domain_route:FA"}], "candidate_count": 5, "zero_candidate": false}
{"pdf_atom_id": "ig34_p0370_a020", "pdf_atom_type": "TABLE_ROW", "pdf_source": "SDTMIG_v3.4", "pdf_page": 370, "pdf_parent_section": "FA – Examples", "pdf_verbatim": "| 14 | XYZ | FA | XYZ-789 | 123465 | 5 | SCRRNG | Number of Scars Range | Injection Site Rash | 0 | | 0 | | 4 | 2007-05-19 |", "figure_ref": null, "candidates": [{"md_atom_id": "md_dmFA_ex_a059", "md_file": "knowledge_base/domains/FA/examples.md", "md_atom_type": "TABLE_ROW", "md_parent_section": "§FA.2 [Example 2]", "md_verbatim": "| 14 | XYZ | FA | XYZ-789 | 123465 | 5 | SCRRNG | Number of Scars Range | Injection Site Rash | 0 | | 0 | | 4 | 2007-05-19 |", "score": 1.0, "match_basis": "verbatim_token+domain_route:FA"}, {"md_atom_id": "md_dmFA_ex_a052", "md_file": "knowledge_base/domains/FA/examples.md", "md_atom_type": "TABLE_ROW", "md_parent_section": "§FA.2 [Example 2]", "md_verbatim": "| 7 | XYZ | FA | XYZ-789 | 123457 | 5 | SCRRNG | Number of Scars Range | Injection Site Rash | 0 | | 0 | | 3 | 2007-05-12 |", "score": 0.9314, "match_basis": "verbatim_token+domain_route:FA"}, {"md_atom_id": "md_dmFA_ex_a058", "md_file": "knowledge_base/domains/FA/examples.md", "md_atom_type": "TABLE_ROW", "md_parent_section": "§FA.2 [Example 2]", "md_verbatim": "| 13 | XYZ | FA | XYZ-789 | 123464 | 5 | SCBRNG | Number of Scabs Range | Injection Site Rash | 0 | | 0 | | 4 | 2007-05-19 |", "score": 0.8154, "match_basis": "verbatim_token+domain_route:FA"}, {"md_atom_id": "md_dmFA_ex_a051", "md_file": "knowledge_base/domains/FA/examples.md", "md_atom_type": "TABLE_ROW", "md_parent_section": "§FA.2 [Example 2]", "md_verbatim": "| 6 | XYZ | FA | XYZ-789 | 123456 | 5 | SCBRNG | Number of Scabs Range | Injection Site Rash | 0 | | 0 | | 3 | 2007-05-12 |", "score": 0.79, "match_basis": "verbatim_token+domain_route:FA"}, {"md_atom_id": "md_dmFA_ex_a054", "md_file": "knowledge_base/domains/FA/examples.md", "md_atom_type": "TABLE_ROW", "md_parent_section": "§FA.2 [Example 2]", "md_verbatim": "| 9 | XYZ | FA | XYZ-789 | 123460 | 5 | MACRNG | Number of Macules Range | Injection Site Rash | 1 to 25 | | 1 to 25 | | 4 | 2007-05-19 |", "score": 0.7805, "match_basis": "verbatim_token+domain_route:FA"}], "candidate_count": 5, "zero_candidate": false}
{"pdf_atom_id": "ig34_p0370_a021", "pdf_atom_type": "SENTENCE", "pdf_source": "SDTMIG_v3.4", "pdf_page": 370, "pdf_parent_section": "FA – Examples", "pdf_verbatim": "The FA records were linked to the parent CE record via the AE reference number, which was used to populate both AESPID and FASPID.", "figure_ref": null, "candidates": [{"md_atom_id": "md_dmFA_ex_a060", "md_file": "knowledge_base/domains/FA/examples.md", "md_atom_type": "SENTENCE", "md_parent_section": "§FA.2 [Example 2]", "md_verbatim": "The FA records were linked to the parent CE record via the AE reference number, which was used to populate both AESPID and FASPID.", "score": 1.0, "match_basis": "verbatim_token+domain_route:FA"}, {"md_atom_id": "md_dmFA_ex_a004", "md_file": "knowledge_base/domains/FA/examples.md", "md_atom_type": "SENTENCE", "md_parent_section": "§FA.1 [Example 1]", "md_verbatim": "In this example trial, migraines and symptoms associated with migraines were considered clinical events rather than reportable adverse events. The migraine, its sponsor identifier (i.e., the \"Migraine Reference Number\" on the CRF), and its start date were represented in a CE record.", "score": 0.494, "match_basis": "verbatim_token+domain_route:FA"}, {"md_atom_id": "md_dmFA_ex_a032", "md_file": "knowledge_base/domains/FA/examples.md", "md_atom_type": "SENTENCE", "md_parent_section": "§FA.1 [Example 1]", "md_verbatim": "A dataset-level relationship in RELREC is based on the sponsor ID (--SPID) value, which was populated with a system-generated identifier unique to each iteration of this form.", "score": 0.4914, "match_basis": "verbatim_token+domain_route:FA"}, {"md_atom_id": "md_dmFA_ex_a096", "md_file": "knowledge_base/domains/FA/examples.md", "md_atom_type": "SENTENCE", "md_parent_section": "§FA.4 [Example 4]", "md_verbatim": "For each prespecified adverse event for which FAORRES = \"Y\", the adverse event has a record in the AE domain with AEPRESP = \"Y\". No relationship was collected to link the FAAE record for the occurrence indicator test with the AE entries, so no RELREC was created.", "score": 0.4908, "match_basis": "verbatim_token+domain_route:FA"}, {"md_atom_id": "md_dmFA_ex_a144", "md_file": "knowledge_base/domains/FA/examples.md", "md_atom_type": "SENTENCE", "md_parent_section": "§FA.6 [Example 6]", "md_verbatim": "The values in FAOBJ are the values from AEDECOD, which were assigned during coding, rather than directly collected. The values in FASPID are the AE identifiers from AESPID. FAEVINTX indicates that the evaluation was for the period since the last visit.", "score": 0.4898, "match_basis": "verbatim_token+domain_route:FA"}], "candidate_count": 5, "zero_candidate": false}
{"pdf_atom_id": "ig34_p0370_a022", "pdf_atom_type": "CODE_LITERAL", "pdf_source": "SDTMIG_v3.4", "pdf_page": 370, "pdf_parent_section": "FA – Examples", "pdf_verbatim": "relrec.xpt", "figure_ref": null, "candidates": [{"md_atom_id": "md_dmFA_ex_a033", "md_file": "knowledge_base/domains/FA/examples.md", "md_atom_type": "SENTENCE", "md_parent_section": "§FA.1 [Example 1]", "md_verbatim": "**relrec.xpt**", "score": 0.79, "match_basis": "verbatim_token+domain_route:FA"}, {"md_atom_id": "md_dmFA_ex_a061", "md_file": "knowledge_base/domains/FA/examples.md", "md_atom_type": "SENTENCE", "md_parent_section": "§FA.2 [Example 2]", "md_verbatim": "**relrec.xpt**", "score": 0.79, "match_basis": "verbatim_token+domain_route:FA"}, {"md_atom_id": "md_dmFA_ex_a156", "md_file": "knowledge_base/domains/FA/examples.md", "md_atom_type": "SENTENCE", "md_parent_section": "§FA.6 [Example 6]", "md_verbatim": "**relrec.xpt**", "score": 0.79, "match_basis": "verbatim_token+domain_route:FA"}, {"md_atom_id": "md_dmFA_ex_a005", "md_file": "knowledge_base/domains/FA/examples.md", "md_atom_type": "SENTENCE", "md_parent_section": "§FA.1 [Example 1]", "md_verbatim": "**ce.xpt**", "score": 0.31, "match_basis": "verbatim_token+domain_route:FA"}, {"md_atom_id": "md_dmFA_ex_a009", "md_file": "knowledge_base/domains/FA/examples.md", "md_atom_type": "SENTENCE", "md_parent_section": "§FA.1 [Example 1]", "md_verbatim": "**ex.xpt**", "score": 0.31, "match_basis": "verbatim_token+domain_route:FA"}, {"md_atom_id": "md_dmFA_ex_a041", "md_file": "knowledge_base/domains/FA/examples.md", "md_atom_type": "SENTENCE", "md_parent_section": "§FA.2 [Example 2]", "md_verbatim": "**ae.xpt**", "score": 0.31, "match_basis": "verbatim_token+domain_route:FA"}, {"md_atom_id": "md_dmFA_ex_a070", "md_file": "knowledge_base/domains/FA/examples.md", "md_atom_type": "SENTENCE", "md_parent_section": "§FA.3 [Example 3]", "md_verbatim": "**mh.xpt**", "score": 0.31, "match_basis": "verbatim_token+domain_route:FA"}, {"md_atom_id": "md_dmFA_ex_a098", "md_file": "knowledge_base/domains/FA/examples.md", "md_atom_type": "SENTENCE", "md_parent_section": "§FA.4 [Example 4]", "md_verbatim": "**ae.xpt**", "score": 0.31, "match_basis": "verbatim_token+domain_route:FA"}, {"md_atom_id": "md_dmFA_ex_a140", "md_file": "knowledge_base/domains/FA/examples.md", "md_atom_type": "SENTENCE", "md_parent_section": "§FA.6 [Example 6]", "md_verbatim": "**ae.xpt**", "score": 0.31, "match_basis": "verbatim_token+domain_route:FA"}, {"md_atom_id": "md_dmFA_ex_a015", "md_file": "knowledge_base/domains/FA/examples.md", "md_atom_type": "SENTENCE", "md_parent_section": "§FA.1 [Example 1]", "md_verbatim": "**face.xpt**", "score": 0.2757, "match_basis": "verbatim_token+domain_route:FA"}], "candidate_count": 10, "zero_candidate": false}
{"pdf_atom_id": "ig34_p0370_a023", "pdf_atom_type": "TABLE_HEADER", "pdf_source": "SDTMIG_v3.4", "pdf_page": 370, "pdf_parent_section": "FA – Examples", "pdf_verbatim": "| Row | STUDYID | RDOMAIN | USUBJID | IDVAR | IDVARVAL | RELTYPE | RELID |", "figure_ref": null, "candidates": [{"md_atom_id": "md_dmFA_ex_a034", "md_file": "knowledge_base/domains/FA/examples.md", "md_atom_type": "TABLE_HEADER", "md_parent_section": "§FA.1 [Example 1]", "md_verbatim": "| Row | STUDYID | RDOMAIN | USUBJID | IDVAR | IDVARVAL | RELTYPE | RELID |\n|-----|---------|---------|---------|-------|----------|---------|-------|", "score": 1.0, "match_basis": "verbatim_token+domain_route:FA"}, {"md_atom_id": "md_dmFA_ex_a062", "md_file": "knowledge_base/domains/FA/examples.md", "md_atom_type": "TABLE_HEADER", "md_parent_section": "§FA.2 [Example 2]", "md_verbatim": "| Row | STUDYID | RDOMAIN | USUBJID | IDVAR | IDVARVAL | RELTYPE | RELID |\n|-----|---------|---------|---------|-------|----------|---------|-------|", "score": 1.0, "match_basis": "verbatim_token+domain_route:FA"}, {"md_atom_id": "md_dmFA_ex_a157", "md_file": "knowledge_base/domains/FA/examples.md", "md_atom_type": "TABLE_HEADER", "md_parent_section": "§FA.6 [Example 6]", "md_verbatim": "| Row | STUDYID | RDOMAIN | USUBJID | IDVAR | IDVARVAL | RELTYPE | RELID |\n|-----|---------|---------|---------|-------|----------|---------|-------|", "score": 1.0, "match_basis": "verbatim_token+domain_route:FA"}, {"md_atom_id": "md_dmFA_ex_a080", "md_file": "knowledge_base/domains/FA/examples.md", "md_atom_type": "TABLE_HEADER", "md_parent_section": "§FA.3 [Example 3]", "md_verbatim": "| Row | STUDYID | RDOMAIN | USUBJID | IDVAR | IDVARVAL | QNAM | QLABEL | QVAL | QORIG | QEVAL |\n|-----|---------|---------|---------|-------|----------|------|--------|------|-------|-------|", "score": 0.722, "match_basis": "verbatim_token+domain_route:FA"}, {"md_atom_id": "md_dmFA_ex_a006", "md_file": "knowledge_base/domains/FA/examples.md", "md_atom_type": "TABLE_HEADER", "md_parent_section": "§FA.1 [Example 1]", "md_verbatim": "| Row | STUDYID | DOMAIN | USUBJID | CESEQ | CESPID | CETERM | CEDECOD | CESTDTC |\n|-----|---------|--------|---------|-------|--------|--------|---------|---------|", "score": 0.5875, "match_basis": "verbatim_token+domain_route:FA"}], "candidate_count": 5, "zero_candidate": false}
{"pdf_atom_id": "ig34_p0370_a024", "pdf_atom_type": "TABLE_ROW", "pdf_source": "SDTMIG_v3.4", "pdf_page": 370, "pdf_parent_section": "FA – Examples", "pdf_verbatim": "| 1 | XYZ | AE | | AESPID | | ONE | 23 |", "figure_ref": null, "candidates": [{"md_atom_id": "md_dmFA_ex_a063", "md_file": "knowledge_base/domains/FA/examples.md", "md_atom_type": "TABLE_ROW", "md_parent_section": "§FA.2 [Example 2]", "md_verbatim": "| 1 | XYZ | AE | | AESPID | | ONE | 23 |", "score": 1.0, "match_basis": "verbatim_token+domain_route:FA"}, {"md_atom_id": "md_dmFA_ex_a158", "md_file": "knowledge_base/domains/FA/examples.md", "md_atom_type": "TABLE_ROW", "md_parent_section": "§FA.6 [Example 6]", "md_verbatim": "| 1 | ABC | AE | | AESPID | | ONE | 1 |", "score": 0.8286, "match_basis": "verbatim_token+domain_route:FA"}, {"md_atom_id": "md_dmFA_ex_a035", "md_file": "knowledge_base/domains/FA/examples.md", "md_atom_type": "TABLE_ROW", "md_parent_section": "§FA.1 [Example 1]", "md_verbatim": "| 1 | ABC | CE | | CESPID | | ONE | 1 |", "score": 0.7, "match_basis": "verbatim_token+domain_route:FA"}, {"md_atom_id": "md_dmFA_ex_a064", "md_file": "knowledge_base/domains/FA/examples.md", "md_atom_type": "TABLE_ROW", "md_parent_section": "§FA.2 [Example 2]", "md_verbatim": "| 2 | XYZ | FA | | FASPID | | MANY | 23 |", "score": 0.58, "match_basis": "verbatim_token+domain_route:FA"}, {"md_atom_id": "md_dmFA_ex_a036", "md_file": "knowledge_base/domains/FA/examples.md", "md_atom_type": "TABLE_ROW", "md_parent_section": "§FA.1 [Example 1]", "md_verbatim": "| 2 | ABC | FA | | FASPID | | MANY | 1 |", "score": 0.5091, "match_basis": "verbatim_token+domain_route:FA"}], "candidate_count": 5, "zero_candidate": false}
{"pdf_atom_id": "ig34_p0370_a025", "pdf_atom_type": "TABLE_ROW", "pdf_source": "SDTMIG_v3.4", "pdf_page": 370, "pdf_parent_section": "FA – Examples", "pdf_verbatim": "| 2 | XYZ | FA | | FASPID | | MANY | 23 |", "figure_ref": null, "candidates": [{"md_atom_id": "md_dmFA_ex_a064", "md_file": "knowledge_base/domains/FA/examples.md", "md_atom_type": "TABLE_ROW", "md_parent_section": "§FA.2 [Example 2]", "md_verbatim": "| 2 | XYZ | FA | | FASPID | | MANY | 23 |", "score": 1.0, "match_basis": "verbatim_token+domain_route:FA"}, {"md_atom_id": "md_dmFA_ex_a036", "md_file": "knowledge_base/domains/FA/examples.md", "md_atom_type": "TABLE_ROW", "md_parent_section": "§FA.1 [Example 1]", "md_verbatim": "| 2 | ABC | FA | | FASPID | | MANY | 1 |", "score": 0.85, "match_basis": "verbatim_token+domain_route:FA"}, {"md_atom_id": "md_dmFA_ex_a159", "md_file": "knowledge_base/domains/FA/examples.md", "md_atom_type": "TABLE_ROW", "md_parent_section": "§FA.6 [Example 6]", "md_verbatim": "| 2 | ABC | FA | | FASPID | | MANY | 1 |", "score": 0.85, "match_basis": "verbatim_token+domain_route:FA"}, {"md_atom_id": "md_dmFA_ex_a063", "md_file": "knowledge_base/domains/FA/examples.md", "md_atom_type": "TABLE_ROW", "md_parent_section": "§FA.2 [Example 2]", "md_verbatim": "| 1 | XYZ | AE | | AESPID | | ONE | 23 |", "score": 0.58, "match_basis": "verbatim_token+domain_route:FA"}, {"md_atom_id": "md_dmFA_ex_a035", "md_file": "knowledge_base/domains/FA/examples.md", "md_atom_type": "TABLE_ROW", "md_parent_section": "§FA.1 [Example 1]", "md_verbatim": "| 1 | ABC | CE | | CESPID | | ONE | 1 |", "score": 0.5091, "match_basis": "verbatim_token+domain_route:FA"}], "candidate_count": 5, "zero_candidate": false}
{"pdf_atom_id": "ig34_p0371_a001", "pdf_atom_type": "HEADING", "pdf_source": "SDTMIG_v3.4", "pdf_page": 371, "pdf_parent_section": "FA – Examples", "pdf_verbatim": "Example 3", "figure_ref": null, "candidates": [{"md_atom_id": "md_dmFA_ex_a002", "md_file": "knowledge_base/domains/FA/examples.md", "md_atom_type": "HEADING", "md_parent_section": "§FA [FA — Examples]", "md_verbatim": "## Example 1", "score": 1.0, "match_basis": "verbatim_token+domain_route:FA"}, {"md_atom_id": "md_dmFA_ex_a037", "md_file": "knowledge_base/domains/FA/examples.md", "md_atom_type": "HEADING", "md_parent_section": "§FA [FA — Examples]", "md_verbatim": "## Example 2", "score": 1.0, "match_basis": "verbatim_token+domain_route:FA"}, {"md_atom_id": "md_dmFA_ex_a065", "md_file": "knowledge_base/domains/FA/examples.md", "md_atom_type": "HEADING", "md_parent_section": "§FA [FA — Examples]", "md_verbatim": "## Example 3", "score": 1.0, "match_basis": "verbatim_token+domain_route:FA"}, {"md_atom_id": "md_dmFA_ex_a082", "md_file": "knowledge_base/domains/FA/examples.md", "md_atom_type": "HEADING", "md_parent_section": "§FA [FA — Examples]", "md_verbatim": "## Example 4", "score": 1.0, "match_basis": "verbatim_token+domain_route:FA"}, {"md_atom_id": "md_dmFA_ex_a104", "md_file": "knowledge_base/domains/FA/examples.md", "md_atom_type": "HEADING", "md_parent_section": "§FA [FA — Examples]", "md_verbatim": "## Example 5", "score": 1.0, "match_basis": "verbatim_token+domain_route:FA"}, {"md_atom_id": "md_dmFA_ex_a131", "md_file": "knowledge_base/domains/FA/examples.md", "md_atom_type": "HEADING", "md_parent_section": "§FA [FA — Examples]", "md_verbatim": "## Example 6", "score": 1.0, "match_basis": "verbatim_token+domain_route:FA"}, {"md_atom_id": "md_dmFA_ex_a001", "md_file": "knowledge_base/domains/FA/examples.md", "md_atom_type": "HEADING", "md_parent_section": "§FA [FA — Examples]", "md_verbatim": "# FA — Examples", "score": 0.9, "match_basis": "verbatim_token+domain_route:FA"}, {"md_atom_id": "md_dmFA_assn_a001", "md_file": "knowledge_base/domains/FA/assumptions.md", "md_atom_type": "HEADING", "md_parent_section": "§FA [FA — Assumptions]", "md_verbatim": "# FA — Assumptions", "score": 0.4, "match_basis": "verbatim_token+domain_route:FA"}], "candidate_count": 8, "zero_candidate": false}
{"pdf_atom_id": "ig34_p0371_a002", "pdf_atom_type": "SENTENCE", "pdf_source": "SDTMIG_v3.4", "pdf_page": 371, "pdf_parent_section": "FA – Examples", "pdf_verbatim": "This CRF collects information about rheumatoid arthritis. In this scenario, rheumatoid arthritis is a prerequisite for participation in an osteoporosis trial and was not collected as a Medical History (MH) event.", "figure_ref": null, "candidates": [{"md_atom_id": "md_dmFA_ex_a066", "md_file": "knowledge_base/domains/FA/examples.md", "md_atom_type": "SENTENCE", "md_parent_section": "§FA.3 [Example 3]", "md_verbatim": "This CRF collects information about rheumatoid arthritis. In this scenario, rheumatoid arthritis is a prerequisite for participation in an osteoporosis trial and was not collected as a Medical History (MH) event.", "score": 1.0, "match_basis": "verbatim_token+domain_route:FA"}, {"md_atom_id": "md_dmFA_ex_a068", "md_file": "knowledge_base/domains/FA/examples.md", "md_atom_type": "SENTENCE", "md_parent_section": "§FA.3 [Example 3]", "md_verbatim": "**Row 1:** Because the CRF specifically collected date of diagnosis for rheumatoid arthritis, MHEVDTYP is populated with DIAGNOSIS to indicate that the date in MHSTDTC is the date of diagnosis.", "score": 0.5308, "match_basis": "verbatim_token+domain_route:FA"}, {"md_atom_id": "md_dmFA_ex_a039", "md_file": "knowledge_base/domains/FA/examples.md", "md_atom_type": "SENTENCE", "md_parent_section": "§FA.2 [Example 2]", "md_verbatim": "In this scenario, the injection site rash event was considered a reportable adverse event; therefore, the rash itself was represented in the AE domain. The rash assessment form collects a reference number for the AE, represented in AESPID. Certain required or expected variables have been omitted from the example dataset in consideration of space and clarity.", "score": 0.5137, "match_basis": "verbatim_token+domain_route:FA"}, {"md_atom_id": "md_dmFA_ex_a132", "md_file": "knowledge_base/domains/FA/examples.md", "md_atom_type": "SENTENCE", "md_parent_section": "§FA.6 [Example 6]", "md_verbatim": "In this example, the sponsor's definition of \"event\" meant that 1 record would be created for each adverse event, covering it from start to finish (see Section 6.2.1, Adverse Events, assumption 6.4). The AE module also collected information about severity at each visit.", "score": 0.5108, "match_basis": "verbatim_token+domain_route:FA"}, {"md_atom_id": "md_dmFA_ex_a083", "md_file": "knowledge_base/domains/FA/examples.md", "md_atom_type": "SENTENCE", "md_parent_section": "§FA.4 [Example 4]", "md_verbatim": "In this example, the occurrence of prespecified adverse events was solicited at every visit and the visit date was used as the date of collection. The data collected meet criterion 3 in Section 6.4.1, When to Use Findings About Events or Interventions; that is, data that indicate the occurrence of prespecified AEs.", "score": 0.5098, "match_basis": "verbatim_token+domain_route:FA"}], "candidate_count": 5, "zero_candidate": false}
{"pdf_atom_id": "ig34_p0371_a003", "pdf_atom_type": "HEADING", "pdf_source": "SDTMIG_v3.4", "pdf_page": 371, "pdf_parent_section": "FA – Examples", "pdf_verbatim": "Rheumatoid Arthritis History", "figure_ref": null, "candidates": [{"md_atom_id": "md_dmFA_assn_a001", "md_file": "knowledge_base/domains/FA/assumptions.md", "md_atom_type": "HEADING", "md_parent_section": "§FA [FA — Assumptions]", "md_verbatim": "# FA — Assumptions", "score": 0.4, "match_basis": "verbatim_token+domain_route:FA"}, {"md_atom_id": "md_dmFA_ex_a001", "md_file": "knowledge_base/domains/FA/examples.md", "md_atom_type": "HEADING", "md_parent_section": "§FA [FA — Examples]", "md_verbatim": "# FA — Examples", "score": 0.4, "match_basis": "verbatim_token+domain_route:FA"}, {"md_atom_id": "md_dmFA_ex_a002", "md_file": "knowledge_base/domains/FA/examples.md", "md_atom_type": "HEADING", "md_parent_section": "§FA [FA — Examples]", "md_verbatim": "## Example 1", "score": 0.4, "match_basis": "verbatim_token+domain_route:FA"}, {"md_atom_id": "md_dmFA_ex_a037", "md_file": "knowledge_base/domains/FA/examples.md", "md_atom_type": "HEADING", "md_parent_section": "§FA [FA — Examples]", "md_verbatim": "## Example 2", "score": 0.4, "match_basis": "verbatim_token+domain_route:FA"}, {"md_atom_id": "md_dmFA_ex_a065", "md_file": "knowledge_base/domains/FA/examples.md", "md_atom_type": "HEADING", "md_parent_section": "§FA [FA — Examples]", "md_verbatim": "## Example 3", "score": 0.4, "match_basis": "verbatim_token+domain_route:FA"}], "candidate_count": 5, "zero_candidate": false}
{"pdf_atom_id": "ig34_p0371_a004", "pdf_atom_type": "TABLE_HEADER", "pdf_source": "SDTMIG_v3.4", "pdf_page": 371, "pdf_parent_section": "FA – Examples", "pdf_verbatim": "| Date of assessment | DD-MMM-YYYY |", "figure_ref": null, "candidates": [{"md_atom_id": "md_dmFA_ex_a045", "md_file": "knowledge_base/domains/FA/examples.md", "md_atom_type": "TABLE_HEADER", "md_parent_section": "§FA.2 [Example 2]", "md_verbatim": "| Row | STUDYID | DOMAIN | USUBJID | FASEQ | FASPID | FATESTCD | FATEST | FAOBJ | FAORRES | FAORRESU | FASTRESC | FASTRESU | VISITNUM | FADTC |\n|-----|---------|--------|---------|-------|--------|----------|--------|-------|---------|----------|----------|----------|----------|-------|", "score": 0.4102, "match_basis": "verbatim_token+domain_route:FA"}, {"md_atom_id": "md_dmFA_ex_a089", "md_file": "knowledge_base/domains/FA/examples.md", "md_atom_type": "TABLE_HEADER", "md_parent_section": "§FA.4 [Example 4]", "md_verbatim": "| Row | STUDYID | DOMAIN | USUBJID | FASEQ | FATESTCD | FATEST | FAOBJ | FAORRES | FASTRESC | FASTAT | VISITNUM | VISIT | FADTC | FAEVINTX |\n|-----|---------|--------|---------|-------|----------|--------|-------|---------|----------|--------|----------|-------|-------|----------|", "score": 0.4095, "match_basis": "verbatim_token+domain_route:FA"}, {"md_atom_id": "md_dmFA_ex_a016", "md_file": "knowledge_base/domains/FA/examples.md", "md_atom_type": "TABLE_HEADER", "md_parent_section": "§FA.1 [Example 1]", "md_verbatim": "| Row | STUDYID | DOMAIN | USUBJID | FASEQ | FASPID | FATESTCD | FATEST | FAOBJ | FACAT | FAORRES | FASTRESC | FADTC | FATPT | FATPTNUM | FAELTM | FATPTREF |\n|-----|---------|--------|---------|-------|--------|----------|--------|-------|-------|---------|----------|-------|-------|----------|--------|----------|", "score": 0.4091, "match_basis": "verbatim_token+domain_route:FA"}, {"md_atom_id": "md_dmFA_ex_a148", "md_file": "knowledge_base/domains/FA/examples.md", "md_atom_type": "TABLE_HEADER", "md_parent_section": "§FA.6 [Example 6]", "md_verbatim": "| Row | STUDYID | DOMAIN | USUBJID | FASEQ | FASPID | FATESTCD | FATEST | FAOBJ | FAORRES | FACOLSRT | VISITNUM | VISIT | FADTC | FAEVINTX |\n|-----|---------|--------|---------|-------|--------|----------|--------|-------|---------|----------|----------|-------|-------|----------|", "score": 0.4091, "match_basis": "verbatim_token+domain_route:FA"}, {"md_atom_id": "md_dmFA_ex_a115", "md_file": "knowledge_base/domains/FA/examples.md", "md_atom_type": "TABLE_HEADER", "md_parent_section": "§FA.5 [Example 5]", "md_verbatim": "| Row | STUDYID | DOMAIN | USUBJID | FASEQ | FATESTCD | FATEST | FAOBJ | FACAT | FAORRES | FAORRESU | FASTRESC | FASTRESN | FASTRESU | FASTAT | VISITNUM | VISIT | FADTC | FAEVLINT |\n|-----|---------|--------|---------|-------|----------|--------|-------|-------|---------|----------|----------|----------|----------|--------|----------|-------|-------|----------|", "score": 0.4088, "match_basis": "verbatim_token+domain_route:FA"}], "candidate_count": 5, "zero_candidate": false}
{"pdf_atom_id": "ig34_p0371_a005", "pdf_atom_type": "TABLE_ROW", "pdf_source": "SDTMIG_v3.4", "pdf_page": 371, "pdf_parent_section": "FA – Examples", "pdf_verbatim": "| Date of diagnosis | DD-MMM-YYYY |", "figure_ref": null, "candidates": [{"md_atom_id": "md_dmFA_ex_a072", "md_file": "knowledge_base/domains/FA/examples.md", "md_atom_type": "TABLE_ROW", "md_parent_section": "§FA.3 [Example 3]", "md_verbatim": "| 1 | ABC | MH | 001-001 | 1 | RHEUMATOID ARTHRITIS | Rheumatoid arthritis | DIAGNOSIS | RHEUMATOID ARTHRITIS HISTORY | | Y | Y | | | 2003 | -P6M |", "score": 0.5167, "match_basis": "verbatim_token+domain_route:FA"}, {"md_atom_id": "md_dmFA_ex_a143", "md_file": "knowledge_base/domains/FA/examples.md", "md_atom_type": "TABLE_ROW", "md_parent_section": "§FA.6 [Example 6]", "md_verbatim": "| 2 | AE | 123 | 2 | 2 | Watery stools | Diarrhea | MILD | 2006-02-01 | 2006-02-15 |", "score": 0.4429, "match_basis": "verbatim_token+domain_route:FA"}, {"md_atom_id": "md_dmFA_ex_a022", "md_file": "knowledge_base/domains/FA/examples.md", "md_atom_type": "TABLE_ROW", "md_parent_section": "§FA.1 [Example 1]", "md_verbatim": "| 6 | ABC | FA | ABC-123 | 6 | 90567 | SEV | Severity/Intensity | Migraine | MIGRAINE SYMPTOMS | MODERATE | MODERATE | 2007-05-16 | 30M POST-DOSE | 2 | PT30M | DOSING |", "score": 0.4214, "match_basis": "verbatim_token+domain_route:FA"}, {"md_atom_id": "md_dmFA_ex_a142", "md_file": "knowledge_base/domains/FA/examples.md", "md_atom_type": "TABLE_ROW", "md_parent_section": "§FA.6 [Example 6]", "md_verbatim": "| 1 | AE | 123 | 1 | 1 | Morning queasiness | Nausea | MODERATE | 2006-02-01 | 2006-02-23 |", "score": 0.4167, "match_basis": "verbatim_token+domain_route:FA"}, {"md_atom_id": "md_dmFA_ex_a046", "md_file": "knowledge_base/domains/FA/examples.md", "md_atom_type": "TABLE_ROW", "md_parent_section": "§FA.2 [Example 2]", "md_verbatim": "| 1 | XYZ | FA | XYZ-789 | 123451 | 5 | LDIAM | Longest Diameter | Injection Site Rash | 2.5 | IN | 2.5 | IN | 3 | 2007-05-12 |", "score": 0.4146, "match_basis": "verbatim_token+domain_route:FA"}], "candidate_count": 5, "zero_candidate": false}
{"pdf_atom_id": "ig34_p0371_a006", "pdf_atom_type": "TABLE_ROW", "pdf_source": "SDTMIG_v3.4", "pdf_page": 371, "pdf_parent_section": "FA – Examples", "pdf_verbatim": "| During the past 6 months, how would you rate the following: |  |", "figure_ref": null, "candidates": [{"md_atom_id": "md_dmFA_ex_a142", "md_file": "knowledge_base/domains/FA/examples.md", "md_atom_type": "TABLE_ROW", "md_parent_section": "§FA.6 [Example 6]", "md_verbatim": "| 1 | AE | 123 | 1 | 1 | Morning queasiness | Nausea | MODERATE | 2006-02-01 | 2006-02-23 |", "score": 0.4383, "match_basis": "verbatim_token+domain_route:FA"}, {"md_atom_id": "md_dmFA_ex_a150", "md_file": "knowledge_base/domains/FA/examples.md", "md_atom_type": "TABLE_ROW", "md_parent_section": "§FA.6 [Example 6]", "md_verbatim": "| 2 | XYZ | FA | XYZ-US-701-002 | 2 | 1 | SEV | Severity/Intensity | Nausea | MODERATE | MAXIMUM | 3 | VISIT 3 | 2006-02-09 | SINCE LAST VISIT |", "score": 0.43, "match_basis": "verbatim_token+domain_route:FA"}, {"md_atom_id": "md_dmFA_ex_a151", "md_file": "knowledge_base/domains/FA/examples.md", "md_atom_type": "TABLE_ROW", "md_parent_section": "§FA.6 [Example 6]", "md_verbatim": "| 3 | XYZ | FA | XYZ-US-701-002 | 3 | 1 | SEV | Severity/Intensity | Nausea | MODERATE | MAXIMUM | 4 | VISIT 4 | 2006-02-16 | SINCE LAST VISIT |", "score": 0.43, "match_basis": "verbatim_token+domain_route:FA"}, {"md_atom_id": "md_dmFA_ex_a101", "md_file": "knowledge_base/domains/FA/examples.md", "md_atom_type": "TABLE_ROW", "md_parent_section": "§FA.4 [Example 4]", "md_verbatim": "| 2 | ABC101 | AE | 1234 | 2 | Nausea | Nausea | Y | Gastrointestinal disorders | MODERATE | NONE | 2005-10-08 | 2005-10-09 |", "score": 0.4295, "match_basis": "verbatim_token+domain_route:FA"}, {"md_atom_id": "md_dmFA_ex_a074", "md_file": "knowledge_base/domains/FA/examples.md", "md_atom_type": "TABLE_ROW", "md_parent_section": "§FA.3 [Example 3]", "md_verbatim": "| 3 | ABC | MH | 001-001 | 3 | JOINT SWELLING | Joint swelling | | RHEUMATOID ARTHRITIS HISTORY | SYMPTOMS | Y | Y | MODERATE | 2006-08-13 | | -P6M |", "score": 0.4269, "match_basis": "verbatim_token+domain_route:FA"}], "candidate_count": 5, "zero_candidate": false}
{"pdf_atom_id": "ig34_p0371_a007", "pdf_atom_type": "TABLE_HEADER", "pdf_source": "SDTMIG_v3.4", "pdf_page": 371, "pdf_parent_section": "FA – Examples", "pdf_verbatim": "| Symptom | Was the symptom present? | If yes, what was the severity? |", "figure_ref": null, "candidates": [{"md_atom_id": "md_dmFA_ex_a017", "md_file": "knowledge_base/domains/FA/examples.md", "md_atom_type": "TABLE_ROW", "md_parent_section": "§FA.1 [Example 1]", "md_verbatim": "| 1 | ABC | FA | ABC-123 | 1 | 90567 | SEV | Severity/Intensity | Migraine | MIGRAINE SYMPTOMS | SEVERE | SEVERE | 2007-05-16 | 5M PRE-DOSE | 1 | -PT5M | DOSING |", "score": 0.4869, "match_basis": "verbatim_token+domain_route:FA"}, {"md_atom_id": "md_dmFA_ex_a119", "md_file": "knowledge_base/domains/FA/examples.md", "md_atom_type": "TABLE_ROW", "md_parent_section": "§FA.5 [Example 5]", "md_verbatim": "| 4 | XYZ | FA | XYZ-701-002 | 4 | SEV | Severity/Intensity | Vomiting | GERD SYMPTOMS | SEVERE | | SEVERE | | | | 1 | VISIT 1 | 2006-02-02 | -PT24H |", "score": 0.4804, "match_basis": "verbatim_token+domain_route:FA"}, {"md_atom_id": "md_dmFA_ex_a122", "md_file": "knowledge_base/domains/FA/examples.md", "md_atom_type": "TABLE_ROW", "md_parent_section": "§FA.5 [Example 5]", "md_verbatim": "| 7 | XYZ | FA | XYZ-701-002 | 7 | SEV | Severity/Intensity | Diarrhea | GERD SYMPTOMS | SEVERE | | SEVERE | | | | 1 | VISIT 1 | 2006-02-02 | -PT24H |", "score": 0.4804, "match_basis": "verbatim_token+domain_route:FA"}, {"md_atom_id": "md_dmFA_ex_a129", "md_file": "knowledge_base/domains/FA/examples.md", "md_atom_type": "TABLE_ROW", "md_parent_section": "§FA.5 [Example 5]", "md_verbatim": "| 14 | XYZ | FA | XYZ-701-002 | 14 | SEV | Severity/Intensity | Diarrhea | GERD SYMPTOMS | SEVERE | | SEVERE | | | | 2 | VISIT 2 | 2006-02-03 | -PT24H |", "score": 0.4804, "match_basis": "verbatim_token+domain_route:FA"}, {"md_atom_id": "md_dmFA_ex_a125", "md_file": "knowledge_base/domains/FA/examples.md", "md_atom_type": "TABLE_ROW", "md_parent_section": "§FA.5 [Example 5]", "md_verbatim": "| 10 | XYZ | FA | XYZ-701-002 | 10 | SEV | Severity/Intensity | Nausea | GERD SYMPTOMS | MODERATE | | MODERATE | | | | 1 | VISIT 1 | 2006-02-02 | -PT24H |", "score": 0.472, "match_basis": "verbatim_token+domain_route:FA"}], "candidate_count": 5, "zero_candidate": false}
{"pdf_atom_id": "ig34_p0371_a008", "pdf_atom_type": "TABLE_ROW", "pdf_source": "SDTMIG_v3.4", "pdf_page": 371, "pdf_parent_section": "FA – Examples", "pdf_verbatim": "| Joint stiffness | ○ Yes   ○ No | ○ Mild   ○ Moderate   ○ Severe |", "figure_ref": null, "candidates": [{"md_atom_id": "md_dmFA_ex_a073", "md_file": "knowledge_base/domains/FA/examples.md", "md_atom_type": "TABLE_ROW", "md_parent_section": "§FA.3 [Example 3]", "md_verbatim": "| 2 | ABC | MH | 001-001 | 2 | JOINT STIFFNESS | Joint stiffness | | RHEUMATOID ARTHRITIS HISTORY | SYMPTOMS | Y | Y | SEVERE | 2006-08-13 | | -P6M |", "score": 0.5556, "match_basis": "verbatim_token+domain_route:FA"}, {"md_atom_id": "md_dmFA_ex_a142", "md_file": "knowledge_base/domains/FA/examples.md", "md_atom_type": "TABLE_ROW", "md_parent_section": "§FA.6 [Example 6]", "md_verbatim": "| 1 | AE | 123 | 1 | 1 | Morning queasiness | Nausea | MODERATE | 2006-02-01 | 2006-02-23 |", "score": 0.5171, "match_basis": "verbatim_token+domain_route:FA"}, {"md_atom_id": "md_dmFA_ex_a150", "md_file": "knowledge_base/domains/FA/examples.md", "md_atom_type": "TABLE_ROW", "md_parent_section": "§FA.6 [Example 6]", "md_verbatim": "| 2 | XYZ | FA | XYZ-US-701-002 | 2 | 1 | SEV | Severity/Intensity | Nausea | MODERATE | MAXIMUM | 3 | VISIT 3 | 2006-02-09 | SINCE LAST VISIT |", "score": 0.5154, "match_basis": "verbatim_token+domain_route:FA"}, {"md_atom_id": "md_dmFA_ex_a151", "md_file": "knowledge_base/domains/FA/examples.md", "md_atom_type": "TABLE_ROW", "md_parent_section": "§FA.6 [Example 6]", "md_verbatim": "| 3 | XYZ | FA | XYZ-US-701-002 | 3 | 1 | SEV | Severity/Intensity | Nausea | MODERATE | MAXIMUM | 4 | VISIT 4 | 2006-02-16 | SINCE LAST VISIT |", "score": 0.5154, "match_basis": "verbatim_token+domain_route:FA"}, {"md_atom_id": "md_dmFA_ex_a125", "md_file": "knowledge_base/domains/FA/examples.md", "md_atom_type": "TABLE_ROW", "md_parent_section": "§FA.5 [Example 5]", "md_verbatim": "| 10 | XYZ | FA | XYZ-701-002 | 10 | SEV | Severity/Intensity | Nausea | GERD SYMPTOMS | MODERATE | | MODERATE | | | | 1 | VISIT 1 | 2006-02-02 | -PT24H |", "score": 0.5132, "match_basis": "verbatim_token+domain_route:FA"}], "candidate_count": 5, "zero_candidate": false}
{"pdf_atom_id": "ig34_p0371_a009", "pdf_atom_type": "TABLE_ROW", "pdf_source": "SDTMIG_v3.4", "pdf_page": 371, "pdf_parent_section": "FA – Examples", "pdf_verbatim": "| Joint swelling | ○ Yes   ○ No | ○ Mild   ○ Moderate   ○ Severe |", "figure_ref": null, "candidates": [{"md_atom_id": "md_dmFA_ex_a074", "md_file": "knowledge_base/domains/FA/examples.md", "md_atom_type": "TABLE_ROW", "md_parent_section": "§FA.3 [Example 3]", "md_verbatim": "| 3 | ABC | MH | 001-001 | 3 | JOINT SWELLING | Joint swelling | | RHEUMATOID ARTHRITIS HISTORY | SYMPTOMS | Y | Y | MODERATE | 2006-08-13 | | -P6M |", "score": 0.5698, "match_basis": "verbatim_token+domain_route:FA"}, {"md_atom_id": "md_dmFA_ex_a150", "md_file": "knowledge_base/domains/FA/examples.md", "md_atom_type": "TABLE_ROW", "md_parent_section": "§FA.6 [Example 6]", "md_verbatim": "| 2 | XYZ | FA | XYZ-US-701-002 | 2 | 1 | SEV | Severity/Intensity | Nausea | MODERATE | MAXIMUM | 3 | VISIT 3 | 2006-02-09 | SINCE LAST VISIT |", "score": 0.5176, "match_basis": "verbatim_token+domain_route:FA"}, {"md_atom_id": "md_dmFA_ex_a151", "md_file": "knowledge_base/domains/FA/examples.md", "md_atom_type": "TABLE_ROW", "md_parent_section": "§FA.6 [Example 6]", "md_verbatim": "| 3 | XYZ | FA | XYZ-US-701-002 | 3 | 1 | SEV | Severity/Intensity | Nausea | MODERATE | MAXIMUM | 4 | VISIT 4 | 2006-02-16 | SINCE LAST VISIT |", "score": 0.5176, "match_basis": "verbatim_token+domain_route:FA"}, {"md_atom_id": "md_dmFA_ex_a125", "md_file": "knowledge_base/domains/FA/examples.md", "md_atom_type": "TABLE_ROW", "md_parent_section": "§FA.5 [Example 5]", "md_verbatim": "| 10 | XYZ | FA | XYZ-701-002 | 10 | SEV | Severity/Intensity | Nausea | GERD SYMPTOMS | MODERATE | | MODERATE | | | | 1 | VISIT 1 | 2006-02-02 | -PT24H |", "score": 0.5154, "match_basis": "verbatim_token+domain_route:FA"}, {"md_atom_id": "md_dmFA_ex_a022", "md_file": "knowledge_base/domains/FA/examples.md", "md_atom_type": "TABLE_ROW", "md_parent_section": "§FA.1 [Example 1]", "md_verbatim": "| 6 | ABC | FA | ABC-123 | 6 | 90567 | SEV | Severity/Intensity | Migraine | MIGRAINE SYMPTOMS | MODERATE | MODERATE | 2007-05-16 | 30M POST-DOSE | 2 | PT30M | DOSING |", "score": 0.5138, "match_basis": "verbatim_token+domain_route:FA"}], "candidate_count": 5, "zero_candidate": false}
{"pdf_atom_id": "ig34_p0371_a010", "pdf_atom_type": "TABLE_ROW", "pdf_source": "SDTMIG_v3.4", "pdf_page": 371, "pdf_parent_section": "FA – Examples", "pdf_verbatim": "| Joint pain (arthralgia) | ○ Yes   ○ No | ○ Mild   ○ Moderate   ○ Severe |", "figure_ref": null, "candidates": [{"md_atom_id": "md_dmFA_ex_a075", "md_file": "knowledge_base/domains/FA/examples.md", "md_atom_type": "TABLE_ROW", "md_parent_section": "§FA.3 [Example 3]", "md_verbatim": "| 4 | ABC | MH | 001-001 | 4 | JOINT PAIN | Arthralgia | | RHEUMATOID ARTHRITIS HISTORY | SYMPTOMS | Y | Y | MODERATE | 2006-08-13 | | -P6M |", "score": 0.6111, "match_basis": "verbatim_token+domain_route:FA"}, {"md_atom_id": "md_dmFA_ex_a074", "md_file": "knowledge_base/domains/FA/examples.md", "md_atom_type": "TABLE_ROW", "md_parent_section": "§FA.3 [Example 3]", "md_verbatim": "| 3 | ABC | MH | 001-001 | 3 | JOINT SWELLING | Joint swelling | | RHEUMATOID ARTHRITIS HISTORY | SYMPTOMS | Y | Y | MODERATE | 2006-08-13 | | -P6M |", "score": 0.52, "match_basis": "verbatim_token+domain_route:FA"}, {"md_atom_id": "md_dmFA_ex_a150", "md_file": "knowledge_base/domains/FA/examples.md", "md_atom_type": "TABLE_ROW", "md_parent_section": "§FA.6 [Example 6]", "md_verbatim": "| 2 | XYZ | FA | XYZ-US-701-002 | 2 | 1 | SEV | Severity/Intensity | Nausea | MODERATE | MAXIMUM | 3 | VISIT 3 | 2006-02-09 | SINCE LAST VISIT |", "score": 0.5091, "match_basis": "verbatim_token+domain_route:FA"}, {"md_atom_id": "md_dmFA_ex_a151", "md_file": "knowledge_base/domains/FA/examples.md", "md_atom_type": "TABLE_ROW", "md_parent_section": "§FA.6 [Example 6]", "md_verbatim": "| 3 | XYZ | FA | XYZ-US-701-002 | 3 | 1 | SEV | Severity/Intensity | Nausea | MODERATE | MAXIMUM | 4 | VISIT 4 | 2006-02-16 | SINCE LAST VISIT |", "score": 0.5091, "match_basis": "verbatim_token+domain_route:FA"}, {"md_atom_id": "md_dmFA_ex_a125", "md_file": "knowledge_base/domains/FA/examples.md", "md_atom_type": "TABLE_ROW", "md_parent_section": "§FA.5 [Example 5]", "md_verbatim": "| 10 | XYZ | FA | XYZ-701-002 | 10 | SEV | Severity/Intensity | Nausea | GERD SYMPTOMS | MODERATE | | MODERATE | | | | 1 | VISIT 1 | 2006-02-02 | -PT24H |", "score": 0.5071, "match_basis": "verbatim_token+domain_route:FA"}], "candidate_count": 5, "zero_candidate": false}
{"pdf_atom_id": "ig34_p0371_a011", "pdf_atom_type": "TABLE_ROW", "pdf_source": "SDTMIG_v3.4", "pdf_page": 371, "pdf_parent_section": "FA – Examples", "pdf_verbatim": "| Malaise | ○ Yes   ○ No | ○ Mild   ○ Moderate   ○ Severe |", "figure_ref": null, "candidates": [{"md_atom_id": "md_dmFA_ex_a150", "md_file": "knowledge_base/domains/FA/examples.md", "md_atom_type": "TABLE_ROW", "md_parent_section": "§FA.6 [Example 6]", "md_verbatim": "| 2 | XYZ | FA | XYZ-US-701-002 | 2 | 1 | SEV | Severity/Intensity | Nausea | MODERATE | MAXIMUM | 3 | VISIT 3 | 2006-02-09 | SINCE LAST VISIT |", "score": 0.5125, "match_basis": "verbatim_token+domain_route:FA"}, {"md_atom_id": "md_dmFA_ex_a151", "md_file": "knowledge_base/domains/FA/examples.md", "md_atom_type": "TABLE_ROW", "md_parent_section": "§FA.6 [Example 6]", "md_verbatim": "| 3 | XYZ | FA | XYZ-US-701-002 | 3 | 1 | SEV | Severity/Intensity | Nausea | MODERATE | MAXIMUM | 4 | VISIT 4 | 2006-02-16 | SINCE LAST VISIT |", "score": 0.5125, "match_basis": "verbatim_token+domain_route:FA"}, {"md_atom_id": "md_dmFA_ex_a125", "md_file": "knowledge_base/domains/FA/examples.md", "md_atom_type": "TABLE_ROW", "md_parent_section": "§FA.5 [Example 5]", "md_verbatim": "| 10 | XYZ | FA | XYZ-701-002 | 10 | SEV | Severity/Intensity | Nausea | GERD SYMPTOMS | MODERATE | | MODERATE | | | | 1 | VISIT 1 | 2006-02-02 | -PT24H |", "score": 0.5102, "match_basis": "verbatim_token+domain_route:FA"}, {"md_atom_id": "md_dmFA_ex_a022", "md_file": "knowledge_base/domains/FA/examples.md", "md_atom_type": "TABLE_ROW", "md_parent_section": "§FA.1 [Example 1]", "md_verbatim": "| 6 | ABC | FA | ABC-123 | 6 | 90567 | SEV | Severity/Intensity | Migraine | MIGRAINE SYMPTOMS | MODERATE | MODERATE | 2007-05-16 | 30M POST-DOSE | 2 | PT30M | DOSING |", "score": 0.4964, "match_basis": "verbatim_token+domain_route:FA"}, {"md_atom_id": "md_dmFA_ex_a142", "md_file": "knowledge_base/domains/FA/examples.md", "md_atom_type": "TABLE_ROW", "md_parent_section": "§FA.6 [Example 6]", "md_verbatim": "| 1 | AE | 123 | 1 | 1 | Morning queasiness | Nausea | MODERATE | 2006-02-01 | 2006-02-23 |", "score": 0.4947, "match_basis": "verbatim_token+domain_route:FA"}], "candidate_count": 5, "zero_candidate": false}
{"pdf_atom_id": "ig34_p0371_a012", "pdf_atom_type": "TABLE_ROW", "pdf_source": "SDTMIG_v3.4", "pdf_page": 371, "pdf_parent_section": "FA – Examples", "pdf_verbatim": "| Early morning stiffness | ○ Yes   ○ No | If yes, what was its average daily duration? ___Hours ___Minutes |", "figure_ref": null, "candidates": [{"md_atom_id": "md_dmFA_ex_a081", "md_file": "knowledge_base/domains/FA/examples.md", "md_atom_type": "TABLE_ROW", "md_parent_section": "§FA.3 [Example 3]", "md_verbatim": "| 1 | ABC | MH | 001-001 | MHSEQ | 6 | MHAVDDUR | Average Daily Duration | PT1H30M | CRF | |", "score": 0.5448, "match_basis": "verbatim_token+domain_route:FA"}, {"md_atom_id": "md_dmFA_ex_a077", "md_file": "knowledge_base/domains/FA/examples.md", "md_atom_type": "TABLE_ROW", "md_parent_section": "§FA.3 [Example 3]", "md_verbatim": "| 6 | ABC | MH | 001-001 | 6 | EARLY MORNING STIFFNESS | Stiffness | | RHEUMATOID ARTHRITIS HISTORY | SYMPTOMS | Y | | | 2006-08-13 | | -P6M |", "score": 0.5233, "match_basis": "verbatim_token+domain_route:FA"}, {"md_atom_id": "md_dmFA_ex_a142", "md_file": "knowledge_base/domains/FA/examples.md", "md_atom_type": "TABLE_ROW", "md_parent_section": "§FA.6 [Example 6]", "md_verbatim": "| 1 | AE | 123 | 1 | 1 | Morning queasiness | Nausea | MODERATE | 2006-02-01 | 2006-02-23 |", "score": 0.4915, "match_basis": "verbatim_token+domain_route:FA"}, {"md_atom_id": "md_dmFA_ex_a073", "md_file": "knowledge_base/domains/FA/examples.md", "md_atom_type": "TABLE_ROW", "md_parent_section": "§FA.3 [Example 3]", "md_verbatim": "| 2 | ABC | MH | 001-001 | 2 | JOINT STIFFNESS | Joint stiffness | | RHEUMATOID ARTHRITIS HISTORY | SYMPTOMS | Y | Y | SEVERE | 2006-08-13 | | -P6M |", "score": 0.4608, "match_basis": "verbatim_token+domain_route:FA"}, {"md_atom_id": "md_dmFA_ex_a043", "md_file": "knowledge_base/domains/FA/examples.md", "md_atom_type": "TABLE_ROW", "md_parent_section": "§FA.2 [Example 2]", "md_verbatim": "| 1 | XYZ | AE | XYZ-789 | 47869 | 5 | Injection site rash | General disorders and administration site conditions | ARM | LEFT | MILD | N | NOT APPLICABLE | 2007-05-10 |", "score": 0.4371, "match_basis": "verbatim_token+domain_route:FA"}], "candidate_count": 5, "zero_candidate": false}
{"pdf_atom_id": "ig34_p0371_a013", "pdf_atom_type": "SENTENCE", "pdf_source": "SDTMIG_v3.4", "pdf_page": 371, "pdf_parent_section": "FA – Examples", "pdf_verbatim": "In this study, data were collected only at baseline. Because the occurrence and severity apply to the symptoms as a whole, they are represented in the MH domain. Note that the average duration of early morning stiffness cannot be represented in MHDUR because MHDUR would be the duration of the entire event, rather than the average of daily durations.", "figure_ref": null, "candidates": [{"md_atom_id": "md_dmFA_ex_a067", "md_file": "knowledge_base/domains/FA/examples.md", "md_atom_type": "SENTENCE", "md_parent_section": "§FA.3 [Example 3]", "md_verbatim": "In this study, data were collected only at baseline. Because the occurrence and severity apply to the symptoms as a whole, they are represented in the MH domain. Note that the average duration of early morning stiffness cannot be represented in MHDUR because MHDUR would be the duration of the entire event, rather than the average of daily durations.", "score": 1.0, "match_basis": "verbatim_token+domain_route:FA"}, {"md_atom_id": "md_dmFA_ex_a078", "md_file": "knowledge_base/domains/FA/examples.md", "md_atom_type": "SENTENCE", "md_parent_section": "§FA.3 [Example 3]", "md_verbatim": "The average duration of early morning stiffness would be represented in ISO 8601 duration format as a supplemental qualifier.", "score": 0.5702, "match_basis": "verbatim_token+domain_route:FA"}, {"md_atom_id": "md_dmFA_ex_a014", "md_file": "knowledge_base/domains/FA/examples.md", "md_atom_type": "SENTENCE", "md_parent_section": "§FA.1 [Example 1]", "md_verbatim": "**Rows 2-5, 7-10, 12-15:** The presence of symptoms associated with migraine was represented with the name of the symptom in FAOBJ, as the data collected is about the occurrence of a particular symptom. The test code value \"OCCUR\" is derived from the events class variable name --OCCUR, but is an assessment at a point in time, rather than about the event as a whole. The relationship of these symptoms to migraine is represented in FACAT, which indicates that these data were collected in the Migraine Symptoms Diary.", "score": 0.5559, "match_basis": "verbatim_token+domain_route:FA"}, {"md_atom_id": "md_dmFA_ex_a106", "md_file": "knowledge_base/domains/FA/examples.md", "md_atom_type": "SENTENCE", "md_parent_section": "§FA.5 [Example 5]", "md_verbatim": "The collected data were represented in FA because they meet criterion 1 in Section 6.4.1, When to Use Findings About Events or Interventions, that is, data that do not describe an event or intervention as a whole. In addition, the volume of vomit data met criterion 2 data (\"about\" an event or intervention), having qualifiers that can be represented in Findings variables (e.g., units, method).", "score": 0.5385, "match_basis": "verbatim_token+domain_route:FA"}, {"md_atom_id": "md_dmFA_ex_a040", "md_file": "knowledge_base/domains/FA/examples.md", "md_atom_type": "SENTENCE", "md_parent_section": "§FA.2 [Example 2]", "md_verbatim": "Additional data about the rash were collected at visits 3 and 4, which occurred 2 days and 9 days after the start of the rash. These data were represented in an FA dataset because they were not about the event as a whole (see Section 6.4.1, When to Use Findings About Events or Interventions, criterion 1). In addition, the measurement of the rash requires multiple variables (value and unit) for its representation and the numbers of various kinds of lesions within the rash are a set of similar assessments of the event (see Section 6.4.1, When to Use Findings About Events or Interventions, criterion 2).", "score": 0.5372, "match_basis": "verbatim_token+domain_route:FA"}], "candidate_count": 5, "zero_candidate": false}
{"pdf_atom_id": "ig34_p0371_a014", "pdf_atom_type": "LIST_ITEM", "pdf_source": "SDTMIG_v3.4", "pdf_page": 371, "pdf_parent_section": "FA – Examples", "pdf_verbatim": "Row 1: Because the CRF specifically collected date of diagnosis for rheumatoid arthritis, MHEVDTYP is populated with DIAGNOSIS to indicate that the date in MHSTDTC is the date of diagnosis.", "figure_ref": null, "candidates": [{"md_atom_id": "md_dmFA_ex_a068", "md_file": "knowledge_base/domains/FA/examples.md", "md_atom_type": "SENTENCE", "md_parent_section": "§FA.3 [Example 3]", "md_verbatim": "**Row 1:** Because the CRF specifically collected date of diagnosis for rheumatoid arthritis, MHEVDTYP is populated with DIAGNOSIS to indicate that the date in MHSTDTC is the date of diagnosis.", "score": 0.91, "match_basis": "verbatim_token+domain_route:FA"}, {"md_atom_id": "md_dmFA_assn_a007", "md_file": "knowledge_base/domains/FA/assumptions.md", "md_atom_type": "LIST_ITEM", "md_parent_section": "§FA [FA — Assumptions]", "md_verbatim": "5. When data collection establishes a relationship between FA records and an events or interventions record, the relationship should be represented in RELREC.", "score": 0.4419, "match_basis": "verbatim_token+domain_route:FA"}, {"md_atom_id": "md_dmFA_assn_a008", "md_file": "knowledge_base/domains/FA/assumptions.md", "md_atom_type": "LIST_ITEM", "md_parent_section": "§FA [FA — Assumptions]", "md_verbatim": "   a. The FAOBJ variable alone is not sufficient to establish a relationship, because an events or interventions dataset may have multiple records for the same topic (e.g., --TERM or --DECOD, --TRT or --DECOD).", "score": 0.4414, "match_basis": "verbatim_token+domain_route:FA"}, {"md_atom_id": "md_dmFA_ex_a066", "md_file": "knowledge_base/domains/FA/examples.md", "md_atom_type": "SENTENCE", "md_parent_section": "§FA.3 [Example 3]", "md_verbatim": "This CRF collects information about rheumatoid arthritis. In this scenario, rheumatoid arthritis is a prerequisite for participation in an osteoporosis trial and was not collected as a Medical History (MH) event.", "score": 0.4408, "match_basis": "verbatim_token+domain_route:FA"}, {"md_atom_id": "md_dmFA_assn_a009", "md_file": "knowledge_base/domains/FA/assumptions.md", "md_atom_type": "LIST_ITEM", "md_parent_section": "§FA [FA — Assumptions]", "md_verbatim": "6. Any Identifier variables, Timing variables, or Findings general observation-class qualifiers may be added to the FA domain, but the following qualifiers should generally not be used: --BODSYS, --MODIFY, --SEV, --TOXGR.", "score": 0.432, "match_basis": "verbatim_token+domain_route:FA"}], "candidate_count": 5, "zero_candidate": false}
{"pdf_atom_id": "ig34_p0371_a015", "pdf_atom_type": "LIST_ITEM", "pdf_source": "SDTMIG_v3.4", "pdf_page": 371, "pdf_parent_section": "FA – Examples", "pdf_verbatim": "Rows 2-6: No start or end dates were collected for the symptoms, so the variable MHEVDTYP is not relevant for those records. MHEVDTYP is used only to specify the aspect of the event used to determine start and/or end dates.", "figure_ref": null, "candidates": [{"md_atom_id": "md_dmFA_ex_a069", "md_file": "knowledge_base/domains/FA/examples.md", "md_atom_type": "SENTENCE", "md_parent_section": "§FA.3 [Example 3]", "md_verbatim": "**Rows 2-6:** No start or end dates were collected for the symptoms, so the variable MHEVDTYP is not relevant for those records. MHEVDTYP is used only to specify the aspect of the event used to determine start and/or end dates.", "score": 0.91, "match_basis": "verbatim_token+domain_route:FA"}, {"md_atom_id": "md_dmFA_assn_a007", "md_file": "knowledge_base/domains/FA/assumptions.md", "md_atom_type": "LIST_ITEM", "md_parent_section": "§FA [FA — Assumptions]", "md_verbatim": "5. When data collection establishes a relationship between FA records and an events or interventions record, the relationship should be represented in RELREC.", "score": 0.5077, "match_basis": "verbatim_token+domain_route:FA"}, {"md_atom_id": "md_dmFA_assn_a008", "md_file": "knowledge_base/domains/FA/assumptions.md", "md_atom_type": "LIST_ITEM", "md_parent_section": "§FA [FA — Assumptions]", "md_verbatim": "   a. The FAOBJ variable alone is not sufficient to establish a relationship, because an events or interventions dataset may have multiple records for the same topic (e.g., --TERM or --DECOD, --TRT or --DECOD).", "score": 0.5045, "match_basis": "verbatim_token+domain_route:FA"}, {"md_atom_id": "md_dmFA_assn_a005", "md_file": "knowledge_base/domains/FA/assumptions.md", "md_atom_type": "LIST_ITEM", "md_parent_section": "§FA [FA — Assumptions]", "md_verbatim": "4. Some variables in the events and interventions domains (e.g., OCCUR, SEV, TOXGR) represent findings about the whole of the event or intervention. When FA is used to represent findings about a part of the event or intervention (i.e., the assessment has different timing from the event as a whole), the FATEST and FATESTCD values should be the same as the variable name and variable label in the corresponding event or intervention domain. See Section 6.4.3, Variables Unique to Findings About.", "score": 0.4754, "match_basis": "verbatim_token+domain_route:FA"}, {"md_atom_id": "md_dmFA_ex_a134", "md_file": "knowledge_base/domains/FA/examples.md", "md_atom_type": "LIST_ITEM", "md_parent_section": "§FA.6 [Example 6]", "md_verbatim": "- A module for the adverse event, where a record would be entered for each event", "score": 0.4717, "match_basis": "verbatim_token+domain_route:FA"}], "candidate_count": 5, "zero_candidate": false}
{"pdf_atom_id": "ig34_p0371_a016", "pdf_atom_type": "CODE_LITERAL", "pdf_source": "SDTMIG_v3.4", "pdf_page": 371, "pdf_parent_section": "FA – Examples", "pdf_verbatim": "mh.xpt", "figure_ref": null, "candidates": [{"md_atom_id": "md_dmFA_ex_a005", "md_file": "knowledge_base/domains/FA/examples.md", "md_atom_type": "SENTENCE", "md_parent_section": "§FA.1 [Example 1]", "md_verbatim": "**ce.xpt**", "score": 0.79, "match_basis": "verbatim_token+domain_route:FA"}, {"md_atom_id": "md_dmFA_ex_a009", "md_file": "knowledge_base/domains/FA/examples.md", "md_atom_type": "SENTENCE", "md_parent_section": "§FA.1 [Example 1]", "md_verbatim": "**ex.xpt**", "score": 0.79, "match_basis": "verbatim_token+domain_route:FA"}, {"md_atom_id": "md_dmFA_ex_a041", "md_file": "knowledge_base/domains/FA/examples.md", "md_atom_type": "SENTENCE", "md_parent_section": "§FA.2 [Example 2]", "md_verbatim": "**ae.xpt**", "score": 0.79, "match_basis": "verbatim_token+domain_route:FA"}, {"md_atom_id": "md_dmFA_ex_a070", "md_file": "knowledge_base/domains/FA/examples.md", "md_atom_type": "SENTENCE", "md_parent_section": "§FA.3 [Example 3]", "md_verbatim": "**mh.xpt**", "score": 0.79, "match_basis": "verbatim_token+domain_route:FA"}, {"md_atom_id": "md_dmFA_ex_a098", "md_file": "knowledge_base/domains/FA/examples.md", "md_atom_type": "SENTENCE", "md_parent_section": "§FA.4 [Example 4]", "md_verbatim": "**ae.xpt**", "score": 0.79, "match_basis": "verbatim_token+domain_route:FA"}, {"md_atom_id": "md_dmFA_ex_a140", "md_file": "knowledge_base/domains/FA/examples.md", "md_atom_type": "SENTENCE", "md_parent_section": "§FA.6 [Example 6]", "md_verbatim": "**ae.xpt**", "score": 0.79, "match_basis": "verbatim_token+domain_route:FA"}, {"md_atom_id": "md_dmFA_ex_a015", "md_file": "knowledge_base/domains/FA/examples.md", "md_atom_type": "SENTENCE", "md_parent_section": "§FA.1 [Example 1]", "md_verbatim": "**face.xpt**", "score": 0.39, "match_basis": "verbatim_token+domain_route:FA"}, {"md_atom_id": "md_dmFA_ex_a044", "md_file": "knowledge_base/domains/FA/examples.md", "md_atom_type": "SENTENCE", "md_parent_section": "§FA.2 [Example 2]", "md_verbatim": "**faae.xpt**", "score": 0.39, "match_basis": "verbatim_token+domain_route:FA"}, {"md_atom_id": "md_dmFA_ex_a088", "md_file": "knowledge_base/domains/FA/examples.md", "md_atom_type": "SENTENCE", "md_parent_section": "§FA.4 [Example 4]", "md_verbatim": "**faae.xpt**", "score": 0.39, "match_basis": "verbatim_token+domain_route:FA"}, {"md_atom_id": "md_dmFA_ex_a114", "md_file": "knowledge_base/domains/FA/examples.md", "md_atom_type": "SENTENCE", "md_parent_section": "§FA.5 [Example 5]", "md_verbatim": "**face.xpt**", "score": 0.39, "match_basis": "verbatim_token+domain_route:FA"}], "candidate_count": 10, "zero_candidate": false}
{"pdf_atom_id": "ig34_p0371_a017", "pdf_atom_type": "TABLE_HEADER", "pdf_source": "SDTMIG_v3.4", "pdf_page": 371, "pdf_parent_section": "FA – Examples", "pdf_verbatim": "| Row | STUDYID | DOMAIN | USUBJID | MHSEQ | MHTERM | MHDECOD | MHEVDTYP | MHCAT | MHSCAT | MHPRESP | MHOCCUR | MHSEV | MHDTC | MHSTDTC | MHEVLINT |", "figure_ref": null, "candidates": [{"md_atom_id": "md_dmFA_ex_a071", "md_file": "knowledge_base/domains/FA/examples.md", "md_atom_type": "TABLE_HEADER", "md_parent_section": "§FA.3 [Example 3]", "md_verbatim": "| Row | STUDYID | DOMAIN | USUBJID | MHSEQ | MHTERM | MHDECOD | MHEVDTYP | MHCAT | MHSCAT | MHPRESP | MHOCCUR | MHSEV | MHDTC | MHSTDTC | MHEVLINT |\n|-----|---------|--------|---------|-------|--------|---------|----------|-------|--------|---------|---------|-------|-------|---------|----------|", "score": 1.0, "match_basis": "verbatim_token+domain_route:FA"}, {"md_atom_id": "md_dmFA_ex_a006", "md_file": "knowledge_base/domains/FA/examples.md", "md_atom_type": "TABLE_HEADER", "md_parent_section": "§FA.1 [Example 1]", "md_verbatim": "| Row | STUDYID | DOMAIN | USUBJID | CESEQ | CESPID | CETERM | CEDECOD | CESTDTC |\n|-----|---------|--------|---------|-------|--------|--------|---------|---------|", "score": 0.6239, "match_basis": "verbatim_token+domain_route:FA"}, {"md_atom_id": "md_dmFA_ex_a099", "md_file": "knowledge_base/domains/FA/examples.md", "md_atom_type": "TABLE_HEADER", "md_parent_section": "§FA.4 [Example 4]", "md_verbatim": "| Row | STUDYID | DOMAIN | USUBJID | AESEQ | AETERM | AEDECOD | AEPRESP | AEBODSYS | AESEV | AEACN | AESTDTC | AEENDTC |\n|-----|---------|--------|---------|-------|--------|---------|---------|----------|-------|-------|---------|---------|", "score": 0.61, "match_basis": "verbatim_token+domain_route:FA"}, {"md_atom_id": "md_dmFA_ex_a141", "md_file": "knowledge_base/domains/FA/examples.md", "md_atom_type": "TABLE_HEADER", "md_parent_section": "§FA.6 [Example 6]", "md_verbatim": "| Row | DOMAIN | USUBJID | AESEQ | AESPID | AETERM | AEDECOD | AESEV | AESTDTC | AEENDTC |\n|-----|--------|---------|-------|--------|--------|---------|-------|---------|---------|", "score": 0.5775, "match_basis": "verbatim_token+domain_route:FA"}, {"md_atom_id": "md_dmFA_ex_a042", "md_file": "knowledge_base/domains/FA/examples.md", "md_atom_type": "TABLE_HEADER", "md_parent_section": "§FA.2 [Example 2]", "md_verbatim": "| Row | STUDYID | DOMAIN | USUBJID | AESEQ | AESPID | AETERM | AEBODSYS | AELOC | AELAT | AESEV | AESER | AEACN | AESTDTC |\n|-----|---------|--------|---------|-------|--------|--------|----------|-------|-------|-------|-------|-------|---------|", "score": 0.5725, "match_basis": "verbatim_token+domain_route:FA"}], "candidate_count": 5, "zero_candidate": false}
{"pdf_atom_id": "ig34_p0371_a018", "pdf_atom_type": "TABLE_ROW", "pdf_source": "SDTMIG_v3.4", "pdf_page": 371, "pdf_parent_section": "FA – Examples", "pdf_verbatim": "| 1 | ABC | MH | 001-001 | 1 | RHEUMATOID ARTHRITIS | Rheumatoid arthritis | DIAGNOSIS | RHEUMATOID ARTHRITIS HISTORY |  | Y | Y |  |  | 2003 |  |", "figure_ref": null, "candidates": [{"md_atom_id": "md_dmFA_ex_a072", "md_file": "knowledge_base/domains/FA/examples.md", "md_atom_type": "TABLE_ROW", "md_parent_section": "§FA.3 [Example 3]", "md_verbatim": "| 1 | ABC | MH | 001-001 | 1 | RHEUMATOID ARTHRITIS | Rheumatoid arthritis | DIAGNOSIS | RHEUMATOID ARTHRITIS HISTORY | | Y | Y | | | 2003 | -P6M |", "score": 0.9812, "match_basis": "verbatim_token+domain_route:FA"}, {"md_atom_id": "md_dmFA_ex_a076", "md_file": "knowledge_base/domains/FA/examples.md", "md_atom_type": "TABLE_ROW", "md_parent_section": "§FA.3 [Example 3]", "md_verbatim": "| 5 | ABC | MH | 001-001 | 5 | MALAISE | Malaise | | RHEUMATOID ARTHRITIS HISTORY | SYMPTOMS | Y | Y | MILD | 2006-08-13 | | -P6M |", "score": 0.7, "match_basis": "verbatim_token+domain_route:FA"}, {"md_atom_id": "md_dmFA_ex_a073", "md_file": "knowledge_base/domains/FA/examples.md", "md_atom_type": "TABLE_ROW", "md_parent_section": "§FA.3 [Example 3]", "md_verbatim": "| 2 | ABC | MH | 001-001 | 2 | JOINT STIFFNESS | Joint stiffness | | RHEUMATOID ARTHRITIS HISTORY | SYMPTOMS | Y | Y | SEVERE | 2006-08-13 | | -P6M |", "score": 0.6604, "match_basis": "verbatim_token+domain_route:FA"}, {"md_atom_id": "md_dmFA_ex_a074", "md_file": "knowledge_base/domains/FA/examples.md", "md_atom_type": "TABLE_ROW", "md_parent_section": "§FA.3 [Example 3]", "md_verbatim": "| 3 | ABC | MH | 001-001 | 3 | JOINT SWELLING | Joint swelling | | RHEUMATOID ARTHRITIS HISTORY | SYMPTOMS | Y | Y | MODERATE | 2006-08-13 | | -P6M |", "score": 0.6556, "match_basis": "verbatim_token+domain_route:FA"}, {"md_atom_id": "md_dmFA_ex_a077", "md_file": "knowledge_base/domains/FA/examples.md", "md_atom_type": "TABLE_ROW", "md_parent_section": "§FA.3 [Example 3]", "md_verbatim": "| 6 | ABC | MH | 001-001 | 6 | EARLY MORNING STIFFNESS | Stiffness | | RHEUMATOID ARTHRITIS HISTORY | SYMPTOMS | Y | | | 2006-08-13 | | -P6M |", "score": 0.6556, "match_basis": "verbatim_token+domain_route:FA"}], "candidate_count": 5, "zero_candidate": false}
{"pdf_atom_id": "ig34_p0371_a019", "pdf_atom_type": "TABLE_ROW", "pdf_source": "SDTMIG_v3.4", "pdf_page": 371, "pdf_parent_section": "FA – Examples", "pdf_verbatim": "| 2 | ABC | MH | 001-001 | 2 | JOINT STIFFNESS | Joint stiffness |  | RHEUMATOID ARTHRITIS HISTORY | RHEUMATOID ARTHRITIS SYMPTOMS | Y | Y | SEVERE | 2006-08-13 |  | -P6M |", "figure_ref": null, "candidates": [{"md_atom_id": "md_dmFA_ex_a073", "md_file": "knowledge_base/domains/FA/examples.md", "md_atom_type": "TABLE_ROW", "md_parent_section": "§FA.3 [Example 3]", "md_verbatim": "| 2 | ABC | MH | 001-001 | 2 | JOINT STIFFNESS | Joint stiffness | | RHEUMATOID ARTHRITIS HISTORY | SYMPTOMS | Y | Y | SEVERE | 2006-08-13 | | -P6M |", "score": 1.0, "match_basis": "verbatim_token+domain_route:FA"}, {"md_atom_id": "md_dmFA_ex_a077", "md_file": "knowledge_base/domains/FA/examples.md", "md_atom_type": "TABLE_ROW", "md_parent_section": "§FA.3 [Example 3]", "md_verbatim": "| 6 | ABC | MH | 001-001 | 6 | EARLY MORNING STIFFNESS | Stiffness | | RHEUMATOID ARTHRITIS HISTORY | SYMPTOMS | Y | | | 2006-08-13 | | -P6M |", "score": 0.8302, "match_basis": "verbatim_token+domain_route:FA"}, {"md_atom_id": "md_dmFA_ex_a074", "md_file": "knowledge_base/domains/FA/examples.md", "md_atom_type": "TABLE_ROW", "md_parent_section": "§FA.3 [Example 3]", "md_verbatim": "| 3 | ABC | MH | 001-001 | 3 | JOINT SWELLING | Joint swelling | | RHEUMATOID ARTHRITIS HISTORY | SYMPTOMS | Y | Y | MODERATE | 2006-08-13 | | -P6M |", "score": 0.7579, "match_basis": "verbatim_token+domain_route:FA"}, {"md_atom_id": "md_dmFA_ex_a076", "md_file": "knowledge_base/domains/FA/examples.md", "md_atom_type": "TABLE_ROW", "md_parent_section": "§FA.3 [Example 3]", "md_verbatim": "| 5 | ABC | MH | 001-001 | 5 | MALAISE | Malaise | | RHEUMATOID ARTHRITIS HISTORY | SYMPTOMS | Y | Y | MILD | 2006-08-13 | | -P6M |", "score": 0.7577, "match_basis": "verbatim_token+domain_route:FA"}, {"md_atom_id": "md_dmFA_ex_a075", "md_file": "knowledge_base/domains/FA/examples.md", "md_atom_type": "TABLE_ROW", "md_parent_section": "§FA.3 [Example 3]", "md_verbatim": "| 4 | ABC | MH | 001-001 | 4 | JOINT PAIN | Arthralgia | | RHEUMATOID ARTHRITIS HISTORY | SYMPTOMS | Y | Y | MODERATE | 2006-08-13 | | -P6M |", "score": 0.7517, "match_basis": "verbatim_token+domain_route:FA"}], "candidate_count": 5, "zero_candidate": false}
{"pdf_atom_id": "ig34_p0371_a020", "pdf_atom_type": "TABLE_ROW", "pdf_source": "SDTMIG_v3.4", "pdf_page": 371, "pdf_parent_section": "FA – Examples", "pdf_verbatim": "| 3 | ABC | MH | 001-001 | 3 | JOINT SWELLING | Joint swelling |  | RHEUMATOID ARTHRITIS HISTORY | RHEUMATOID ARTHRITIS SYMPTOMS | Y | Y | MODERATE | 2006-08-13 |  | -P6M |", "figure_ref": null, "candidates": [{"md_atom_id": "md_dmFA_ex_a074", "md_file": "knowledge_base/domains/FA/examples.md", "md_atom_type": "TABLE_ROW", "md_parent_section": "§FA.3 [Example 3]", "md_verbatim": "| 3 | ABC | MH | 001-001 | 3 | JOINT SWELLING | Joint swelling | | RHEUMATOID ARTHRITIS HISTORY | SYMPTOMS | Y | Y | MODERATE | 2006-08-13 | | -P6M |", "score": 1.0, "match_basis": "verbatim_token+domain_route:FA"}, {"md_atom_id": "md_dmFA_ex_a075", "md_file": "knowledge_base/domains/FA/examples.md", "md_atom_type": "TABLE_ROW", "md_parent_section": "§FA.3 [Example 3]", "md_verbatim": "| 4 | ABC | MH | 001-001 | 4 | JOINT PAIN | Arthralgia | | RHEUMATOID ARTHRITIS HISTORY | SYMPTOMS | Y | Y | MODERATE | 2006-08-13 | | -P6M |", "score": 0.8528, "match_basis": "verbatim_token+domain_route:FA"}, {"md_atom_id": "md_dmFA_ex_a073", "md_file": "knowledge_base/domains/FA/examples.md", "md_atom_type": "TABLE_ROW", "md_parent_section": "§FA.3 [Example 3]", "md_verbatim": "| 2 | ABC | MH | 001-001 | 2 | JOINT STIFFNESS | Joint stiffness | | RHEUMATOID ARTHRITIS HISTORY | SYMPTOMS | Y | Y | SEVERE | 2006-08-13 | | -P6M |", "score": 0.7579, "match_basis": "verbatim_token+domain_route:FA"}, {"md_atom_id": "md_dmFA_ex_a076", "md_file": "knowledge_base/domains/FA/examples.md", "md_atom_type": "TABLE_ROW", "md_parent_section": "§FA.3 [Example 3]", "md_verbatim": "| 5 | ABC | MH | 001-001 | 5 | MALAISE | Malaise | | RHEUMATOID ARTHRITIS HISTORY | SYMPTOMS | Y | Y | MILD | 2006-08-13 | | -P6M |", "score": 0.7509, "match_basis": "verbatim_token+domain_route:FA"}, {"md_atom_id": "md_dmFA_ex_a077", "md_file": "knowledge_base/domains/FA/examples.md", "md_atom_type": "TABLE_ROW", "md_parent_section": "§FA.3 [Example 3]", "md_verbatim": "| 6 | ABC | MH | 001-001 | 6 | EARLY MORNING STIFFNESS | Stiffness | | RHEUMATOID ARTHRITIS HISTORY | SYMPTOMS | Y | | | 2006-08-13 | | -P6M |", "score": 0.72, "match_basis": "verbatim_token+domain_route:FA"}], "candidate_count": 5, "zero_candidate": false}
{"pdf_atom_id": "ig34_p0371_a021", "pdf_atom_type": "TABLE_ROW", "pdf_source": "SDTMIG_v3.4", "pdf_page": 371, "pdf_parent_section": "FA – Examples", "pdf_verbatim": "| 4 | ABC | MH | 001-001 | 4 | JOINT PAIN | Arthralgia |  | RHEUMATOID ARTHRITIS HISTORY | RHEUMATOID ARTHRITIS SYMPTOMS | Y | Y | MODERATE | 2006-08-13 |  | -P6M |", "figure_ref": null, "candidates": [{"md_atom_id": "md_dmFA_ex_a075", "md_file": "knowledge_base/domains/FA/examples.md", "md_atom_type": "TABLE_ROW", "md_parent_section": "§FA.3 [Example 3]", "md_verbatim": "| 4 | ABC | MH | 001-001 | 4 | JOINT PAIN | Arthralgia | | RHEUMATOID ARTHRITIS HISTORY | SYMPTOMS | Y | Y | MODERATE | 2006-08-13 | | -P6M |", "score": 1.0, "match_basis": "verbatim_token+domain_route:FA"}, {"md_atom_id": "md_dmFA_ex_a074", "md_file": "knowledge_base/domains/FA/examples.md", "md_atom_type": "TABLE_ROW", "md_parent_section": "§FA.3 [Example 3]", "md_verbatim": "| 3 | ABC | MH | 001-001 | 3 | JOINT SWELLING | Joint swelling | | RHEUMATOID ARTHRITIS HISTORY | SYMPTOMS | Y | Y | MODERATE | 2006-08-13 | | -P6M |", "score": 0.8528, "match_basis": "verbatim_token+domain_route:FA"}, {"md_atom_id": "md_dmFA_ex_a073", "md_file": "knowledge_base/domains/FA/examples.md", "md_atom_type": "TABLE_ROW", "md_parent_section": "§FA.3 [Example 3]", "md_verbatim": "| 2 | ABC | MH | 001-001 | 2 | JOINT STIFFNESS | Joint stiffness | | RHEUMATOID ARTHRITIS HISTORY | SYMPTOMS | Y | Y | SEVERE | 2006-08-13 | | -P6M |", "score": 0.7517, "match_basis": "verbatim_token+domain_route:FA"}, {"md_atom_id": "md_dmFA_ex_a076", "md_file": "knowledge_base/domains/FA/examples.md", "md_atom_type": "TABLE_ROW", "md_parent_section": "§FA.3 [Example 3]", "md_verbatim": "| 5 | ABC | MH | 001-001 | 5 | MALAISE | Malaise | | RHEUMATOID ARTHRITIS HISTORY | SYMPTOMS | Y | Y | MILD | 2006-08-13 | | -P6M |", "score": 0.7444, "match_basis": "verbatim_token+domain_route:FA"}, {"md_atom_id": "md_dmFA_ex_a077", "md_file": "knowledge_base/domains/FA/examples.md", "md_atom_type": "TABLE_ROW", "md_parent_section": "§FA.3 [Example 3]", "md_verbatim": "| 6 | ABC | MH | 001-001 | 6 | EARLY MORNING STIFFNESS | Stiffness | | RHEUMATOID ARTHRITIS HISTORY | SYMPTOMS | Y | | | 2006-08-13 | | -P6M |", "score": 0.7, "match_basis": "verbatim_token+domain_route:FA"}], "candidate_count": 5, "zero_candidate": false}
{"pdf_atom_id": "ig34_p0371_a022", "pdf_atom_type": "TABLE_ROW", "pdf_source": "SDTMIG_v3.4", "pdf_page": 371, "pdf_parent_section": "FA – Examples", "pdf_verbatim": "| 5 | ABC | MH | 001-001 | 5 | MALAISE | Malaise |  | RHEUMATOID ARTHRITIS HISTORY | RHEUMATOID ARTHRITIS SYMPTOMS | Y | Y | MILD | 2006-08-13 |  | -P6M |", "figure_ref": null, "candidates": [{"md_atom_id": "md_dmFA_ex_a076", "md_file": "knowledge_base/domains/FA/examples.md", "md_atom_type": "TABLE_ROW", "md_parent_section": "§FA.3 [Example 3]", "md_verbatim": "| 5 | ABC | MH | 001-001 | 5 | MALAISE | Malaise | | RHEUMATOID ARTHRITIS HISTORY | SYMPTOMS | Y | Y | MILD | 2006-08-13 | | -P6M |", "score": 1.0, "match_basis": "verbatim_token+domain_route:FA"}, {"md_atom_id": "md_dmFA_ex_a073", "md_file": "knowledge_base/domains/FA/examples.md", "md_atom_type": "TABLE_ROW", "md_parent_section": "§FA.3 [Example 3]", "md_verbatim": "| 2 | ABC | MH | 001-001 | 2 | JOINT STIFFNESS | Joint stiffness | | RHEUMATOID ARTHRITIS HISTORY | SYMPTOMS | Y | Y | SEVERE | 2006-08-13 | | -P6M |", "score": 0.7577, "match_basis": "verbatim_token+domain_route:FA"}, {"md_atom_id": "md_dmFA_ex_a074", "md_file": "knowledge_base/domains/FA/examples.md", "md_atom_type": "TABLE_ROW", "md_parent_section": "§FA.3 [Example 3]", "md_verbatim": "| 3 | ABC | MH | 001-001 | 3 | JOINT SWELLING | Joint swelling | | RHEUMATOID ARTHRITIS HISTORY | SYMPTOMS | Y | Y | MODERATE | 2006-08-13 | | -P6M |", "score": 0.7509, "match_basis": "verbatim_token+domain_route:FA"}, {"md_atom_id": "md_dmFA_ex_a077", "md_file": "knowledge_base/domains/FA/examples.md", "md_atom_type": "TABLE_ROW", "md_parent_section": "§FA.3 [Example 3]", "md_verbatim": "| 6 | ABC | MH | 001-001 | 6 | EARLY MORNING STIFFNESS | Stiffness | | RHEUMATOID ARTHRITIS HISTORY | SYMPTOMS | Y | | | 2006-08-13 | | -P6M |", "score": 0.7509, "match_basis": "verbatim_token+domain_route:FA"}, {"md_atom_id": "md_dmFA_ex_a075", "md_file": "knowledge_base/domains/FA/examples.md", "md_atom_type": "TABLE_ROW", "md_parent_section": "§FA.3 [Example 3]", "md_verbatim": "| 4 | ABC | MH | 001-001 | 4 | JOINT PAIN | Arthralgia | | RHEUMATOID ARTHRITIS HISTORY | SYMPTOMS | Y | Y | MODERATE | 2006-08-13 | | -P6M |", "score": 0.7444, "match_basis": "verbatim_token+domain_route:FA"}], "candidate_count": 5, "zero_candidate": false}
{"pdf_atom_id": "ig34_p0371_a023", "pdf_atom_type": "TABLE_ROW", "pdf_source": "SDTMIG_v3.4", "pdf_page": 371, "pdf_parent_section": "FA – Examples", "pdf_verbatim": "| 6 | ABC | MH | 001-001 | 6 | EARLY MORNING STIFFNESS | Stiffness |  | RHEUMATOID ARTHRITIS HISTORY | RHEUMATOID ARTHRITIS SYMPTOMS | Y | Y |  | 2006-08-13 |  | -P6M |", "figure_ref": null, "candidates": [{"md_atom_id": "md_dmFA_ex_a077", "md_file": "knowledge_base/domains/FA/examples.md", "md_atom_type": "TABLE_ROW", "md_parent_section": "§FA.3 [Example 3]", "md_verbatim": "| 6 | ABC | MH | 001-001 | 6 | EARLY MORNING STIFFNESS | Stiffness | | RHEUMATOID ARTHRITIS HISTORY | SYMPTOMS | Y | | | 2006-08-13 | | -P6M |", "score": 1.0, "match_basis": "verbatim_token+domain_route:FA"}, {"md_atom_id": "md_dmFA_ex_a073", "md_file": "knowledge_base/domains/FA/examples.md", "md_atom_type": "TABLE_ROW", "md_parent_section": "§FA.3 [Example 3]", "md_verbatim": "| 2 | ABC | MH | 001-001 | 2 | JOINT STIFFNESS | Joint stiffness | | RHEUMATOID ARTHRITIS HISTORY | SYMPTOMS | Y | Y | SEVERE | 2006-08-13 | | -P6M |", "score": 0.8302, "match_basis": "verbatim_token+domain_route:FA"}, {"md_atom_id": "md_dmFA_ex_a076", "md_file": "knowledge_base/domains/FA/examples.md", "md_atom_type": "TABLE_ROW", "md_parent_section": "§FA.3 [Example 3]", "md_verbatim": "| 5 | ABC | MH | 001-001 | 5 | MALAISE | Malaise | | RHEUMATOID ARTHRITIS HISTORY | SYMPTOMS | Y | Y | MILD | 2006-08-13 | | -P6M |", "score": 0.7509, "match_basis": "verbatim_token+domain_route:FA"}, {"md_atom_id": "md_dmFA_ex_a074", "md_file": "knowledge_base/domains/FA/examples.md", "md_atom_type": "TABLE_ROW", "md_parent_section": "§FA.3 [Example 3]", "md_verbatim": "| 3 | ABC | MH | 001-001 | 3 | JOINT SWELLING | Joint swelling | | RHEUMATOID ARTHRITIS HISTORY | SYMPTOMS | Y | Y | MODERATE | 2006-08-13 | | -P6M |", "score": 0.72, "match_basis": "verbatim_token+domain_route:FA"}, {"md_atom_id": "md_dmFA_ex_a075", "md_file": "knowledge_base/domains/FA/examples.md", "md_atom_type": "TABLE_ROW", "md_parent_section": "§FA.3 [Example 3]", "md_verbatim": "| 4 | ABC | MH | 001-001 | 4 | JOINT PAIN | Arthralgia | | RHEUMATOID ARTHRITIS HISTORY | SYMPTOMS | Y | Y | MODERATE | 2006-08-13 | | -P6M |", "score": 0.7, "match_basis": "verbatim_token+domain_route:FA"}], "candidate_count": 5, "zero_candidate": false}
{"pdf_atom_id": "ig34_p0372_a001", "pdf_atom_type": "SENTENCE", "pdf_source": "SDTMIG_v3.4", "pdf_page": 372, "pdf_parent_section": "FA – Examples", "pdf_verbatim": "The average duration of early morning stiffness would be represented in ISO 8601 duration format as a supplemental qualifier.", "figure_ref": null, "candidates": [{"md_atom_id": "md_dmFA_ex_a078", "md_file": "knowledge_base/domains/FA/examples.md", "md_atom_type": "SENTENCE", "md_parent_section": "§FA.3 [Example 3]", "md_verbatim": "The average duration of early morning stiffness would be represented in ISO 8601 duration format as a supplemental qualifier.", "score": 1.0, "match_basis": "verbatim_token+domain_route:FA"}, {"md_atom_id": "md_dmFA_ex_a067", "md_file": "knowledge_base/domains/FA/examples.md", "md_atom_type": "SENTENCE", "md_parent_section": "§FA.3 [Example 3]", "md_verbatim": "In this study, data were collected only at baseline. Because the occurrence and severity apply to the symptoms as a whole, they are represented in the MH domain. Note that the average duration of early morning stiffness cannot be represented in MHDUR because MHDUR would be the duration of the entire event, rather than the average of daily durations.", "score": 0.5702, "match_basis": "verbatim_token+domain_route:FA"}, {"md_atom_id": "md_dmFA_ex_a106", "md_file": "knowledge_base/domains/FA/examples.md", "md_atom_type": "SENTENCE", "md_parent_section": "§FA.5 [Example 5]", "md_verbatim": "The collected data were represented in FA because they meet criterion 1 in Section 6.4.1, When to Use Findings About Events or Interventions, that is, data that do not describe an event or intervention as a whole. In addition, the volume of vomit data met criterion 2 data (\"about\" an event or intervention), having qualifiers that can be represented in Findings variables (e.g., units, method).", "score": 0.4816, "match_basis": "verbatim_token+domain_route:FA"}, {"md_atom_id": "md_dmFA_ex_a039", "md_file": "knowledge_base/domains/FA/examples.md", "md_atom_type": "SENTENCE", "md_parent_section": "§FA.2 [Example 2]", "md_verbatim": "In this scenario, the injection site rash event was considered a reportable adverse event; therefore, the rash itself was represented in the AE domain. The rash assessment form collects a reference number for the AE, represented in AESPID. Certain required or expected variables have been omitted from the example dataset in consideration of space and clarity.", "score": 0.4742, "match_basis": "verbatim_token+domain_route:FA"}, {"md_atom_id": "md_dmFA_ex_a004", "md_file": "knowledge_base/domains/FA/examples.md", "md_atom_type": "SENTENCE", "md_parent_section": "§FA.1 [Example 1]", "md_verbatim": "In this example trial, migraines and symptoms associated with migraines were considered clinical events rather than reportable adverse events. The migraine, its sponsor identifier (i.e., the \"Migraine Reference Number\" on the CRF), and its start date were represented in a CE record.", "score": 0.4711, "match_basis": "verbatim_token+domain_route:FA"}], "candidate_count": 5, "zero_candidate": false}
{"pdf_atom_id": "ig34_p0372_a002", "pdf_atom_type": "CODE_LITERAL", "pdf_source": "SDTMIG_v3.4", "pdf_page": 372, "pdf_parent_section": "FA – Examples", "pdf_verbatim": "suppmh.xpt", "figure_ref": null, "candidates": [{"md_atom_id": "md_dmFA_ex_a079", "md_file": "knowledge_base/domains/FA/examples.md", "md_atom_type": "SENTENCE", "md_parent_section": "§FA.3 [Example 3]", "md_verbatim": "**suppmh.xpt**", "score": 0.79, "match_basis": "verbatim_token+domain_route:FA"}, {"md_atom_id": "md_dmFA_ex_a005", "md_file": "knowledge_base/domains/FA/examples.md", "md_atom_type": "SENTENCE", "md_parent_section": "§FA.1 [Example 1]", "md_verbatim": "**ce.xpt**", "score": 0.31, "match_basis": "verbatim_token+domain_route:FA"}, {"md_atom_id": "md_dmFA_ex_a009", "md_file": "knowledge_base/domains/FA/examples.md", "md_atom_type": "SENTENCE", "md_parent_section": "§FA.1 [Example 1]", "md_verbatim": "**ex.xpt**", "score": 0.31, "match_basis": "verbatim_token+domain_route:FA"}, {"md_atom_id": "md_dmFA_ex_a041", "md_file": "knowledge_base/domains/FA/examples.md", "md_atom_type": "SENTENCE", "md_parent_section": "§FA.2 [Example 2]", "md_verbatim": "**ae.xpt**", "score": 0.31, "match_basis": "verbatim_token+domain_route:FA"}, {"md_atom_id": "md_dmFA_ex_a070", "md_file": "knowledge_base/domains/FA/examples.md", "md_atom_type": "SENTENCE", "md_parent_section": "§FA.3 [Example 3]", "md_verbatim": "**mh.xpt**", "score": 0.31, "match_basis": "verbatim_token+domain_route:FA"}, {"md_atom_id": "md_dmFA_ex_a098", "md_file": "knowledge_base/domains/FA/examples.md", "md_atom_type": "SENTENCE", "md_parent_section": "§FA.4 [Example 4]", "md_verbatim": "**ae.xpt**", "score": 0.31, "match_basis": "verbatim_token+domain_route:FA"}, {"md_atom_id": "md_dmFA_ex_a140", "md_file": "knowledge_base/domains/FA/examples.md", "md_atom_type": "SENTENCE", "md_parent_section": "§FA.6 [Example 6]", "md_verbatim": "**ae.xpt**", "score": 0.31, "match_basis": "verbatim_token+domain_route:FA"}, {"md_atom_id": "md_dmFA_ex_a015", "md_file": "knowledge_base/domains/FA/examples.md", "md_atom_type": "SENTENCE", "md_parent_section": "§FA.1 [Example 1]", "md_verbatim": "**face.xpt**", "score": 0.2757, "match_basis": "verbatim_token+domain_route:FA"}, {"md_atom_id": "md_dmFA_ex_a044", "md_file": "knowledge_base/domains/FA/examples.md", "md_atom_type": "SENTENCE", "md_parent_section": "§FA.2 [Example 2]", "md_verbatim": "**faae.xpt**", "score": 0.2757, "match_basis": "verbatim_token+domain_route:FA"}, {"md_atom_id": "md_dmFA_ex_a088", "md_file": "knowledge_base/domains/FA/examples.md", "md_atom_type": "SENTENCE", "md_parent_section": "§FA.4 [Example 4]", "md_verbatim": "**faae.xpt**", "score": 0.2757, "match_basis": "verbatim_token+domain_route:FA"}], "candidate_count": 10, "zero_candidate": false}
{"pdf_atom_id": "ig34_p0372_a003", "pdf_atom_type": "TABLE_HEADER", "pdf_source": "SDTMIG_v3.4", "pdf_page": 372, "pdf_parent_section": "FA – Examples", "pdf_verbatim": "| Row | STUDYID | RDOMAIN | USUBJID | IDVAR | IDVARVAL | QNAM | QLABEL | QVAL | QORIG | QEVAL |", "figure_ref": null, "candidates": [{"md_atom_id": "md_dmFA_ex_a080", "md_file": "knowledge_base/domains/FA/examples.md", "md_atom_type": "TABLE_HEADER", "md_parent_section": "§FA.3 [Example 3]", "md_verbatim": "| Row | STUDYID | RDOMAIN | USUBJID | IDVAR | IDVARVAL | QNAM | QLABEL | QVAL | QORIG | QEVAL |\n|-----|---------|---------|---------|-------|----------|------|--------|------|-------|-------|", "score": 1.0, "match_basis": "verbatim_token+domain_route:FA"}, {"md_atom_id": "md_dmFA_ex_a034", "md_file": "knowledge_base/domains/FA/examples.md", "md_atom_type": "TABLE_HEADER", "md_parent_section": "§FA.1 [Example 1]", "md_verbatim": "| Row | STUDYID | RDOMAIN | USUBJID | IDVAR | IDVARVAL | RELTYPE | RELID |\n|-----|---------|---------|---------|-------|----------|---------|-------|", "score": 0.722, "match_basis": "verbatim_token+domain_route:FA"}, {"md_atom_id": "md_dmFA_ex_a062", "md_file": "knowledge_base/domains/FA/examples.md", "md_atom_type": "TABLE_HEADER", "md_parent_section": "§FA.2 [Example 2]", "md_verbatim": "| Row | STUDYID | RDOMAIN | USUBJID | IDVAR | IDVARVAL | RELTYPE | RELID |\n|-----|---------|---------|---------|-------|----------|---------|-------|", "score": 0.722, "match_basis": "verbatim_token+domain_route:FA"}, {"md_atom_id": "md_dmFA_ex_a157", "md_file": "knowledge_base/domains/FA/examples.md", "md_atom_type": "TABLE_HEADER", "md_parent_section": "§FA.6 [Example 6]", "md_verbatim": "| Row | STUDYID | RDOMAIN | USUBJID | IDVAR | IDVARVAL | RELTYPE | RELID |\n|-----|---------|---------|---------|-------|----------|---------|-------|", "score": 0.722, "match_basis": "verbatim_token+domain_route:FA"}, {"md_atom_id": "md_dmFA_ex_a006", "md_file": "knowledge_base/domains/FA/examples.md", "md_atom_type": "TABLE_HEADER", "md_parent_section": "§FA.1 [Example 1]", "md_verbatim": "| Row | STUDYID | DOMAIN | USUBJID | CESEQ | CESPID | CETERM | CEDECOD | CESTDTC |\n|-----|---------|--------|---------|-------|--------|--------|---------|---------|", "score": 0.5698, "match_basis": "verbatim_token+domain_route:FA"}], "candidate_count": 5, "zero_candidate": false}
{"pdf_atom_id": "ig34_p0372_a004", "pdf_atom_type": "TABLE_ROW", "pdf_source": "SDTMIG_v3.4", "pdf_page": 372, "pdf_parent_section": "FA – Examples", "pdf_verbatim": "| 1 | ABC | MH | 001-001 | MHSEQ | 6 | MHAVDDUR | Average Daily Duration | PT1H30M | CRF |  |", "figure_ref": null, "candidates": [{"md_atom_id": "md_dmFA_ex_a081", "md_file": "knowledge_base/domains/FA/examples.md", "md_atom_type": "TABLE_ROW", "md_parent_section": "§FA.3 [Example 3]", "md_verbatim": "| 1 | ABC | MH | 001-001 | MHSEQ | 6 | MHAVDDUR | Average Daily Duration | PT1H30M | CRF | |", "score": 1.0, "match_basis": "verbatim_token+domain_route:FA"}, {"md_atom_id": "md_dmFA_ex_a022", "md_file": "knowledge_base/domains/FA/examples.md", "md_atom_type": "TABLE_ROW", "md_parent_section": "§FA.1 [Example 1]", "md_verbatim": "| 6 | ABC | FA | ABC-123 | 6 | 90567 | SEV | Severity/Intensity | Migraine | MIGRAINE SYMPTOMS | MODERATE | MODERATE | 2007-05-16 | 30M POST-DOSE | 2 | PT30M | DOSING |", "score": 0.4417, "match_basis": "verbatim_token+domain_route:FA"}, {"md_atom_id": "md_dmFA_ex_a043", "md_file": "knowledge_base/domains/FA/examples.md", "md_atom_type": "TABLE_ROW", "md_parent_section": "§FA.2 [Example 2]", "md_verbatim": "| 1 | XYZ | AE | XYZ-789 | 47869 | 5 | Injection site rash | General disorders and administration site conditions | ARM | LEFT | MILD | N | NOT APPLICABLE | 2007-05-10 |", "score": 0.4349, "match_basis": "verbatim_token+domain_route:FA"}, {"md_atom_id": "md_dmFA_ex_a091", "md_file": "knowledge_base/domains/FA/examples.md", "md_atom_type": "TABLE_ROW", "md_parent_section": "§FA.4 [Example 4]", "md_verbatim": "| 2 | ABC101 | FA | 1234 | 2 | OCCUR | Occurrence Indicator | Respiratory Infection | N | N | | 2 | VISIT 2 | 2005-10-01 | SINCE LAST VISIT |", "score": 0.4343, "match_basis": "verbatim_token+domain_route:FA"}, {"md_atom_id": "md_dmFA_ex_a094", "md_file": "knowledge_base/domains/FA/examples.md", "md_atom_type": "TABLE_ROW", "md_parent_section": "§FA.4 [Example 4]", "md_verbatim": "| 5 | ABC101 | FA | 1234 | 5 | OCCUR | Occurrence Indicator | Respiratory Infection | N | N | | 3 | VISIT 3 | 2005-10-10 | SINCE LAST VISIT |", "score": 0.4343, "match_basis": "verbatim_token+domain_route:FA"}], "candidate_count": 5, "zero_candidate": false}
{"pdf_atom_id": "ig34_p0372_a005", "pdf_atom_type": "HEADING", "pdf_source": "SDTMIG_v3.4", "pdf_page": 372, "pdf_parent_section": "FA – Examples", "pdf_verbatim": "Example 4", "figure_ref": null, "candidates": [{"md_atom_id": "md_dmFA_ex_a002", "md_file": "knowledge_base/domains/FA/examples.md", "md_atom_type": "HEADING", "md_parent_section": "§FA [FA — Examples]", "md_verbatim": "## Example 1", "score": 1.0, "match_basis": "verbatim_token+domain_route:FA"}, {"md_atom_id": "md_dmFA_ex_a037", "md_file": "knowledge_base/domains/FA/examples.md", "md_atom_type": "HEADING", "md_parent_section": "§FA [FA — Examples]", "md_verbatim": "## Example 2", "score": 1.0, "match_basis": "verbatim_token+domain_route:FA"}, {"md_atom_id": "md_dmFA_ex_a065", "md_file": "knowledge_base/domains/FA/examples.md", "md_atom_type": "HEADING", "md_parent_section": "§FA [FA — Examples]", "md_verbatim": "## Example 3", "score": 1.0, "match_basis": "verbatim_token+domain_route:FA"}, {"md_atom_id": "md_dmFA_ex_a082", "md_file": "knowledge_base/domains/FA/examples.md", "md_atom_type": "HEADING", "md_parent_section": "§FA [FA — Examples]", "md_verbatim": "## Example 4", "score": 1.0, "match_basis": "verbatim_token+domain_route:FA"}, {"md_atom_id": "md_dmFA_ex_a104", "md_file": "knowledge_base/domains/FA/examples.md", "md_atom_type": "HEADING", "md_parent_section": "§FA [FA — Examples]", "md_verbatim": "## Example 5", "score": 1.0, "match_basis": "verbatim_token+domain_route:FA"}, {"md_atom_id": "md_dmFA_ex_a131", "md_file": "knowledge_base/domains/FA/examples.md", "md_atom_type": "HEADING", "md_parent_section": "§FA [FA — Examples]", "md_verbatim": "## Example 6", "score": 1.0, "match_basis": "verbatim_token+domain_route:FA"}, {"md_atom_id": "md_dmFA_ex_a001", "md_file": "knowledge_base/domains/FA/examples.md", "md_atom_type": "HEADING", "md_parent_section": "§FA [FA — Examples]", "md_verbatim": "# FA — Examples", "score": 0.9, "match_basis": "verbatim_token+domain_route:FA"}, {"md_atom_id": "md_dmFA_assn_a001", "md_file": "knowledge_base/domains/FA/assumptions.md", "md_atom_type": "HEADING", "md_parent_section": "§FA [FA — Assumptions]", "md_verbatim": "# FA — Assumptions", "score": 0.4, "match_basis": "verbatim_token+domain_route:FA"}], "candidate_count": 8, "zero_candidate": false}
{"pdf_atom_id": "ig34_p0372_a006", "pdf_atom_type": "SENTENCE", "pdf_source": "SDTMIG_v3.4", "pdf_page": 372, "pdf_parent_section": "FA – Examples", "pdf_verbatim": "In this example, the occurrence of prespecified adverse events was solicited at every visit and the visit date was used as the date of collection. The data collected meet criterion 3 in Section 6.4.1, When to Use Findings About Events or Interventions; that is, data that indicate the occurrence of prespecified AEs.", "figure_ref": null, "candidates": [{"md_atom_id": "md_dmFA_ex_a083", "md_file": "knowledge_base/domains/FA/examples.md", "md_atom_type": "SENTENCE", "md_parent_section": "§FA.4 [Example 4]", "md_verbatim": "In this example, the occurrence of prespecified adverse events was solicited at every visit and the visit date was used as the date of collection. The data collected meet criterion 3 in Section 6.4.1, When to Use Findings About Events or Interventions; that is, data that indicate the occurrence of prespecified AEs.", "score": 1.0, "match_basis": "verbatim_token+domain_route:FA"}, {"md_atom_id": "md_dmFA_ex_a136", "md_file": "knowledge_base/domains/FA/examples.md", "md_atom_type": "SENTENCE", "md_parent_section": "§FA.6 [Example 6]", "md_verbatim": "*Note: The FA Example 6 CRF shows severity assessed at Visits 2-6 for up to 3 concurrent AEs per subject. The data collected about severity at each visit represents snapshots or slices of the AE over time, meeting criterion 1 for When to Use Findings About Events or Interventions.*", "score": 0.6667, "match_basis": "verbatim_token+domain_route:FA"}, {"md_atom_id": "md_dmFA_ex_a138", "md_file": "knowledge_base/domains/FA/examples.md", "md_atom_type": "SENTENCE", "md_parent_section": "§FA.6 [Example 6]", "md_verbatim": "The collected data met criterion 1 in Section 6.4.1, When to Use Findings About Events or Interventions, for data that do not describe an event or intervention as a whole.", "score": 0.6538, "match_basis": "verbatim_token+domain_route:FA"}, {"md_atom_id": "md_dmFA_ex_a106", "md_file": "knowledge_base/domains/FA/examples.md", "md_atom_type": "SENTENCE", "md_parent_section": "§FA.5 [Example 5]", "md_verbatim": "The collected data were represented in FA because they meet criterion 1 in Section 6.4.1, When to Use Findings About Events or Interventions, that is, data that do not describe an event or intervention as a whole. In addition, the volume of vomit data met criterion 2 data (\"about\" an event or intervention), having qualifiers that can be represented in Findings variables (e.g., units, method).", "score": 0.6082, "match_basis": "verbatim_token+domain_route:FA"}, {"md_atom_id": "md_dmFA_ex_a012", "md_file": "knowledge_base/domains/FA/examples.md", "md_atom_type": "SENTENCE", "md_parent_section": "§FA.1 [Example 1]", "md_verbatim": "The remaining data on the CRF were \"snapshots\" taken at 3 time points; in accordance with Section 6.4.1, When to Use Findings About Events or Interventions, criterion 1, these were represented as findings about events. The FACAT value \"MIGRAINE SYMPTOMS\" was used to represent the fact that these data were collected in a CRF module called \"Migraine Symptoms Diary.\"", "score": 0.5911, "match_basis": "verbatim_token+domain_route:FA"}], "candidate_count": 5, "zero_candidate": false}
{"pdf_atom_id": "ig34_p0372_a007", "pdf_atom_type": "HEADING", "pdf_source": "SDTMIG_v3.4", "pdf_page": 372, "pdf_parent_section": "FA – Examples", "pdf_verbatim": "Prespecified Adverse Events of Clinical Interest", "figure_ref": null, "candidates": [{"md_atom_id": "md_dmFA_assn_a001", "md_file": "knowledge_base/domains/FA/assumptions.md", "md_atom_type": "HEADING", "md_parent_section": "§FA [FA — Assumptions]", "md_verbatim": "# FA — Assumptions", "score": 0.4, "match_basis": "verbatim_token+domain_route:FA"}, {"md_atom_id": "md_dmFA_ex_a001", "md_file": "knowledge_base/domains/FA/examples.md", "md_atom_type": "HEADING", "md_parent_section": "§FA [FA — Examples]", "md_verbatim": "# FA — Examples", "score": 0.4, "match_basis": "verbatim_token+domain_route:FA"}, {"md_atom_id": "md_dmFA_ex_a002", "md_file": "knowledge_base/domains/FA/examples.md", "md_atom_type": "HEADING", "md_parent_section": "§FA [FA — Examples]", "md_verbatim": "## Example 1", "score": 0.4, "match_basis": "verbatim_token+domain_route:FA"}, {"md_atom_id": "md_dmFA_ex_a037", "md_file": "knowledge_base/domains/FA/examples.md", "md_atom_type": "HEADING", "md_parent_section": "§FA [FA — Examples]", "md_verbatim": "## Example 2", "score": 0.4, "match_basis": "verbatim_token+domain_route:FA"}, {"md_atom_id": "md_dmFA_ex_a065", "md_file": "knowledge_base/domains/FA/examples.md", "md_atom_type": "HEADING", "md_parent_section": "§FA [FA — Examples]", "md_verbatim": "## Example 3", "score": 0.4, "match_basis": "verbatim_token+domain_route:FA"}], "candidate_count": 5, "zero_candidate": false}
{"pdf_atom_id": "ig34_p0372_a008", "pdf_atom_type": "TABLE_HEADER", "pdf_source": "SDTMIG_v3.4", "pdf_page": 372, "pdf_parent_section": "FA – Examples", "pdf_verbatim": "| Date of assessment | DD-MMM-YYYY |", "figure_ref": null, "candidates": [{"md_atom_id": "md_dmFA_ex_a045", "md_file": "knowledge_base/domains/FA/examples.md", "md_atom_type": "TABLE_HEADER", "md_parent_section": "§FA.2 [Example 2]", "md_verbatim": "| Row | STUDYID | DOMAIN | USUBJID | FASEQ | FASPID | FATESTCD | FATEST | FAOBJ | FAORRES | FAORRESU | FASTRESC | FASTRESU | VISITNUM | FADTC |\n|-----|---------|--------|---------|-------|--------|----------|--------|-------|---------|----------|----------|----------|----------|-------|", "score": 0.4102, "match_basis": "verbatim_token+domain_route:FA"}, {"md_atom_id": "md_dmFA_ex_a089", "md_file": "knowledge_base/domains/FA/examples.md", "md_atom_type": "TABLE_HEADER", "md_parent_section": "§FA.4 [Example 4]", "md_verbatim": "| Row | STUDYID | DOMAIN | USUBJID | FASEQ | FATESTCD | FATEST | FAOBJ | FAORRES | FASTRESC | FASTAT | VISITNUM | VISIT | FADTC | FAEVINTX |\n|-----|---------|--------|---------|-------|----------|--------|-------|---------|----------|--------|----------|-------|-------|----------|", "score": 0.4095, "match_basis": "verbatim_token+domain_route:FA"}, {"md_atom_id": "md_dmFA_ex_a016", "md_file": "knowledge_base/domains/FA/examples.md", "md_atom_type": "TABLE_HEADER", "md_parent_section": "§FA.1 [Example 1]", "md_verbatim": "| Row | STUDYID | DOMAIN | USUBJID | FASEQ | FASPID | FATESTCD | FATEST | FAOBJ | FACAT | FAORRES | FASTRESC | FADTC | FATPT | FATPTNUM | FAELTM | FATPTREF |\n|-----|---------|--------|---------|-------|--------|----------|--------|-------|-------|---------|----------|-------|-------|----------|--------|----------|", "score": 0.4091, "match_basis": "verbatim_token+domain_route:FA"}, {"md_atom_id": "md_dmFA_ex_a148", "md_file": "knowledge_base/domains/FA/examples.md", "md_atom_type": "TABLE_HEADER", "md_parent_section": "§FA.6 [Example 6]", "md_verbatim": "| Row | STUDYID | DOMAIN | USUBJID | FASEQ | FASPID | FATESTCD | FATEST | FAOBJ | FAORRES | FACOLSRT | VISITNUM | VISIT | FADTC | FAEVINTX |\n|-----|---------|--------|---------|-------|--------|----------|--------|-------|---------|----------|----------|-------|-------|----------|", "score": 0.4091, "match_basis": "verbatim_token+domain_route:FA"}, {"md_atom_id": "md_dmFA_ex_a115", "md_file": "knowledge_base/domains/FA/examples.md", "md_atom_type": "TABLE_HEADER", "md_parent_section": "§FA.5 [Example 5]", "md_verbatim": "| Row | STUDYID | DOMAIN | USUBJID | FASEQ | FATESTCD | FATEST | FAOBJ | FACAT | FAORRES | FAORRESU | FASTRESC | FASTRESN | FASTRESU | FASTAT | VISITNUM | VISIT | FADTC | FAEVLINT |\n|-----|---------|--------|---------|-------|----------|--------|-------|-------|---------|----------|----------|----------|----------|--------|----------|-------|-------|----------|", "score": 0.4088, "match_basis": "verbatim_token+domain_route:FA"}], "candidate_count": 5, "zero_candidate": false}
{"pdf_atom_id": "ig34_p0372_a009", "pdf_atom_type": "TABLE_ROW", "pdf_source": "SDTMIG_v3.4", "pdf_page": 372, "pdf_parent_section": "FA – Examples", "pdf_verbatim": "| Did the following occur? If Yes, enter a complete record in the AE CRF |  |", "figure_ref": null, "candidates": [{"md_atom_id": "md_dmFA_ex_a116", "md_file": "knowledge_base/domains/FA/examples.md", "md_atom_type": "TABLE_ROW", "md_parent_section": "§FA.5 [Example 5]", "md_verbatim": "| 1 | XYZ | FA | XYZ-701-002 | 1 | OCCUR | Occurrence Indicator | Vomiting | GERD SYMPTOMS | Y | | Y | | | | 1 | VISIT 1 | 2006-02-02 | -PT24H |", "score": 0.4381, "match_basis": "verbatim_token+domain_route:FA"}, {"md_atom_id": "md_dmFA_ex_a126", "md_file": "knowledge_base/domains/FA/examples.md", "md_atom_type": "TABLE_ROW", "md_parent_section": "§FA.5 [Example 5]", "md_verbatim": "| 11 | XYZ | FA | XYZ-701-002 | 11 | OCCUR | Occurrence Indicator | Vomiting | GERD SYMPTOMS | N | | N | | | | 2 | VISIT 2 | 2006-02-03 | -PT24H |", "score": 0.4381, "match_basis": "verbatim_token+domain_route:FA"}, {"md_atom_id": "md_dmFA_ex_a011", "md_file": "knowledge_base/domains/FA/examples.md", "md_atom_type": "TABLE_ROW", "md_parent_section": "§FA.1 [Example 1]", "md_verbatim": "| 1 | ABC | EX | ABC-123 | 1 | 4 | CURALL | 50 | mg | TABLET | ONCE | ORAL | TREATMENT | 2007-05-16T11:05 | 2007-05-16T11:05 |", "score": 0.4367, "match_basis": "verbatim_token+domain_route:FA"}, {"md_atom_id": "md_dmFA_ex_a021", "md_file": "knowledge_base/domains/FA/examples.md", "md_atom_type": "TABLE_ROW", "md_parent_section": "§FA.1 [Example 1]", "md_verbatim": "| 5 | ABC | FA | ABC-123 | 5 | 90567 | OCCUR | Occurrence Indicator | Aura | MIGRAINE SYMPTOMS | Y | Y | 2007-05-16 | 5M PRE-DOSE | 1 | -PT5M | DOSING |", "score": 0.4358, "match_basis": "verbatim_token+domain_route:FA"}, {"md_atom_id": "md_dmFA_ex_a020", "md_file": "knowledge_base/domains/FA/examples.md", "md_atom_type": "TABLE_ROW", "md_parent_section": "§FA.1 [Example 1]", "md_verbatim": "| 4 | ABC | FA | ABC-123 | 4 | 90567 | OCCUR | Occurrence Indicator | Nausea | MIGRAINE SYMPTOMS | Y | Y | 2007-05-16 | 5M PRE-DOSE | 1 | -PT5M | DOSING |", "score": 0.4348, "match_basis": "verbatim_token+domain_route:FA"}], "candidate_count": 5, "zero_candidate": false}
{"pdf_atom_id": "ig34_p0372_a010", "pdf_atom_type": "TABLE_ROW", "pdf_source": "SDTMIG_v3.4", "pdf_page": 372, "pdf_parent_section": "FA – Examples", "pdf_verbatim": "| Headache | ○ No   ○ Yes   ○ Not Done |", "figure_ref": null, "candidates": [{"md_atom_id": "md_dmFA_ex_a100", "md_file": "knowledge_base/domains/FA/examples.md", "md_atom_type": "TABLE_ROW", "md_parent_section": "§FA.4 [Example 4]", "md_verbatim": "| 1 | ABC101 | AE | 1234 | 1 | Headache | Headache | Y | Nervous system disorders | MILD | NONE | 2005-09-30 | 2005-10-03 |", "score": 0.5135, "match_basis": "verbatim_token+domain_route:FA"}, {"md_atom_id": "md_dmFA_ex_a090", "md_file": "knowledge_base/domains/FA/examples.md", "md_atom_type": "TABLE_ROW", "md_parent_section": "§FA.4 [Example 4]", "md_verbatim": "| 1 | ABC101 | FA | 1234 | 1 | OCCUR | Occurrence Indicator | Headache | Y | Y | | 2 | VISIT 2 | 2005-10-01 | SINCE LAST VISIT |", "score": 0.49, "match_basis": "verbatim_token+domain_route:FA"}, {"md_atom_id": "md_dmFA_ex_a093", "md_file": "knowledge_base/domains/FA/examples.md", "md_atom_type": "TABLE_ROW", "md_parent_section": "§FA.4 [Example 4]", "md_verbatim": "| 4 | ABC101 | FA | 1234 | 4 | OCCUR | Occurrence Indicator | Headache | Y | Y | | 3 | VISIT 3 | 2005-10-10 | SINCE LAST VISIT |", "score": 0.49, "match_basis": "verbatim_token+domain_route:FA"}, {"md_atom_id": "md_dmFA_ex_a092", "md_file": "knowledge_base/domains/FA/examples.md", "md_atom_type": "TABLE_ROW", "md_parent_section": "§FA.4 [Example 4]", "md_verbatim": "| 3 | ABC101 | FA | 1234 | 3 | OCCUR | Occurrence Indicator | Nausea | | | NOT DONE | 2 | VISIT 2 | 2005-10-01 | SINCE LAST VISIT |", "score": 0.4409, "match_basis": "verbatim_token+domain_route:FA"}, {"md_atom_id": "md_dmFA_ex_a035", "md_file": "knowledge_base/domains/FA/examples.md", "md_atom_type": "TABLE_ROW", "md_parent_section": "§FA.1 [Example 1]", "md_verbatim": "| 1 | ABC | CE | | CESPID | | ONE | 1 |", "score": 0.44, "match_basis": "verbatim_token+domain_route:FA"}], "candidate_count": 5, "zero_candidate": false}
{"pdf_atom_id": "ig34_p0372_a011", "pdf_atom_type": "TABLE_ROW", "pdf_source": "SDTMIG_v3.4", "pdf_page": 372, "pdf_parent_section": "FA – Examples", "pdf_verbatim": "| Respiratory infection | ○ No   ○ Yes   ○ Not Done |", "figure_ref": null, "candidates": [{"md_atom_id": "md_dmFA_ex_a091", "md_file": "knowledge_base/domains/FA/examples.md", "md_atom_type": "TABLE_ROW", "md_parent_section": "§FA.4 [Example 4]", "md_verbatim": "| 2 | ABC101 | FA | 1234 | 2 | OCCUR | Occurrence Indicator | Respiratory Infection | N | N | | 2 | VISIT 2 | 2005-10-01 | SINCE LAST VISIT |", "score": 0.6, "match_basis": "verbatim_token+domain_route:FA"}, {"md_atom_id": "md_dmFA_ex_a094", "md_file": "knowledge_base/domains/FA/examples.md", "md_atom_type": "TABLE_ROW", "md_parent_section": "§FA.4 [Example 4]", "md_verbatim": "| 5 | ABC101 | FA | 1234 | 5 | OCCUR | Occurrence Indicator | Respiratory Infection | N | N | | 3 | VISIT 3 | 2005-10-10 | SINCE LAST VISIT |", "score": 0.6, "match_basis": "verbatim_token+domain_route:FA"}, {"md_atom_id": "md_dmFA_ex_a085", "md_file": "knowledge_base/domains/FA/examples.md", "md_atom_type": "SENTENCE", "md_parent_section": "§FA.4 [Example 4]", "md_verbatim": "**Rows 2, 5:** \"Respiratory infection\" was not present at either visit.", "score": 0.52, "match_basis": "verbatim_token+domain_route:FA"}, {"md_atom_id": "md_dmFA_ex_a035", "md_file": "knowledge_base/domains/FA/examples.md", "md_atom_type": "TABLE_ROW", "md_parent_section": "§FA.1 [Example 1]", "md_verbatim": "| 1 | ABC | CE | | CESPID | | ONE | 1 |", "score": 0.4783, "match_basis": "verbatim_token+domain_route:FA"}, {"md_atom_id": "md_dmFA_ex_a063", "md_file": "knowledge_base/domains/FA/examples.md", "md_atom_type": "TABLE_ROW", "md_parent_section": "§FA.2 [Example 2]", "md_verbatim": "| 1 | XYZ | AE | | AESPID | | ONE | 23 |", "score": 0.4783, "match_basis": "verbatim_token+domain_route:FA"}], "candidate_count": 5, "zero_candidate": false}
{"pdf_atom_id": "ig34_p0372_a012", "pdf_atom_type": "TABLE_ROW", "pdf_source": "SDTMIG_v3.4", "pdf_page": 372, "pdf_parent_section": "FA – Examples", "pdf_verbatim": "| Nausea | ○ No   ○ Yes   ○ Not Done |", "figure_ref": null, "candidates": [{"md_atom_id": "md_dmFA_ex_a092", "md_file": "knowledge_base/domains/FA/examples.md", "md_atom_type": "TABLE_ROW", "md_parent_section": "§FA.4 [Example 4]", "md_verbatim": "| 3 | ABC101 | FA | 1234 | 3 | OCCUR | Occurrence Indicator | Nausea | | | NOT DONE | 2 | VISIT 2 | 2005-10-01 | SINCE LAST VISIT |", "score": 0.5105, "match_basis": "verbatim_token+domain_route:FA"}, {"md_atom_id": "md_dmFA_ex_a130", "md_file": "knowledge_base/domains/FA/examples.md", "md_atom_type": "TABLE_ROW", "md_parent_section": "§FA.5 [Example 5]", "md_verbatim": "| 15 | XYZ | FA | XYZ-701-002 | 15 | OCCUR | Occurrence Indicator | Nausea | GERD SYMPTOMS | | | | | | NOT DONE | 2 | VISIT 2 | 2006-02-03 | -PT24H |", "score": 0.5, "match_basis": "verbatim_token+domain_route:FA"}, {"md_atom_id": "md_dmFA_ex_a142", "md_file": "knowledge_base/domains/FA/examples.md", "md_atom_type": "TABLE_ROW", "md_parent_section": "§FA.6 [Example 6]", "md_verbatim": "| 1 | AE | 123 | 1 | 1 | Morning queasiness | Nausea | MODERATE | 2006-02-01 | 2006-02-23 |", "score": 0.48, "match_basis": "verbatim_token+domain_route:FA"}, {"md_atom_id": "md_dmFA_ex_a101", "md_file": "knowledge_base/domains/FA/examples.md", "md_atom_type": "TABLE_ROW", "md_parent_section": "§FA.4 [Example 4]", "md_verbatim": "| 2 | ABC101 | AE | 1234 | 2 | Nausea | Nausea | Y | Gastrointestinal disorders | MODERATE | NONE | 2005-10-08 | 2005-10-09 |", "score": 0.4698, "match_basis": "verbatim_token+domain_route:FA"}, {"md_atom_id": "md_dmFA_ex_a095", "md_file": "knowledge_base/domains/FA/examples.md", "md_atom_type": "TABLE_ROW", "md_parent_section": "§FA.4 [Example 4]", "md_verbatim": "| 6 | ABC101 | FA | 1234 | 6 | OCCUR | Occurrence Indicator | Nausea | Y | Y | | 3 | VISIT 3 | 2005-10-10 | SINCE LAST VISIT |", "score": 0.4632, "match_basis": "verbatim_token+domain_route:FA"}], "candidate_count": 5, "zero_candidate": false}
{"pdf_atom_id": "ig34_p0372_a013", "pdf_atom_type": "SENTENCE", "pdf_source": "SDTMIG_v3.4", "pdf_page": 372, "pdf_parent_section": "FA – Examples", "pdf_verbatim": "This example shows data for 1 subject at 2 visits. Each response (e.g., No, Yes) to the prespecified terms is represented in the FA domain. The visit date was used to populated FADTC.", "figure_ref": null, "candidates": [{"md_atom_id": "md_dmFA_ex_a107", "md_file": "knowledge_base/domains/FA/examples.md", "md_atom_type": "SENTENCE", "md_parent_section": "§FA.5 [Example 5]", "md_verbatim": "This SDTM example represents data from 2 visits for 1 subject. FAEVINTX indicates that assessments were for the previous 24 hours.", "score": 0.5663, "match_basis": "verbatim_token+domain_route:FA"}, {"md_atom_id": "md_dmFA_ex_a136", "md_file": "knowledge_base/domains/FA/examples.md", "md_atom_type": "SENTENCE", "md_parent_section": "§FA.6 [Example 6]", "md_verbatim": "*Note: The FA Example 6 CRF shows severity assessed at Visits 2-6 for up to 3 concurrent AEs per subject. The data collected about severity at each visit represents snapshots or slices of the AE over time, meeting criterion 1 for When to Use Findings About Events or Interventions.*", "score": 0.5636, "match_basis": "verbatim_token+domain_route:FA"}, {"md_atom_id": "md_dmFA_ex_a083", "md_file": "knowledge_base/domains/FA/examples.md", "md_atom_type": "SENTENCE", "md_parent_section": "§FA.4 [Example 4]", "md_verbatim": "In this example, the occurrence of prespecified adverse events was solicited at every visit and the visit date was used as the date of collection. The data collected meet criterion 3 in Section 6.4.1, When to Use Findings About Events or Interventions; that is, data that indicate the occurrence of prespecified AEs.", "score": 0.5571, "match_basis": "verbatim_token+domain_route:FA"}, {"md_atom_id": "md_dmFA_ex_a032", "md_file": "knowledge_base/domains/FA/examples.md", "md_atom_type": "SENTENCE", "md_parent_section": "§FA.1 [Example 1]", "md_verbatim": "A dataset-level relationship in RELREC is based on the sponsor ID (--SPID) value, which was populated with a system-generated identifier unique to each iteration of this form.", "score": 0.5241, "match_basis": "verbatim_token+domain_route:FA"}, {"md_atom_id": "md_dmFA_ex_a105", "md_file": "knowledge_base/domains/FA/examples.md", "md_atom_type": "SENTENCE", "md_parent_section": "§FA.5 [Example 5]", "md_verbatim": "In this example, data about prespecified symptoms of the disease under study were collected on a daily basis. Although the date of the assessment was captured in the CRF header (not shown), start and end timing of the prespecified symptoms was not.", "score": 0.5218, "match_basis": "verbatim_token+domain_route:FA"}], "candidate_count": 5, "zero_candidate": false}
{"pdf_atom_id": "ig34_p0372_a014", "pdf_atom_type": "LIST_ITEM", "pdf_source": "SDTMIG_v3.4", "pdf_page": 372, "pdf_parent_section": "FA – Examples", "pdf_verbatim": "Rows 1, 4: \"Headache\" was reported at both visits.", "figure_ref": null, "candidates": [{"md_atom_id": "md_dmFA_ex_a084", "md_file": "knowledge_base/domains/FA/examples.md", "md_atom_type": "SENTENCE", "md_parent_section": "§FA.4 [Example 4]", "md_verbatim": "**Rows 1, 4:** \"Headache\" was reported at both visits.", "score": 0.91, "match_basis": "verbatim_token+domain_route:FA"}, {"md_atom_id": "md_dmFA_ex_a087", "md_file": "knowledge_base/domains/FA/examples.md", "md_atom_type": "SENTENCE", "md_parent_section": "§FA.4 [Example 4]", "md_verbatim": "**Row 6:** \"Nausea\" was reported at visit 3.", "score": 0.574, "match_basis": "verbatim_token+domain_route:FA"}, {"md_atom_id": "md_dmFA_assn_a007", "md_file": "knowledge_base/domains/FA/assumptions.md", "md_atom_type": "LIST_ITEM", "md_parent_section": "§FA [FA — Assumptions]", "md_verbatim": "5. When data collection establishes a relationship between FA records and an events or interventions record, the relationship should be represented in RELREC.", "score": 0.4145, "match_basis": "verbatim_token+domain_route:FA"}, {"md_atom_id": "md_dmFA_ex_a102", "md_file": "knowledge_base/domains/FA/examples.md", "md_atom_type": "SENTENCE", "md_parent_section": "§FA.4 [Example 4]", "md_verbatim": "**Row 1:** Comparison of this AE record with the FA dataset records for \"Headache\" shows that there are 2 records with FAOBJ=\"Headache\". FAORRES=\"Y\" indicates that this AE record is associated with both FA records, because this headache started before visit 2 and ended between visits 2 and 3.", "score": 0.4143, "match_basis": "verbatim_token+domain_route:FA"}, {"md_atom_id": "md_dmFA_ex_a134", "md_file": "knowledge_base/domains/FA/examples.md", "md_atom_type": "LIST_ITEM", "md_parent_section": "§FA.6 [Example 6]", "md_verbatim": "- A module for the adverse event, where a record would be entered for each event", "score": 0.4122, "match_basis": "verbatim_token+domain_route:FA"}], "candidate_count": 5, "zero_candidate": false}
{"pdf_atom_id": "ig34_p0372_a015", "pdf_atom_type": "LIST_ITEM", "pdf_source": "SDTMIG_v3.4", "pdf_page": 372, "pdf_parent_section": "FA – Examples", "pdf_verbatim": "Rows 2, 5: \"Respiratory infection\" was not present at either visit.", "figure_ref": null, "candidates": [{"md_atom_id": "md_dmFA_ex_a085", "md_file": "knowledge_base/domains/FA/examples.md", "md_atom_type": "SENTENCE", "md_parent_section": "§FA.4 [Example 4]", "md_verbatim": "**Rows 2, 5:** \"Respiratory infection\" was not present at either visit.", "score": 0.91, "match_basis": "verbatim_token+domain_route:FA"}, {"md_atom_id": "md_dmFA_assn_a007", "md_file": "knowledge_base/domains/FA/assumptions.md", "md_atom_type": "LIST_ITEM", "md_parent_section": "§FA [FA — Assumptions]", "md_verbatim": "5. When data collection establishes a relationship between FA records and an events or interventions record, the relationship should be represented in RELREC.", "score": 0.4706, "match_basis": "verbatim_token+domain_route:FA"}, {"md_atom_id": "md_dmFA_ex_a091", "md_file": "knowledge_base/domains/FA/examples.md", "md_atom_type": "TABLE_ROW", "md_parent_section": "§FA.4 [Example 4]", "md_verbatim": "| 2 | ABC101 | FA | 1234 | 2 | OCCUR | Occurrence Indicator | Respiratory Infection | N | N | | 2 | VISIT 2 | 2005-10-01 | SINCE LAST VISIT |", "score": 0.4536, "match_basis": "verbatim_token+domain_route:FA"}, {"md_atom_id": "md_dmFA_ex_a094", "md_file": "knowledge_base/domains/FA/examples.md", "md_atom_type": "TABLE_ROW", "md_parent_section": "§FA.4 [Example 4]", "md_verbatim": "| 5 | ABC101 | FA | 1234 | 5 | OCCUR | Occurrence Indicator | Respiratory Infection | N | N | | 3 | VISIT 3 | 2005-10-10 | SINCE LAST VISIT |", "score": 0.4536, "match_basis": "verbatim_token+domain_route:FA"}, {"md_atom_id": "md_dmFA_assn_a005", "md_file": "knowledge_base/domains/FA/assumptions.md", "md_atom_type": "LIST_ITEM", "md_parent_section": "§FA [FA — Assumptions]", "md_verbatim": "4. Some variables in the events and interventions domains (e.g., OCCUR, SEV, TOXGR) represent findings about the whole of the event or intervention. When FA is used to represent findings about a part of the event or intervention (i.e., the assessment has different timing from the event as a whole), the FATEST and FATESTCD values should be the same as the variable name and variable label in the corresponding event or intervention domain. See Section 6.4.3, Variables Unique to Findings About.", "score": 0.4493, "match_basis": "verbatim_token+domain_route:FA"}], "candidate_count": 5, "zero_candidate": false}
{"pdf_atom_id": "ig34_p0372_a016", "pdf_atom_type": "LIST_ITEM", "pdf_source": "SDTMIG_v3.4", "pdf_page": 372, "pdf_parent_section": "FA – Examples", "pdf_verbatim": "Row 3: The investigator did not ask the subject about the occurrence of nausea. This was represented by FASTAT=\"NOT DONE\".", "figure_ref": null, "candidates": [{"md_atom_id": "md_dmFA_ex_a086", "md_file": "knowledge_base/domains/FA/examples.md", "md_atom_type": "SENTENCE", "md_parent_section": "§FA.4 [Example 4]", "md_verbatim": "**Row 3:** The investigator did not ask the subject about the occurrence of nausea. This was represented by FASTAT=\"NOT DONE\".", "score": 0.91, "match_basis": "verbatim_token+domain_route:FA"}, {"md_atom_id": "md_dmFA_assn_a005", "md_file": "knowledge_base/domains/FA/assumptions.md", "md_atom_type": "LIST_ITEM", "md_parent_section": "§FA [FA — Assumptions]", "md_verbatim": "4. Some variables in the events and interventions domains (e.g., OCCUR, SEV, TOXGR) represent findings about the whole of the event or intervention. When FA is used to represent findings about a part of the event or intervention (i.e., the assessment has different timing from the event as a whole), the FATEST and FATESTCD values should be the same as the variable name and variable label in the corresponding event or intervention domain. See Section 6.4.3, Variables Unique to Findings About.", "score": 0.4816, "match_basis": "verbatim_token+domain_route:FA"}, {"md_atom_id": "md_dmFA_assn_a007", "md_file": "knowledge_base/domains/FA/assumptions.md", "md_atom_type": "LIST_ITEM", "md_parent_section": "§FA [FA — Assumptions]", "md_verbatim": "5. When data collection establishes a relationship between FA records and an events or interventions record, the relationship should be represented in RELREC.", "score": 0.475, "match_basis": "verbatim_token+domain_route:FA"}, {"md_atom_id": "md_dmFA_assn_a003", "md_file": "knowledge_base/domains/FA/assumptions.md", "md_atom_type": "LIST_ITEM", "md_parent_section": "§FA [FA — Assumptions]", "md_verbatim": "2. See Section 6.4.1, When to Use Findings About Events or Interventions; and Section 8.6.3, Guidelines for Differentiating Between Interventions, Events, Findings, and Findings About Events or Interventions; for guidance on deciding between the use of the FA domain and other SDTM structures.", "score": 0.4545, "match_basis": "verbatim_token+domain_route:FA"}, {"md_atom_id": "md_dmFA_assn_a002", "md_file": "knowledge_base/domains/FA/assumptions.md", "md_atom_type": "LIST_ITEM", "md_parent_section": "§FA [FA — Assumptions]", "md_verbatim": "1. The Findings About domain shares all qualities and conventions of findings observations.", "score": 0.4472, "match_basis": "verbatim_token+domain_route:FA"}], "candidate_count": 5, "zero_candidate": false}
{"pdf_atom_id": "ig34_p0372_a017", "pdf_atom_type": "LIST_ITEM", "pdf_source": "SDTMIG_v3.4", "pdf_page": 372, "pdf_parent_section": "FA – Examples", "pdf_verbatim": "Row 6: \"Nausea\" was reported at visit 3.", "figure_ref": null, "candidates": [{"md_atom_id": "md_dmFA_ex_a087", "md_file": "knowledge_base/domains/FA/examples.md", "md_atom_type": "SENTENCE", "md_parent_section": "§FA.4 [Example 4]", "md_verbatim": "**Row 6:** \"Nausea\" was reported at visit 3.", "score": 0.91, "match_basis": "verbatim_token+domain_route:FA"}, {"md_atom_id": "md_dmFA_ex_a084", "md_file": "knowledge_base/domains/FA/examples.md", "md_atom_type": "SENTENCE", "md_parent_section": "§FA.4 [Example 4]", "md_verbatim": "**Rows 1, 4:** \"Headache\" was reported at both visits.", "score": 0.574, "match_basis": "verbatim_token+domain_route:FA"}, {"md_atom_id": "md_dmFA_ex_a110", "md_file": "knowledge_base/domains/FA/examples.md", "md_atom_type": "SENTENCE", "md_parent_section": "§FA.5 [Example 5]", "md_verbatim": "**Rows 8-10:** Show the results for the nausea tests at visit 1.", "score": 0.4814, "match_basis": "verbatim_token+domain_route:FA"}, {"md_atom_id": "md_dmFA_ex_a113", "md_file": "knowledge_base/domains/FA/examples.md", "md_atom_type": "SENTENCE", "md_parent_section": "§FA.5 [Example 5]", "md_verbatim": "**Row 15:** Indicates that the occurrence of nausea was not assessed at visit 2.", "score": 0.4485, "match_basis": "verbatim_token+domain_route:FA"}, {"md_atom_id": "md_dmFA_assn_a007", "md_file": "knowledge_base/domains/FA/assumptions.md", "md_atom_type": "LIST_ITEM", "md_parent_section": "§FA [FA — Assumptions]", "md_verbatim": "5. When data collection establishes a relationship between FA records and an events or interventions record, the relationship should be represented in RELREC.", "score": 0.4156, "match_basis": "verbatim_token+domain_route:FA"}], "candidate_count": 5, "zero_candidate": false}
{"pdf_atom_id": "ig34_p0372_a018", "pdf_atom_type": "CODE_LITERAL", "pdf_source": "SDTMIG_v3.4", "pdf_page": 372, "pdf_parent_section": "FA – Examples", "pdf_verbatim": "faae.xpt", "figure_ref": null, "candidates": [{"md_atom_id": "md_dmFA_ex_a044", "md_file": "knowledge_base/domains/FA/examples.md", "md_atom_type": "SENTENCE", "md_parent_section": "§FA.2 [Example 2]", "md_verbatim": "**faae.xpt**", "score": 0.79, "match_basis": "verbatim_token+domain_route:FA"}, {"md_atom_id": "md_dmFA_ex_a088", "md_file": "knowledge_base/domains/FA/examples.md", "md_atom_type": "SENTENCE", "md_parent_section": "§FA.4 [Example 4]", "md_verbatim": "**faae.xpt**", "score": 0.79, "match_basis": "verbatim_token+domain_route:FA"}, {"md_atom_id": "md_dmFA_ex_a147", "md_file": "knowledge_base/domains/FA/examples.md", "md_atom_type": "SENTENCE", "md_parent_section": "§FA.6 [Example 6]", "md_verbatim": "**faae.xpt**", "score": 0.79, "match_basis": "verbatim_token+domain_route:FA"}, {"md_atom_id": "md_dmFA_ex_a005", "md_file": "knowledge_base/domains/FA/examples.md", "md_atom_type": "SENTENCE", "md_parent_section": "§FA.1 [Example 1]", "md_verbatim": "**ce.xpt**", "score": 0.39, "match_basis": "verbatim_token+domain_route:FA"}, {"md_atom_id": "md_dmFA_ex_a009", "md_file": "knowledge_base/domains/FA/examples.md", "md_atom_type": "SENTENCE", "md_parent_section": "§FA.1 [Example 1]", "md_verbatim": "**ex.xpt**", "score": 0.39, "match_basis": "verbatim_token+domain_route:FA"}, {"md_atom_id": "md_dmFA_ex_a041", "md_file": "knowledge_base/domains/FA/examples.md", "md_atom_type": "SENTENCE", "md_parent_section": "§FA.2 [Example 2]", "md_verbatim": "**ae.xpt**", "score": 0.39, "match_basis": "verbatim_token+domain_route:FA"}, {"md_atom_id": "md_dmFA_ex_a070", "md_file": "knowledge_base/domains/FA/examples.md", "md_atom_type": "SENTENCE", "md_parent_section": "§FA.3 [Example 3]", "md_verbatim": "**mh.xpt**", "score": 0.39, "match_basis": "verbatim_token+domain_route:FA"}, {"md_atom_id": "md_dmFA_ex_a098", "md_file": "knowledge_base/domains/FA/examples.md", "md_atom_type": "SENTENCE", "md_parent_section": "§FA.4 [Example 4]", "md_verbatim": "**ae.xpt**", "score": 0.39, "match_basis": "verbatim_token+domain_route:FA"}, {"md_atom_id": "md_dmFA_ex_a140", "md_file": "knowledge_base/domains/FA/examples.md", "md_atom_type": "SENTENCE", "md_parent_section": "§FA.6 [Example 6]", "md_verbatim": "**ae.xpt**", "score": 0.39, "match_basis": "verbatim_token+domain_route:FA"}, {"md_atom_id": "md_dmFA_ex_a015", "md_file": "knowledge_base/domains/FA/examples.md", "md_atom_type": "SENTENCE", "md_parent_section": "§FA.1 [Example 1]", "md_verbatim": "**face.xpt**", "score": 0.31, "match_basis": "verbatim_token+domain_route:FA"}], "candidate_count": 10, "zero_candidate": false}
{"pdf_atom_id": "ig34_p0372_a019", "pdf_atom_type": "TABLE_HEADER", "pdf_source": "SDTMIG_v3.4", "pdf_page": 372, "pdf_parent_section": "FA – Examples", "pdf_verbatim": "| Row | STUDYID | DOMAIN | USUBJID | FASEQ | FATESTCD | FATEST | FAOBJ | FAORRES | FASTRESC | FASTAT | VISITNUM | VISIT | FADTC | FAEVINTX |", "figure_ref": null, "candidates": [{"md_atom_id": "md_dmFA_ex_a089", "md_file": "knowledge_base/domains/FA/examples.md", "md_atom_type": "TABLE_HEADER", "md_parent_section": "§FA.4 [Example 4]", "md_verbatim": "| Row | STUDYID | DOMAIN | USUBJID | FASEQ | FATESTCD | FATEST | FAOBJ | FAORRES | FASTRESC | FASTAT | VISITNUM | VISIT | FADTC | FAEVINTX |\n|-----|---------|--------|---------|-------|----------|--------|-------|---------|----------|--------|----------|-------|-------|----------|", "score": 1.0, "match_basis": "verbatim_token+domain_route:FA"}, {"md_atom_id": "md_dmFA_ex_a115", "md_file": "knowledge_base/domains/FA/examples.md", "md_atom_type": "TABLE_HEADER", "md_parent_section": "§FA.5 [Example 5]", "md_verbatim": "| Row | STUDYID | DOMAIN | USUBJID | FASEQ | FATESTCD | FATEST | FAOBJ | FACAT | FAORRES | FAORRESU | FASTRESC | FASTRESN | FASTRESU | FASTAT | VISITNUM | VISIT | FADTC | FAEVLINT |\n|-----|---------|--------|---------|-------|----------|--------|-------|-------|---------|----------|----------|----------|----------|--------|----------|-------|-------|----------|", "score": 0.89, "match_basis": "verbatim_token+domain_route:FA"}, {"md_atom_id": "md_dmFA_ex_a045", "md_file": "knowledge_base/domains/FA/examples.md", "md_atom_type": "TABLE_HEADER", "md_parent_section": "§FA.2 [Example 2]", "md_verbatim": "| Row | STUDYID | DOMAIN | USUBJID | FASEQ | FASPID | FATESTCD | FATEST | FAOBJ | FAORRES | FAORRESU | FASTRESC | FASTRESU | VISITNUM | FADTC |\n|-----|---------|--------|---------|-------|--------|----------|--------|-------|---------|----------|----------|----------|----------|-------|", "score": 0.8714, "match_basis": "verbatim_token+domain_route:FA"}, {"md_atom_id": "md_dmFA_ex_a148", "md_file": "knowledge_base/domains/FA/examples.md", "md_atom_type": "TABLE_HEADER", "md_parent_section": "§FA.6 [Example 6]", "md_verbatim": "| Row | STUDYID | DOMAIN | USUBJID | FASEQ | FASPID | FATESTCD | FATEST | FAOBJ | FAORRES | FACOLSRT | VISITNUM | VISIT | FADTC | FAEVINTX |\n|-----|---------|--------|---------|-------|--------|----------|--------|-------|---------|----------|----------|-------|-------|----------|", "score": 0.8525, "match_basis": "verbatim_token+domain_route:FA"}, {"md_atom_id": "md_dmFA_ex_a016", "md_file": "knowledge_base/domains/FA/examples.md", "md_atom_type": "TABLE_HEADER", "md_parent_section": "§FA.1 [Example 1]", "md_verbatim": "| Row | STUDYID | DOMAIN | USUBJID | FASEQ | FASPID | FATESTCD | FATEST | FAOBJ | FACAT | FAORRES | FASTRESC | FADTC | FATPT | FATPTNUM | FAELTM | FATPTREF |\n|-----|---------|--------|---------|-------|--------|----------|--------|-------|-------|---------|----------|-------|-------|----------|--------|----------|", "score": 0.7727, "match_basis": "verbatim_token+domain_route:FA"}], "candidate_count": 5, "zero_candidate": false}
{"pdf_atom_id": "ig34_p0372_a020", "pdf_atom_type": "TABLE_ROW", "pdf_source": "SDTMIG_v3.4", "pdf_page": 372, "pdf_parent_section": "FA – Examples", "pdf_verbatim": "| 1 | ABC101 | FA | 1234 | 1 | OCCUR | Occurrence Indicator | Headache | Y | Y |  | 2 | VISIT 2 | 2005-10-01 | SINCE LAST VISIT |", "figure_ref": null, "candidates": [{"md_atom_id": "md_dmFA_ex_a090", "md_file": "knowledge_base/domains/FA/examples.md", "md_atom_type": "TABLE_ROW", "md_parent_section": "§FA.4 [Example 4]", "md_verbatim": "| 1 | ABC101 | FA | 1234 | 1 | OCCUR | Occurrence Indicator | Headache | Y | Y | | 2 | VISIT 2 | 2005-10-01 | SINCE LAST VISIT |", "score": 1.0, "match_basis": "verbatim_token+domain_route:FA"}, {"md_atom_id": "md_dmFA_ex_a093", "md_file": "knowledge_base/domains/FA/examples.md", "md_atom_type": "TABLE_ROW", "md_parent_section": "§FA.4 [Example 4]", "md_verbatim": "| 4 | ABC101 | FA | 1234 | 4 | OCCUR | Occurrence Indicator | Headache | Y | Y | | 3 | VISIT 3 | 2005-10-10 | SINCE LAST VISIT |", "score": 1.0, "match_basis": "verbatim_token+domain_route:FA"}, {"md_atom_id": "md_dmFA_ex_a095", "md_file": "knowledge_base/domains/FA/examples.md", "md_atom_type": "TABLE_ROW", "md_parent_section": "§FA.4 [Example 4]", "md_verbatim": "| 6 | ABC101 | FA | 1234 | 6 | OCCUR | Occurrence Indicator | Nausea | Y | Y | | 3 | VISIT 3 | 2005-10-10 | SINCE LAST VISIT |", "score": 0.85, "match_basis": "verbatim_token+domain_route:FA"}, {"md_atom_id": "md_dmFA_ex_a092", "md_file": "knowledge_base/domains/FA/examples.md", "md_atom_type": "TABLE_ROW", "md_parent_section": "§FA.4 [Example 4]", "md_verbatim": "| 3 | ABC101 | FA | 1234 | 3 | OCCUR | Occurrence Indicator | Nausea | | | NOT DONE | 2 | VISIT 2 | 2005-10-01 | SINCE LAST VISIT |", "score": 0.8186, "match_basis": "verbatim_token+domain_route:FA"}, {"md_atom_id": "md_dmFA_ex_a091", "md_file": "knowledge_base/domains/FA/examples.md", "md_atom_type": "TABLE_ROW", "md_parent_section": "§FA.4 [Example 4]", "md_verbatim": "| 2 | ABC101 | FA | 1234 | 2 | OCCUR | Occurrence Indicator | Respiratory Infection | N | N | | 2 | VISIT 2 | 2005-10-01 | SINCE LAST VISIT |", "score": 0.76, "match_basis": "verbatim_token+domain_route:FA"}], "candidate_count": 5, "zero_candidate": false}
{"pdf_atom_id": "ig34_p0372_a021", "pdf_atom_type": "TABLE_ROW", "pdf_source": "SDTMIG_v3.4", "pdf_page": 372, "pdf_parent_section": "FA – Examples", "pdf_verbatim": "| 2 | ABC101 | FA | 1234 | 2 | OCCUR | Occurrence Indicator | Respiratory Infection | N | N |  | 2 | VISIT 2 | 2005-10-01 | SINCE LAST VISIT |", "figure_ref": null, "candidates": [{"md_atom_id": "md_dmFA_ex_a091", "md_file": "knowledge_base/domains/FA/examples.md", "md_atom_type": "TABLE_ROW", "md_parent_section": "§FA.4 [Example 4]", "md_verbatim": "| 2 | ABC101 | FA | 1234 | 2 | OCCUR | Occurrence Indicator | Respiratory Infection | N | N | | 2 | VISIT 2 | 2005-10-01 | SINCE LAST VISIT |", "score": 1.0, "match_basis": "verbatim_token+domain_route:FA"}, {"md_atom_id": "md_dmFA_ex_a094", "md_file": "knowledge_base/domains/FA/examples.md", "md_atom_type": "TABLE_ROW", "md_parent_section": "§FA.4 [Example 4]", "md_verbatim": "| 5 | ABC101 | FA | 1234 | 5 | OCCUR | Occurrence Indicator | Respiratory Infection | N | N | | 3 | VISIT 3 | 2005-10-10 | SINCE LAST VISIT |", "score": 1.0, "match_basis": "verbatim_token+domain_route:FA"}, {"md_atom_id": "md_dmFA_ex_a095", "md_file": "knowledge_base/domains/FA/examples.md", "md_atom_type": "TABLE_ROW", "md_parent_section": "§FA.4 [Example 4]", "md_verbatim": "| 6 | ABC101 | FA | 1234 | 6 | OCCUR | Occurrence Indicator | Nausea | Y | Y | | 3 | VISIT 3 | 2005-10-10 | SINCE LAST VISIT |", "score": 0.775, "match_basis": "verbatim_token+domain_route:FA"}, {"md_atom_id": "md_dmFA_ex_a090", "md_file": "knowledge_base/domains/FA/examples.md", "md_atom_type": "TABLE_ROW", "md_parent_section": "§FA.4 [Example 4]", "md_verbatim": "| 1 | ABC101 | FA | 1234 | 1 | OCCUR | Occurrence Indicator | Headache | Y | Y | | 2 | VISIT 2 | 2005-10-01 | SINCE LAST VISIT |", "score": 0.76, "match_basis": "verbatim_token+domain_route:FA"}, {"md_atom_id": "md_dmFA_ex_a093", "md_file": "knowledge_base/domains/FA/examples.md", "md_atom_type": "TABLE_ROW", "md_parent_section": "§FA.4 [Example 4]", "md_verbatim": "| 4 | ABC101 | FA | 1234 | 4 | OCCUR | Occurrence Indicator | Headache | Y | Y | | 3 | VISIT 3 | 2005-10-10 | SINCE LAST VISIT |", "score": 0.76, "match_basis": "verbatim_token+domain_route:FA"}], "candidate_count": 5, "zero_candidate": false}
{"pdf_atom_id": "ig34_p0372_a022", "pdf_atom_type": "TABLE_ROW", "pdf_source": "SDTMIG_v3.4", "pdf_page": 372, "pdf_parent_section": "FA – Examples", "pdf_verbatim": "| 3 | ABC101 | FA | 1234 | 3 | OCCUR | Occurrence Indicator | Nausea |  |  | NOT DONE | 2 | VISIT 2 | 2005-10-01 | SINCE LAST VISIT |", "figure_ref": null, "candidates": [{"md_atom_id": "md_dmFA_ex_a092", "md_file": "knowledge_base/domains/FA/examples.md", "md_atom_type": "TABLE_ROW", "md_parent_section": "§FA.4 [Example 4]", "md_verbatim": "| 3 | ABC101 | FA | 1234 | 3 | OCCUR | Occurrence Indicator | Nausea | | | NOT DONE | 2 | VISIT 2 | 2005-10-01 | SINCE LAST VISIT |", "score": 1.0, "match_basis": "verbatim_token+domain_route:FA"}, {"md_atom_id": "md_dmFA_ex_a095", "md_file": "knowledge_base/domains/FA/examples.md", "md_atom_type": "TABLE_ROW", "md_parent_section": "§FA.4 [Example 4]", "md_verbatim": "| 6 | ABC101 | FA | 1234 | 6 | OCCUR | Occurrence Indicator | Nausea | Y | Y | | 3 | VISIT 3 | 2005-10-10 | SINCE LAST VISIT |", "score": 0.9514, "match_basis": "verbatim_token+domain_route:FA"}, {"md_atom_id": "md_dmFA_ex_a090", "md_file": "knowledge_base/domains/FA/examples.md", "md_atom_type": "TABLE_ROW", "md_parent_section": "§FA.4 [Example 4]", "md_verbatim": "| 1 | ABC101 | FA | 1234 | 1 | OCCUR | Occurrence Indicator | Headache | Y | Y | | 2 | VISIT 2 | 2005-10-01 | SINCE LAST VISIT |", "score": 0.8186, "match_basis": "verbatim_token+domain_route:FA"}, {"md_atom_id": "md_dmFA_ex_a093", "md_file": "knowledge_base/domains/FA/examples.md", "md_atom_type": "TABLE_ROW", "md_parent_section": "§FA.4 [Example 4]", "md_verbatim": "| 4 | ABC101 | FA | 1234 | 4 | OCCUR | Occurrence Indicator | Headache | Y | Y | | 3 | VISIT 3 | 2005-10-10 | SINCE LAST VISIT |", "score": 0.8186, "match_basis": "verbatim_token+domain_route:FA"}, {"md_atom_id": "md_dmFA_ex_a091", "md_file": "knowledge_base/domains/FA/examples.md", "md_atom_type": "TABLE_ROW", "md_parent_section": "§FA.4 [Example 4]", "md_verbatim": "| 2 | ABC101 | FA | 1234 | 2 | OCCUR | Occurrence Indicator | Respiratory Infection | N | N | | 2 | VISIT 2 | 2005-10-01 | SINCE LAST VISIT |", "score": 0.7529, "match_basis": "verbatim_token+domain_route:FA"}], "candidate_count": 5, "zero_candidate": false}
{"pdf_atom_id": "ig34_p0372_a023", "pdf_atom_type": "TABLE_ROW", "pdf_source": "SDTMIG_v3.4", "pdf_page": 372, "pdf_parent_section": "FA – Examples", "pdf_verbatim": "| 4 | ABC101 | FA | 1234 | 4 | OCCUR | Occurrence Indicator | Headache | Y | Y |  | 3 | VISIT 3 | 2005-10-10 | SINCE LAST VISIT |", "figure_ref": null, "candidates": [{"md_atom_id": "md_dmFA_ex_a090", "md_file": "knowledge_base/domains/FA/examples.md", "md_atom_type": "TABLE_ROW", "md_parent_section": "§FA.4 [Example 4]", "md_verbatim": "| 1 | ABC101 | FA | 1234 | 1 | OCCUR | Occurrence Indicator | Headache | Y | Y | | 2 | VISIT 2 | 2005-10-01 | SINCE LAST VISIT |", "score": 1.0, "match_basis": "verbatim_token+domain_route:FA"}, {"md_atom_id": "md_dmFA_ex_a093", "md_file": "knowledge_base/domains/FA/examples.md", "md_atom_type": "TABLE_ROW", "md_parent_section": "§FA.4 [Example 4]", "md_verbatim": "| 4 | ABC101 | FA | 1234 | 4 | OCCUR | Occurrence Indicator | Headache | Y | Y | | 3 | VISIT 3 | 2005-10-10 | SINCE LAST VISIT |", "score": 1.0, "match_basis": "verbatim_token+domain_route:FA"}, {"md_atom_id": "md_dmFA_ex_a095", "md_file": "knowledge_base/domains/FA/examples.md", "md_atom_type": "TABLE_ROW", "md_parent_section": "§FA.4 [Example 4]", "md_verbatim": "| 6 | ABC101 | FA | 1234 | 6 | OCCUR | Occurrence Indicator | Nausea | Y | Y | | 3 | VISIT 3 | 2005-10-10 | SINCE LAST VISIT |", "score": 0.85, "match_basis": "verbatim_token+domain_route:FA"}, {"md_atom_id": "md_dmFA_ex_a092", "md_file": "knowledge_base/domains/FA/examples.md", "md_atom_type": "TABLE_ROW", "md_parent_section": "§FA.4 [Example 4]", "md_verbatim": "| 3 | ABC101 | FA | 1234 | 3 | OCCUR | Occurrence Indicator | Nausea | | | NOT DONE | 2 | VISIT 2 | 2005-10-01 | SINCE LAST VISIT |", "score": 0.8186, "match_basis": "verbatim_token+domain_route:FA"}, {"md_atom_id": "md_dmFA_ex_a091", "md_file": "knowledge_base/domains/FA/examples.md", "md_atom_type": "TABLE_ROW", "md_parent_section": "§FA.4 [Example 4]", "md_verbatim": "| 2 | ABC101 | FA | 1234 | 2 | OCCUR | Occurrence Indicator | Respiratory Infection | N | N | | 2 | VISIT 2 | 2005-10-01 | SINCE LAST VISIT |", "score": 0.76, "match_basis": "verbatim_token+domain_route:FA"}], "candidate_count": 5, "zero_candidate": false}
{"pdf_atom_id": "ig34_p0372_a024", "pdf_atom_type": "TABLE_ROW", "pdf_source": "SDTMIG_v3.4", "pdf_page": 372, "pdf_parent_section": "FA – Examples", "pdf_verbatim": "| 5 | ABC101 | FA | 1234 | 5 | OCCUR | Occurrence Indicator | Respiratory Infection | N | N |  | 3 | VISIT 3 | 2005-10-10 | SINCE LAST VISIT |", "figure_ref": null, "candidates": [{"md_atom_id": "md_dmFA_ex_a091", "md_file": "knowledge_base/domains/FA/examples.md", "md_atom_type": "TABLE_ROW", "md_parent_section": "§FA.4 [Example 4]", "md_verbatim": "| 2 | ABC101 | FA | 1234 | 2 | OCCUR | Occurrence Indicator | Respiratory Infection | N | N | | 2 | VISIT 2 | 2005-10-01 | SINCE LAST VISIT |", "score": 1.0, "match_basis": "verbatim_token+domain_route:FA"}, {"md_atom_id": "md_dmFA_ex_a094", "md_file": "knowledge_base/domains/FA/examples.md", "md_atom_type": "TABLE_ROW", "md_parent_section": "§FA.4 [Example 4]", "md_verbatim": "| 5 | ABC101 | FA | 1234 | 5 | OCCUR | Occurrence Indicator | Respiratory Infection | N | N | | 3 | VISIT 3 | 2005-10-10 | SINCE LAST VISIT |", "score": 1.0, "match_basis": "verbatim_token+domain_route:FA"}, {"md_atom_id": "md_dmFA_ex_a095", "md_file": "knowledge_base/domains/FA/examples.md", "md_atom_type": "TABLE_ROW", "md_parent_section": "§FA.4 [Example 4]", "md_verbatim": "| 6 | ABC101 | FA | 1234 | 6 | OCCUR | Occurrence Indicator | Nausea | Y | Y | | 3 | VISIT 3 | 2005-10-10 | SINCE LAST VISIT |", "score": 0.775, "match_basis": "verbatim_token+domain_route:FA"}, {"md_atom_id": "md_dmFA_ex_a090", "md_file": "knowledge_base/domains/FA/examples.md", "md_atom_type": "TABLE_ROW", "md_parent_section": "§FA.4 [Example 4]", "md_verbatim": "| 1 | ABC101 | FA | 1234 | 1 | OCCUR | Occurrence Indicator | Headache | Y | Y | | 2 | VISIT 2 | 2005-10-01 | SINCE LAST VISIT |", "score": 0.76, "match_basis": "verbatim_token+domain_route:FA"}, {"md_atom_id": "md_dmFA_ex_a093", "md_file": "knowledge_base/domains/FA/examples.md", "md_atom_type": "TABLE_ROW", "md_parent_section": "§FA.4 [Example 4]", "md_verbatim": "| 4 | ABC101 | FA | 1234 | 4 | OCCUR | Occurrence Indicator | Headache | Y | Y | | 3 | VISIT 3 | 2005-10-10 | SINCE LAST VISIT |", "score": 0.76, "match_basis": "verbatim_token+domain_route:FA"}], "candidate_count": 5, "zero_candidate": false}
{"pdf_atom_id": "ig34_p0372_a025", "pdf_atom_type": "TABLE_ROW", "pdf_source": "SDTMIG_v3.4", "pdf_page": 372, "pdf_parent_section": "FA – Examples", "pdf_verbatim": "| 6 | ABC101 | FA | 1234 | 6 | OCCUR | Occurrence Indicator | Nausea | Y | Y |  | 3 | VISIT 3 | 2005-10-10 | SINCE LAST VISIT |", "figure_ref": null, "candidates": [{"md_atom_id": "md_dmFA_ex_a095", "md_file": "knowledge_base/domains/FA/examples.md", "md_atom_type": "TABLE_ROW", "md_parent_section": "§FA.4 [Example 4]", "md_verbatim": "| 6 | ABC101 | FA | 1234 | 6 | OCCUR | Occurrence Indicator | Nausea | Y | Y | | 3 | VISIT 3 | 2005-10-10 | SINCE LAST VISIT |", "score": 1.0, "match_basis": "verbatim_token+domain_route:FA"}, {"md_atom_id": "md_dmFA_ex_a092", "md_file": "knowledge_base/domains/FA/examples.md", "md_atom_type": "TABLE_ROW", "md_parent_section": "§FA.4 [Example 4]", "md_verbatim": "| 3 | ABC101 | FA | 1234 | 3 | OCCUR | Occurrence Indicator | Nausea | | | NOT DONE | 2 | VISIT 2 | 2005-10-01 | SINCE LAST VISIT |", "score": 0.9514, "match_basis": "verbatim_token+domain_route:FA"}, {"md_atom_id": "md_dmFA_ex_a090", "md_file": "knowledge_base/domains/FA/examples.md", "md_atom_type": "TABLE_ROW", "md_parent_section": "§FA.4 [Example 4]", "md_verbatim": "| 1 | ABC101 | FA | 1234 | 1 | OCCUR | Occurrence Indicator | Headache | Y | Y | | 2 | VISIT 2 | 2005-10-01 | SINCE LAST VISIT |", "score": 0.85, "match_basis": "verbatim_token+domain_route:FA"}, {"md_atom_id": "md_dmFA_ex_a093", "md_file": "knowledge_base/domains/FA/examples.md", "md_atom_type": "TABLE_ROW", "md_parent_section": "§FA.4 [Example 4]", "md_verbatim": "| 4 | ABC101 | FA | 1234 | 4 | OCCUR | Occurrence Indicator | Headache | Y | Y | | 3 | VISIT 3 | 2005-10-10 | SINCE LAST VISIT |", "score": 0.85, "match_basis": "verbatim_token+domain_route:FA"}, {"md_atom_id": "md_dmFA_ex_a091", "md_file": "knowledge_base/domains/FA/examples.md", "md_atom_type": "TABLE_ROW", "md_parent_section": "§FA.4 [Example 4]", "md_verbatim": "| 2 | ABC101 | FA | 1234 | 2 | OCCUR | Occurrence Indicator | Respiratory Infection | N | N | | 2 | VISIT 2 | 2005-10-01 | SINCE LAST VISIT |", "score": 0.775, "match_basis": "verbatim_token+domain_route:FA"}], "candidate_count": 5, "zero_candidate": false}
{"pdf_atom_id": "ig34_p0372_a026", "pdf_atom_type": "SENTENCE", "pdf_source": "SDTMIG_v3.4", "pdf_page": 372, "pdf_parent_section": "FA – Examples", "pdf_verbatim": "For each prespecified adverse event for which FAORRES = \"Y\", the adverse event has a record in the AE domain with AEPRESP = \"Y\". No relationship was collected to link the FAAE record for the occurrence indicator test with the AE entries, so no RELREC was created.", "figure_ref": null, "candidates": [{"md_atom_id": "md_dmFA_ex_a096", "md_file": "knowledge_base/domains/FA/examples.md", "md_atom_type": "SENTENCE", "md_parent_section": "§FA.4 [Example 4]", "md_verbatim": "For each prespecified adverse event for which FAORRES = \"Y\", the adverse event has a record in the AE domain with AEPRESP = \"Y\". No relationship was collected to link the FAAE record for the occurrence indicator test with the AE entries, so no RELREC was created.", "score": 1.0, "match_basis": "verbatim_token+domain_route:FA"}, {"md_atom_id": "md_dmFA_ex_a083", "md_file": "knowledge_base/domains/FA/examples.md", "md_atom_type": "SENTENCE", "md_parent_section": "§FA.4 [Example 4]", "md_verbatim": "In this example, the occurrence of prespecified adverse events was solicited at every visit and the visit date was used as the date of collection. The data collected meet criterion 3 in Section 6.4.1, When to Use Findings About Events or Interventions; that is, data that indicate the occurrence of prespecified AEs.", "score": 0.5899, "match_basis": "verbatim_token+domain_route:FA"}, {"md_atom_id": "md_dmFA_ex_a014", "md_file": "knowledge_base/domains/FA/examples.md", "md_atom_type": "SENTENCE", "md_parent_section": "§FA.1 [Example 1]", "md_verbatim": "**Rows 2-5, 7-10, 12-15:** The presence of symptoms associated with migraine was represented with the name of the symptom in FAOBJ, as the data collected is about the occurrence of a particular symptom. The test code value \"OCCUR\" is derived from the events class variable name --OCCUR, but is an assessment at a point in time, rather than about the event as a whole. The relationship of these symptoms to migraine is represented in FACAT, which indicates that these data were collected in the Migraine Symptoms Diary.", "score": 0.56, "match_basis": "verbatim_token+domain_route:FA"}, {"md_atom_id": "md_dmFA_ex_a032", "md_file": "knowledge_base/domains/FA/examples.md", "md_atom_type": "SENTENCE", "md_parent_section": "§FA.1 [Example 1]", "md_verbatim": "A dataset-level relationship in RELREC is based on the sponsor ID (--SPID) value, which was populated with a system-generated identifier unique to each iteration of this form.", "score": 0.5289, "match_basis": "verbatim_token+domain_route:FA"}, {"md_atom_id": "md_dmFA_ex_a144", "md_file": "knowledge_base/domains/FA/examples.md", "md_atom_type": "SENTENCE", "md_parent_section": "§FA.6 [Example 6]", "md_verbatim": "The values in FAOBJ are the values from AEDECOD, which were assigned during coding, rather than directly collected. The values in FASPID are the AE identifiers from AESPID. FAEVINTX indicates that the evaluation was for the period since the last visit.", "score": 0.5223, "match_basis": "verbatim_token+domain_route:FA"}], "candidate_count": 5, "zero_candidate": false}
{"pdf_atom_id": "ig34_p0372_a027", "pdf_atom_type": "SENTENCE", "pdf_source": "SDTMIG_v3.4", "pdf_page": 372, "pdf_parent_section": "FA – Examples", "pdf_verbatim": "Note that not all AE expected variables are included in the following example.", "figure_ref": null, "candidates": [{"md_atom_id": "md_dmFA_ex_a097", "md_file": "knowledge_base/domains/FA/examples.md", "md_atom_type": "SENTENCE", "md_parent_section": "§FA.4 [Example 4]", "md_verbatim": "Note that not all AE expected variables are included in the following example.", "score": 1.0, "match_basis": "verbatim_token+domain_route:FA"}, {"md_atom_id": "md_dmFA_ex_a003", "md_file": "knowledge_base/domains/FA/examples.md", "md_atom_type": "SENTENCE", "md_parent_section": "§FA.1 [Example 1]", "md_verbatim": "The following example CRF collects severity and symptoms data at multiple time points about a migraine event, relative to dosing.", "score": 0.4944, "match_basis": "verbatim_token+domain_route:FA"}, {"md_atom_id": "md_dmFA_ex_a139", "md_file": "knowledge_base/domains/FA/examples.md", "md_atom_type": "SENTENCE", "md_parent_section": "§FA.6 [Example 6]", "md_verbatim": "In this example, the sponsor populated AESEV with the maximum severity over the course of the event. This was not directly collected, but rather determined from the weekly maximum severity assessments collected on the CRF. For clarity, only selected variables in the AE dataset are shown here.", "score": 0.4912, "match_basis": "verbatim_token+domain_route:FA"}, {"md_atom_id": "md_dmFA_ex_a069", "md_file": "knowledge_base/domains/FA/examples.md", "md_atom_type": "SENTENCE", "md_parent_section": "§FA.3 [Example 3]", "md_verbatim": "**Rows 2-6:** No start or end dates were collected for the symptoms, so the variable MHEVDTYP is not relevant for those records. MHEVDTYP is used only to specify the aspect of the event used to determine start and/or end dates.", "score": 0.4788, "match_basis": "verbatim_token+domain_route:FA"}, {"md_atom_id": "md_dmFA_ex_a039", "md_file": "knowledge_base/domains/FA/examples.md", "md_atom_type": "SENTENCE", "md_parent_section": "§FA.2 [Example 2]", "md_verbatim": "In this scenario, the injection site rash event was considered a reportable adverse event; therefore, the rash itself was represented in the AE domain. The rash assessment form collects a reference number for the AE, represented in AESPID. Certain required or expected variables have been omitted from the example dataset in consideration of space and clarity.", "score": 0.4769, "match_basis": "verbatim_token+domain_route:FA"}], "candidate_count": 5, "zero_candidate": false}
{"pdf_atom_id": "ig34_p0372_a028", "pdf_atom_type": "LIST_ITEM", "pdf_source": "SDTMIG_v3.4", "pdf_page": 372, "pdf_parent_section": "FA – Examples", "pdf_verbatim": "Row 1: Comparison of this AE record with the FA dataset records for \"Headache\" shows that there are 2 records with FAOBJ=\"Headache\". FAORRES=\"Y\" indicates that this AE record is associated with both FA records, because this headache started before visit 2 and ended between visits 2 and 3.", "figure_ref": null, "candidates": [{"md_atom_id": "md_dmFA_ex_a102", "md_file": "knowledge_base/domains/FA/examples.md", "md_atom_type": "SENTENCE", "md_parent_section": "§FA.4 [Example 4]", "md_verbatim": "**Row 1:** Comparison of this AE record with the FA dataset records for \"Headache\" shows that there are 2 records with FAOBJ=\"Headache\". FAORRES=\"Y\" indicates that this AE record is associated with both FA records, because this headache started before visit 2 and ended between visits 2 and 3.", "score": 0.91, "match_basis": "verbatim_token+domain_route:FA"}, {"md_atom_id": "md_dmFA_ex_a103", "md_file": "knowledge_base/domains/FA/examples.md", "md_atom_type": "SENTENCE", "md_parent_section": "§FA.4 [Example 4]", "md_verbatim": "**Row 2:** Comparison of this AE record with the FA dataset shows that this AE started and ended in the time between visits 2 and 3, and is consistent with the FA response for FAOBJ=\"Nausea\" for visit 3.", "score": 0.6187, "match_basis": "verbatim_token+domain_route:FA"}, {"md_atom_id": "md_dmFA_ex_a145", "md_file": "knowledge_base/domains/FA/examples.md", "md_atom_type": "SENTENCE", "md_parent_section": "§FA.6 [Example 6]", "md_verbatim": "**Rows 1-4:** Show severity data collected at the 4 visits that occurred between the start and end of the AE \"Morning queasiness\". FAOBJ=NAUSEA, which is the value of AEDECOD in the associated AE record.", "score": 0.5007, "match_basis": "verbatim_token+domain_route:FA"}, {"md_atom_id": "md_dmFA_ex_a146", "md_file": "knowledge_base/domains/FA/examples.md", "md_atom_type": "SENTENCE", "md_parent_section": "§FA.6 [Example 6]", "md_verbatim": "**Rows 5-6:** Show severity data collected at the 2 visits that occurred between the start and end of the AE \"Watery stools.\" FAOBJ=DIARRHEA, which is the value of AEDECOD in the associated AE record.", "score": 0.5005, "match_basis": "verbatim_token+domain_route:FA"}, {"md_atom_id": "md_dmFA_assn_a008", "md_file": "knowledge_base/domains/FA/assumptions.md", "md_atom_type": "LIST_ITEM", "md_parent_section": "§FA [FA — Assumptions]", "md_verbatim": "   a. The FAOBJ variable alone is not sufficient to establish a relationship, because an events or interventions dataset may have multiple records for the same topic (e.g., --TERM or --DECOD, --TRT or --DECOD).", "score": 0.4904, "match_basis": "verbatim_token+domain_route:FA"}], "candidate_count": 5, "zero_candidate": false}
{"pdf_atom_id": "ig34_p0372_a029", "pdf_atom_type": "LIST_ITEM", "pdf_source": "SDTMIG_v3.4", "pdf_page": 372, "pdf_parent_section": "FA – Examples", "pdf_verbatim": "Row 2: Comparison of this AE record with the FA dataset shows that this AE started and ended in the time between visits 2 and 3, and is consistent with the FA response for FAOBJ=\"Nausea\" for visit 3.", "figure_ref": null, "candidates": [{"md_atom_id": "md_dmFA_ex_a103", "md_file": "knowledge_base/domains/FA/examples.md", "md_atom_type": "SENTENCE", "md_parent_section": "§FA.4 [Example 4]", "md_verbatim": "**Row 2:** Comparison of this AE record with the FA dataset shows that this AE started and ended in the time between visits 2 and 3, and is consistent with the FA response for FAOBJ=\"Nausea\" for visit 3.", "score": 0.91, "match_basis": "verbatim_token+domain_route:FA"}, {"md_atom_id": "md_dmFA_ex_a102", "md_file": "knowledge_base/domains/FA/examples.md", "md_atom_type": "SENTENCE", "md_parent_section": "§FA.4 [Example 4]", "md_verbatim": "**Row 1:** Comparison of this AE record with the FA dataset records for \"Headache\" shows that there are 2 records with FAOBJ=\"Headache\". FAORRES=\"Y\" indicates that this AE record is associated with both FA records, because this headache started before visit 2 and ended between visits 2 and 3.", "score": 0.6187, "match_basis": "verbatim_token+domain_route:FA"}, {"md_atom_id": "md_dmFA_assn_a007", "md_file": "knowledge_base/domains/FA/assumptions.md", "md_atom_type": "LIST_ITEM", "md_parent_section": "§FA [FA — Assumptions]", "md_verbatim": "5. When data collection establishes a relationship between FA records and an events or interventions record, the relationship should be represented in RELREC.", "score": 0.5, "match_basis": "verbatim_token+domain_route:FA"}, {"md_atom_id": "md_dmFA_assn_a008", "md_file": "knowledge_base/domains/FA/assumptions.md", "md_atom_type": "LIST_ITEM", "md_parent_section": "§FA [FA — Assumptions]", "md_verbatim": "   a. The FAOBJ variable alone is not sufficient to establish a relationship, because an events or interventions dataset may have multiple records for the same topic (e.g., --TERM or --DECOD, --TRT or --DECOD).", "score": 0.4923, "match_basis": "verbatim_token+domain_route:FA"}, {"md_atom_id": "md_dmFA_ex_a145", "md_file": "knowledge_base/domains/FA/examples.md", "md_atom_type": "SENTENCE", "md_parent_section": "§FA.6 [Example 6]", "md_verbatim": "**Rows 1-4:** Show severity data collected at the 4 visits that occurred between the start and end of the AE \"Morning queasiness\". FAOBJ=NAUSEA, which is the value of AEDECOD in the associated AE record.", "score": 0.4895, "match_basis": "verbatim_token+domain_route:FA"}], "candidate_count": 5, "zero_candidate": false}
{"pdf_atom_id": "ig34_p0373_a001", "pdf_atom_type": "CODE_LITERAL", "pdf_source": "SDTMIG_v3.4", "pdf_page": 373, "pdf_parent_section": "FA – Examples", "pdf_verbatim": "ae.xpt", "figure_ref": null, "candidates": [{"md_atom_id": "md_dmFA_ex_a005", "md_file": "knowledge_base/domains/FA/examples.md", "md_atom_type": "SENTENCE", "md_parent_section": "§FA.1 [Example 1]", "md_verbatim": "**ce.xpt**", "score": 0.79, "match_basis": "verbatim_token+domain_route:FA"}, {"md_atom_id": "md_dmFA_ex_a009", "md_file": "knowledge_base/domains/FA/examples.md", "md_atom_type": "SENTENCE", "md_parent_section": "§FA.1 [Example 1]", "md_verbatim": "**ex.xpt**", "score": 0.79, "match_basis": "verbatim_token+domain_route:FA"}, {"md_atom_id": "md_dmFA_ex_a041", "md_file": "knowledge_base/domains/FA/examples.md", "md_atom_type": "SENTENCE", "md_parent_section": "§FA.2 [Example 2]", "md_verbatim": "**ae.xpt**", "score": 0.79, "match_basis": "verbatim_token+domain_route:FA"}, {"md_atom_id": "md_dmFA_ex_a070", "md_file": "knowledge_base/domains/FA/examples.md", "md_atom_type": "SENTENCE", "md_parent_section": "§FA.3 [Example 3]", "md_verbatim": "**mh.xpt**", "score": 0.79, "match_basis": "verbatim_token+domain_route:FA"}, {"md_atom_id": "md_dmFA_ex_a098", "md_file": "knowledge_base/domains/FA/examples.md", "md_atom_type": "SENTENCE", "md_parent_section": "§FA.4 [Example 4]", "md_verbatim": "**ae.xpt**", "score": 0.79, "match_basis": "verbatim_token+domain_route:FA"}, {"md_atom_id": "md_dmFA_ex_a140", "md_file": "knowledge_base/domains/FA/examples.md", "md_atom_type": "SENTENCE", "md_parent_section": "§FA.6 [Example 6]", "md_verbatim": "**ae.xpt**", "score": 0.79, "match_basis": "verbatim_token+domain_route:FA"}, {"md_atom_id": "md_dmFA_ex_a015", "md_file": "knowledge_base/domains/FA/examples.md", "md_atom_type": "SENTENCE", "md_parent_section": "§FA.1 [Example 1]", "md_verbatim": "**face.xpt**", "score": 0.39, "match_basis": "verbatim_token+domain_route:FA"}, {"md_atom_id": "md_dmFA_ex_a044", "md_file": "knowledge_base/domains/FA/examples.md", "md_atom_type": "SENTENCE", "md_parent_section": "§FA.2 [Example 2]", "md_verbatim": "**faae.xpt**", "score": 0.39, "match_basis": "verbatim_token+domain_route:FA"}, {"md_atom_id": "md_dmFA_ex_a088", "md_file": "knowledge_base/domains/FA/examples.md", "md_atom_type": "SENTENCE", "md_parent_section": "§FA.4 [Example 4]", "md_verbatim": "**faae.xpt**", "score": 0.39, "match_basis": "verbatim_token+domain_route:FA"}, {"md_atom_id": "md_dmFA_ex_a114", "md_file": "knowledge_base/domains/FA/examples.md", "md_atom_type": "SENTENCE", "md_parent_section": "§FA.5 [Example 5]", "md_verbatim": "**face.xpt**", "score": 0.39, "match_basis": "verbatim_token+domain_route:FA"}], "candidate_count": 10, "zero_candidate": false}
{"pdf_atom_id": "ig34_p0373_a002", "pdf_atom_type": "TABLE_HEADER", "pdf_source": "SDTMIG_v3.4", "pdf_page": 373, "pdf_parent_section": "FA – Examples", "pdf_verbatim": "| Row | STUDYID | DOMAIN | USUBJID | AESEQ | AETERM | AEDECOD | AEPRESP | AEBODSYS | AESEV | AEACN | AESTDTC | AEENDTC |", "figure_ref": null, "candidates": [{"md_atom_id": "md_dmFA_ex_a099", "md_file": "knowledge_base/domains/FA/examples.md", "md_atom_type": "TABLE_HEADER", "md_parent_section": "§FA.4 [Example 4]", "md_verbatim": "| Row | STUDYID | DOMAIN | USUBJID | AESEQ | AETERM | AEDECOD | AEPRESP | AEBODSYS | AESEV | AEACN | AESTDTC | AEENDTC |\n|-----|---------|--------|---------|-------|--------|---------|---------|----------|-------|-------|---------|---------|", "score": 1.0, "match_basis": "verbatim_token+domain_route:FA"}, {"md_atom_id": "md_dmFA_ex_a042", "md_file": "knowledge_base/domains/FA/examples.md", "md_atom_type": "TABLE_HEADER", "md_parent_section": "§FA.2 [Example 2]", "md_verbatim": "| Row | STUDYID | DOMAIN | USUBJID | AESEQ | AESPID | AETERM | AEBODSYS | AELOC | AELAT | AESEV | AESER | AEACN | AESTDTC |\n|-----|---------|--------|---------|-------|--------|--------|----------|-------|-------|-------|-------|-------|---------|", "score": 0.7828, "match_basis": "verbatim_token+domain_route:FA"}, {"md_atom_id": "md_dmFA_ex_a141", "md_file": "knowledge_base/domains/FA/examples.md", "md_atom_type": "TABLE_HEADER", "md_parent_section": "§FA.6 [Example 6]", "md_verbatim": "| Row | DOMAIN | USUBJID | AESEQ | AESPID | AETERM | AEDECOD | AESEV | AESTDTC | AEENDTC |\n|-----|--------|---------|-------|--------|--------|---------|-------|---------|---------|", "score": 0.7692, "match_basis": "verbatim_token+domain_route:FA"}, {"md_atom_id": "md_dmFA_ex_a006", "md_file": "knowledge_base/domains/FA/examples.md", "md_atom_type": "TABLE_HEADER", "md_parent_section": "§FA.1 [Example 1]", "md_verbatim": "| Row | STUDYID | DOMAIN | USUBJID | CESEQ | CESPID | CETERM | CEDECOD | CESTDTC |\n|-----|---------|--------|---------|-------|--------|--------|---------|---------|", "score": 0.7164, "match_basis": "verbatim_token+domain_route:FA"}, {"md_atom_id": "md_dmFA_ex_a071", "md_file": "knowledge_base/domains/FA/examples.md", "md_atom_type": "TABLE_HEADER", "md_parent_section": "§FA.3 [Example 3]", "md_verbatim": "| Row | STUDYID | DOMAIN | USUBJID | MHSEQ | MHTERM | MHDECOD | MHEVDTYP | MHCAT | MHSCAT | MHPRESP | MHOCCUR | MHSEV | MHDTC | MHSTDTC | MHEVLINT |\n|-----|---------|--------|---------|-------|--------|---------|----------|-------|--------|---------|---------|-------|-------|---------|----------|", "score": 0.61, "match_basis": "verbatim_token+domain_route:FA"}], "candidate_count": 5, "zero_candidate": false}
{"pdf_atom_id": "ig34_p0373_a003", "pdf_atom_type": "TABLE_ROW", "pdf_source": "SDTMIG_v3.4", "pdf_page": 373, "pdf_parent_section": "FA – Examples", "pdf_verbatim": "| 1 | ABC101 | AE | 1234 | 1 | Headache | Headache | Y | Nervous system disorders | MILD | NONE | 2005-09-30 | 2005-10-03 |", "figure_ref": null, "candidates": [{"md_atom_id": "md_dmFA_ex_a100", "md_file": "knowledge_base/domains/FA/examples.md", "md_atom_type": "TABLE_ROW", "md_parent_section": "§FA.4 [Example 4]", "md_verbatim": "| 1 | ABC101 | AE | 1234 | 1 | Headache | Headache | Y | Nervous system disorders | MILD | NONE | 2005-09-30 | 2005-10-03 |", "score": 1.0, "match_basis": "verbatim_token+domain_route:FA"}, {"md_atom_id": "md_dmFA_ex_a101", "md_file": "knowledge_base/domains/FA/examples.md", "md_atom_type": "TABLE_ROW", "md_parent_section": "§FA.4 [Example 4]", "md_verbatim": "| 2 | ABC101 | AE | 1234 | 2 | Nausea | Nausea | Y | Gastrointestinal disorders | MODERATE | NONE | 2005-10-08 | 2005-10-09 |", "score": 0.5789, "match_basis": "verbatim_token+domain_route:FA"}, {"md_atom_id": "md_dmFA_ex_a090", "md_file": "knowledge_base/domains/FA/examples.md", "md_atom_type": "TABLE_ROW", "md_parent_section": "§FA.4 [Example 4]", "md_verbatim": "| 1 | ABC101 | FA | 1234 | 1 | OCCUR | Occurrence Indicator | Headache | Y | Y | | 2 | VISIT 2 | 2005-10-01 | SINCE LAST VISIT |", "score": 0.55, "match_basis": "verbatim_token+domain_route:FA"}, {"md_atom_id": "md_dmFA_ex_a093", "md_file": "knowledge_base/domains/FA/examples.md", "md_atom_type": "TABLE_ROW", "md_parent_section": "§FA.4 [Example 4]", "md_verbatim": "| 4 | ABC101 | FA | 1234 | 4 | OCCUR | Occurrence Indicator | Headache | Y | Y | | 3 | VISIT 3 | 2005-10-10 | SINCE LAST VISIT |", "score": 0.55, "match_basis": "verbatim_token+domain_route:FA"}, {"md_atom_id": "md_dmFA_ex_a092", "md_file": "knowledge_base/domains/FA/examples.md", "md_atom_type": "TABLE_ROW", "md_parent_section": "§FA.4 [Example 4]", "md_verbatim": "| 3 | ABC101 | FA | 1234 | 3 | OCCUR | Occurrence Indicator | Nausea | | | NOT DONE | 2 | VISIT 2 | 2005-10-01 | SINCE LAST VISIT |", "score": 0.4871, "match_basis": "verbatim_token+domain_route:FA"}], "candidate_count": 5, "zero_candidate": false}
{"pdf_atom_id": "ig34_p0373_a004", "pdf_atom_type": "TABLE_ROW", "pdf_source": "SDTMIG_v3.4", "pdf_page": 373, "pdf_parent_section": "FA – Examples", "pdf_verbatim": "| 2 | ABC101 | AE | 1234 | 2 | Nausea | Nausea | Y | Gastrointestinal disorders | MODERATE | NONE | 2005-10-08 | 2005-10-09 |", "figure_ref": null, "candidates": [{"md_atom_id": "md_dmFA_ex_a101", "md_file": "knowledge_base/domains/FA/examples.md", "md_atom_type": "TABLE_ROW", "md_parent_section": "§FA.4 [Example 4]", "md_verbatim": "| 2 | ABC101 | AE | 1234 | 2 | Nausea | Nausea | Y | Gastrointestinal disorders | MODERATE | NONE | 2005-10-08 | 2005-10-09 |", "score": 1.0, "match_basis": "verbatim_token+domain_route:FA"}, {"md_atom_id": "md_dmFA_ex_a100", "md_file": "knowledge_base/domains/FA/examples.md", "md_atom_type": "TABLE_ROW", "md_parent_section": "§FA.4 [Example 4]", "md_verbatim": "| 1 | ABC101 | AE | 1234 | 1 | Headache | Headache | Y | Nervous system disorders | MILD | NONE | 2005-09-30 | 2005-10-03 |", "score": 0.5789, "match_basis": "verbatim_token+domain_route:FA"}, {"md_atom_id": "md_dmFA_ex_a092", "md_file": "knowledge_base/domains/FA/examples.md", "md_atom_type": "TABLE_ROW", "md_parent_section": "§FA.4 [Example 4]", "md_verbatim": "| 3 | ABC101 | FA | 1234 | 3 | OCCUR | Occurrence Indicator | Nausea | | | NOT DONE | 2 | VISIT 2 | 2005-10-01 | SINCE LAST VISIT |", "score": 0.5333, "match_basis": "verbatim_token+domain_route:FA"}, {"md_atom_id": "md_dmFA_ex_a142", "md_file": "knowledge_base/domains/FA/examples.md", "md_atom_type": "TABLE_ROW", "md_parent_section": "§FA.6 [Example 6]", "md_verbatim": "| 1 | AE | 123 | 1 | 1 | Morning queasiness | Nausea | MODERATE | 2006-02-01 | 2006-02-23 |", "score": 0.5333, "match_basis": "verbatim_token+domain_route:FA"}, {"md_atom_id": "md_dmFA_ex_a150", "md_file": "knowledge_base/domains/FA/examples.md", "md_atom_type": "TABLE_ROW", "md_parent_section": "§FA.6 [Example 6]", "md_verbatim": "| 2 | XYZ | FA | XYZ-US-701-002 | 2 | 1 | SEV | Severity/Intensity | Nausea | MODERATE | MAXIMUM | 3 | VISIT 3 | 2006-02-09 | SINCE LAST VISIT |", "score": 0.5292, "match_basis": "verbatim_token+domain_route:FA"}], "candidate_count": 5, "zero_candidate": false}
{"pdf_atom_id": "ig34_p0373_a005", "pdf_atom_type": "HEADING", "pdf_source": "SDTMIG_v3.4", "pdf_page": 373, "pdf_parent_section": "FA – Examples", "pdf_verbatim": "Example 5", "figure_ref": null, "candidates": [{"md_atom_id": "md_dmFA_ex_a002", "md_file": "knowledge_base/domains/FA/examples.md", "md_atom_type": "HEADING", "md_parent_section": "§FA [FA — Examples]", "md_verbatim": "## Example 1", "score": 1.0, "match_basis": "verbatim_token+domain_route:FA"}, {"md_atom_id": "md_dmFA_ex_a037", "md_file": "knowledge_base/domains/FA/examples.md", "md_atom_type": "HEADING", "md_parent_section": "§FA [FA — Examples]", "md_verbatim": "## Example 2", "score": 1.0, "match_basis": "verbatim_token+domain_route:FA"}, {"md_atom_id": "md_dmFA_ex_a065", "md_file": "knowledge_base/domains/FA/examples.md", "md_atom_type": "HEADING", "md_parent_section": "§FA [FA — Examples]", "md_verbatim": "## Example 3", "score": 1.0, "match_basis": "verbatim_token+domain_route:FA"}, {"md_atom_id": "md_dmFA_ex_a082", "md_file": "knowledge_base/domains/FA/examples.md", "md_atom_type": "HEADING", "md_parent_section": "§FA [FA — Examples]", "md_verbatim": "## Example 4", "score": 1.0, "match_basis": "verbatim_token+domain_route:FA"}, {"md_atom_id": "md_dmFA_ex_a104", "md_file": "knowledge_base/domains/FA/examples.md", "md_atom_type": "HEADING", "md_parent_section": "§FA [FA — Examples]", "md_verbatim": "## Example 5", "score": 1.0, "match_basis": "verbatim_token+domain_route:FA"}, {"md_atom_id": "md_dmFA_ex_a131", "md_file": "knowledge_base/domains/FA/examples.md", "md_atom_type": "HEADING", "md_parent_section": "§FA [FA — Examples]", "md_verbatim": "## Example 6", "score": 1.0, "match_basis": "verbatim_token+domain_route:FA"}, {"md_atom_id": "md_dmFA_ex_a001", "md_file": "knowledge_base/domains/FA/examples.md", "md_atom_type": "HEADING", "md_parent_section": "§FA [FA — Examples]", "md_verbatim": "# FA — Examples", "score": 0.9, "match_basis": "verbatim_token+domain_route:FA"}, {"md_atom_id": "md_dmFA_assn_a001", "md_file": "knowledge_base/domains/FA/assumptions.md", "md_atom_type": "HEADING", "md_parent_section": "§FA [FA — Assumptions]", "md_verbatim": "# FA — Assumptions", "score": 0.4, "match_basis": "verbatim_token+domain_route:FA"}], "candidate_count": 8, "zero_candidate": false}
