{"pdf_atom_id": "ig34_p0445_a019", "pdf_atom_type": "TABLE_ROW", "pdf_source": "SDTMIG_v3.4", "pdf_page": 445, "pdf_parent_section": "Appendix A: CDISC SDS Team", "pdf_verbatim": "| Dave Scocca | Rho, Inc. |", "figure_ref": null, "candidates": [{"md_atom_id": "md_ch10_a081", "md_file": "knowledge_base/chapters/ch10_appendices.md", "md_atom_type": "TABLE_ROW", "md_parent_section": "§10.D [CDISC Variable-naming Fragments]", "md_verbatim": "| BODY | BOD | | LOINC CODE | LOINC |", "score": 0.3429, "match_basis": "verbatim_token+global_search"}, {"md_atom_id": "md_varindex_a447", "md_file": "knowledge_base/VARIABLE_INDEX.md", "md_atom_type": "TABLE_ROW", "md_parent_section": "§ 二、领域专属变量（仅 1 个域，共 1499 个），按域分组", "md_verbatim": "| ECOCCUR | Occurrence | Char | Record Qualifier | Perm | C66742 |", "score": 0.3353, "match_basis": "verbatim_token+global_search"}, {"md_atom_id": "md_dmFA_ex_a095", "md_file": "knowledge_base/domains/FA/examples.md", "md_atom_type": "TABLE_ROW", "md_parent_section": "§FA.4 [Example 4]", "md_verbatim": "| 6 | ABC101 | FA | 1234 | 6 | OCCUR | Occurrence Indicator | Nausea | Y | Y | | 3 | VISIT 3 | 2005-10-10 | SINCE LAST VISIT |", "score": 0.33, "match_basis": "verbatim_token+global_search"}, {"md_atom_id": "md_dmFA_ex_a090", "md_file": "knowledge_base/domains/FA/examples.md", "md_atom_type": "TABLE_ROW", "md_parent_section": "§FA.4 [Example 4]", "md_verbatim": "| 1 | ABC101 | FA | 1234 | 1 | OCCUR | Occurrence Indicator | Headache | Y | Y | | 2 | VISIT 2 | 2005-10-01 | SINCE LAST VISIT |", "score": 0.3286, "match_basis": "verbatim_token+global_search"}, {"md_atom_id": "md_dmFA_ex_a093", "md_file": "knowledge_base/domains/FA/examples.md", "md_atom_type": "TABLE_ROW", "md_parent_section": "§FA.4 [Example 4]", "md_verbatim": "| 4 | ABC101 | FA | 1234 | 4 | OCCUR | Occurrence Indicator | Headache | Y | Y | | 3 | VISIT 3 | 2005-10-10 | SINCE LAST VISIT |", "score": 0.3286, "match_basis": "verbatim_token+global_search"}], "candidate_count": 5, "zero_candidate": false}
{"pdf_atom_id": "ig34_p0445_a020", "pdf_atom_type": "TABLE_ROW", "pdf_source": "SDTMIG_v3.4", "pdf_page": 445, "pdf_parent_section": "Appendix A: CDISC SDS Team", "pdf_verbatim": "| Maria Sekac | PRA Health Sciences |", "figure_ref": null, "candidates": [{"md_atom_id": "md_ch10_a026", "md_file": "knowledge_base/chapters/ch10_appendices.md", "md_atom_type": "TABLE_ROW", "md_parent_section": "§10.B [Glossary and Abbreviations]", "md_verbatim": "| HL7 | Health Level 7 |", "score": 0.4143, "match_basis": "verbatim_token+global_search"}, {"md_atom_id": "md_varindex_a660", "md_file": "knowledge_base/VARIABLE_INDEX.md", "md_atom_type": "TABLE_ROW", "md_parent_section": "§ 二、领域专属变量（仅 1 个域，共 1499 个），按域分组", "md_verbatim": "| HOTERM | Healthcare Encounter Term | Char | Topic | Req | — |", "score": 0.3833, "match_basis": "verbatim_token+global_search"}, {"md_atom_id": "md_varindex_a664", "md_file": "knowledge_base/VARIABLE_INDEX.md", "md_atom_type": "TABLE_ROW", "md_parent_section": "§ 二、领域专属变量（仅 1 个域，共 1499 个），按域分组", "md_verbatim": "| HOPRESP | Pre-Specified Healthcare Encounter | Char | Variable Qualifier | Perm | C66742 |", "score": 0.375, "match_basis": "verbatim_token+global_search"}, {"md_atom_id": "md_varindex_a673", "md_file": "knowledge_base/VARIABLE_INDEX.md", "md_atom_type": "TABLE_ROW", "md_parent_section": "§ 二、领域专属变量（仅 1 个域，共 1499 个），按域分组", "md_verbatim": "| HOENDY | Study Day of End of Healthcare Encounter | Num | Timing | Perm | — |", "score": 0.3714, "match_basis": "verbatim_token+global_search"}, {"md_atom_id": "md_varindex_a665", "md_file": "knowledge_base/VARIABLE_INDEX.md", "md_atom_type": "TABLE_ROW", "md_parent_section": "§ 二、领域专属变量（仅 1 个域，共 1499 个），按域分组", "md_verbatim": "| HOOCCUR | Healthcare Encounter Occurrence | Char | Record Qualifier | Perm | C66742 |", "score": 0.3667, "match_basis": "verbatim_token+global_search"}], "candidate_count": 5, "zero_candidate": false}
{"pdf_atom_id": "ig34_p0445_a021", "pdf_atom_type": "TABLE_ROW", "pdf_source": "SDTMIG_v3.4", "pdf_page": 445, "pdf_parent_section": "Appendix A: CDISC SDS Team", "pdf_verbatim": "| Kalai Selvanathan | Boehringer Ingelheim |", "figure_ref": null, "candidates": [{"md_atom_id": "md_dmVS_ex_a020", "md_file": "knowledge_base/domains/VS/examples.md", "md_atom_type": "TABLE_ROW", "md_parent_section": "§VS.1 [Example 1]", "md_verbatim": "| 9 | ABC | VS | ABC-001-001 | 9 | HEIGHT | Height | STANDING | 157 | cm | 157 | 157 | cm | | | | | Y | 1 | Baseline | 1 | 1999-06-19 | 1 | | |", "score": 0.3419, "match_basis": "verbatim_token+global_search"}, {"md_atom_id": "md_ch10_a172", "md_file": "knowledge_base/chapters/ch10_appendices.md", "md_atom_type": "TABLE_ROW", "md_parent_section": "§10.E [Revision History]", "md_verbatim": "| 1.3 | Relationship to Prior CDISC Documents | Rather than referring to all sections with significant changes, some of the more significant changes since SDTMIG v3.3 are highlighted in a bulleted list |", "score": 0.3356, "match_basis": "verbatim_token+global_search"}, {"md_atom_id": "md_dmBE_ex_a018", "md_file": "knowledge_base/domains/BE/examples.md", "md_atom_type": "TABLE_ROW", "md_parent_section": "§BE.1 [Example 1]", "md_verbatim": "| 3 | ABC134 | BE | 43871 | 309827 | 3 | 1148.267 | Storing | STORING | SITE | 01 | STORING | | 1 | BASELINE | 2005-03-20 | 2005-03-20T15:09 | 2005-03-21T10:29 |", "score": 0.3316, "match_basis": "verbatim_token+global_search"}, {"md_atom_id": "md_dmBE_ex_a019", "md_file": "knowledge_base/domains/BE/examples.md", "md_atom_type": "TABLE_ROW", "md_parent_section": "§BE.1 [Example 1]", "md_verbatim": "| 4 | ABC134 | BE | 43871 | | 4 | 1148.267 | Thawing | THAWING | SITE | 01 | PREPARATION | | 1 | BASELINE | 2005-03-20 | 2005-03-21T10:29 | 2005-03-21T10:36 |", "score": 0.3305, "match_basis": "verbatim_token+global_search"}, {"md_atom_id": "md_dmCE_ex_a065", "md_file": "knowledge_base/domains/CE/examples.md", "md_atom_type": "TABLE_ROW", "md_parent_section": "§CE.3 [Example 3]", "md_verbatim": "| If therapeutic measures were required, select all that apply. | [ ] Casting/immobilization  [ ] Traction  [ ] Surgery |", "score": 0.3304, "match_basis": "verbatim_token+global_search"}], "candidate_count": 5, "zero_candidate": false}
{"pdf_atom_id": "ig34_p0445_a022", "pdf_atom_type": "TABLE_ROW", "pdf_source": "SDTMIG_v3.4", "pdf_page": 445, "pdf_parent_section": "Appendix A: CDISC SDS Team", "pdf_verbatim": "| Mihaela Simion | Biogen |", "figure_ref": null, "candidates": [{"md_atom_id": "md_varindex_a121", "md_file": "knowledge_base/VARIABLE_INDEX.md", "md_atom_type": "TABLE_ROW", "md_parent_section": "§ 二、领域专属变量（仅 1 个域，共 1499 个），按域分组", "md_verbatim": "| AGDUR | Duration of Agent | Char | Timing | Perm | ISO 8601 duration |", "score": 0.3562, "match_basis": "verbatim_token+global_search"}, {"md_atom_id": "md_ch10_a103", "md_file": "knowledge_base/chapters/ch10_appendices.md", "md_atom_type": "TABLE_ROW", "md_parent_section": "§10.D [CDISC Variable-naming Fragments]", "md_verbatim": "| EMERGENT | EM | | RELATED | REL, R |", "score": 0.3545, "match_basis": "verbatim_token+global_search"}, {"md_atom_id": "md_ch10_a104", "md_file": "knowledge_base/chapters/ch10_appendices.md", "md_atom_type": "TABLE_ROW", "md_parent_section": "§10.D [CDISC Variable-naming Fragments]", "md_verbatim": "| END | END, EN | | RELATIONSHIP | REL |", "score": 0.3545, "match_basis": "verbatim_token+global_search"}, {"md_atom_id": "md_ch04_a373", "md_file": "knowledge_base/chapters/ch04_general_assumptions.md", "md_atom_type": "TABLE_ROW", "md_parent_section": "§4.2.8.3 [Multiple Values for a Non-result Qualifier Variable]", "md_verbatim": "| AELOC1 | Location of the Reaction 1 | FACE |", "score": 0.3444, "match_basis": "verbatim_token+global_search"}, {"md_atom_id": "md_ch04_a374", "md_file": "knowledge_base/chapters/ch04_general_assumptions.md", "md_atom_type": "TABLE_ROW", "md_parent_section": "§4.2.8.3 [Multiple Values for a Non-result Qualifier Variable]", "md_verbatim": "| AELOC2 | Location of the Reaction 2 | NECK |", "score": 0.3444, "match_basis": "verbatim_token+global_search"}], "candidate_count": 5, "zero_candidate": false}
{"pdf_atom_id": "ig34_p0445_a023", "pdf_atom_type": "TABLE_ROW", "pdf_source": "SDTMIG_v3.4", "pdf_page": 445, "pdf_parent_section": "Appendix A: CDISC SDS Team", "pdf_verbatim": "| Daniel Sinnett | Emmes |", "figure_ref": null, "candidates": [{"md_atom_id": "md_ch10_a131", "md_file": "knowledge_base/chapters/ch10_appendices.md", "md_atom_type": "TABLE_ROW", "md_parent_section": "§10.D [CDISC Variable-naming Fragments]", "md_verbatim": "| | | | UNPLANNED | UP |", "score": 0.3333, "match_basis": "verbatim_token+global_search"}, {"md_atom_id": "md_ch10_a088", "md_file": "knowledge_base/chapters/ch10_appendices.md", "md_atom_type": "TABLE_ROW", "md_parent_section": "§10.D [CDISC Variable-naming Fragments]", "md_verbatim": "| COMMENT | COM | | ONGOING | ONGO |", "score": 0.3286, "match_basis": "verbatim_token+global_search"}, {"md_atom_id": "md_model03_a080", "md_file": "knowledge_base/model/03_special_purpose_domains.md", "md_atom_type": "TABLE_ROW", "md_parent_section": "§ Comments (CO) > Variables (15 variables)", "md_verbatim": "| 11 | COVAL | Comment | Char | Topic |", "score": 0.325, "match_basis": "verbatim_token+global_search"}, {"md_atom_id": "md_dmTS_ex_a045", "md_file": "knowledge_base/domains/TS/examples.md", "md_atom_type": "TABLE_ROW", "md_parent_section": "§TS.1 [Example 1]", "md_verbatim": "| 40 | XYZ | TS | 1 | | NARMS | Planned Number of Arms | 3 | | | | |", "score": 0.325, "match_basis": "verbatim_token+global_search"}, {"md_atom_id": "md_varindex_a249", "md_file": "knowledge_base/VARIABLE_INDEX.md", "md_atom_type": "TABLE_ROW", "md_parent_section": "§ 二、领域专属变量（仅 1 个域，共 1499 个），按域分组", "md_verbatim": "| COVAL | Comment | Char | Topic | Req | — |", "score": 0.324, "match_basis": "verbatim_token+global_search"}], "candidate_count": 5, "zero_candidate": false}
{"pdf_atom_id": "ig34_p0445_a024", "pdf_atom_type": "TABLE_ROW", "pdf_source": "SDTMIG_v3.4", "pdf_page": 445, "pdf_parent_section": "Appendix A: CDISC SDS Team", "pdf_verbatim": "| Sanket Sinojia | IQVIA |", "figure_ref": null, "candidates": [{"md_atom_id": "md_ch04_a322", "md_file": "knowledge_base/chapters/ch04_general_assumptions.md", "md_atom_type": "TABLE_ROW", "md_parent_section": "§4.2.7.3 [\"Specify\" Values for Topic Variables]", "md_verbatim": "|                                                                                                    | [ ] Acetaminophen             |", "score": 0.3273, "match_basis": "verbatim_token+global_search"}, {"md_atom_id": "md_dmCM_ex_a028", "md_file": "knowledge_base/domains/CM/examples.md", "md_atom_type": "TABLE_ROW", "md_parent_section": "§CM.2 [Example 2]", "md_verbatim": "| 2 | ABC123 | CM | 1 | 2 | VPA | ANTI-CONVULSANT |", "score": 0.324, "match_basis": "verbatim_token+global_search"}, {"md_atom_id": "md_dmTS_assn_a023", "md_file": "knowledge_base/domains/TS/assumptions.md", "md_atom_type": "TABLE_ROW", "md_parent_section": "§TS [TS — Assumptions]", "md_verbatim": "    | 1 | A | DOSFREQ | Dosing Frequency | BID |", "score": 0.324, "match_basis": "verbatim_token+global_search"}, {"md_atom_id": "md_ch04_a690", "md_file": "knowledge_base/chapters/ch04_general_assumptions.md", "md_atom_type": "TABLE_ROW", "md_parent_section": "§4.4.8 [Date and Time Reported in a Domain Based on Findings]", "md_verbatim": "| Single-point Collection | X | | |", "score": 0.3231, "match_basis": "verbatim_token+global_search"}, {"md_atom_id": "md_ch04_a853", "md_file": "knowledge_base/chapters/ch04_general_assumptions.md", "md_atom_type": "TABLE_ROW", "md_parent_section": "§4.5.1.3 [Examples of Original and Standard Units and Test Not Done]", "md_verbatim": "| 6 | KETONES | CHEMISTRY | BLQ | mg/L | BLQ | | mg/L | | | 1 | 2016-02-15 |", "score": 0.3231, "match_basis": "verbatim_token+global_search"}], "candidate_count": 5, "zero_candidate": false}
{"pdf_atom_id": "ig34_p0445_a025", "pdf_atom_type": "TABLE_ROW", "pdf_source": "SDTMIG_v3.4", "pdf_page": 445, "pdf_parent_section": "Appendix A: CDISC SDS Team", "pdf_verbatim": "| Cary Smoak | S-cubed |", "figure_ref": null, "candidates": [{"md_atom_id": "md_varindex_a1694", "md_file": "knowledge_base/VARIABLE_INDEX.md", "md_atom_type": "TABLE_ROW", "md_parent_section": "§ 三、CDISC Controlled Terminology 交叉引用（共 135 个 CT Code）", "md_verbatim": "| C124297 | 1 | BE.BEDECOD |", "score": 0.3353, "match_basis": "verbatim_token+global_search"}, {"md_atom_id": "md_ch04_a212", "md_file": "knowledge_base/chapters/ch04_general_assumptions.md", "md_atom_type": "TABLE_ROW", "md_parent_section": "§4.2.3 [Use of \"Subject\" and USUBJID]", "md_verbatim": "| 1 | ACME14 | DM | ACME01-05-001 | 017 | 14 | Mary Smith |", "score": 0.33, "match_basis": "verbatim_token+global_search"}, {"md_atom_id": "md_dmDD_ex_a009", "md_file": "knowledge_base/domains/DD/examples.md", "md_atom_type": "TABLE_ROW", "md_parent_section": "§DD.1 [Example 1]", "md_verbatim": "| 1 | ABC123 | DD | ABC12301001 | 1 | PRCDTH | Primary Cause of Death | SUDDEN CARDIAC DEATH | SUDDEN CARDIAC DEATH | 2011-01-12 |", "score": 0.3293, "match_basis": "verbatim_token+global_search"}, {"md_atom_id": "md_dmDD_ex_a024", "md_file": "knowledge_base/domains/DD/examples.md", "md_atom_type": "TABLE_ROW", "md_parent_section": "§DD.2 [Example 2]", "md_verbatim": "| 1 | ABC123 | DD | ABC12301001 | 1 | PRCDTH | Primary Cause of Death | SUDDEN CARDIAC DEATH | SUDDEN CARDIAC DEATH | 2011-01-12 |", "score": 0.3293, "match_basis": "verbatim_token+global_search"}, {"md_atom_id": "md_dmDD_ex_a013", "md_file": "knowledge_base/domains/DD/examples.md", "md_atom_type": "TABLE_ROW", "md_parent_section": "§DD.1 [Example 1]", "md_verbatim": "| 5 | ABC123 | DD | ABC12301023 | 1 | PRCDTH | Primary Cause of Death | CARDIAC ARRHYTHMIA | CARDIAC ARRHYTHMIA | 2011-09-09 |", "score": 0.3267, "match_basis": "verbatim_token+global_search"}], "candidate_count": 5, "zero_candidate": false}
{"pdf_atom_id": "ig34_p0445_a026", "pdf_atom_type": "TABLE_ROW", "pdf_source": "SDTMIG_v3.4", "pdf_page": 445, "pdf_parent_section": "Appendix A: CDISC SDS Team", "pdf_verbatim": "| Aileen St. Marie | Bristol Myers Squibb |", "figure_ref": null, "candidates": [{"md_atom_id": "md_dmSC_ex_a009", "md_file": "knowledge_base/domains/SC/examples.md", "md_atom_type": "TABLE_ROW", "md_parent_section": "§SC.1 [Example 1]", "md_verbatim": "| 4 | ABC | SC | ABC-001-002 | 2 | MARISTAT | Marital Status | MARRIED | MARRIED | 1999-03-19 |", "score": 0.3882, "match_basis": "verbatim_token+global_search"}, {"md_atom_id": "md_dmSC_ex_a011", "md_file": "knowledge_base/domains/SC/examples.md", "md_atom_type": "TABLE_ROW", "md_parent_section": "§SC.1 [Example 1]", "md_verbatim": "| 6 | ABC | SC | ABC-001-003 | 2 | MARISTAT | Marital Status | NEVER MARRIED | NEVER MARRIED | 1999-05-03 |", "score": 0.3811, "match_basis": "verbatim_token+global_search"}, {"md_atom_id": "md_dmSC_ex_a031", "md_file": "knowledge_base/domains/SC/examples.md", "md_atom_type": "TABLE_ROW", "md_parent_section": "§SC.3 [Example 3]", "md_verbatim": "| 5 | ABC123 | SC | 305 | 5 | MARISTAT | Marital Status | MARRIED | MARRIED | 2014-01-16 | 734 |", "score": 0.3811, "match_basis": "verbatim_token+global_search"}, {"md_atom_id": "md_dmSC_ex_a027", "md_file": "knowledge_base/domains/SC/examples.md", "md_atom_type": "TABLE_ROW", "md_parent_section": "§SC.3 [Example 3]", "md_verbatim": "| 1 | ABC123 | SC | 305 | 1 | MARISTAT | Marital Status | NEVER MARRIED | NEVER MARRIED | 2012-01-14 | -2 |", "score": 0.3769, "match_basis": "verbatim_token+global_search"}, {"md_atom_id": "md_dmSC_ex_a007", "md_file": "knowledge_base/domains/SC/examples.md", "md_atom_type": "TABLE_ROW", "md_parent_section": "§SC.1 [Example 1]", "md_verbatim": "| 2 | ABC | SC | ABC-001-001 | 2 | MARISTAT | Marital Status | DIVORCED | DIVORCED | 1999-06-19 |", "score": 0.3667, "match_basis": "verbatim_token+global_search"}], "candidate_count": 5, "zero_candidate": false}
{"pdf_atom_id": "ig34_p0445_a027", "pdf_atom_type": "TABLE_ROW", "pdf_source": "SDTMIG_v3.4", "pdf_page": 445, "pdf_parent_section": "Appendix A: CDISC SDS Team", "pdf_verbatim": "| Erin Tibbs-Slone | Charles River Laboratories (formerly MPI Research) |", "figure_ref": null, "candidates": [{"md_atom_id": "md_varindex_a638", "md_file": "knowledge_base/VARIABLE_INDEX.md", "md_atom_type": "TABLE_ROW", "md_parent_section": "§ 二、领域专属变量（仅 1 个域，共 1499 个），按域分组", "md_verbatim": "| GFNAM | Laboratory/Vendor Name | Char | Record Qualifier | Perm | — |", "score": 0.3885, "match_basis": "verbatim_token+global_search"}, {"md_atom_id": "md_varindex_a811", "md_file": "knowledge_base/VARIABLE_INDEX.md", "md_atom_type": "TABLE_ROW", "md_parent_section": "§ 二、领域专属变量（仅 1 个域，共 1499 个），按域分组", "md_verbatim": "| MBNAM | Laboratory/Vendor Name | Char | Record Qualifier | Perm | — |", "score": 0.3885, "match_basis": "verbatim_token+global_search"}, {"md_atom_id": "md_varindex_a873", "md_file": "knowledge_base/VARIABLE_INDEX.md", "md_atom_type": "TABLE_ROW", "md_parent_section": "§ 二、领域专属变量（仅 1 个域，共 1499 个），按域分组", "md_verbatim": "| MINAM | Laboratory/Vendor Name | Char | Record Qualifier | Perm | — |", "score": 0.3885, "match_basis": "verbatim_token+global_search"}, {"md_atom_id": "md_varindex_a976", "md_file": "knowledge_base/VARIABLE_INDEX.md", "md_atom_type": "TABLE_ROW", "md_parent_section": "§ 二、领域专属变量（仅 1 个域，共 1499 个），按域分组", "md_verbatim": "| MSNAM | Laboratory/Vendor Name | Char | Record Qualifier | Perm | — |", "score": 0.3885, "match_basis": "verbatim_token+global_search"}, {"md_atom_id": "md_varindex_a1544", "md_file": "knowledge_base/VARIABLE_INDEX.md", "md_atom_type": "TABLE_ROW", "md_parent_section": "§ 二、领域专属变量（仅 1 个域，共 1499 个），按域分组", "md_verbatim": "| TRNAM | Laboratory/Vendor Name | Char | Record Qualifier | Perm | — |", "score": 0.3885, "match_basis": "verbatim_token+global_search"}], "candidate_count": 5, "zero_candidate": false}
{"pdf_atom_id": "ig34_p0445_a028", "pdf_atom_type": "TABLE_ROW", "pdf_source": "SDTMIG_v3.4", "pdf_page": 445, "pdf_parent_section": "Appendix A: CDISC SDS Team", "pdf_verbatim": "| Susan Tierney | IQVIA |", "figure_ref": null, "candidates": [{"md_atom_id": "md_varindex_a1450", "md_file": "knowledge_base/VARIABLE_INDEX.md", "md_atom_type": "TABLE_ROW", "md_parent_section": "§ 二、领域专属变量（仅 1 个域，共 1499 个），按域分组", "md_verbatim": "| SUSEQ | Sequence Number | Num | Identifier | Req | — |", "score": 0.34, "match_basis": "verbatim_token+global_search"}, {"md_atom_id": "md_varindex_a066", "md_file": "knowledge_base/VARIABLE_INDEX.md", "md_atom_type": "TABLE_ROW", "md_parent_section": "§ 二、领域专属变量（仅 1 个域，共 1499 个），按域分组", "md_verbatim": "| AEREL | Causality | Char | Record Qualifier | Exp | — |", "score": 0.3375, "match_basis": "verbatim_token+global_search"}, {"md_atom_id": "md_model06_a078", "md_file": "knowledge_base/model/06_relationship_datasets.md", "md_atom_type": "TABLE_ROW", "md_parent_section": "§6.5 Device-subject Relationships (DR)", "md_verbatim": "| 2 | DOMAIN | Domain Abbreviation | Char | Identifier |", "score": 0.3364, "match_basis": "verbatim_token+global_search"}, {"md_atom_id": "md_model03_a016", "md_file": "knowledge_base/model/03_special_purpose_domains.md", "md_atom_type": "TABLE_ROW", "md_parent_section": "§ Demographics (DM) > Variables (38 variables)", "md_verbatim": "| 2 | DOMAIN | Domain Abbreviation | Char | Identifier | \"DM\" |", "score": 0.3364, "match_basis": "verbatim_token+global_search"}, {"md_atom_id": "md_model03_a071", "md_file": "knowledge_base/model/03_special_purpose_domains.md", "md_atom_type": "TABLE_ROW", "md_parent_section": "§ Comments (CO) > Variables (15 variables)", "md_verbatim": "| 2 | DOMAIN | Domain Abbreviation | Char | Identifier |", "score": 0.3364, "match_basis": "verbatim_token+global_search"}], "candidate_count": 5, "zero_candidate": false}
{"pdf_atom_id": "ig34_p0445_a029", "pdf_atom_type": "TABLE_ROW", "pdf_source": "SDTMIG_v3.4", "pdf_page": 445, "pdf_parent_section": "Appendix A: CDISC SDS Team", "pdf_verbatim": "| Anita Umesh | |", "figure_ref": null, "candidates": [{"md_atom_id": "md_ch10_a130", "md_file": "knowledge_base/chapters/ch10_appendices.md", "md_atom_type": "TABLE_ROW", "md_parent_section": "§10.D [CDISC Variable-naming Fragments]", "md_verbatim": "| | | | UNIT | U |", "score": 0.3857, "match_basis": "verbatim_token+global_search"}, {"md_atom_id": "md_ch10_a091", "md_file": "knowledge_base/chapters/ch10_appendices.md", "md_atom_type": "TABLE_ROW", "md_parent_section": "§10.D [CDISC Variable-naming Fragments]", "md_verbatim": "| CONGENITAL | CONG | | ORIGINAL | OR |", "score": 0.3667, "match_basis": "verbatim_token+global_search"}, {"md_atom_id": "md_dmTS_assn_a026", "md_file": "knowledge_base/domains/TS/assumptions.md", "md_atom_type": "TABLE_ROW", "md_parent_section": "§TS [TS — Assumptions]", "md_verbatim": "    | 1 | | DOSU | Dose Units | mg |", "score": 0.3545, "match_basis": "verbatim_token+global_search"}, {"md_atom_id": "md_dmEX_ex_a041", "md_file": "knowledge_base/domains/EX/examples.md", "md_atom_type": "TABLE_ROW", "md_parent_section": "§EX.2 [Example 2]", "md_verbatim": "| Volume Given (mL) | 5 |", "score": 0.35, "match_basis": "verbatim_token+global_search"}, {"md_atom_id": "md_dmEX_ex_a045", "md_file": "knowledge_base/domains/EX/examples.md", "md_atom_type": "TABLE_ROW", "md_parent_section": "§EX.2 [Example 2]", "md_verbatim": "| Volume Given (mL) | 5 |", "score": 0.35, "match_basis": "verbatim_token+global_search"}], "candidate_count": 5, "zero_candidate": false}
{"pdf_atom_id": "ig34_p0445_a030", "pdf_atom_type": "TABLE_ROW", "pdf_source": "SDTMIG_v3.4", "pdf_page": 445, "pdf_parent_section": "Appendix A: CDISC SDS Team", "pdf_verbatim": "| Madhavi Vemuri | Janssen Research |", "figure_ref": null, "candidates": [{"md_atom_id": "md_ch10_a019", "md_file": "knowledge_base/chapters/ch10_appendices.md", "md_atom_type": "TABLE_ROW", "md_parent_section": "§10.B [Glossary and Abbreviations]", "md_verbatim": "| CRO | Contract research organization |", "score": 0.3973, "match_basis": "verbatim_token+global_search"}, {"md_atom_id": "md_dmDS_ex_a126", "md_file": "knowledge_base/domains/DS/examples.md", "md_atom_type": "TABLE_ROW", "md_parent_section": "§DS.9 [Example 9]", "md_verbatim": "| 4 | XXX | DS | XXX-767-001 | 4 | INFORMED CONSENT FOR PHARMACOGENETIC RESEARCH OBTAINED | INFORMED CONSENT OBTAINED | PROTOCOL MILESTONE | TREATMENT 2 | 2016-06-08 |", "score": 0.3575, "match_basis": "verbatim_token+global_search"}, {"md_atom_id": "md_ch10_a231", "md_file": "knowledge_base/chapters/ch10_appendices.md", "md_atom_type": "TABLE_ROW", "md_parent_section": "§10.E [Revision History]", "md_verbatim": "| **Section 8. Representing Relationships and Data** | | |", "score": 0.3409, "match_basis": "verbatim_token+global_search"}, {"md_atom_id": "md_dmRP_ex_a010", "md_file": "knowledge_base/domains/RP/examples.md", "md_atom_type": "TABLE_ROW", "md_parent_section": "§RP.1 [Example 1]", "md_verbatim": "| 5 | STUDYX | RP | 2324-P0001 | 5 | MENARAGE | Menarche Age | 10 | YEARS | 10 | 10 | YEARS | | Y | 1 | SCREENING | 1 | 2008-03-09 | -10 |", "score": 0.3383, "match_basis": "verbatim_token+global_search"}, {"md_atom_id": "md_dmRP_ex_a022", "md_file": "knowledge_base/domains/RP/examples.md", "md_atom_type": "TABLE_ROW", "md_parent_section": "§RP.1 [Example 1]", "md_verbatim": "| 17 | STUDYX | RP | 2324-P0002 | 6 | MENARAGE | Menarche Age | 11 | YEARS | 11 | 11 | YEARS | | Y | 1 | SCREENING | 1 | 2009-03-10 | -10 |", "score": 0.3383, "match_basis": "verbatim_token+global_search"}], "candidate_count": 5, "zero_candidate": false}
{"pdf_atom_id": "ig34_p0445_a031", "pdf_atom_type": "TABLE_ROW", "pdf_source": "SDTMIG_v3.4", "pdf_page": 445, "pdf_parent_section": "Appendix A: CDISC SDS Team", "pdf_verbatim": "| Kevin Viel | Histonis, Incorporated |", "figure_ref": null, "candidates": [{"md_atom_id": "md_ch01_a050", "md_file": "knowledge_base/chapters/ch01_introduction.md", "md_atom_type": "TABLE_ROW", "md_parent_section": "§1.3 [Relationship to Prior CDISC Documents]", "md_verbatim": "| SDTMIG-PGx | Pharmacogenomics/Genetics — largely incorporated into/superseded by SDTMIG v3.4 |", "score": 0.4017, "match_basis": "verbatim_token+global_search"}, {"md_atom_id": "md_varindex_a836", "md_file": "knowledge_base/VARIABLE_INDEX.md", "md_atom_type": "TABLE_ROW", "md_parent_section": "§ 二、领域专属变量（仅 1 个域，共 1499 个），按域分组", "md_verbatim": "| MHTERM | Reported Term for the Medical History | Char | Topic | Req | — |", "score": 0.3682, "match_basis": "verbatim_token+global_search"}, {"md_atom_id": "md_model02_a041", "md_file": "knowledge_base/model/02_observation_classes.md", "md_atom_type": "TABLE_ROW", "md_parent_section": "§3.1.1 > Topic and Qualifier Variables (43 variables)", "md_verbatim": "| 26 | --ROUTE | Route of Administration | Char | Record Qualifier | \"ORAL\", \"INTRAVENOUS\" |", "score": 0.3556, "match_basis": "verbatim_token+global_search"}, {"md_atom_id": "md_dmTS_assn_a022", "md_file": "knowledge_base/domains/TS/assumptions.md", "md_atom_type": "TABLE_ROW", "md_parent_section": "§TS [TS — Assumptions]", "md_verbatim": "    | 1 | A | DOSE | Dose per Administration | 50 |", "score": 0.3545, "match_basis": "verbatim_token+global_search"}, {"md_atom_id": "md_model02_a236", "md_file": "knowledge_base/model/02_observation_classes.md", "md_atom_type": "TABLE_ROW", "md_parent_section": "§3.1.5 > Disease Milestone Variables", "md_verbatim": "| 42 | RELMIDS | Temporal Relation to Milestone Instance | Char | How observation relates to MIDS |", "score": 0.3536, "match_basis": "verbatim_token+global_search"}], "candidate_count": 5, "zero_candidate": false}
{"pdf_atom_id": "ig34_p0445_a032", "pdf_atom_type": "TABLE_ROW", "pdf_source": "SDTMIG_v3.4", "pdf_page": 445, "pdf_parent_section": "Appendix A: CDISC SDS Team", "pdf_verbatim": "| Gary Walker | Independent Contractor |", "figure_ref": null, "candidates": [{"md_atom_id": "md_ch10_a019", "md_file": "knowledge_base/chapters/ch10_appendices.md", "md_atom_type": "TABLE_ROW", "md_parent_section": "§10.B [Glossary and Abbreviations]", "md_verbatim": "| CRO | Contract research organization |", "score": 0.3923, "match_basis": "verbatim_token+global_search"}, {"md_atom_id": "md_dmEX_ex_a215", "md_file": "knowledge_base/domains/EX/examples.md", "md_atom_type": "TABLE_ROW", "md_parent_section": "§EX.7 [Example 7]", "md_verbatim": "| Concentration | 5.5 mg/mL | 4.12 mg/mL | 4.12 mg/mL |", "score": 0.3828, "match_basis": "verbatim_token+global_search"}, {"md_atom_id": "md_dmRS_ex_a024", "md_file": "knowledge_base/domains/RS/examples.md", "md_atom_type": "TABLE_ROW", "md_parent_section": "§RS.1.2 [Example 2]", "md_verbatim": "| 2 | ABC | RS | 55555 | 2 | | NTRGRESP | Non-target Response | RECIST 1.1 | CR | CR | ACE IMAGING | INDEPENDENT ASSESSOR | RADIOLOGIST 1 | Y | 40 | WEEK 6 | 2010-02-18 | 46 |", "score": 0.3818, "match_basis": "verbatim_token+global_search"}, {"md_atom_id": "md_dmRS_ex_a028", "md_file": "knowledge_base/domains/RS/examples.md", "md_atom_type": "TABLE_ROW", "md_parent_section": "§RS.1.2 [Example 2]", "md_verbatim": "| 6 | ABC | RS | 55555 | 6 | | NTRGRESP | Non-target Response | RECIST 1.1 | CR | CR | ACE IMAGING | INDEPENDENT ASSESSOR | RADIOLOGIST 1 | Y | 60 | WEEK 12 | 2010-04-02 | 88 |", "score": 0.3818, "match_basis": "verbatim_token+global_search"}, {"md_atom_id": "md_dmTR_ex_a066", "md_file": "knowledge_base/domains/TR/examples.md", "md_atom_type": "TABLE_ROW", "md_parent_section": "§TR.2 [Example 3 (continued from TU)]", "md_verbatim": "| 11 | ABC | TR | 55555 | 11 | TARGET | A2 | | SUMDIAM | Sum of Diameter | 25 | mm | 25 | 25 | mm | | ACE IMAGING | INDEPENDENT ASSESSOR | RADIOLOGIST 1 | 40 | WEEK 6 | | |", "score": 0.38, "match_basis": "verbatim_token+global_search"}], "candidate_count": 5, "zero_candidate": false}
{"pdf_atom_id": "ig34_p0445_a033", "pdf_atom_type": "TABLE_ROW", "pdf_source": "SDTMIG_v3.4", "pdf_page": 445, "pdf_parent_section": "Appendix A: CDISC SDS Team", "pdf_verbatim": "| Lacey Wallace | Audentes Therapeutics |", "figure_ref": null, "candidates": [{"md_atom_id": "md_ch10_a015", "md_file": "knowledge_base/chapters/ch10_appendices.md", "md_atom_type": "TABLE_ROW", "md_parent_section": "§10.B [Glossary and Abbreviations]", "md_verbatim": "| ATC | Anatomic Therapeutic Chemical (code; WHO) |", "score": 0.4459, "match_basis": "verbatim_token+global_search"}, {"md_atom_id": "md_dmCE_ex_a064", "md_file": "knowledge_base/domains/CE/examples.md", "md_atom_type": "TABLE_ROW", "md_parent_section": "§CE.3 [Example 3]", "md_verbatim": "| Were therapeutic measures required? | ( ) Yes  ( ) No  ( ) Unknown |", "score": 0.4286, "match_basis": "verbatim_token+global_search"}, {"md_atom_id": "md_ch10_a120", "md_file": "knowledge_base/chapters/ch10_appendices.md", "md_atom_type": "TABLE_ROW", "md_parent_section": "§10.D [CDISC Variable-naming Fragments]", "md_verbatim": "| NON-STUDY THERAPY | NST | | |", "score": 0.3857, "match_basis": "verbatim_token+global_search"}, {"md_atom_id": "md_dmCE_ex_a065", "md_file": "knowledge_base/domains/CE/examples.md", "md_atom_type": "TABLE_ROW", "md_parent_section": "§CE.3 [Example 3]", "md_verbatim": "| If therapeutic measures were required, select all that apply. | [ ] Casting/immobilization  [ ] Traction  [ ] Surgery |", "score": 0.3857, "match_basis": "verbatim_token+global_search"}, {"md_atom_id": "md_dmPR_ex_a034", "md_file": "knowledge_base/domains/PR/examples.md", "md_atom_type": "TABLE_ROW", "md_parent_section": "§PR.3 [Example 3]", "md_verbatim": "| 3 | ABC123 | PR | ABC123-3003 | 1 | Radiotherapy | 300 | cGy | BONE | | 2011-08-19 | 2011-08-22 |", "score": 0.3615, "match_basis": "verbatim_token+global_search"}], "candidate_count": 5, "zero_candidate": false}
{"pdf_atom_id": "ig34_p0445_a034", "pdf_atom_type": "TABLE_ROW", "pdf_source": "SDTMIG_v3.4", "pdf_page": 445, "pdf_parent_section": "Appendix A: CDISC SDS Team", "pdf_verbatim": "| Ruohan Wang | Horizon Therapeutics |", "figure_ref": null, "candidates": [{"md_atom_id": "md_ch10_a015", "md_file": "knowledge_base/chapters/ch10_appendices.md", "md_atom_type": "TABLE_ROW", "md_parent_section": "§10.B [Glossary and Abbreviations]", "md_verbatim": "| ATC | Anatomic Therapeutic Chemical (code; WHO) |", "score": 0.45, "match_basis": "verbatim_token+global_search"}, {"md_atom_id": "md_dmCE_ex_a064", "md_file": "knowledge_base/domains/CE/examples.md", "md_atom_type": "TABLE_ROW", "md_parent_section": "§CE.3 [Example 3]", "md_verbatim": "| Were therapeutic measures required? | ( ) Yes  ( ) No  ( ) Unknown |", "score": 0.4317, "match_basis": "verbatim_token+global_search"}, {"md_atom_id": "md_ch10_a120", "md_file": "knowledge_base/chapters/ch10_appendices.md", "md_atom_type": "TABLE_ROW", "md_parent_section": "§10.D [CDISC Variable-naming Fragments]", "md_verbatim": "| NON-STUDY THERAPY | NST | | |", "score": 0.3889, "match_basis": "verbatim_token+global_search"}, {"md_atom_id": "md_dmCE_ex_a065", "md_file": "knowledge_base/domains/CE/examples.md", "md_atom_type": "TABLE_ROW", "md_parent_section": "§CE.3 [Example 3]", "md_verbatim": "| If therapeutic measures were required, select all that apply. | [ ] Casting/immobilization  [ ] Traction  [ ] Surgery |", "score": 0.3771, "match_basis": "verbatim_token+global_search"}, {"md_atom_id": "md_dmPR_ex_a034", "md_file": "knowledge_base/domains/PR/examples.md", "md_atom_type": "TABLE_ROW", "md_parent_section": "§PR.3 [Example 3]", "md_verbatim": "| 3 | ABC123 | PR | ABC123-3003 | 1 | Radiotherapy | 300 | cGy | BONE | | 2011-08-19 | 2011-08-22 |", "score": 0.3632, "match_basis": "verbatim_token+global_search"}], "candidate_count": 5, "zero_candidate": false}
{"pdf_atom_id": "ig34_p0445_a035", "pdf_atom_type": "TABLE_ROW", "pdf_source": "SDTMIG_v3.4", "pdf_page": 445, "pdf_parent_section": "Appendix A: CDISC SDS Team", "pdf_verbatim": "| Joleen T. White | EMD Serono (current affiliation Bill & Melinda Gates Medical Research Institute) |", "figure_ref": null, "candidates": [{"md_atom_id": "md_ch10_a037", "md_file": "knowledge_base/chapters/ch10_appendices.md", "md_atom_type": "TABLE_ROW", "md_parent_section": "§10.B [Glossary and Abbreviations]", "md_verbatim": "| NCI | National Cancer Institute (NIH) |", "score": 0.3952, "match_basis": "verbatim_token+global_search"}, {"md_atom_id": "md_ch10_a019", "md_file": "knowledge_base/chapters/ch10_appendices.md", "md_atom_type": "TABLE_ROW", "md_parent_section": "§10.B [Glossary and Abbreviations]", "md_verbatim": "| CRO | Contract research organization |", "score": 0.3794, "match_basis": "verbatim_token+global_search"}, {"md_atom_id": "md_ch02_a048", "md_file": "knowledge_base/chapters/ch02_fundamentals.md", "md_atom_type": "TABLE_ROW", "md_parent_section": "§2.3 [The General Observation Classes]", "md_verbatim": "| **Events** | Planned protocol milestones and occurrences, conditions, or incidents independent of planned evaluations | Adverse Events (AE), Disposition (DS), Medical History (MH) |", "score": 0.3712, "match_basis": "verbatim_token+global_search"}, {"md_atom_id": "md_ch10_a205", "md_file": "knowledge_base/chapters/ch10_appendices.md", "md_atom_type": "TABLE_ROW", "md_parent_section": "§10.E [Revision History]", "md_verbatim": "| 6.2.6 | Medical History (MH) | Example 5 added to illustrate presence of prespecified events |", "score": 0.3682, "match_basis": "verbatim_token+global_search"}, {"md_atom_id": "md_dmFA_ex_a091", "md_file": "knowledge_base/domains/FA/examples.md", "md_atom_type": "TABLE_ROW", "md_parent_section": "§FA.4 [Example 4]", "md_verbatim": "| 2 | ABC101 | FA | 1234 | 2 | OCCUR | Occurrence Indicator | Respiratory Infection | N | N | | 2 | VISIT 2 | 2005-10-01 | SINCE LAST VISIT |", "score": 0.3682, "match_basis": "verbatim_token+global_search"}], "candidate_count": 5, "zero_candidate": false}
{"pdf_atom_id": "ig34_p0445_a036", "pdf_atom_type": "TABLE_ROW", "pdf_source": "SDTMIG_v3.4", "pdf_page": 445, "pdf_parent_section": "Appendix A: CDISC SDS Team", "pdf_verbatim": "| Darcy Wold | CDISC |", "figure_ref": null, "candidates": [{"md_atom_id": "md_routing_a046", "md_file": "knowledge_base/ROUTING.md", "md_atom_type": "TABLE_ROW", "md_parent_section": "§ 文件类型速查", "md_verbatim": "| terminology/*.md | terminology/{category}/*.md | CDISC 受控术语值列表 | 查编码允许值 |", "score": 0.3783, "match_basis": "verbatim_token+global_search"}, {"md_atom_id": "md_ch10_a013", "md_file": "knowledge_base/chapters/ch10_appendices.md", "md_atom_type": "TABLE_ROW", "md_parent_section": "§10.B [Glossary and Abbreviations]", "md_verbatim": "| ADaM | CDISC Analysis Dataset Model |", "score": 0.375, "match_basis": "verbatim_token+global_search"}, {"md_atom_id": "md_dmTS_ex_a022", "md_file": "knowledge_base/domains/TS/examples.md", "md_atom_type": "TABLE_ROW", "md_parent_section": "§TS.1 [Example 1]", "md_verbatim": "| 17 | XYZ | TS | 2 | | TTYPE | Trial Type | SAFETY | | C49667 | CDISC CT | 2011-06-10 |", "score": 0.372, "match_basis": "verbatim_token+global_search"}, {"md_atom_id": "md_dmTS_ex_a041", "md_file": "knowledge_base/domains/TS/examples.md", "md_atom_type": "TABLE_ROW", "md_parent_section": "§TS.1 [Example 1]", "md_verbatim": "| 36 | XYZ | TS | 1 | | ADAPT | Adaptive Design | N | | C49487 | CDISC CT | 2011-06-10 |", "score": 0.372, "match_basis": "verbatim_token+global_search"}, {"md_atom_id": "md_dmTS_ex_a011", "md_file": "knowledge_base/domains/TS/examples.md", "md_atom_type": "TABLE_ROW", "md_parent_section": "§TS.1 [Example 1]", "md_verbatim": "| 6 | XYZ | TS | 1 | | RANDOM | Trial is Randomized | Y | | C49488 | CDISC CT | 2011-06-10 |", "score": 0.3692, "match_basis": "verbatim_token+global_search"}], "candidate_count": 5, "zero_candidate": false}
{"pdf_atom_id": "ig34_p0445_a037", "pdf_atom_type": "TABLE_ROW", "pdf_source": "SDTMIG_v3.4", "pdf_page": 445, "pdf_parent_section": "Appendix A: CDISC SDS Team", "pdf_verbatim": "| Diane Wold | CDISC |", "figure_ref": null, "candidates": [{"md_atom_id": "md_routing_a046", "md_file": "knowledge_base/ROUTING.md", "md_atom_type": "TABLE_ROW", "md_parent_section": "§ 文件类型速查", "md_verbatim": "| terminology/*.md | terminology/{category}/*.md | CDISC 受控术语值列表 | 查编码允许值 |", "score": 0.3783, "match_basis": "verbatim_token+global_search"}, {"md_atom_id": "md_ch10_a013", "md_file": "knowledge_base/chapters/ch10_appendices.md", "md_atom_type": "TABLE_ROW", "md_parent_section": "§10.B [Glossary and Abbreviations]", "md_verbatim": "| ADaM | CDISC Analysis Dataset Model |", "score": 0.375, "match_basis": "verbatim_token+global_search"}, {"md_atom_id": "md_dmTS_ex_a022", "md_file": "knowledge_base/domains/TS/examples.md", "md_atom_type": "TABLE_ROW", "md_parent_section": "§TS.1 [Example 1]", "md_verbatim": "| 17 | XYZ | TS | 2 | | TTYPE | Trial Type | SAFETY | | C49667 | CDISC CT | 2011-06-10 |", "score": 0.372, "match_basis": "verbatim_token+global_search"}, {"md_atom_id": "md_dmTS_ex_a041", "md_file": "knowledge_base/domains/TS/examples.md", "md_atom_type": "TABLE_ROW", "md_parent_section": "§TS.1 [Example 1]", "md_verbatim": "| 36 | XYZ | TS | 1 | | ADAPT | Adaptive Design | N | | C49487 | CDISC CT | 2011-06-10 |", "score": 0.372, "match_basis": "verbatim_token+global_search"}, {"md_atom_id": "md_dmTS_ex_a011", "md_file": "knowledge_base/domains/TS/examples.md", "md_atom_type": "TABLE_ROW", "md_parent_section": "§TS.1 [Example 1]", "md_verbatim": "| 6 | XYZ | TS | 1 | | RANDOM | Trial is Randomized | Y | | C49488 | CDISC CT | 2011-06-10 |", "score": 0.3692, "match_basis": "verbatim_token+global_search"}], "candidate_count": 5, "zero_candidate": false}
{"pdf_atom_id": "ig34_p0445_a038", "pdf_atom_type": "TABLE_ROW", "pdf_source": "SDTMIG_v3.4", "pdf_page": 445, "pdf_parent_section": "Appendix A: CDISC SDS Team", "pdf_verbatim": "| Ine Wolfs | Janssen Pharmaceutical Companies of Johnson & Johnson |", "figure_ref": null, "candidates": [{"md_atom_id": "md_varindex_a463", "md_file": "knowledge_base/VARIABLE_INDEX.md", "md_atom_type": "TABLE_ROW", "md_parent_section": "§ 二、领域专属变量（仅 1 个域，共 1499 个），按域分组", "md_verbatim": "| ECPSTRG | Pharmaceutical Strength | Num | Record Qualifier | Perm | — |", "score": 0.4263, "match_basis": "verbatim_token+global_search"}, {"md_atom_id": "md_model02_a050", "md_file": "knowledge_base/model/02_observation_classes.md", "md_atom_type": "TABLE_ROW", "md_parent_section": "§3.1.1 > Topic and Qualifier Variables (43 variables)", "md_verbatim": "| 35 | --PSTRGU | Pharmaceutical Strength Units | Char | Variable Qualifier (--PSTRG) | \"mg/TABLET\", \"mg/mL\" |", "score": 0.418, "match_basis": "verbatim_token+global_search"}, {"md_atom_id": "md_varindex_a464", "md_file": "knowledge_base/VARIABLE_INDEX.md", "md_atom_type": "TABLE_ROW", "md_parent_section": "§ 二、领域专属变量（仅 1 个域，共 1499 个），按域分组", "md_verbatim": "| ECPSTRGU | Pharmaceutical Strength Units | Char | Variable Qualifier | Perm | C71620 |", "score": 0.4075, "match_basis": "verbatim_token+global_search"}, {"md_atom_id": "md_model02_a049", "md_file": "knowledge_base/model/02_observation_classes.md", "md_atom_type": "TABLE_ROW", "md_parent_section": "§3.1.1 > Topic and Qualifier Variables (43 variables)", "md_verbatim": "| 34 | --PSTRG | Pharmaceutical Strength | Num | Record Qualifier | Amount of active ingredient: \"50\", \"300\" |", "score": 0.4029, "match_basis": "verbatim_token+global_search"}, {"md_atom_id": "md_dmTS_ex_a027", "md_file": "knowledge_base/domains/TS/examples.md", "md_atom_type": "TABLE_ROW", "md_parent_section": "§TS.1 [Example 1]", "md_verbatim": "| 22 | XYZ | TS | 1 | | SPONSOR | Clinical Study Sponsor | Pharmaco | | 123456789 | D-U-N-S NUMBER | |", "score": 0.3842, "match_basis": "verbatim_token+global_search"}], "candidate_count": 5, "zero_candidate": false}
{"pdf_atom_id": "ig34_p0445_a039", "pdf_atom_type": "TABLE_ROW", "pdf_source": "SDTMIG_v3.4", "pdf_page": 445, "pdf_parent_section": "Appendix A: CDISC SDS Team", "pdf_verbatim": "| Fred Wood | Data Standards Consulting |", "figure_ref": null, "candidates": [{"md_atom_id": "md_ch10_a178", "md_file": "knowledge_base/chapters/ch10_appendices.md", "md_atom_type": "TABLE_ROW", "md_parent_section": "§10.E [Revision History]", "md_verbatim": "| **Section 3. Submitting Data in a Standard Format** | | |", "score": 0.4667, "match_basis": "verbatim_token+global_search"}, {"md_atom_id": "md_ch10_a017", "md_file": "knowledge_base/chapters/ch10_appendices.md", "md_atom_type": "TABLE_ROW", "md_parent_section": "§10.B [Glossary and Abbreviations]", "md_verbatim": "| CDISC | Clinical Data Interchange Standards Consortium |", "score": 0.4467, "match_basis": "verbatim_token+global_search"}, {"md_atom_id": "md_ch10_a113", "md_file": "knowledge_base/chapters/ch10_appendices.md", "md_atom_type": "TABLE_ROW", "md_parent_section": "§10.D [CDISC Variable-naming Fragments]", "md_verbatim": "| FREQUENCY | FRQ | | STANDARD | ST, STD |", "score": 0.4448, "match_basis": "verbatim_token+global_search"}, {"md_atom_id": "md_ch10_a047", "md_file": "knowledge_base/chapters/ch10_appendices.md", "md_atom_type": "TABLE_ROW", "md_parent_section": "§10.B [Glossary and Abbreviations]", "md_verbatim": "| SEND | Standard for Exchange of Non-Clinical Data |", "score": 0.4297, "match_basis": "verbatim_token+global_search"}, {"md_atom_id": "md_ch10_a038", "md_file": "knowledge_base/chapters/ch10_appendices.md", "md_atom_type": "TABLE_ROW", "md_parent_section": "§10.B [Glossary and Abbreviations]", "md_verbatim": "| NSV | Non-standard variable |", "score": 0.4241, "match_basis": "verbatim_token+global_search"}], "candidate_count": 5, "zero_candidate": false}
{"pdf_atom_id": "ig34_p0445_a040", "pdf_atom_type": "TABLE_ROW", "pdf_source": "SDTMIG_v3.4", "pdf_page": 445, "pdf_parent_section": "Appendix A: CDISC SDS Team", "pdf_verbatim": "| Craig Zwickl | Transendix LLC |", "figure_ref": null, "candidates": [{"md_atom_id": "md_ch10_a127", "md_file": "knowledge_base/chapters/ch10_appendices.md", "md_atom_type": "TABLE_ROW", "md_parent_section": "§10.D [CDISC Variable-naming Fragments]", "md_verbatim": "| | | | TRANSITION | TRANS |", "score": 0.3857, "match_basis": "verbatim_token+global_search"}, {"md_atom_id": "md_model05_a042", "md_file": "knowledge_base/model/05_study_level_data.md", "md_atom_type": "TABLE_ROW", "md_parent_section": "§ Trial Arms (TA)", "md_verbatim": "| 9 | TATRANS | Transition Rule | Char | Rule |", "score": 0.3667, "match_basis": "verbatim_token+global_search"}, {"md_atom_id": "md_ch04_a940", "md_file": "knowledge_base/chapters/ch04_general_assumptions.md", "md_atom_type": "TABLE_ROW", "md_parent_section": "§4.5.3.2 [Text Strings Greater than 200 Characters in Other Variables]", "md_verbatim": "| 1 | 12345 | PR | 99-123 | 4 | KIDNEY TRANSPLANT |", "score": 0.3643, "match_basis": "verbatim_token+global_search"}, {"md_atom_id": "md_varindex_a1504", "md_file": "knowledge_base/VARIABLE_INDEX.md", "md_atom_type": "TABLE_ROW", "md_parent_section": "§ 二、领域专属变量（仅 1 个域，共 1499 个），按域分组", "md_verbatim": "| TATRANS | Transition Rule | Char | Rule | Exp | — |", "score": 0.3643, "match_basis": "verbatim_token+global_search"}, {"md_atom_id": "md_ch10_a024", "md_file": "knowledge_base/chapters/ch10_appendices.md", "md_atom_type": "TABLE_ROW", "md_parent_section": "§10.B [Glossary and Abbreviations]", "md_verbatim": "| eDT | Electronic data transfer |", "score": 0.36, "match_basis": "verbatim_token+global_search"}], "candidate_count": 5, "zero_candidate": false}
{"pdf_atom_id": "ig34_p0446_a001", "pdf_atom_type": "HEADING", "pdf_source": "SDTMIG_v3.4", "pdf_page": 446, "pdf_parent_section": "Appendix B: Glossary and Abbreviations", "pdf_verbatim": "Appendix B: Glossary and Abbreviations", "figure_ref": null, "candidates": [{"md_atom_id": "md_ch10_a009", "md_file": "knowledge_base/chapters/ch10_appendices.md", "md_atom_type": "HEADING", "md_parent_section": "§10 [Appendices]", "md_verbatim": "## Appendix B: Glossary and Abbreviations", "score": 0.9, "match_basis": "verbatim_token+global_search"}, {"md_atom_id": "md_ch10_a136", "md_file": "knowledge_base/chapters/ch10_appendices.md", "md_atom_type": "HEADING", "md_parent_section": "§10 [Appendices]", "md_verbatim": "## Appendix E: Revision History", "score": 0.4688, "match_basis": "verbatim_token+global_search"}, {"md_atom_id": "md_ch10_a003", "md_file": "knowledge_base/chapters/ch10_appendices.md", "md_atom_type": "HEADING", "md_parent_section": "§10 [Appendices]", "md_verbatim": "## Appendix A: CDISC SDS Team", "score": 0.42, "match_basis": "verbatim_token+global_search"}, {"md_atom_id": "md_varindex_a421", "md_file": "knowledge_base/VARIABLE_INDEX.md", "md_atom_type": "HEADING", "md_parent_section": "§ 二、领域专属变量（仅 1 个域，共 1499 个），按域分组", "md_verbatim": "### DV — Protocol Deviations (Events)", "score": 0.42, "match_basis": "verbatim_token+global_search"}, {"md_atom_id": "md_ch10_a245", "md_file": "knowledge_base/chapters/ch10_appendices.md", "md_atom_type": "HEADING", "md_parent_section": "§10 [Appendices]", "md_verbatim": "## Appendix F: Representations and Warranties, Limitations of Liability, and Disclaimers", "score": 0.4082, "match_basis": "verbatim_token+global_search"}], "candidate_count": 5, "zero_candidate": false}
{"pdf_atom_id": "ig34_p0446_a002", "pdf_atom_type": "SENTENCE", "pdf_source": "SDTMIG_v3.4", "pdf_page": 446, "pdf_parent_section": "Appendix B: Glossary and Abbreviations", "pdf_verbatim": "The following table lists some of the abbreviations and terms are used in this document.", "figure_ref": null, "candidates": [{"md_atom_id": "md_ch10_a010", "md_file": "knowledge_base/chapters/ch10_appendices.md", "md_atom_type": "SENTENCE", "md_parent_section": "§10.B [Glossary and Abbreviations]", "md_verbatim": "The following table lists some of the abbreviations and terms are used in this document.", "score": 0.9, "match_basis": "verbatim_token+global_search"}, {"md_atom_id": "md_model01_a059", "md_file": "knowledge_base/model/01_concepts_and_terms.md", "md_atom_type": "SENTENCE", "md_parent_section": "§2.2 [Table Structure]", "md_verbatim": "Tables in the SDTM v2.0 document include the following variable metadata:", "score": 0.47, "match_basis": "verbatim_token+global_search"}, {"md_atom_id": "md_ch04_a578", "md_file": "knowledge_base/chapters/ch04_general_assumptions.md", "md_atom_type": "SENTENCE", "md_parent_section": "§4.4.3.1 [Intervals of Time and Use of Duration]", "md_verbatim": "The following table provides some examples of ISO 8601-compliant representations of durations.", "score": 0.4459, "match_basis": "verbatim_token+global_search"}, {"md_atom_id": "md_ch08_a018", "md_file": "knowledge_base/chapters/ch08_relationships.md", "md_atom_type": "SENTENCE", "md_parent_section": "§8 [Representing Relationships and Data]", "md_verbatim": "The following are examples of variables that could be used in IDVAR:", "score": 0.4322, "match_basis": "verbatim_token+global_search"}, {"md_atom_id": "md_dmRELREC_assn_a009", "md_file": "knowledge_base/domains/RELREC/assumptions.md", "md_atom_type": "SENTENCE", "md_parent_section": "§RELREC [RELREC — Assumptions]", "md_verbatim": "The following are examples of variables that could be used in IDVAR:", "score": 0.4322, "match_basis": "verbatim_token+global_search"}], "candidate_count": 5, "zero_candidate": false}
{"pdf_atom_id": "ig34_p0446_a003", "pdf_atom_type": "SENTENCE", "pdf_source": "SDTMIG_v3.4", "pdf_page": 446, "pdf_parent_section": "Appendix B: Glossary and Abbreviations", "pdf_verbatim": "Additional definitions can be found in the individual sections of this document (see esp. Section 7.1.2, Definitions of Trial Design Concepts) and in the CDISC Glossary (available at https://www.cdisc.org/standards/glossary).", "figure_ref": null, "candidates": [{"md_atom_id": "md_ch10_a011", "md_file": "knowledge_base/chapters/ch10_appendices.md", "md_atom_type": "SENTENCE", "md_parent_section": "§10.B [Glossary and Abbreviations]", "md_verbatim": "Additional definitions can be found in the individual sections of this document (see esp. Section 7.1.2, Definitions of Trial Design Concepts) and in the CDISC Glossary (available at https://www.cdisc.org/standards/glossary).", "score": 0.9, "match_basis": "verbatim_token+global_search"}, {"md_atom_id": "md_dmFT_ex_a002", "md_file": "knowledge_base/domains/FT/examples.md", "md_atom_type": "SENTENCE", "md_parent_section": "§FT [FT — Examples]", "md_verbatim": "CDISC publishes supplements for individual functional tests (at https://www.cdisc.org/standards/foundational/qrs). Additional FT examples can be found in supplements on that webpage.", "score": 0.4949, "match_basis": "verbatim_token+global_search"}, {"md_atom_id": "md_dmRS_ex_a045", "md_file": "knowledge_base/domains/RS/examples.md", "md_atom_type": "SENTENCE", "md_parent_section": "§RS.2 [RS — Examples - Clinical Classifications]", "md_verbatim": "The following example is for a clinical classification. For additional RS examples, see the CDISC-published supplements for individual clinical classifications, at https://www.cdisc.org/standards/foundational/qrs.", "score": 0.4935, "match_basis": "verbatim_token+global_search"}, {"md_atom_id": "md_ch02_a068", "md_file": "knowledge_base/chapters/ch02_fundamentals.md", "md_atom_type": "SENTENCE", "md_parent_section": "§2.5 [The SDTM Standard Domain Models]", "md_verbatim": "Refer to the Define-XML standard (available at https://www.cdisc.org/standards/data-exchange/define-xml) for additional details on how to manage no data availability.", "score": 0.4872, "match_basis": "verbatim_token+global_search"}, {"md_atom_id": "md_dmQS_ex_a002", "md_file": "knowledge_base/domains/QS/examples.md", "md_atom_type": "SENTENCE", "md_parent_section": "§QS [QS — Examples]", "md_verbatim": "CDISC publishes supplements for individual questionnaires (at https://www.cdisc.org/standards/foundational/qrs). Additional QS examples can be found in supplements on that webpage.", "score": 0.4835, "match_basis": "verbatim_token+global_search"}], "candidate_count": 5, "zero_candidate": false}
{"pdf_atom_id": "ig34_p0446_a004", "pdf_atom_type": "TABLE_HEADER", "pdf_source": "SDTMIG_v3.4", "pdf_page": 446, "pdf_parent_section": "Appendix B: Glossary and Abbreviations", "pdf_verbatim": "| Term | Definition |", "figure_ref": null, "candidates": [{"md_atom_id": "md_dmTU_assn_a071", "md_file": "knowledge_base/domains/TU/assumptions.md", "md_atom_type": "TABLE_HEADER", "md_parent_section": "§TU [TU — Assumptions]", "md_verbatim": "| QNAM | QLABEL | Definition |", "score": 0.6, "match_basis": "verbatim_token+global_search"}, {"md_atom_id": "md_dmTS_assn_a038", "md_file": "knowledge_base/domains/TS/assumptions.md", "md_atom_type": "TABLE_HEADER", "md_parent_section": "§TS [TS — Use of Null Flavor]", "md_verbatim": "| Rank | Code | Display Name | Definition |\n|------|------|---|---|", "score": 0.5286, "match_basis": "verbatim_token+global_search"}, {"md_atom_id": "md_ch03_a099", "md_file": "knowledge_base/chapters/ch03_submitting_data.md", "md_atom_type": "SENTENCE", "md_parent_section": "§3.2.1.1 [Primary Keys]", "md_verbatim": "**Definitions:**", "score": 0.5264, "match_basis": "verbatim_token+global_search"}, {"md_atom_id": "md_model06_a056", "md_file": "knowledge_base/model/06_relationship_datasets.md", "md_atom_type": "HEADING", "md_parent_section": "§6.3 Pool Definition (POOLDEF)", "md_verbatim": "## 6.3 Pool Definition (POOLDEF)", "score": 0.4629, "match_basis": "verbatim_token+global_search"}, {"md_atom_id": "md_ch10_a012", "md_file": "knowledge_base/chapters/ch10_appendices.md", "md_atom_type": "TABLE_HEADER", "md_parent_section": "§10.B [Glossary and Abbreviations]", "md_verbatim": "| Abbreviation | Full Term |\n|-------------|-----------|", "score": 0.42, "match_basis": "verbatim_token+global_search"}], "candidate_count": 5, "zero_candidate": false}
{"pdf_atom_id": "ig34_p0446_a005", "pdf_atom_type": "TABLE_ROW", "pdf_source": "SDTMIG_v3.4", "pdf_page": 446, "pdf_parent_section": "Appendix B: Glossary and Abbreviations", "pdf_verbatim": "| ADaM | CDISC Analysis Dataset Model |", "figure_ref": null, "candidates": [{"md_atom_id": "md_ch10_a013", "md_file": "knowledge_base/chapters/ch10_appendices.md", "md_atom_type": "TABLE_ROW", "md_parent_section": "§10.B [Glossary and Abbreviations]", "md_verbatim": "| ADaM | CDISC Analysis Dataset Model |", "score": 0.9, "match_basis": "verbatim_token+global_search"}, {"md_atom_id": "md_ch10_a014", "md_file": "knowledge_base/chapters/ch10_appendices.md", "md_atom_type": "TABLE_ROW", "md_parent_section": "§10.B [Glossary and Abbreviations]", "md_verbatim": "| ADSL | (ADaM) Subject-level Analysis Dataset |", "score": 0.569, "match_basis": "verbatim_token+global_search"}, {"md_atom_id": "md_ch10_a077", "md_file": "knowledge_base/chapters/ch10_appendices.md", "md_atom_type": "TABLE_ROW", "md_parent_section": "§10.D [CDISC Variable-naming Fragments]", "md_verbatim": "| ANALYSIS DATASET | AD | | INTERVAL | INT |", "score": 0.564, "match_basis": "verbatim_token+global_search"}, {"md_atom_id": "md_ch10_a223", "md_file": "knowledge_base/chapters/ch10_appendices.md", "md_atom_type": "TABLE_ROW", "md_parent_section": "§10.E [Revision History]", "md_verbatim": "| **Section 7. Trial Design Model Datasets** | | |", "score": 0.45, "match_basis": "verbatim_token+global_search"}, {"md_atom_id": "md_ch04_a850", "md_file": "knowledge_base/chapters/ch04_general_assumptions.md", "md_atom_type": "TABLE_ROW", "md_parent_section": "§4.5.1.3 [Examples of Original and Standard Units and Test Not Done]", "md_verbatim": "| 3 | BACT | URINALYSIS | MODERATE | | MODERATE | | | | | 1 | 2016-02-01 |", "score": 0.44, "match_basis": "verbatim_token+global_search"}], "candidate_count": 5, "zero_candidate": false}
{"pdf_atom_id": "ig34_p0446_a006", "pdf_atom_type": "TABLE_ROW", "pdf_source": "SDTMIG_v3.4", "pdf_page": 446, "pdf_parent_section": "Appendix B: Glossary and Abbreviations", "pdf_verbatim": "| ADSL | (ADaM) Subject-level Analysis Dataset |", "figure_ref": null, "candidates": [{"md_atom_id": "md_ch10_a014", "md_file": "knowledge_base/chapters/ch10_appendices.md", "md_atom_type": "TABLE_ROW", "md_parent_section": "§10.B [Glossary and Abbreviations]", "md_verbatim": "| ADSL | (ADaM) Subject-level Analysis Dataset |", "score": 0.9, "match_basis": "verbatim_token+global_search"}, {"md_atom_id": "md_ch10_a013", "md_file": "knowledge_base/chapters/ch10_appendices.md", "md_atom_type": "TABLE_ROW", "md_parent_section": "§10.B [Glossary and Abbreviations]", "md_verbatim": "| ADaM | CDISC Analysis Dataset Model |", "score": 0.569, "match_basis": "verbatim_token+global_search"}, {"md_atom_id": "md_ch10_a077", "md_file": "knowledge_base/chapters/ch10_appendices.md", "md_atom_type": "TABLE_ROW", "md_parent_section": "§10.D [CDISC Variable-naming Fragments]", "md_verbatim": "| ANALYSIS DATASET | AD | | INTERVAL | INT |", "score": 0.5276, "match_basis": "verbatim_token+global_search"}, {"md_atom_id": "md_model06_a102", "md_file": "knowledge_base/model/06_relationship_datasets.md", "md_atom_type": "TABLE_HEADER", "md_parent_section": "§ Summary of Relationship Datasets", "md_verbatim": "| Dataset | Code | Purpose | Subject-level? |\n|---------|------|---------|----------------|", "score": 0.5, "match_basis": "verbatim_token+global_search"}, {"md_atom_id": "md_model06_a021", "md_file": "knowledge_base/model/06_relationship_datasets.md", "md_atom_type": "TABLE_ROW", "md_parent_section": "§6.1 Related Records (RELREC)", "md_verbatim": "| 3 | USUBJID | Unique Subject Identifier | Char | Identifier | Null for dataset-level relationships |", "score": 0.4444, "match_basis": "verbatim_token+global_search"}], "candidate_count": 5, "zero_candidate": false}
{"pdf_atom_id": "ig34_p0446_a007", "pdf_atom_type": "TABLE_ROW", "pdf_source": "SDTMIG_v3.4", "pdf_page": 446, "pdf_parent_section": "Appendix B: Glossary and Abbreviations", "pdf_verbatim": "| ATC | Anatomic Therapeutic Chemical (code; WHO) |", "figure_ref": null, "candidates": [{"md_atom_id": "md_ch10_a015", "md_file": "knowledge_base/chapters/ch10_appendices.md", "md_atom_type": "TABLE_ROW", "md_parent_section": "§10.B [Glossary and Abbreviations]", "md_verbatim": "| ATC | Anatomic Therapeutic Chemical (code; WHO) |", "score": 0.9, "match_basis": "verbatim_token+global_search"}, {"md_atom_id": "md_dmCE_ex_a064", "md_file": "knowledge_base/domains/CE/examples.md", "md_atom_type": "TABLE_ROW", "md_parent_section": "§CE.3 [Example 3]", "md_verbatim": "| Were therapeutic measures required? | ( ) Yes  ( ) No  ( ) Unknown |", "score": 0.4227, "match_basis": "verbatim_token+global_search"}, {"md_atom_id": "md_varindex_a139", "md_file": "knowledge_base/VARIABLE_INDEX.md", "md_atom_type": "TABLE_ROW", "md_parent_section": "§ 二、领域专属变量（仅 1 个域，共 1499 个），按域分组", "md_verbatim": "| BELOC | Anatomical Location of Event | Char | Record Qualifier | Perm | C74456 |", "score": 0.3889, "match_basis": "verbatim_token+global_search"}, {"md_atom_id": "md_varindex_a167", "md_file": "knowledge_base/VARIABLE_INDEX.md", "md_atom_type": "TABLE_ROW", "md_parent_section": "§ 二、领域专属变量（仅 1 个域，共 1499 个），按域分组", "md_verbatim": "| BSANTREG | Anatomical Region of Specimen | Char | Variable Qualifier | Perm | — |", "score": 0.3857, "match_basis": "verbatim_token+global_search"}, {"md_atom_id": "md_ch08_a308", "md_file": "knowledge_base/chapters/ch08_relationships.md", "md_atom_type": "TABLE_ROW", "md_parent_section": "§8.7 [Related Subjects (RELSUB)]", "md_verbatim": "| 1 | HEM021 | HEM021-001 | HEM021-002 | MOTHER, BIOLOGICAL |", "score": 0.3811, "match_basis": "verbatim_token+global_search"}], "candidate_count": 5, "zero_candidate": false}
{"pdf_atom_id": "ig34_p0446_a008", "pdf_atom_type": "TABLE_ROW", "pdf_source": "SDTMIG_v3.4", "pdf_page": 446, "pdf_parent_section": "Appendix B: Glossary and Abbreviations", "pdf_verbatim": "| CDASH | Clinical Data Acquisition Standards Harmonization |", "figure_ref": null, "candidates": [{"md_atom_id": "md_ch10_a016", "md_file": "knowledge_base/chapters/ch10_appendices.md", "md_atom_type": "TABLE_ROW", "md_parent_section": "§10.B [Glossary and Abbreviations]", "md_verbatim": "| CDASH | Clinical Data Acquisition Standards Harmonization |", "score": 0.9, "match_basis": "verbatim_token+global_search"}, {"md_atom_id": "md_ch10_a047", "md_file": "knowledge_base/chapters/ch10_appendices.md", "md_atom_type": "TABLE_ROW", "md_parent_section": "§10.B [Glossary and Abbreviations]", "md_verbatim": "| SEND | Standard for Exchange of Non-Clinical Data |", "score": 0.4826, "match_basis": "verbatim_token+global_search"}, {"md_atom_id": "md_ch10_a017", "md_file": "knowledge_base/chapters/ch10_appendices.md", "md_atom_type": "TABLE_ROW", "md_parent_section": "§10.B [Glossary and Abbreviations]", "md_verbatim": "| CDISC | Clinical Data Interchange Standards Consortium |", "score": 0.4607, "match_basis": "verbatim_token+global_search"}, {"md_atom_id": "md_ch10_a028", "md_file": "knowledge_base/chapters/ch10_appendices.md", "md_atom_type": "TABLE_ROW", "md_parent_section": "§10.B [Glossary and Abbreviations]", "md_verbatim": "| ICH E2A | ICH guidelines on Clinical Safety Data Management: Definitions and Standards for Expedited Reporting |", "score": 0.4403, "match_basis": "verbatim_token+global_search"}, {"md_atom_id": "md_ch10_a032", "md_file": "knowledge_base/chapters/ch10_appendices.md", "md_atom_type": "TABLE_ROW", "md_parent_section": "§10.B [Glossary and Abbreviations]", "md_verbatim": "| ISO | International Organization for Standardization |", "score": 0.4385, "match_basis": "verbatim_token+global_search"}], "candidate_count": 5, "zero_candidate": false}
{"pdf_atom_id": "ig34_p0446_a009", "pdf_atom_type": "TABLE_ROW", "pdf_source": "SDTMIG_v3.4", "pdf_page": 446, "pdf_parent_section": "Appendix B: Glossary and Abbreviations", "pdf_verbatim": "| CDISC | Clinical Data Interchange Standards Consortium |", "figure_ref": null, "candidates": [{"md_atom_id": "md_ch10_a017", "md_file": "knowledge_base/chapters/ch10_appendices.md", "md_atom_type": "TABLE_ROW", "md_parent_section": "§10.B [Glossary and Abbreviations]", "md_verbatim": "| CDISC | Clinical Data Interchange Standards Consortium |", "score": 0.9, "match_basis": "verbatim_token+global_search"}, {"md_atom_id": "md_ch10_a047", "md_file": "knowledge_base/chapters/ch10_appendices.md", "md_atom_type": "TABLE_ROW", "md_parent_section": "§10.B [Glossary and Abbreviations]", "md_verbatim": "| SEND | Standard for Exchange of Non-Clinical Data |", "score": 0.5634, "match_basis": "verbatim_token+global_search"}, {"md_atom_id": "md_ch10_a016", "md_file": "knowledge_base/chapters/ch10_appendices.md", "md_atom_type": "TABLE_ROW", "md_parent_section": "§10.B [Glossary and Abbreviations]", "md_verbatim": "| CDASH | Clinical Data Acquisition Standards Harmonization |", "score": 0.4607, "match_basis": "verbatim_token+global_search"}, {"md_atom_id": "md_ch10_a028", "md_file": "knowledge_base/chapters/ch10_appendices.md", "md_atom_type": "TABLE_ROW", "md_parent_section": "§10.B [Glossary and Abbreviations]", "md_verbatim": "| ICH E2A | ICH guidelines on Clinical Safety Data Management: Definitions and Standards for Expedited Reporting |", "score": 0.4421, "match_basis": "verbatim_token+global_search"}, {"md_atom_id": "md_varindex_a196", "md_file": "knowledge_base/VARIABLE_INDEX.md", "md_atom_type": "TABLE_ROW", "md_parent_section": "§ 二、领域专属变量（仅 1 个域，共 1499 个），按域分组", "md_verbatim": "| CESTDTC | Start Date/Time of Clinical Event | Char | Timing | Perm | ISO 8601 datetime or interval |", "score": 0.4161, "match_basis": "verbatim_token+global_search"}], "candidate_count": 5, "zero_candidate": false}
{"pdf_atom_id": "ig34_p0446_a010", "pdf_atom_type": "TABLE_ROW", "pdf_source": "SDTMIG_v3.4", "pdf_page": 446, "pdf_parent_section": "Appendix B: Glossary and Abbreviations", "pdf_verbatim": "| CRF | Case report form (sometimes case record form) |", "figure_ref": null, "candidates": [{"md_atom_id": "md_ch10_a018", "md_file": "knowledge_base/chapters/ch10_appendices.md", "md_atom_type": "TABLE_ROW", "md_parent_section": "§10.B [Glossary and Abbreviations]", "md_verbatim": "| CRF | Case report form (sometimes case record form) |", "score": 0.9, "match_basis": "verbatim_token+global_search"}, {"md_atom_id": "md_ch04_a532", "md_file": "knowledge_base/chapters/ch04_general_assumptions.md", "md_atom_type": "TABLE_ROW", "md_parent_section": "§4.4.2 [Date/Time Precision]", "md_verbatim": "| 4 | Sometime in the first half of 2003 | 2003-01-01/2003-06-30 |", "score": 0.4286, "match_basis": "verbatim_token+global_search"}, {"md_atom_id": "md_varindex_a387", "md_file": "knowledge_base/VARIABLE_INDEX.md", "md_atom_type": "TABLE_ROW", "md_parent_section": "§ 二、领域专属变量（仅 1 个域，共 1499 个），按域分组", "md_verbatim": "| RFICDTC | Date/Time of Informed Consent | Char | Record Qualifier | Exp | ISO 8601 datetime or interval |", "score": 0.3964, "match_basis": "verbatim_token+global_search"}, {"md_atom_id": "md_model03_a032", "md_file": "knowledge_base/model/03_special_purpose_domains.md", "md_atom_type": "TABLE_ROW", "md_parent_section": "§ Demographics (DM) > Variables (38 variables)", "md_verbatim": "| 18 | BRTHDTC | Date/Time of Birth | Char | Record Qualifier | |", "score": 0.3947, "match_basis": "verbatim_token+global_search"}, {"md_atom_id": "md_ch10_a039", "md_file": "knowledge_base/chapters/ch10_appendices.md", "md_atom_type": "TABLE_ROW", "md_parent_section": "§10.B [Glossary and Abbreviations]", "md_verbatim": "| PRO | Patient-reported outcome |", "score": 0.3937, "match_basis": "verbatim_token+global_search"}], "candidate_count": 5, "zero_candidate": false}
{"pdf_atom_id": "ig34_p0446_a011", "pdf_atom_type": "TABLE_ROW", "pdf_source": "SDTMIG_v3.4", "pdf_page": 446, "pdf_parent_section": "Appendix B: Glossary and Abbreviations", "pdf_verbatim": "| CRO | Contract research organization |", "figure_ref": null, "candidates": [{"md_atom_id": "md_ch10_a019", "md_file": "knowledge_base/chapters/ch10_appendices.md", "md_atom_type": "TABLE_ROW", "md_parent_section": "§10.B [Glossary and Abbreviations]", "md_verbatim": "| CRO | Contract research organization |", "score": 0.9, "match_basis": "verbatim_token+global_search"}, {"md_atom_id": "md_ch10_a032", "md_file": "knowledge_base/chapters/ch10_appendices.md", "md_atom_type": "TABLE_ROW", "md_parent_section": "§10.B [Glossary and Abbreviations]", "md_verbatim": "| ISO | International Organization for Standardization |", "score": 0.4463, "match_basis": "verbatim_token+global_search"}, {"md_atom_id": "md_ch10_a051", "md_file": "knowledge_base/chapters/ch10_appendices.md", "md_atom_type": "TABLE_ROW", "md_parent_section": "§10.B [Glossary and Abbreviations]", "md_verbatim": "| WHODRUG | World Health Organization Drug Dictionary |", "score": 0.4463, "match_basis": "verbatim_token+global_search"}, {"md_atom_id": "md_dmEX_ex_a215", "md_file": "knowledge_base/domains/EX/examples.md", "md_atom_type": "TABLE_ROW", "md_parent_section": "§EX.7 [Example 7]", "md_verbatim": "| Concentration | 5.5 mg/mL | 4.12 mg/mL | 4.12 mg/mL |", "score": 0.4286, "match_basis": "verbatim_token+global_search"}, {"md_atom_id": "md_index_a017", "md_file": "knowledge_base/INDEX.md", "md_atom_type": "TABLE_ROW", "md_parent_section": "§ Chapters (SDTMIG v3.4 Implementation Guide)", "md_verbatim": "| [ch01_introduction.md](chapters/ch01_introduction.md) | SDTMIG Ch1 | Purpose, organization, changes from v3.3, reading guide |", "score": 0.4065, "match_basis": "verbatim_token+global_search"}], "candidate_count": 5, "zero_candidate": false}
{"pdf_atom_id": "ig34_p0446_a012", "pdf_atom_type": "TABLE_ROW", "pdf_source": "SDTMIG_v3.4", "pdf_page": 446, "pdf_parent_section": "Appendix B: Glossary and Abbreviations", "pdf_verbatim": "| CTCAE | Common Terminology Criteria for Adverse Events |", "figure_ref": null, "candidates": [{"md_atom_id": "md_ch10_a020", "md_file": "knowledge_base/chapters/ch10_appendices.md", "md_atom_type": "TABLE_ROW", "md_parent_section": "§10.B [Glossary and Abbreviations]", "md_verbatim": "| CTCAE | Common Terminology Criteria for Adverse Events |", "score": 0.9, "match_basis": "verbatim_token+global_search"}, {"md_atom_id": "md_index_a109", "md_file": "knowledge_base/INDEX.md", "md_atom_type": "TABLE_ROW", "md_parent_section": "§ Terminology (91 files)", "md_verbatim": "| [ae.md](terminology/core/ae.md) | Adverse Events codelists |", "score": 0.57, "match_basis": "verbatim_token+global_search"}, {"md_atom_id": "md_ch04_a269", "md_file": "knowledge_base/chapters/ch04_general_assumptions.md", "md_atom_type": "TABLE_ROW", "md_parent_section": "§4.2.7.1 [\"Specify\" Values for Non-Result Qualifier Variables]", "md_verbatim": "| [ ] Adverse Event                  |          |", "score": 0.4548, "match_basis": "verbatim_token+global_search"}, {"md_atom_id": "md_varindex_a043", "md_file": "knowledge_base/VARIABLE_INDEX.md", "md_atom_type": "TABLE_ROW", "md_parent_section": "§ 二、领域专属变量（仅 1 个域，共 1499 个），按域分组", "md_verbatim": "| AETERM | Reported Term for the Adverse Event | Char | Topic | Req | — |", "score": 0.4435, "match_basis": "verbatim_token+global_search"}, {"md_atom_id": "md_index_a117", "md_file": "knowledge_base/INDEX.md", "md_atom_type": "TABLE_ROW", "md_parent_section": "§ Terminology (91 files)", "md_verbatim": "| [interventions.md](terminology/core/interventions.md) | Interventions codelists |", "score": 0.4375, "match_basis": "verbatim_token+global_search"}], "candidate_count": 5, "zero_candidate": false}
{"pdf_atom_id": "ig34_p0446_a013", "pdf_atom_type": "TABLE_ROW", "pdf_source": "SDTMIG_v3.4", "pdf_page": 446, "pdf_parent_section": "Appendix B: Glossary and Abbreviations", "pdf_verbatim": "| Dataset | A collection of structured data in a single file |", "figure_ref": null, "candidates": [{"md_atom_id": "md_ch10_a021", "md_file": "knowledge_base/chapters/ch10_appendices.md", "md_atom_type": "TABLE_ROW", "md_parent_section": "§10.B [Glossary and Abbreviations]", "md_verbatim": "| Dataset | A collection of structured data in a single file |", "score": 0.9, "match_basis": "verbatim_token+global_search"}, {"md_atom_id": "md_ch04_a690", "md_file": "knowledge_base/chapters/ch04_general_assumptions.md", "md_atom_type": "TABLE_ROW", "md_parent_section": "§4.4.8 [Date and Time Reported in a Domain Based on Findings]", "md_verbatim": "| Single-point Collection | X | | |", "score": 0.54, "match_basis": "verbatim_token+global_search"}, {"md_atom_id": "md_dmCE_ex_a059", "md_file": "knowledge_base/domains/CE/examples.md", "md_atom_type": "TABLE_ROW", "md_parent_section": "§CE.3 [Example 3]", "md_verbatim": "| Date of collection | -- / --- / -- |", "score": 0.4929, "match_basis": "verbatim_token+global_search"}, {"md_atom_id": "md_model03_a051", "md_file": "knowledge_base/model/03_special_purpose_domains.md", "md_atom_type": "TABLE_ROW", "md_parent_section": "§ Demographics (DM) > Variables (38 variables)", "md_verbatim": "| 37 | DMDTC | Date/Time of Collection | Char | Timing | |", "score": 0.4622, "match_basis": "verbatim_token+global_search"}, {"md_atom_id": "md_model03_a052", "md_file": "knowledge_base/model/03_special_purpose_domains.md", "md_atom_type": "TABLE_ROW", "md_parent_section": "§ Demographics (DM) > Variables (38 variables)", "md_verbatim": "| 38 | DMDY | Study Day of Collection | Num | Timing | |", "score": 0.4459, "match_basis": "verbatim_token+global_search"}], "candidate_count": 5, "zero_candidate": false}
{"pdf_atom_id": "ig34_p0446_a014", "pdf_atom_type": "TABLE_ROW", "pdf_source": "SDTMIG_v3.4", "pdf_page": 446, "pdf_parent_section": "Appendix B: Glossary and Abbreviations", "pdf_verbatim": "| Define-XML | CDISC standard for transmitting metadata that describes any tabular dataset structure. |", "figure_ref": null, "candidates": [{"md_atom_id": "md_ch10_a022", "md_file": "knowledge_base/chapters/ch10_appendices.md", "md_atom_type": "TABLE_ROW", "md_parent_section": "§10.B [Glossary and Abbreviations]", "md_verbatim": "| Define-XML | CDISC standard for transmitting metadata that describes any tabular dataset structure |", "score": 0.9, "match_basis": "verbatim_token+global_search"}, {"md_atom_id": "md_ch01_a014", "md_file": "knowledge_base/chapters/ch01_introduction.md", "md_atom_type": "TABLE_ROW", "md_parent_section": "§1.2 [Organization of this Document]", "md_verbatim": "| 3 | Submitting Data in Standard Format | How to describe metadata for regulatory submissions; conformance assessment |", "score": 0.4667, "match_basis": "verbatim_token+global_search"}, {"md_atom_id": "md_index_a019", "md_file": "knowledge_base/INDEX.md", "md_atom_type": "TABLE_ROW", "md_parent_section": "§ Chapters (SDTMIG v3.4 Implementation Guide)", "md_verbatim": "| [ch03_submitting_data.md](chapters/ch03_submitting_data.md) | SDTMIG Ch3 | Standard metadata, dataset metadata, primary keys, value-level metadata |", "score": 0.4412, "match_basis": "verbatim_token+global_search"}, {"md_atom_id": "md_ch10_a179", "md_file": "knowledge_base/chapters/ch10_appendices.md", "md_atom_type": "TABLE_ROW", "md_parent_section": "§10.E [Revision History]", "md_verbatim": "| 3.2 | Using the CDISC Domain Models in Regulatory Submissions — Dataset Metadata | Removed paragraph about empty datasets for small PK studies per MSG v2.0 and Define-XML v2.1 standard |", "score": 0.4393, "match_basis": "verbatim_token+global_search"}, {"md_atom_id": "md_ch10_a178", "md_file": "knowledge_base/chapters/ch10_appendices.md", "md_atom_type": "TABLE_ROW", "md_parent_section": "§10.E [Revision History]", "md_verbatim": "| **Section 3. Submitting Data in a Standard Format** | | |", "score": 0.4254, "match_basis": "verbatim_token+global_search"}], "candidate_count": 5, "zero_candidate": false}
{"pdf_atom_id": "ig34_p0446_a015", "pdf_atom_type": "TABLE_ROW", "pdf_source": "SDTMIG_v3.4", "pdf_page": 446, "pdf_parent_section": "Appendix B: Glossary and Abbreviations", "pdf_verbatim": "| Domain | A collection of observations with a topic-specific commonality |", "figure_ref": null, "candidates": [{"md_atom_id": "md_ch10_a023", "md_file": "knowledge_base/chapters/ch10_appendices.md", "md_atom_type": "TABLE_ROW", "md_parent_section": "§10.B [Glossary and Abbreviations]", "md_verbatim": "| Domain | A collection of observations with a topic-specific commonality |", "score": 0.9, "match_basis": "verbatim_token+global_search"}, {"md_atom_id": "md_model01_a035", "md_file": "knowledge_base/model/01_concepts_and_terms.md", "md_atom_type": "TABLE_ROW", "md_parent_section": "§2.1 [Model Concepts and Terms — Variables]", "md_verbatim": "| **Grouping Qualifiers** | Group together a collection of observations within the same domain | --CAT, --SCAT |", "score": 0.525, "match_basis": "verbatim_token+global_search"}, {"md_atom_id": "md_ch02_a016", "md_file": "knowledge_base/chapters/ch02_fundamentals.md", "md_atom_type": "TABLE_ROW", "md_parent_section": "§2.1 [Observations and Variables]", "md_verbatim": "| **Grouping Qualifiers** | Group together a collection of observations within the same domain | --CAT, --SCAT |", "score": 0.525, "match_basis": "verbatim_token+global_search"}, {"md_atom_id": "md_model02_a066", "md_file": "knowledge_base/model/02_observation_classes.md", "md_atom_type": "TABLE_ROW", "md_parent_section": "§3.1.2 > Topic and Qualifier Variables (56 variables)", "md_verbatim": "| 1 | --TERM | Reported Term | Char | Topic | The collected name for an event observation |", "score": 0.4759, "match_basis": "verbatim_token+global_search"}, {"md_atom_id": "md_index_a140", "md_file": "knowledge_base/INDEX.md", "md_atom_type": "TABLE_ROW", "md_parent_section": "§ Source Documents", "md_verbatim": "| SDTMIG v3.4 xlsx | — | 63 domain specifications |", "score": 0.475, "match_basis": "verbatim_token+global_search"}], "candidate_count": 5, "zero_candidate": false}
{"pdf_atom_id": "ig34_p0446_a016", "pdf_atom_type": "TABLE_ROW", "pdf_source": "SDTMIG_v3.4", "pdf_page": 446, "pdf_parent_section": "Appendix B: Glossary and Abbreviations", "pdf_verbatim": "| eDT | Electronic data transfer |", "figure_ref": null, "candidates": [{"md_atom_id": "md_ch10_a024", "md_file": "knowledge_base/chapters/ch10_appendices.md", "md_atom_type": "TABLE_ROW", "md_parent_section": "§10.B [Glossary and Abbreviations]", "md_verbatim": "| eDT | Electronic data transfer |", "score": 0.9, "match_basis": "verbatim_token+global_search"}, {"md_atom_id": "md_ch10_a127", "md_file": "knowledge_base/chapters/ch10_appendices.md", "md_atom_type": "TABLE_ROW", "md_parent_section": "§10.D [CDISC Variable-naming Fragments]", "md_verbatim": "| | | | TRANSITION | TRANS |", "score": 0.3818, "match_basis": "verbatim_token+global_search"}, {"md_atom_id": "md_dmCE_ex_a059", "md_file": "knowledge_base/domains/CE/examples.md", "md_atom_type": "TABLE_ROW", "md_parent_section": "§CE.3 [Example 3]", "md_verbatim": "| Date of collection | -- / --- / -- |", "score": 0.375, "match_basis": "verbatim_token+global_search"}, {"md_atom_id": "md_model05_a042", "md_file": "knowledge_base/model/05_study_level_data.md", "md_atom_type": "TABLE_ROW", "md_parent_section": "§ Trial Arms (TA)", "md_verbatim": "| 9 | TATRANS | Transition Rule | Char | Rule |", "score": 0.3643, "match_basis": "verbatim_token+global_search"}, {"md_atom_id": "md_ch04_a940", "md_file": "knowledge_base/chapters/ch04_general_assumptions.md", "md_atom_type": "TABLE_ROW", "md_parent_section": "§4.5.3.2 [Text Strings Greater than 200 Characters in Other Variables]", "md_verbatim": "| 1 | 12345 | PR | 99-123 | 4 | KIDNEY TRANSPLANT |", "score": 0.3621, "match_basis": "verbatim_token+global_search"}], "candidate_count": 5, "zero_candidate": false}
{"pdf_atom_id": "ig34_p0446_a017", "pdf_atom_type": "TABLE_ROW", "pdf_source": "SDTMIG_v3.4", "pdf_page": 446, "pdf_parent_section": "Appendix B: Glossary and Abbreviations", "pdf_verbatim": "| FDA | (US) Food and Drug Administration |", "figure_ref": null, "candidates": [{"md_atom_id": "md_ch10_a025", "md_file": "knowledge_base/chapters/ch10_appendices.md", "md_atom_type": "TABLE_ROW", "md_parent_section": "§10.B [Glossary and Abbreviations]", "md_verbatim": "| FDA | (US) Food and Drug Administration |", "score": 0.9, "match_basis": "verbatim_token+global_search"}, {"md_atom_id": "md_dmTS_assn_a022", "md_file": "knowledge_base/domains/TS/assumptions.md", "md_atom_type": "TABLE_ROW", "md_parent_section": "§TS [TS — Assumptions]", "md_verbatim": "    | 1 | A | DOSE | Dose per Administration | 50 |", "score": 0.6429, "match_basis": "verbatim_token+global_search"}, {"md_atom_id": "md_dmTS_assn_a024", "md_file": "knowledge_base/domains/TS/assumptions.md", "md_atom_type": "TABLE_ROW", "md_parent_section": "§TS [TS — Assumptions]", "md_verbatim": "    | 2 | B | DOSE | Dose per Administration | 100 |", "score": 0.6273, "match_basis": "verbatim_token+global_search"}, {"md_atom_id": "md_dmTS_ex_a115", "md_file": "knowledge_base/domains/TS/examples.md", "md_atom_type": "TABLE_ROW", "md_parent_section": "§TS.4 [Example 4]", "md_verbatim": "| 30 | ABC123 | TS | 1 | DRUG X | DOSE | Dose per Administration | 200 | | | | |", "score": 0.6231, "match_basis": "verbatim_token+global_search"}, {"md_atom_id": "md_dmTS_ex_a119", "md_file": "knowledge_base/domains/TS/examples.md", "md_atom_type": "TABLE_ROW", "md_parent_section": "§TS.4 [Example 4]", "md_verbatim": "| 34 | ABC123 | TS | 1 | DRUG Z | DOSE | Dose per Administration | 10000 | | | | |", "score": 0.6111, "match_basis": "verbatim_token+global_search"}], "candidate_count": 5, "zero_candidate": false}
{"pdf_atom_id": "ig34_p0446_a018", "pdf_atom_type": "TABLE_ROW", "pdf_source": "SDTMIG_v3.4", "pdf_page": 446, "pdf_parent_section": "Appendix B: Glossary and Abbreviations", "pdf_verbatim": "| HL7 | Health Level 7 |", "figure_ref": null, "candidates": [{"md_atom_id": "md_ch10_a026", "md_file": "knowledge_base/chapters/ch10_appendices.md", "md_atom_type": "TABLE_ROW", "md_parent_section": "§10.B [Glossary and Abbreviations]", "md_verbatim": "| HL7 | Health Level 7 |", "score": 0.9, "match_basis": "verbatim_token+global_search"}, {"md_atom_id": "md_varindex_a660", "md_file": "knowledge_base/VARIABLE_INDEX.md", "md_atom_type": "TABLE_ROW", "md_parent_section": "§ 二、领域专属变量（仅 1 个域，共 1499 个），按域分组", "md_verbatim": "| HOTERM | Healthcare Encounter Term | Char | Topic | Req | — |", "score": 0.3857, "match_basis": "verbatim_token+global_search"}, {"md_atom_id": "md_ch10_a051", "md_file": "knowledge_base/chapters/ch10_appendices.md", "md_atom_type": "TABLE_ROW", "md_parent_section": "§10.B [Glossary and Abbreviations]", "md_verbatim": "| WHODRUG | World Health Organization Drug Dictionary |", "score": 0.375, "match_basis": "verbatim_token+global_search"}, {"md_atom_id": "md_varindex_a673", "md_file": "knowledge_base/VARIABLE_INDEX.md", "md_atom_type": "TABLE_ROW", "md_parent_section": "§ 二、领域专属变量（仅 1 个域，共 1499 个），按域分组", "md_verbatim": "| HOENDY | Study Day of End of Healthcare Encounter | Num | Timing | Perm | — |", "score": 0.3706, "match_basis": "verbatim_token+global_search"}, {"md_atom_id": "md_dmTS_ex_a051", "md_file": "knowledge_base/domains/TS/examples.md", "md_atom_type": "TABLE_ROW", "md_parent_section": "§TS.1 [Example 1]", "md_verbatim": "| 46 | XYZ | TS | 1 | | HLTSUBJI | Healthy Subject Indicator | N | | C49487 | CDISC CT | 2011-06-10 |", "score": 0.3686, "match_basis": "verbatim_token+global_search"}], "candidate_count": 5, "zero_candidate": false}
{"pdf_atom_id": "ig34_p0446_a019", "pdf_atom_type": "TABLE_ROW", "pdf_source": "SDTMIG_v3.4", "pdf_page": 446, "pdf_parent_section": "Appendix B: Glossary and Abbreviations", "pdf_verbatim": "| ICH | International Conference on Harmonisation of Technical Requirements for Registration of Pharmaceuticals for Human Use |", "figure_ref": null, "candidates": [{"md_atom_id": "md_ch10_a027", "md_file": "knowledge_base/chapters/ch10_appendices.md", "md_atom_type": "TABLE_ROW", "md_parent_section": "§10.B [Glossary and Abbreviations]", "md_verbatim": "| ICH | International Conference on Harmonisation of Technical Requirements for Registration of Pharmaceuticals for Human Use |", "score": 0.9, "match_basis": "verbatim_token+global_search"}, {"md_atom_id": "md_model02_a175", "md_file": "knowledge_base/model/02_observation_classes.md", "md_atom_type": "TABLE_ROW", "md_parent_section": "§3.1.4 Identifiers for All Classes", "md_verbatim": "| 11 | --REFID | Reference ID | Char | Identifier | Internal or external identifier (e.g., specimen ID, ECG ID) |", "score": 0.3977, "match_basis": "verbatim_token+global_search"}, {"md_atom_id": "md_varindex_a463", "md_file": "knowledge_base/VARIABLE_INDEX.md", "md_atom_type": "TABLE_ROW", "md_parent_section": "§ 二、领域专属变量（仅 1 个域，共 1499 个），按域分组", "md_verbatim": "| ECPSTRG | Pharmaceutical Strength | Num | Record Qualifier | Perm | — |", "score": 0.3955, "match_basis": "verbatim_token+global_search"}, {"md_atom_id": "md_model02_a044", "md_file": "knowledge_base/model/02_observation_classes.md", "md_atom_type": "TABLE_ROW", "md_parent_section": "§3.1.1 > Topic and Qualifier Variables (43 variables)", "md_verbatim": "| 29 | --METHOD | Method of Administration | Char | Record Qualifier | \"INFUSION\", \"INTRAVENOUS\". Not in human clinical trials; EX domain only |", "score": 0.3927, "match_basis": "verbatim_token+global_search"}, {"md_atom_id": "md_model02_a050", "md_file": "knowledge_base/model/02_observation_classes.md", "md_atom_type": "TABLE_ROW", "md_parent_section": "§3.1.1 > Topic and Qualifier Variables (43 variables)", "md_verbatim": "| 35 | --PSTRGU | Pharmaceutical Strength Units | Char | Variable Qualifier (--PSTRG) | \"mg/TABLET\", \"mg/mL\" |", "score": 0.3913, "match_basis": "verbatim_token+global_search"}], "candidate_count": 5, "zero_candidate": false}
{"pdf_atom_id": "ig34_p0446_a020", "pdf_atom_type": "TABLE_ROW", "pdf_source": "SDTMIG_v3.4", "pdf_page": 446, "pdf_parent_section": "Appendix B: Glossary and Abbreviations", "pdf_verbatim": "| ICH E2A | ICH guidelines on Clinical Safety Data Management: Definitions and Standards for Expedited Reporting |", "figure_ref": null, "candidates": [{"md_atom_id": "md_ch10_a028", "md_file": "knowledge_base/chapters/ch10_appendices.md", "md_atom_type": "TABLE_ROW", "md_parent_section": "§10.B [Glossary and Abbreviations]", "md_verbatim": "| ICH E2A | ICH guidelines on Clinical Safety Data Management: Definitions and Standards for Expedited Reporting |", "score": 0.9, "match_basis": "verbatim_token+global_search"}, {"md_atom_id": "md_ch10_a029", "md_file": "knowledge_base/chapters/ch10_appendices.md", "md_atom_type": "TABLE_ROW", "md_parent_section": "§10.B [Glossary and Abbreviations]", "md_verbatim": "| ICH E2B | ICH guidelines on Clinical Safety Data Management: Data Elements for Transmission of Individual Cases Safety Reports |", "score": 0.5429, "match_basis": "verbatim_token+global_search"}, {"md_atom_id": "md_ch10_a030", "md_file": "knowledge_base/chapters/ch10_appendices.md", "md_atom_type": "TABLE_ROW", "md_parent_section": "§10.B [Glossary and Abbreviations]", "md_verbatim": "| ICH E3 | ICH guidelines on Structure and Content of Clinical Study Reports |", "score": 0.4622, "match_basis": "verbatim_token+global_search"}, {"md_atom_id": "md_ch10_a017", "md_file": "knowledge_base/chapters/ch10_appendices.md", "md_atom_type": "TABLE_ROW", "md_parent_section": "§10.B [Glossary and Abbreviations]", "md_verbatim": "| CDISC | Clinical Data Interchange Standards Consortium |", "score": 0.4421, "match_basis": "verbatim_token+global_search"}, {"md_atom_id": "md_ch10_a016", "md_file": "knowledge_base/chapters/ch10_appendices.md", "md_atom_type": "TABLE_ROW", "md_parent_section": "§10.B [Glossary and Abbreviations]", "md_verbatim": "| CDASH | Clinical Data Acquisition Standards Harmonization |", "score": 0.4403, "match_basis": "verbatim_token+global_search"}], "candidate_count": 5, "zero_candidate": false}
{"pdf_atom_id": "ig34_p0446_a021", "pdf_atom_type": "TABLE_ROW", "pdf_source": "SDTMIG_v3.4", "pdf_page": 446, "pdf_parent_section": "Appendix B: Glossary and Abbreviations", "pdf_verbatim": "| ICH E2B | ICH guidelines on Clinical Safety Data Management: Data Elements for Transmission of Individual Cases Safety Reports |", "figure_ref": null, "candidates": [{"md_atom_id": "md_ch10_a029", "md_file": "knowledge_base/chapters/ch10_appendices.md", "md_atom_type": "TABLE_ROW", "md_parent_section": "§10.B [Glossary and Abbreviations]", "md_verbatim": "| ICH E2B | ICH guidelines on Clinical Safety Data Management: Data Elements for Transmission of Individual Cases Safety Reports |", "score": 0.9, "match_basis": "verbatim_token+global_search"}, {"md_atom_id": "md_ch10_a028", "md_file": "knowledge_base/chapters/ch10_appendices.md", "md_atom_type": "TABLE_ROW", "md_parent_section": "§10.B [Glossary and Abbreviations]", "md_verbatim": "| ICH E2A | ICH guidelines on Clinical Safety Data Management: Definitions and Standards for Expedited Reporting |", "score": 0.5429, "match_basis": "verbatim_token+global_search"}, {"md_atom_id": "md_ch10_a030", "md_file": "knowledge_base/chapters/ch10_appendices.md", "md_atom_type": "TABLE_ROW", "md_parent_section": "§10.B [Glossary and Abbreviations]", "md_verbatim": "| ICH E3 | ICH guidelines on Structure and Content of Clinical Study Reports |", "score": 0.4622, "match_basis": "verbatim_token+global_search"}, {"md_atom_id": "md_ch10_a043", "md_file": "knowledge_base/chapters/ch10_appendices.md", "md_atom_type": "TABLE_ROW", "md_parent_section": "§10.B [Glossary and Abbreviations]", "md_verbatim": "| SDTMIG | Study Data Tabulation Model Implementation Guide: Human Clinical Trials |", "score": 0.4256, "match_basis": "verbatim_token+global_search"}, {"md_atom_id": "md_ch10_a031", "md_file": "knowledge_base/chapters/ch10_appendices.md", "md_atom_type": "TABLE_ROW", "md_parent_section": "§10.B [Glossary and Abbreviations]", "md_verbatim": "| ICH E9 | ICH guidelines on Statistical Principles for Clinical Trials |", "score": 0.4154, "match_basis": "verbatim_token+global_search"}], "candidate_count": 5, "zero_candidate": false}
{"pdf_atom_id": "ig34_p0446_a022", "pdf_atom_type": "TABLE_ROW", "pdf_source": "SDTMIG_v3.4", "pdf_page": 446, "pdf_parent_section": "Appendix B: Glossary and Abbreviations", "pdf_verbatim": "| ICH E3 | ICH guidelines on Structure and Content of Clinical Study Reports |", "figure_ref": null, "candidates": [{"md_atom_id": "md_ch10_a030", "md_file": "knowledge_base/chapters/ch10_appendices.md", "md_atom_type": "TABLE_ROW", "md_parent_section": "§10.B [Glossary and Abbreviations]", "md_verbatim": "| ICH E3 | ICH guidelines on Structure and Content of Clinical Study Reports |", "score": 0.9, "match_basis": "verbatim_token+global_search"}, {"md_atom_id": "md_ch10_a028", "md_file": "knowledge_base/chapters/ch10_appendices.md", "md_atom_type": "TABLE_ROW", "md_parent_section": "§10.B [Glossary and Abbreviations]", "md_verbatim": "| ICH E2A | ICH guidelines on Clinical Safety Data Management: Definitions and Standards for Expedited Reporting |", "score": 0.4622, "match_basis": "verbatim_token+global_search"}, {"md_atom_id": "md_ch10_a029", "md_file": "knowledge_base/chapters/ch10_appendices.md", "md_atom_type": "TABLE_ROW", "md_parent_section": "§10.B [Glossary and Abbreviations]", "md_verbatim": "| ICH E2B | ICH guidelines on Clinical Safety Data Management: Data Elements for Transmission of Individual Cases Safety Reports |", "score": 0.4622, "match_basis": "verbatim_token+global_search"}, {"md_atom_id": "md_ch10_a031", "md_file": "knowledge_base/chapters/ch10_appendices.md", "md_atom_type": "TABLE_ROW", "md_parent_section": "§10.B [Glossary and Abbreviations]", "md_verbatim": "| ICH E9 | ICH guidelines on Statistical Principles for Clinical Trials |", "score": 0.4527, "match_basis": "verbatim_token+global_search"}, {"md_atom_id": "md_varindex_a184", "md_file": "knowledge_base/VARIABLE_INDEX.md", "md_atom_type": "TABLE_ROW", "md_parent_section": "§ 二、领域专属变量（仅 1 个域，共 1499 个），按域分组", "md_verbatim": "| CETERM | Reported Term for the Clinical Event | Char | Topic | Req | — |", "score": 0.4294, "match_basis": "verbatim_token+global_search"}], "candidate_count": 5, "zero_candidate": false}
{"pdf_atom_id": "ig34_p0446_a023", "pdf_atom_type": "TABLE_ROW", "pdf_source": "SDTMIG_v3.4", "pdf_page": 446, "pdf_parent_section": "Appendix B: Glossary and Abbreviations", "pdf_verbatim": "| ICH E9 | ICH guidelines on Statistical Principles for Clinical Trials |", "figure_ref": null, "candidates": [{"md_atom_id": "md_ch10_a031", "md_file": "knowledge_base/chapters/ch10_appendices.md", "md_atom_type": "TABLE_ROW", "md_parent_section": "§10.B [Glossary and Abbreviations]", "md_verbatim": "| ICH E9 | ICH guidelines on Statistical Principles for Clinical Trials |", "score": 0.9, "match_basis": "verbatim_token+global_search"}, {"md_atom_id": "md_ch10_a043", "md_file": "knowledge_base/chapters/ch10_appendices.md", "md_atom_type": "TABLE_ROW", "md_parent_section": "§10.B [Glossary and Abbreviations]", "md_verbatim": "| SDTMIG | Study Data Tabulation Model Implementation Guide: Human Clinical Trials |", "score": 0.4645, "match_basis": "verbatim_token+global_search"}, {"md_atom_id": "md_ch10_a030", "md_file": "knowledge_base/chapters/ch10_appendices.md", "md_atom_type": "TABLE_ROW", "md_parent_section": "§10.B [Glossary and Abbreviations]", "md_verbatim": "| ICH E3 | ICH guidelines on Structure and Content of Clinical Study Reports |", "score": 0.4527, "match_basis": "verbatim_token+global_search"}, {"md_atom_id": "md_model05_a066", "md_file": "knowledge_base/model/05_study_level_data.md", "md_atom_type": "TABLE_ROW", "md_parent_section": "§ Trial Reproductive Stages (TT)", "md_verbatim": "| 6 | TTENRL | Rule for End of Repro Stage | Char | Rule | Not in human clinical trials |", "score": 0.4385, "match_basis": "verbatim_token+global_search"}, {"md_atom_id": "md_model05_a065", "md_file": "knowledge_base/model/05_study_level_data.md", "md_atom_type": "TABLE_ROW", "md_parent_section": "§ Trial Reproductive Stages (TT)", "md_verbatim": "| 5 | TTSTRL | Rule for Start of Repro Stage | Char | Rule | Not in human clinical trials |", "score": 0.4358, "match_basis": "verbatim_token+global_search"}], "candidate_count": 5, "zero_candidate": false}
{"pdf_atom_id": "ig34_p0446_a024", "pdf_atom_type": "TABLE_ROW", "pdf_source": "SDTMIG_v3.4", "pdf_page": 446, "pdf_parent_section": "Appendix B: Glossary and Abbreviations", "pdf_verbatim": "| ISO | International Organization for Standardization |", "figure_ref": null, "candidates": [{"md_atom_id": "md_ch10_a032", "md_file": "knowledge_base/chapters/ch10_appendices.md", "md_atom_type": "TABLE_ROW", "md_parent_section": "§10.B [Glossary and Abbreviations]", "md_verbatim": "| ISO | International Organization for Standardization |", "score": 0.9, "match_basis": "verbatim_token+global_search"}, {"md_atom_id": "md_ch10_a051", "md_file": "knowledge_base/chapters/ch10_appendices.md", "md_atom_type": "TABLE_ROW", "md_parent_section": "§10.B [Glossary and Abbreviations]", "md_verbatim": "| WHODRUG | World Health Organization Drug Dictionary |", "score": 0.4467, "match_basis": "verbatim_token+global_search"}, {"md_atom_id": "md_ch10_a019", "md_file": "knowledge_base/chapters/ch10_appendices.md", "md_atom_type": "TABLE_ROW", "md_parent_section": "§10.B [Glossary and Abbreviations]", "md_verbatim": "| CRO | Contract research organization |", "score": 0.4463, "match_basis": "verbatim_token+global_search"}, {"md_atom_id": "md_model01_a064", "md_file": "knowledge_base/model/01_concepts_and_terms.md", "md_atom_type": "TABLE_ROW", "md_parent_section": "§2.2 [Table Structure]", "md_verbatim": "| **Format** | ISO format standard or description (e.g., \"number-number\") |", "score": 0.4429, "match_basis": "verbatim_token+global_search"}, {"md_atom_id": "md_ch10_a016", "md_file": "knowledge_base/chapters/ch10_appendices.md", "md_atom_type": "TABLE_ROW", "md_parent_section": "§10.B [Glossary and Abbreviations]", "md_verbatim": "| CDASH | Clinical Data Acquisition Standards Harmonization |", "score": 0.4385, "match_basis": "verbatim_token+global_search"}], "candidate_count": 5, "zero_candidate": false}
{"pdf_atom_id": "ig34_p0446_a025", "pdf_atom_type": "TABLE_ROW", "pdf_source": "SDTMIG_v3.4", "pdf_page": 446, "pdf_parent_section": "Appendix B: Glossary and Abbreviations", "pdf_verbatim": "| ISO 8601 | ISO character representation of dates, date/times, intervals, and durations of time. The SDTM uses the extended format. |", "figure_ref": null, "candidates": [{"md_atom_id": "md_ch10_a033", "md_file": "knowledge_base/chapters/ch10_appendices.md", "md_atom_type": "TABLE_ROW", "md_parent_section": "§10.B [Glossary and Abbreviations]", "md_verbatim": "| ISO 8601 | ISO character representation of dates, date/times, intervals, and durations of time. The SDTM uses the extended format |", "score": 0.9, "match_basis": "verbatim_token+global_search"}, {"md_atom_id": "md_model02_a241", "md_file": "knowledge_base/model/02_observation_classes.md", "md_atom_type": "TABLE_ROW", "md_parent_section": "§3.1.5 > Assessment Interval and Other Timing Variables", "md_verbatim": "| 45 | --ENINT | Planned End of Assessment Interval | Char | ISO 8601 duration |", "score": 0.4791, "match_basis": "verbatim_token+global_search"}, {"md_atom_id": "md_model02_a228", "md_file": "knowledge_base/model/02_observation_classes.md", "md_atom_type": "TABLE_ROW", "md_parent_section": "§3.1.5 > Relative Timing Variables", "md_verbatim": "| 36 | --EVINTX | Evaluation Interval Text | Char | Text description when interval cannot be represented in ISO 8601 |", "score": 0.4737, "match_basis": "verbatim_token+global_search"}, {"md_atom_id": "md_varindex_a1172", "md_file": "knowledge_base/VARIABLE_INDEX.md", "md_atom_type": "TABLE_ROW", "md_parent_section": "§ 二、领域专属变量（仅 1 个域，共 1499 个），按域分组", "md_verbatim": "| PPENINT | Planned End of Assessment Interval | Char | Timing | Perm | ISO 8601 duration |", "score": 0.4703, "match_basis": "verbatim_token+global_search"}, {"md_atom_id": "md_varindex_a1497", "md_file": "knowledge_base/VARIABLE_INDEX.md", "md_atom_type": "TABLE_ROW", "md_parent_section": "§ 二、领域专属变量（仅 1 个域，共 1499 个），按域分组", "md_verbatim": "| SVENDTC | End Date/Time of Observation | Char | Timing | Exp | ISO 8601 datetime or interval |", "score": 0.4676, "match_basis": "verbatim_token+global_search"}], "candidate_count": 5, "zero_candidate": false}
{"pdf_atom_id": "ig34_p0446_a026", "pdf_atom_type": "TABLE_ROW", "pdf_source": "SDTMIG_v3.4", "pdf_page": 446, "pdf_parent_section": "Appendix B: Glossary and Abbreviations", "pdf_verbatim": "| ISO 3166 | ISO codelist for representing countries; the Alpha-3 codelist uses 3-character codes. |", "figure_ref": null, "candidates": [{"md_atom_id": "md_ch10_a034", "md_file": "knowledge_base/chapters/ch10_appendices.md", "md_atom_type": "TABLE_ROW", "md_parent_section": "§10.B [Glossary and Abbreviations]", "md_verbatim": "| ISO 3166 | ISO codelist for representing countries; the Alpha-3 codelist uses 3-character codes |", "score": 0.9, "match_basis": "verbatim_token+global_search"}, {"md_atom_id": "md_ch10_a033", "md_file": "knowledge_base/chapters/ch10_appendices.md", "md_atom_type": "TABLE_ROW", "md_parent_section": "§10.B [Glossary and Abbreviations]", "md_verbatim": "| ISO 8601 | ISO character representation of dates, date/times, intervals, and durations of time. The SDTM uses the extended format |", "score": 0.45, "match_basis": "verbatim_token+global_search"}, {"md_atom_id": "md_model02_a031", "md_file": "knowledge_base/model/02_observation_classes.md", "md_atom_type": "TABLE_ROW", "md_parent_section": "§3.1.1 > Topic and Qualifier Variables (43 variables)", "md_verbatim": "| 16 | --CLASCD | Class Code | Char | Variable Qualifier (--TRT) | Short sequence of characters to represent --CLAS |", "score": 0.4371, "match_basis": "verbatim_token+global_search"}, {"md_atom_id": "md_model03_a050", "md_file": "knowledge_base/model/03_special_purpose_domains.md", "md_atom_type": "TABLE_ROW", "md_parent_section": "§ Demographics (DM) > Variables (38 variables)", "md_verbatim": "| 36 | COUNTRY | Country | Char | Record Qualifier | ISO 3166-1 Alpha-3. Not in nonclinical trials |", "score": 0.4182, "match_basis": "verbatim_token+global_search"}, {"md_atom_id": "md_model02_a166", "md_file": "knowledge_base/model/02_observation_classes.md", "md_atom_type": "TABLE_ROW", "md_parent_section": "§3.1.4 Identifiers for All Classes", "md_verbatim": "| 2 | DOMAIN | Domain Abbreviation | Char | Identifier | Two-character abbreviation for the domain |", "score": 0.4065, "match_basis": "verbatim_token+global_search"}], "candidate_count": 5, "zero_candidate": false}
{"pdf_atom_id": "ig34_p0446_a027", "pdf_atom_type": "TABLE_ROW", "pdf_source": "SDTMIG_v3.4", "pdf_page": 446, "pdf_parent_section": "Appendix B: Glossary and Abbreviations", "pdf_verbatim": "| LOINC | Logical Observation, Identifiers, Names, and Codes |", "figure_ref": null, "candidates": [{"md_atom_id": "md_ch10_a035", "md_file": "knowledge_base/chapters/ch10_appendices.md", "md_atom_type": "TABLE_ROW", "md_parent_section": "§10.B [Glossary and Abbreviations]", "md_verbatim": "| LOINC | Logical Observation, Identifiers, Names, and Codes |", "score": 0.9, "match_basis": "verbatim_token+global_search"}, {"md_atom_id": "md_index_a010", "md_file": "knowledge_base/INDEX.md", "md_atom_type": "TABLE_ROW", "md_parent_section": "§ Model (SDTM v2.0 Conceptual Model)", "md_verbatim": "| [observation_classes.md](model/02_observation_classes.md) | SDTM v2.0 Ch3.1 | Interventions (43 vars), Events (56 vars), Findings (100+ vars), Identifiers (16 vars), Timing (48 vars) |", "score": 0.481, "match_basis": "verbatim_token+global_search"}, {"md_atom_id": "md_model05_a050", "md_file": "knowledge_base/model/05_study_level_data.md", "md_atom_type": "TABLE_ROW", "md_parent_section": "§ Trial Sets (TX)", "md_verbatim": "| 3 | SETCD | Set Code | Char | Identifier |", "score": 0.4579, "match_basis": "verbatim_token+global_search"}, {"md_atom_id": "md_model06_a025", "md_file": "knowledge_base/model/06_relationship_datasets.md", "md_atom_type": "TABLE_ROW", "md_parent_section": "§6.1 Related Records (RELREC)", "md_verbatim": "| 7 | IDVAR | Identifying Variable | Char | Identifier | Name of the identifying variable in the general-observation-class dataset that identifies the related record(s) |", "score": 0.4562, "match_basis": "verbatim_token+global_search"}, {"md_atom_id": "md_model06_a078", "md_file": "knowledge_base/model/06_relationship_datasets.md", "md_atom_type": "TABLE_ROW", "md_parent_section": "§6.5 Device-subject Relationships (DR)", "md_verbatim": "| 2 | DOMAIN | Domain Abbreviation | Char | Identifier |", "score": 0.4435, "match_basis": "verbatim_token+global_search"}], "candidate_count": 5, "zero_candidate": false}
{"pdf_atom_id": "ig34_p0446_a028", "pdf_atom_type": "TABLE_ROW", "pdf_source": "SDTMIG_v3.4", "pdf_page": 446, "pdf_parent_section": "Appendix B: Glossary and Abbreviations", "pdf_verbatim": "| MedDRA | Medical Dictionary for Regulatory Activities |", "figure_ref": null, "candidates": [{"md_atom_id": "md_ch10_a036", "md_file": "knowledge_base/chapters/ch10_appendices.md", "md_atom_type": "TABLE_ROW", "md_parent_section": "§10.B [Glossary and Abbreviations]", "md_verbatim": "| MedDRA | Medical Dictionary for Regulatory Activities |", "score": 0.9, "match_basis": "verbatim_token+global_search"}, {"md_atom_id": "md_ch10_a075", "md_file": "knowledge_base/chapters/ch10_appendices.md", "md_atom_type": "TABLE_ROW", "md_parent_section": "§10.D [CDISC Variable-naming Fragments]", "md_verbatim": "| ACTION | ACN | | INDICATOR | IND |", "score": 0.4371, "match_basis": "verbatim_token+global_search"}, {"md_atom_id": "md_varindex_a047", "md_file": "knowledge_base/VARIABLE_INDEX.md", "md_atom_type": "TABLE_ROW", "md_parent_section": "§ 二、领域专属变量（仅 1 个域，共 1499 个），按域分组", "md_verbatim": "| AEDECOD | Dictionary-Derived Term | Char | Synonym Qualifier | Req | MedDRA |", "score": 0.4241, "match_basis": "verbatim_token+global_search"}, {"md_atom_id": "md_ch10_a048", "md_file": "knowledge_base/chapters/ch10_appendices.md", "md_atom_type": "TABLE_ROW", "md_parent_section": "§10.B [Glossary and Abbreviations]", "md_verbatim": "| SNOMED | Systematized Nomenclature of Medicine (a dictionary) |", "score": 0.4222, "match_basis": "verbatim_token+global_search"}, {"md_atom_id": "md_model02_a070", "md_file": "knowledge_base/model/02_observation_classes.md", "md_atom_type": "TABLE_ROW", "md_parent_section": "§3.1.2 > Topic and Qualifier Variables (56 variables)", "md_verbatim": "| 5 | --DECOD | Dictionary-Derived Term | Char | Synonym Qualifier (--TERM) | Equivalent to Preferred Term (\"PT\" in MedDRA) |", "score": 0.4029, "match_basis": "verbatim_token+global_search"}], "candidate_count": 5, "zero_candidate": false}
{"pdf_atom_id": "ig34_p0446_a029", "pdf_atom_type": "TABLE_ROW", "pdf_source": "SDTMIG_v3.4", "pdf_page": 446, "pdf_parent_section": "Appendix B: Glossary and Abbreviations", "pdf_verbatim": "| NCI | National Cancer Institute (NIH) |", "figure_ref": null, "candidates": [{"md_atom_id": "md_ch10_a037", "md_file": "knowledge_base/chapters/ch10_appendices.md", "md_atom_type": "TABLE_ROW", "md_parent_section": "§10.B [Glossary and Abbreviations]", "md_verbatim": "| NCI | National Cancer Institute (NIH) |", "score": 0.9, "match_basis": "verbatim_token+global_search"}, {"md_atom_id": "md_dmSC_ex_a008", "md_file": "knowledge_base/domains/SC/examples.md", "md_atom_type": "TABLE_ROW", "md_parent_section": "§SC.1 [Example 1]", "md_verbatim": "| 3 | ABC | SC | ABC-001-002 | 1 | NATORIG | National Origin | CANADA | CAN | 1999-03-19 |", "score": 0.4273, "match_basis": "verbatim_token+global_search"}, {"md_atom_id": "md_dmSC_ex_a010", "md_file": "knowledge_base/domains/SC/examples.md", "md_atom_type": "TABLE_ROW", "md_parent_section": "§SC.1 [Example 1]", "md_verbatim": "| 5 | ABC | SC | ABC-001-003 | 1 | NATORIG | National Origin | USA | USA | 1999-05-03 |", "score": 0.4161, "match_basis": "verbatim_token+global_search"}, {"md_atom_id": "md_dmSC_ex_a012", "md_file": "knowledge_base/domains/SC/examples.md", "md_atom_type": "TABLE_ROW", "md_parent_section": "§SC.1 [Example 1]", "md_verbatim": "| 7 | ABC | SC | ABC-001-201 | 1 | NATORIG | National Origin | JAPAN | JPN | 1999-06-14 |", "score": 0.4059, "match_basis": "verbatim_token+global_search"}, {"md_atom_id": "md_ch10_a082", "md_file": "knowledge_base/chapters/ch10_appendices.md", "md_atom_type": "TABLE_ROW", "md_parent_section": "§10.D [CDISC Variable-naming Fragments]", "md_verbatim": "| CANCER | CAN | | LOWER LIMIT | LO |", "score": 0.396, "match_basis": "verbatim_token+global_search"}], "candidate_count": 5, "zero_candidate": false}
{"pdf_atom_id": "ig34_p0446_a030", "pdf_atom_type": "TABLE_ROW", "pdf_source": "SDTMIG_v3.4", "pdf_page": 446, "pdf_parent_section": "Appendix B: Glossary and Abbreviations", "pdf_verbatim": "| NSV | Non-standard variable |", "figure_ref": null, "candidates": [{"md_atom_id": "md_ch10_a038", "md_file": "knowledge_base/chapters/ch10_appendices.md", "md_atom_type": "TABLE_ROW", "md_parent_section": "§10.B [Glossary and Abbreviations]", "md_verbatim": "| NSV | Non-standard variable |", "score": 0.9, "match_basis": "verbatim_token+global_search"}, {"md_atom_id": "md_ch10_a134", "md_file": "knowledge_base/chapters/ch10_appendices.md", "md_atom_type": "TABLE_ROW", "md_parent_section": "§10.D [CDISC Variable-naming Fragments]", "md_verbatim": "| | | | VARIABLE | VAR |", "score": 0.5571, "match_basis": "verbatim_token+global_search"}, {"md_atom_id": "md_model01_a061", "md_file": "knowledge_base/model/01_concepts_and_terms.md", "md_atom_type": "TABLE_ROW", "md_parent_section": "§2.2 [Table Structure]", "md_verbatim": "| **Variable Name** | The standard name (with `--` prefix for domain-prefixed variables) |", "score": 0.5323, "match_basis": "verbatim_token+global_search"}, {"md_atom_id": "md_model06_a104", "md_file": "knowledge_base/model/06_relationship_datasets.md", "md_atom_type": "TABLE_ROW", "md_parent_section": "§ Summary of Relationship Datasets", "md_verbatim": "| Supplemental Qualifiers | SUPP-- | Non-standard variables | Yes |", "score": 0.5294, "match_basis": "verbatim_token+global_search"}, {"md_atom_id": "md_model02_a139", "md_file": "knowledge_base/model/02_observation_classes.md", "md_atom_type": "TABLE_ROW", "md_parent_section": "§3.1.3 > Topic and Qualifier Variables (100 variables)", "md_verbatim": "| --STRESU | Standard Units | Char | Variable Qualifier (--STRESC/--STRESN) | |", "score": 0.525, "match_basis": "verbatim_token+global_search"}], "candidate_count": 5, "zero_candidate": false}
{"pdf_atom_id": "ig34_p0446_a031", "pdf_atom_type": "TABLE_ROW", "pdf_source": "SDTMIG_v3.4", "pdf_page": 446, "pdf_parent_section": "Appendix B: Glossary and Abbreviations", "pdf_verbatim": "| PRO | Patient-reported outcome |", "figure_ref": null, "candidates": [{"md_atom_id": "md_ch10_a039", "md_file": "knowledge_base/chapters/ch10_appendices.md", "md_atom_type": "TABLE_ROW", "md_parent_section": "§10.B [Glossary and Abbreviations]", "md_verbatim": "| PRO | Patient-reported outcome |", "score": 0.9, "match_basis": "verbatim_token+global_search"}, {"md_atom_id": "md_ch10_a093", "md_file": "knowledge_base/chapters/ch10_appendices.md", "md_atom_type": "TABLE_ROW", "md_parent_section": "§10.D [CDISC Variable-naming Fragments]", "md_verbatim": "| DAY | DY | | OUTCOME | OUT |", "score": 0.4667, "match_basis": "verbatim_token+global_search"}, {"md_atom_id": "md_varindex_a100", "md_file": "knowledge_base/VARIABLE_INDEX.md", "md_atom_type": "TABLE_ROW", "md_parent_section": "§ 二、领域专属变量（仅 1 个域，共 1499 个），按域分组", "md_verbatim": "| AGTRT | Reported Agent Name | Char | Topic | Req | — |", "score": 0.44, "match_basis": "verbatim_token+global_search"}, {"md_atom_id": "md_dmEX_ex_a012", "md_file": "knowledge_base/domains/EX/examples.md", "md_atom_type": "TABLE_ROW", "md_parent_section": "§EX.1 [Example 1]", "md_verbatim": "| A | 0 | Patient mistake | 2011-01-24 | 2011-01-24 |", "score": 0.425, "match_basis": "verbatim_token+global_search"}, {"md_atom_id": "md_varindex_a1180", "md_file": "knowledge_base/VARIABLE_INDEX.md", "md_atom_type": "TABLE_ROW", "md_parent_section": "§ 二、领域专属变量（仅 1 个域，共 1499 个），按域分组", "md_verbatim": "| PRTRT | Reported Name of Procedure | Char | Topic | Req | — |", "score": 0.4235, "match_basis": "verbatim_token+global_search"}], "candidate_count": 5, "zero_candidate": false}
{"pdf_atom_id": "ig34_p0446_a032", "pdf_atom_type": "TABLE_ROW", "pdf_source": "SDTMIG_v3.4", "pdf_page": 446, "pdf_parent_section": "Appendix B: Glossary and Abbreviations", "pdf_verbatim": "| SAP | Statistical analysis plan |", "figure_ref": null, "candidates": [{"md_atom_id": "md_ch10_a040", "md_file": "knowledge_base/chapters/ch10_appendices.md", "md_atom_type": "TABLE_ROW", "md_parent_section": "§10.B [Glossary and Abbreviations]", "md_verbatim": "| SAP | Statistical analysis plan |", "score": 0.9, "match_basis": "verbatim_token+global_search"}, {"md_atom_id": "md_ch10_a031", "md_file": "knowledge_base/chapters/ch10_appendices.md", "md_atom_type": "TABLE_ROW", "md_parent_section": "§10.B [Glossary and Abbreviations]", "md_verbatim": "| ICH E9 | ICH guidelines on Statistical Principles for Clinical Trials |", "score": 0.4256, "match_basis": "verbatim_token+global_search"}, {"md_atom_id": "md_ch04_a852", "md_file": "knowledge_base/chapters/ch04_general_assumptions.md", "md_atom_type": "TABLE_ROW", "md_parent_section": "§4.5.1.3 [Examples of Original and Standard Units and Test Not Done]", "md_verbatim": "| 5 | RBC | URINALYSIS | 2+ | | 2+ | | | | | 1 | 2016-02-01 |", "score": 0.425, "match_basis": "verbatim_token+global_search"}, {"md_atom_id": "md_ch10_a077", "md_file": "knowledge_base/chapters/ch10_appendices.md", "md_atom_type": "TABLE_ROW", "md_parent_section": "§10.D [CDISC Variable-naming Fragments]", "md_verbatim": "| ANALYSIS DATASET | AD | | INTERVAL | INT |", "score": 0.4241, "match_basis": "verbatim_token+global_search"}, {"md_atom_id": "md_ch10_a013", "md_file": "knowledge_base/chapters/ch10_appendices.md", "md_atom_type": "TABLE_ROW", "md_parent_section": "§10.B [Glossary and Abbreviations]", "md_verbatim": "| ADaM | CDISC Analysis Dataset Model |", "score": 0.4161, "match_basis": "verbatim_token+global_search"}], "candidate_count": 5, "zero_candidate": false}
{"pdf_atom_id": "ig34_p0446_a033", "pdf_atom_type": "TABLE_ROW", "pdf_source": "SDTMIG_v3.4", "pdf_page": 446, "pdf_parent_section": "Appendix B: Glossary and Abbreviations", "pdf_verbatim": "| SDS | Submission Data Standards. Also the name of the team that created the SDTM and SDTMIG. |", "figure_ref": null, "candidates": [{"md_atom_id": "md_ch10_a041", "md_file": "knowledge_base/chapters/ch10_appendices.md", "md_atom_type": "TABLE_ROW", "md_parent_section": "§10.B [Glossary and Abbreviations]", "md_verbatim": "| SDS | Submission Data Standards. Also the name of the team that created the SDTM and SDTMIG |", "score": 0.9, "match_basis": "verbatim_token+global_search"}, {"md_atom_id": "md_ch10_a178", "md_file": "knowledge_base/chapters/ch10_appendices.md", "md_atom_type": "TABLE_ROW", "md_parent_section": "§10.E [Revision History]", "md_verbatim": "| **Section 3. Submitting Data in a Standard Format** | | |", "score": 0.4469, "match_basis": "verbatim_token+global_search"}, {"md_atom_id": "md_ch10_a181", "md_file": "knowledge_base/chapters/ch10_appendices.md", "md_atom_type": "TABLE_ROW", "md_parent_section": "§10.E [Revision History]", "md_verbatim": "| 3.2.1.2 | CDISC Submission Value-level Metadata | The phrase \"the SDTMIG V3.x\" removed from the first sentence |", "score": 0.4304, "match_basis": "verbatim_token+global_search"}, {"md_atom_id": "md_index_a019", "md_file": "knowledge_base/INDEX.md", "md_atom_type": "TABLE_ROW", "md_parent_section": "§ Chapters (SDTMIG v3.4 Implementation Guide)", "md_verbatim": "| [ch03_submitting_data.md](chapters/ch03_submitting_data.md) | SDTMIG Ch3 | Standard metadata, dataset metadata, primary keys, value-level metadata |", "score": 0.4286, "match_basis": "verbatim_token+global_search"}, {"md_atom_id": "md_ch01_a014", "md_file": "knowledge_base/chapters/ch01_introduction.md", "md_atom_type": "TABLE_ROW", "md_parent_section": "§1.2 [Organization of this Document]", "md_verbatim": "| 3 | Submitting Data in Standard Format | How to describe metadata for regulatory submissions; conformance assessment |", "score": 0.4215, "match_basis": "verbatim_token+global_search"}], "candidate_count": 5, "zero_candidate": false}
{"pdf_atom_id": "ig34_p0446_a034", "pdf_atom_type": "TABLE_ROW", "pdf_source": "SDTMIG_v3.4", "pdf_page": 446, "pdf_parent_section": "Appendix B: Glossary and Abbreviations", "pdf_verbatim": "| SDTM | Study Data Tabulation Model |", "figure_ref": null, "candidates": [{"md_atom_id": "md_ch10_a042", "md_file": "knowledge_base/chapters/ch10_appendices.md", "md_atom_type": "TABLE_ROW", "md_parent_section": "§10.B [Glossary and Abbreviations]", "md_verbatim": "| SDTM | Study Data Tabulation Model |", "score": 0.9, "match_basis": "verbatim_token+global_search"}, {"md_atom_id": "md_index_a138", "md_file": "knowledge_base/INDEX.md", "md_atom_type": "TABLE_ROW", "md_parent_section": "§ Source Documents", "md_verbatim": "| SDTM (Study Data Tabulation Model) | v2.0 Final (2021-11-29) | 74 |", "score": 0.7696, "match_basis": "verbatim_token+global_search"}, {"md_atom_id": "md_ch10_a045", "md_file": "knowledge_base/chapters/ch10_appendices.md", "md_atom_type": "TABLE_ROW", "md_parent_section": "§10.B [Glossary and Abbreviations]", "md_verbatim": "| SDTMIG-MD | Study Data Tabulation Model Implementation Guide for Medical Devices |", "score": 0.5512, "match_basis": "verbatim_token+global_search"}, {"md_atom_id": "md_ch10_a043", "md_file": "knowledge_base/chapters/ch10_appendices.md", "md_atom_type": "TABLE_ROW", "md_parent_section": "§10.B [Glossary and Abbreviations]", "md_verbatim": "| SDTMIG | Study Data Tabulation Model Implementation Guide: Human Clinical Trials |", "score": 0.54, "match_basis": "verbatim_token+global_search"}, {"md_atom_id": "md_ch10_a044", "md_file": "knowledge_base/chapters/ch10_appendices.md", "md_atom_type": "TABLE_ROW", "md_parent_section": "§10.B [Glossary and Abbreviations]", "md_verbatim": "| SDTMIG-AP | Study Data Tabulation Model Implementation Guide: Associated Persons |", "score": 0.54, "match_basis": "verbatim_token+global_search"}], "candidate_count": 5, "zero_candidate": false}
{"pdf_atom_id": "ig34_p0446_a035", "pdf_atom_type": "TABLE_ROW", "pdf_source": "SDTMIG_v3.4", "pdf_page": 446, "pdf_parent_section": "Appendix B: Glossary and Abbreviations", "pdf_verbatim": "| SDTMIG | Study Data Tabulation Model Implementation Guide: Human Clinical Trials [this document] |", "figure_ref": null, "candidates": [{"md_atom_id": "md_ch10_a043", "md_file": "knowledge_base/chapters/ch10_appendices.md", "md_atom_type": "TABLE_ROW", "md_parent_section": "§10.B [Glossary and Abbreviations]", "md_verbatim": "| SDTMIG | Study Data Tabulation Model Implementation Guide: Human Clinical Trials |", "score": 0.8294, "match_basis": "verbatim_token+global_search"}, {"md_atom_id": "md_ch10_a045", "md_file": "knowledge_base/chapters/ch10_appendices.md", "md_atom_type": "TABLE_ROW", "md_parent_section": "§10.B [Glossary and Abbreviations]", "md_verbatim": "| SDTMIG-MD | Study Data Tabulation Model Implementation Guide for Medical Devices |", "score": 0.64, "match_basis": "verbatim_token+global_search"}, {"md_atom_id": "md_ch10_a044", "md_file": "knowledge_base/chapters/ch10_appendices.md", "md_atom_type": "TABLE_ROW", "md_parent_section": "§10.B [Glossary and Abbreviations]", "md_verbatim": "| SDTMIG-AP | Study Data Tabulation Model Implementation Guide: Associated Persons |", "score": 0.6, "match_basis": "verbatim_token+global_search"}, {"md_atom_id": "md_ch10_a046", "md_file": "knowledge_base/chapters/ch10_appendices.md", "md_atom_type": "TABLE_ROW", "md_parent_section": "§10.B [Glossary and Abbreviations]", "md_verbatim": "| SDTMIG-PGx | Study Data Tabulation Model Implementation Guide: Pharmacogenomics/Genetics |", "score": 0.5743, "match_basis": "verbatim_token+global_search"}, {"md_atom_id": "md_model02_a204", "md_file": "knowledge_base/model/02_observation_classes.md", "md_atom_type": "TABLE_ROW", "md_parent_section": "§3.1.5 > Study Day Variables", "md_verbatim": "| 16 | --NOMDY | Nominal Study Day for Tabulations | Num | Not in human clinical trials |", "score": 0.5286, "match_basis": "verbatim_token+global_search"}], "candidate_count": 5, "zero_candidate": false}
{"pdf_atom_id": "ig34_p0446_a036", "pdf_atom_type": "TABLE_ROW", "pdf_source": "SDTMIG_v3.4", "pdf_page": 446, "pdf_parent_section": "Appendix B: Glossary and Abbreviations", "pdf_verbatim": "| SDTMIG-AP | Study Data Tabulation Model Implementation Guide: Associated Persons |", "figure_ref": null, "candidates": [{"md_atom_id": "md_ch10_a044", "md_file": "knowledge_base/chapters/ch10_appendices.md", "md_atom_type": "TABLE_ROW", "md_parent_section": "§10.B [Glossary and Abbreviations]", "md_verbatim": "| SDTMIG-AP | Study Data Tabulation Model Implementation Guide: Associated Persons |", "score": 0.9, "match_basis": "verbatim_token+global_search"}, {"md_atom_id": "md_ch10_a045", "md_file": "knowledge_base/chapters/ch10_appendices.md", "md_atom_type": "TABLE_ROW", "md_parent_section": "§10.B [Glossary and Abbreviations]", "md_verbatim": "| SDTMIG-MD | Study Data Tabulation Model Implementation Guide for Medical Devices |", "score": 0.6429, "match_basis": "verbatim_token+global_search"}, {"md_atom_id": "md_ch10_a043", "md_file": "knowledge_base/chapters/ch10_appendices.md", "md_atom_type": "TABLE_ROW", "md_parent_section": "§10.B [Glossary and Abbreviations]", "md_verbatim": "| SDTMIG | Study Data Tabulation Model Implementation Guide: Human Clinical Trials |", "score": 0.631, "match_basis": "verbatim_token+global_search"}, {"md_atom_id": "md_ch10_a046", "md_file": "knowledge_base/chapters/ch10_appendices.md", "md_atom_type": "TABLE_ROW", "md_parent_section": "§10.B [Glossary and Abbreviations]", "md_verbatim": "| SDTMIG-PGx | Study Data Tabulation Model Implementation Guide: Pharmacogenomics/Genetics |", "score": 0.6, "match_basis": "verbatim_token+global_search"}, {"md_atom_id": "md_index_a139", "md_file": "knowledge_base/INDEX.md", "md_atom_type": "TABLE_ROW", "md_parent_section": "§ Source Documents", "md_verbatim": "| SDTMIG (Implementation Guide) | v3.4 | 461 |", "score": 0.5478, "match_basis": "verbatim_token+global_search"}], "candidate_count": 5, "zero_candidate": false}
{"pdf_atom_id": "ig34_p0447_a001", "pdf_atom_type": "TABLE_ROW", "pdf_source": "SDTMIG_v3.4", "pdf_page": 447, "pdf_parent_section": "Appendix B: Glossary and Abbreviations", "pdf_verbatim": "| SDTMIG-MD | Study Data Tabulation Model Implementation Guide for Medical Devices |", "figure_ref": null, "candidates": [{"md_atom_id": "md_ch10_a045", "md_file": "knowledge_base/chapters/ch10_appendices.md", "md_atom_type": "TABLE_ROW", "md_parent_section": "§10.B [Glossary and Abbreviations]", "md_verbatim": "| SDTMIG-MD | Study Data Tabulation Model Implementation Guide for Medical Devices |", "score": 0.9, "match_basis": "verbatim_token+global_search"}, {"md_atom_id": "md_ch10_a043", "md_file": "knowledge_base/chapters/ch10_appendices.md", "md_atom_type": "TABLE_ROW", "md_parent_section": "§10.B [Glossary and Abbreviations]", "md_verbatim": "| SDTMIG | Study Data Tabulation Model Implementation Guide: Human Clinical Trials |", "score": 0.6778, "match_basis": "verbatim_token+global_search"}, {"md_atom_id": "md_ch10_a044", "md_file": "knowledge_base/chapters/ch10_appendices.md", "md_atom_type": "TABLE_ROW", "md_parent_section": "§10.B [Glossary and Abbreviations]", "md_verbatim": "| SDTMIG-AP | Study Data Tabulation Model Implementation Guide: Associated Persons |", "score": 0.6429, "match_basis": "verbatim_token+global_search"}, {"md_atom_id": "md_ch10_a046", "md_file": "knowledge_base/chapters/ch10_appendices.md", "md_atom_type": "TABLE_ROW", "md_parent_section": "§10.B [Glossary and Abbreviations]", "md_verbatim": "| SDTMIG-PGx | Study Data Tabulation Model Implementation Guide: Pharmacogenomics/Genetics |", "score": 0.6097, "match_basis": "verbatim_token+global_search"}, {"md_atom_id": "md_index_a139", "md_file": "knowledge_base/INDEX.md", "md_atom_type": "TABLE_ROW", "md_parent_section": "§ Source Documents", "md_verbatim": "| SDTMIG (Implementation Guide) | v3.4 | 461 |", "score": 0.5591, "match_basis": "verbatim_token+global_search"}], "candidate_count": 5, "zero_candidate": false}
{"pdf_atom_id": "ig34_p0447_a002", "pdf_atom_type": "TABLE_ROW", "pdf_source": "SDTMIG_v3.4", "pdf_page": 447, "pdf_parent_section": "Appendix B: Glossary and Abbreviations", "pdf_verbatim": "| SDTMIG-PGx | Study Data Tabulation Model Implementation Guide: Pharmacogenomics/Genetics |", "figure_ref": null, "candidates": [{"md_atom_id": "md_ch10_a046", "md_file": "knowledge_base/chapters/ch10_appendices.md", "md_atom_type": "TABLE_ROW", "md_parent_section": "§10.B [Glossary and Abbreviations]", "md_verbatim": "| SDTMIG-PGx | Study Data Tabulation Model Implementation Guide: Pharmacogenomics/Genetics |", "score": 0.9, "match_basis": "verbatim_token+global_search"}, {"md_atom_id": "md_ch10_a045", "md_file": "knowledge_base/chapters/ch10_appendices.md", "md_atom_type": "TABLE_ROW", "md_parent_section": "§10.B [Glossary and Abbreviations]", "md_verbatim": "| SDTMIG-MD | Study Data Tabulation Model Implementation Guide for Medical Devices |", "score": 0.6097, "match_basis": "verbatim_token+global_search"}, {"md_atom_id": "md_ch10_a043", "md_file": "knowledge_base/chapters/ch10_appendices.md", "md_atom_type": "TABLE_ROW", "md_parent_section": "§10.B [Glossary and Abbreviations]", "md_verbatim": "| SDTMIG | Study Data Tabulation Model Implementation Guide: Human Clinical Trials |", "score": 0.6, "match_basis": "verbatim_token+global_search"}, {"md_atom_id": "md_ch10_a044", "md_file": "knowledge_base/chapters/ch10_appendices.md", "md_atom_type": "TABLE_ROW", "md_parent_section": "§10.B [Glossary and Abbreviations]", "md_verbatim": "| SDTMIG-AP | Study Data Tabulation Model Implementation Guide: Associated Persons |", "score": 0.6, "match_basis": "verbatim_token+global_search"}, {"md_atom_id": "md_index_a139", "md_file": "knowledge_base/INDEX.md", "md_atom_type": "TABLE_ROW", "md_parent_section": "§ Source Documents", "md_verbatim": "| SDTMIG (Implementation Guide) | v3.4 | 461 |", "score": 0.5192, "match_basis": "verbatim_token+global_search"}], "candidate_count": 5, "zero_candidate": false}
{"pdf_atom_id": "ig34_p0447_a003", "pdf_atom_type": "TABLE_ROW", "pdf_source": "SDTMIG_v3.4", "pdf_page": 447, "pdf_parent_section": "Appendix B: Glossary and Abbreviations", "pdf_verbatim": "| SEND | Standard for Exchange of Non-Clinical Data |", "figure_ref": null, "candidates": [{"md_atom_id": "md_ch10_a047", "md_file": "knowledge_base/chapters/ch10_appendices.md", "md_atom_type": "TABLE_ROW", "md_parent_section": "§10.B [Glossary and Abbreviations]", "md_verbatim": "| SEND | Standard for Exchange of Non-Clinical Data |", "score": 0.9, "match_basis": "verbatim_token+global_search"}, {"md_atom_id": "md_ch10_a017", "md_file": "knowledge_base/chapters/ch10_appendices.md", "md_atom_type": "TABLE_ROW", "md_parent_section": "§10.B [Glossary and Abbreviations]", "md_verbatim": "| CDISC | Clinical Data Interchange Standards Consortium |", "score": 0.5634, "match_basis": "verbatim_token+global_search"}, {"md_atom_id": "md_ch10_a016", "md_file": "knowledge_base/chapters/ch10_appendices.md", "md_atom_type": "TABLE_ROW", "md_parent_section": "§10.B [Glossary and Abbreviations]", "md_verbatim": "| CDASH | Clinical Data Acquisition Standards Harmonization |", "score": 0.4826, "match_basis": "verbatim_token+global_search"}, {"md_atom_id": "md_model05_a066", "md_file": "knowledge_base/model/05_study_level_data.md", "md_atom_type": "TABLE_ROW", "md_parent_section": "§ Trial Reproductive Stages (TT)", "md_verbatim": "| 6 | TTENRL | Rule for End of Repro Stage | Char | Rule | Not in human clinical trials |", "score": 0.4364, "match_basis": "verbatim_token+global_search"}, {"md_atom_id": "md_ch10_a038", "md_file": "knowledge_base/chapters/ch10_appendices.md", "md_atom_type": "TABLE_ROW", "md_parent_section": "§10.B [Glossary and Abbreviations]", "md_verbatim": "| NSV | Non-standard variable |", "score": 0.4355, "match_basis": "verbatim_token+global_search"}], "candidate_count": 5, "zero_candidate": false}
{"pdf_atom_id": "ig34_p0447_a004", "pdf_atom_type": "TABLE_ROW", "pdf_source": "SDTMIG_v3.4", "pdf_page": 447, "pdf_parent_section": "Appendix B: Glossary and Abbreviations", "pdf_verbatim": "| SNOMED | Systematized Nomenclature of Medicine (a dictionary) |", "figure_ref": null, "candidates": [{"md_atom_id": "md_ch10_a048", "md_file": "knowledge_base/chapters/ch10_appendices.md", "md_atom_type": "TABLE_ROW", "md_parent_section": "§10.B [Glossary and Abbreviations]", "md_verbatim": "| SNOMED | Systematized Nomenclature of Medicine (a dictionary) |", "score": 0.9, "match_basis": "verbatim_token+global_search"}, {"md_atom_id": "md_ch10_a036", "md_file": "knowledge_base/chapters/ch10_appendices.md", "md_atom_type": "TABLE_ROW", "md_parent_section": "§10.B [Glossary and Abbreviations]", "md_verbatim": "| MedDRA | Medical Dictionary for Regulatory Activities |", "score": 0.4222, "match_basis": "verbatim_token+global_search"}, {"md_atom_id": "md_ch10_a051", "md_file": "knowledge_base/chapters/ch10_appendices.md", "md_atom_type": "TABLE_ROW", "md_parent_section": "§10.B [Glossary and Abbreviations]", "md_verbatim": "| WHODRUG | World Health Organization Drug Dictionary |", "score": 0.4019, "match_basis": "verbatim_token+global_search"}, {"md_atom_id": "md_dmTS_ex_a065", "md_file": "knowledge_base/domains/TS/examples.md", "md_atom_type": "TABLE_ROW", "md_parent_section": "§TS.2 [Example 2]", "md_verbatim": "| 3 | XYZ | TS | 1 | | INDIC | Trial Indication | Cardiac infarction | | 22298006 | SNOMED | 2017-03 |", "score": 0.39, "match_basis": "verbatim_token+global_search"}, {"md_atom_id": "md_model02_a030", "md_file": "knowledge_base/model/02_observation_classes.md", "md_atom_type": "TABLE_ROW", "md_parent_section": "§3.1.1 > Topic and Qualifier Variables (43 variables)", "md_verbatim": "| 15 | --CLAS | Class | Char | Variable Qualifier (--TRT) | Standardized or dictionary-derived name for a grouping of drugs |", "score": 0.3857, "match_basis": "verbatim_token+global_search"}], "candidate_count": 5, "zero_candidate": false}
{"pdf_atom_id": "ig34_p0447_a005", "pdf_atom_type": "TABLE_ROW", "pdf_source": "SDTMIG_v3.4", "pdf_page": 447, "pdf_parent_section": "Appendix B: Glossary and Abbreviations", "pdf_verbatim": "| SOC | System organ class |", "figure_ref": null, "candidates": [{"md_atom_id": "md_ch10_a049", "md_file": "knowledge_base/chapters/ch10_appendices.md", "md_atom_type": "TABLE_ROW", "md_parent_section": "§10.B [Glossary and Abbreviations]", "md_verbatim": "| SOC | System organ class |", "score": 0.9, "match_basis": "verbatim_token+global_search"}, {"md_atom_id": "md_ch10_a121", "md_file": "knowledge_base/chapters/ch10_appendices.md", "md_atom_type": "TABLE_ROW", "md_parent_section": "§10.D [CDISC Variable-naming Fragments]", "md_verbatim": "| | | | SYSTEM | SYS |", "score": 0.5182, "match_basis": "verbatim_token+global_search"}, {"md_atom_id": "md_varindex_a056", "md_file": "knowledge_base/VARIABLE_INDEX.md", "md_atom_type": "TABLE_ROW", "md_parent_section": "§ 二、领域专属变量（仅 1 个域，共 1499 个），按域分组", "md_verbatim": "| AEBODSYS | Body System or Organ Class | Char | Record Qualifier | Exp | — |", "score": 0.4935, "match_basis": "verbatim_token+global_search"}, {"md_atom_id": "md_varindex_a192", "md_file": "knowledge_base/VARIABLE_INDEX.md", "md_atom_type": "TABLE_ROW", "md_parent_section": "§ 二、领域专属变量（仅 1 个域，共 1499 个），按域分组", "md_verbatim": "| CEBODSYS | Body System or Organ Class | Char | Record Qualifier | Perm | — |", "score": 0.4875, "match_basis": "verbatim_token+global_search"}, {"md_atom_id": "md_varindex_a846", "md_file": "knowledge_base/VARIABLE_INDEX.md", "md_atom_type": "TABLE_ROW", "md_parent_section": "§ 二、领域专属变量（仅 1 个域，共 1499 个），按域分组", "md_verbatim": "| MHBODSYS | Body System or Organ Class | Char | Record Qualifier | Perm | — |", "score": 0.4875, "match_basis": "verbatim_token+global_search"}], "candidate_count": 5, "zero_candidate": false}
{"pdf_atom_id": "ig34_p0447_a006", "pdf_atom_type": "TABLE_ROW", "pdf_source": "SDTMIG_v3.4", "pdf_page": 447, "pdf_parent_section": "Appendix B: Glossary and Abbreviations", "pdf_verbatim": "| TDM | Trial Design Model |", "figure_ref": null, "candidates": [{"md_atom_id": "md_ch10_a050", "md_file": "knowledge_base/chapters/ch10_appendices.md", "md_atom_type": "TABLE_ROW", "md_parent_section": "§10.B [Glossary and Abbreviations]", "md_verbatim": "| TDM | Trial Design Model |", "score": 0.9, "match_basis": "verbatim_token+global_search"}, {"md_atom_id": "md_model05_a005", "md_file": "knowledge_base/model/05_study_level_data.md", "md_atom_type": "HEADING", "md_parent_section": "§ 5.1 Trial Design Model", "md_verbatim": "## 5.1 Trial Design Model", "score": 0.5755, "match_basis": "verbatim_token+global_search"}, {"md_atom_id": "md_ch10_a223", "md_file": "knowledge_base/chapters/ch10_appendices.md", "md_atom_type": "TABLE_ROW", "md_parent_section": "§10.E [Revision History]", "md_verbatim": "| **Section 7. Trial Design Model Datasets** | | |", "score": 0.5727, "match_basis": "verbatim_token+global_search"}, {"md_atom_id": "md_ch02_a058", "md_file": "knowledge_base/chapters/ch02_fundamentals.md", "md_atom_type": "TABLE_ROW", "md_parent_section": "§2.4 [Datasets Other than General Observation Class Domains]", "md_verbatim": "| **Trial Design Model (TDM)** | Study design information, not subject data | TA, TE | Section 7 |", "score": 0.5, "match_basis": "verbatim_token+global_search"}, {"md_atom_id": "md_index_a013", "md_file": "knowledge_base/INDEX.md", "md_atom_type": "TABLE_ROW", "md_parent_section": "§ Model (SDTM v2.0 Conceptual Model)", "md_verbatim": "| [study_level_data.md](model/05_study_level_data.md) | SDTM v2.0 Ch5 | Trial Design (TE/TA/TX/TT/TP/TV/TD/TM/TI/TS/AC) + Study References (DI/OI) |", "score": 0.5, "match_basis": "verbatim_token+global_search"}], "candidate_count": 5, "zero_candidate": false}
{"pdf_atom_id": "ig34_p0447_a007", "pdf_atom_type": "TABLE_ROW", "pdf_source": "SDTMIG_v3.4", "pdf_page": 447, "pdf_parent_section": "Appendix B: Glossary and Abbreviations", "pdf_verbatim": "| WHODRUG | World Health Organization Drug Dictionary |", "figure_ref": null, "candidates": [{"md_atom_id": "md_ch10_a051", "md_file": "knowledge_base/chapters/ch10_appendices.md", "md_atom_type": "TABLE_ROW", "md_parent_section": "§10.B [Glossary and Abbreviations]", "md_verbatim": "| WHODRUG | World Health Organization Drug Dictionary |", "score": 0.9, "match_basis": "verbatim_token+global_search"}, {"md_atom_id": "md_ch10_a032", "md_file": "knowledge_base/chapters/ch10_appendices.md", "md_atom_type": "TABLE_ROW", "md_parent_section": "§10.B [Glossary and Abbreviations]", "md_verbatim": "| ISO | International Organization for Standardization |", "score": 0.4467, "match_basis": "verbatim_token+global_search"}, {"md_atom_id": "md_ch10_a019", "md_file": "knowledge_base/chapters/ch10_appendices.md", "md_atom_type": "TABLE_ROW", "md_parent_section": "§10.B [Glossary and Abbreviations]", "md_verbatim": "| CRO | Contract research organization |", "score": 0.4463, "match_basis": "verbatim_token+global_search"}, {"md_atom_id": "md_ch10_a048", "md_file": "knowledge_base/chapters/ch10_appendices.md", "md_atom_type": "TABLE_ROW", "md_parent_section": "§10.B [Glossary and Abbreviations]", "md_verbatim": "| SNOMED | Systematized Nomenclature of Medicine (a dictionary) |", "score": 0.4019, "match_basis": "verbatim_token+global_search"}, {"md_atom_id": "md_index_a017", "md_file": "knowledge_base/INDEX.md", "md_atom_type": "TABLE_ROW", "md_parent_section": "§ Chapters (SDTMIG v3.4 Implementation Guide)", "md_verbatim": "| [ch01_introduction.md](chapters/ch01_introduction.md) | SDTMIG Ch1 | Purpose, organization, changes from v3.3, reading guide |", "score": 0.3985, "match_basis": "verbatim_token+global_search"}], "candidate_count": 5, "zero_candidate": false}
{"pdf_atom_id": "ig34_p0447_a008", "pdf_atom_type": "TABLE_ROW", "pdf_source": "SDTMIG_v3.4", "pdf_page": 447, "pdf_parent_section": "Appendix B: Glossary and Abbreviations", "pdf_verbatim": "| XML | eXtensible Markup Language |", "figure_ref": null, "candidates": [{"md_atom_id": "md_ch10_a052", "md_file": "knowledge_base/chapters/ch10_appendices.md", "md_atom_type": "TABLE_ROW", "md_parent_section": "§10.B [Glossary and Abbreviations]", "md_verbatim": "| XML | eXtensible Markup Language |", "score": 0.9, "match_basis": "verbatim_token+global_search"}, {"md_atom_id": "md_ch08_a194", "md_file": "knowledge_base/chapters/ch08_relationships.md", "md_atom_type": "TABLE_ROW", "md_parent_section": "§8.4.3 [Examples]", "md_verbatim": "| 1 | 1996001 | QS | 99-401 | QSCAT | BPI | QSLANG | Questionnaire Language | FRENCH | CRF | |", "score": 0.3766, "match_basis": "verbatim_token+global_search"}, {"md_atom_id": "md_ch08_a196", "md_file": "knowledge_base/chapters/ch08_relationships.md", "md_atom_type": "TABLE_ROW", "md_parent_section": "§8.4.3 [Examples]", "md_verbatim": "| 3 | 1996001 | QS | 99-802 | QSCAT | BPI | QSLANG | Questionnaire Language | GERMAN | CRF | |", "score": 0.3766, "match_basis": "verbatim_token+global_search"}, {"md_atom_id": "md_dmSUPPQUAL_ex_a013", "md_file": "knowledge_base/domains/SUPPQUAL/examples.md", "md_atom_type": "TABLE_ROW", "md_parent_section": "§SUPPQUAL.2 [Example 2]", "md_verbatim": "| 1 | 1996001 | QS | 99-401 | QSCAT | BPI | QSLANG | Questionnaire Language | FRENCH | CRF | |", "score": 0.3766, "match_basis": "verbatim_token+global_search"}, {"md_atom_id": "md_dmSUPPQUAL_ex_a015", "md_file": "knowledge_base/domains/SUPPQUAL/examples.md", "md_atom_type": "TABLE_ROW", "md_parent_section": "§SUPPQUAL.2 [Example 2]", "md_verbatim": "| 3 | 1996001 | QS | 99-802 | QSCAT | BPI | QSLANG | Questionnaire Language | GERMAN | CRF | |", "score": 0.3766, "match_basis": "verbatim_token+global_search"}], "candidate_count": 5, "zero_candidate": false}
{"pdf_atom_id": "ig34_p0447_a009", "pdf_atom_type": "HEADING", "pdf_source": "SDTMIG_v3.4", "pdf_page": 447, "pdf_parent_section": "Appendix C: Controlled Terminology", "pdf_verbatim": "Appendix C: Controlled Terminology", "figure_ref": null, "candidates": [{"md_atom_id": "md_ch10_a053", "md_file": "knowledge_base/chapters/ch10_appendices.md", "md_atom_type": "HEADING", "md_parent_section": "§10 [Appendices]", "md_verbatim": "## Appendix C: Controlled Terminology", "score": 0.9, "match_basis": "verbatim_token+global_search"}, {"md_atom_id": "md_ch04_a426", "md_file": "knowledge_base/chapters/ch04_general_assumptions.md", "md_atom_type": "HEADING", "md_parent_section": "§4.3 [Coding and Controlled Terminology Assumptions]", "md_verbatim": "### 4.3.2 Controlled Terminology Text Case", "score": 0.6778, "match_basis": "verbatim_token+global_search"}, {"md_atom_id": "md_ch04_a429", "md_file": "knowledge_base/chapters/ch04_general_assumptions.md", "md_atom_type": "HEADING", "md_parent_section": "§4.3 [Coding and Controlled Terminology Assumptions]", "md_verbatim": "### 4.3.3 Controlled Terminology Values", "score": 0.6778, "match_basis": "verbatim_token+global_search"}, {"md_atom_id": "md_varindex_a1662", "md_file": "knowledge_base/VARIABLE_INDEX.md", "md_atom_type": "HEADING", "md_parent_section": "§ SDTM Variable Index", "md_verbatim": "## 三、CDISC Controlled Terminology 交叉引用（共 135 个 CT Code）", "score": 0.6517, "match_basis": "verbatim_token+global_search"}, {"md_atom_id": "md_ch04_a417", "md_file": "knowledge_base/chapters/ch04_general_assumptions.md", "md_atom_type": "HEADING", "md_parent_section": "§4 [General Assumptions]", "md_verbatim": "## 4.3 Coding and Controlled Terminology Assumptions", "score": 0.5757, "match_basis": "verbatim_token+global_search"}], "candidate_count": 5, "zero_candidate": false}
{"pdf_atom_id": "ig34_p0447_a010", "pdf_atom_type": "SENTENCE", "pdf_source": "SDTMIG_v3.4", "pdf_page": 447, "pdf_parent_section": "Appendix C: Controlled Terminology", "pdf_verbatim": "CDISC Terminology is centrally managed by the CDISC Controlled Terminology Team, supporting the terminology needs of all CDISC foundational standards (SDTM, CDASH, ADaM, SEND) and all disease/therapeutic area standards.", "figure_ref": null, "candidates": [{"md_atom_id": "md_ch10_a054", "md_file": "knowledge_base/chapters/ch10_appendices.md", "md_atom_type": "SENTENCE", "md_parent_section": "§10.C [Controlled Terminology]", "md_verbatim": "CDISC Terminology is centrally managed by the CDISC Controlled Terminology Team, supporting the terminology needs of all CDISC foundational standards (SDTM, CDASH, ADaM, SEND) and all disease/therapeutic area standards.", "score": 0.9, "match_basis": "verbatim_token+global_search"}, {"md_atom_id": "md_ch04_a043", "md_file": "knowledge_base/chapters/ch04_general_assumptions.md", "md_atom_type": "SENTENCE", "md_parent_section": "§4.1.6 [Additional Guidance on Dataset Naming]", "md_verbatim": "(See the SDTM Domain Abbreviation codelist, C66734, in CDISC Controlled Terminology at https://www.cancer.gov/research/resources/terminology/cdisc for standard domain codes.)", "score": 0.4547, "match_basis": "verbatim_token+global_search"}, {"md_atom_id": "md_ch01_a029", "md_file": "knowledge_base/chapters/ch01_introduction.md", "md_atom_type": "SENTENCE", "md_parent_section": "§1.3 [Relationship to Prior CDISC Documents]", "md_verbatim": "Because CDISC will produce further documentation for Controlled Terminology as separate publications, sponsors are encouraged to check the CDISC website (https://www.cdisc.org/standards/terminology/controlled-terminology) frequently for additional information.", "score": 0.4425, "match_basis": "verbatim_token+global_search"}, {"md_atom_id": "md_dmTU_assn_a013", "md_file": "knowledge_base/domains/TU/assumptions.md", "md_atom_type": "SENTENCE", "md_parent_section": "§TU [TU — Assumptions]", "md_verbatim": "The associations between the test values and results are in the Oncology codetable, which, along with the CT Rules for Oncology, is available at https://www.cdisc.org/standards/terminology/controlled-terminology.", "score": 0.4381, "match_basis": "verbatim_token+global_search"}, {"md_atom_id": "md_ch04_a420", "md_file": "knowledge_base/chapters/ch04_general_assumptions.md", "md_atom_type": "SENTENCE", "md_parent_section": "§4.3.1 [Controlled Terms, Codelist or Format Column]", "md_verbatim": "As of SDTMIG v3.3, controlled terminology is represented in the following ways:", "score": 0.438, "match_basis": "verbatim_token+global_search"}], "candidate_count": 5, "zero_candidate": false}
{"pdf_atom_id": "ig34_p0447_a011", "pdf_atom_type": "SENTENCE", "pdf_source": "SDTMIG_v3.4", "pdf_page": 447, "pdf_parent_section": "Appendix C: Controlled Terminology", "pdf_verbatim": "New/modified terms have a 3-month development period during which the Controlled Terminology Team evaluates the requests received, incorporating as much as possible for each quarterly release, and a quarterly public-review comment period followed by publication release.", "figure_ref": null, "candidates": [{"md_atom_id": "md_ch10_a056", "md_file": "knowledge_base/chapters/ch10_appendices.md", "md_atom_type": "LIST_ITEM", "md_parent_section": "§10.C [Controlled Terminology]", "md_verbatim": "- New/modified terms have a 3-month development period with quarterly public-review comment period followed by publication release", "score": 0.5005, "match_basis": "verbatim_token+global_search"}, {"md_atom_id": "md_ch04_a164", "md_file": "knowledge_base/chapters/ch04_general_assumptions.md", "md_atom_type": "SENTENCE", "md_parent_section": "§4.1.9 [Assigning Natural Keys in the Metadata]", "md_verbatim": "When CDISC Controlled Terminology for a test is not available, and a sponsor creates --TEST and --TESTCD values, trying to encapsulate all information about a test within a unique value of a --TESTCD is not a recommended approach for the following reasons:", "score": 0.4348, "match_basis": "verbatim_token+global_search"}, {"md_atom_id": "md_dmTS_assn_a035", "md_file": "knowledge_base/domains/TS/assumptions.md", "md_atom_type": "SENTENCE", "md_parent_section": "§TS [TS — Use of Null Flavor]", "md_verbatim": "There is controlled terminology for the null flavor data item which includes such familiar values as \"Unknown\", \"Other\", and \"Not Applicable\" among its 14 terms.", "score": 0.4207, "match_basis": "verbatim_token+global_search"}, {"md_atom_id": "md_dmFA_ex_a144", "md_file": "knowledge_base/domains/FA/examples.md", "md_atom_type": "SENTENCE", "md_parent_section": "§FA.6 [Example 6]", "md_verbatim": "The values in FAOBJ are the values from AEDECOD, which were assigned during coding, rather than directly collected. The values in FASPID are the AE identifiers from AESPID. FAEVINTX indicates that the evaluation was for the period since the last visit.", "score": 0.4194, "match_basis": "verbatim_token+global_search"}, {"md_atom_id": "md_dmRELREC_assn_a016", "md_file": "knowledge_base/domains/RELREC/assumptions.md", "md_atom_type": "SENTENCE", "md_parent_section": "§RELREC [RELREC — Assumptions]", "md_verbatim": "The variable RELTYPE identifies the type of relationship between the datasets. The allowable values are ONE and MANY (controlled terminology is expected). This information defines how a merge/join would be written, and what would be the result of the merge/join. The possible combinations are:", "score": 0.4171, "match_basis": "verbatim_token+global_search"}], "candidate_count": 5, "zero_candidate": false}
{"pdf_atom_id": "ig34_p0447_a012", "pdf_atom_type": "SENTENCE", "pdf_source": "SDTMIG_v3.4", "pdf_page": 447, "pdf_parent_section": "Appendix C: Controlled Terminology", "pdf_verbatim": "Visit the CDISC Controlled Terminology page (https://www.cdisc.org/standards/terminology/controlled-terminology) to find the most recently published terminology packages (final or under review), or the NCI Enterprise Vocabulary Services CDISC Terminology website (https://www.cancer.gov/research/resources/terminology/cdisc) for access to the full list of CDISC terminology.", "figure_ref": null, "candidates": [{"md_atom_id": "md_ch10_a057", "md_file": "knowledge_base/chapters/ch10_appendices.md", "md_atom_type": "LIST_ITEM", "md_parent_section": "§10.C [Controlled Terminology]", "md_verbatim": "- Visit the CDISC Controlled Terminology page (https://www.cdisc.org/standards/terminology/controlled-terminology) for the most recently published terminology packages (final or under review)", "score": 0.5638, "match_basis": "verbatim_token+global_search"}, {"md_atom_id": "md_ch10_a058", "md_file": "knowledge_base/chapters/ch10_appendices.md", "md_atom_type": "LIST_ITEM", "md_parent_section": "§10.C [Controlled Terminology]", "md_verbatim": "- The NCI Enterprise Vocabulary Services CDISC Terminology website (https://www.cancer.gov/research/resources/terminology/cdisc) provides access to the full list of CDISC terminology", "score": 0.5368, "match_basis": "verbatim_token+global_search"}, {"md_atom_id": "md_ch04_a043", "md_file": "knowledge_base/chapters/ch04_general_assumptions.md", "md_atom_type": "SENTENCE", "md_parent_section": "§4.1.6 [Additional Guidance on Dataset Naming]", "md_verbatim": "(See the SDTM Domain Abbreviation codelist, C66734, in CDISC Controlled Terminology at https://www.cancer.gov/research/resources/terminology/cdisc for standard domain codes.)", "score": 0.5255, "match_basis": "verbatim_token+global_search"}, {"md_atom_id": "md_ch01_a029", "md_file": "knowledge_base/chapters/ch01_introduction.md", "md_atom_type": "SENTENCE", "md_parent_section": "§1.3 [Relationship to Prior CDISC Documents]", "md_verbatim": "Because CDISC will produce further documentation for Controlled Terminology as separate publications, sponsors are encouraged to check the CDISC website (https://www.cdisc.org/standards/terminology/controlled-terminology) frequently for additional information.", "score": 0.4574, "match_basis": "verbatim_token+global_search"}, {"md_atom_id": "md_ch10_a054", "md_file": "knowledge_base/chapters/ch10_appendices.md", "md_atom_type": "SENTENCE", "md_parent_section": "§10.C [Controlled Terminology]", "md_verbatim": "CDISC Terminology is centrally managed by the CDISC Controlled Terminology Team, supporting the terminology needs of all CDISC foundational standards (SDTM, CDASH, ADaM, SEND) and all disease/therapeutic area standards.", "score": 0.4265, "match_basis": "verbatim_token+global_search"}], "candidate_count": 5, "zero_candidate": false}
{"pdf_atom_id": "ig34_p0447_a013", "pdf_atom_type": "SENTENCE", "pdf_source": "SDTMIG_v3.4", "pdf_page": 447, "pdf_parent_section": "Appendix C: Controlled Terminology", "pdf_verbatim": "Note that the SDTM terminology was previously provided separately for questionnaires and other domains.", "figure_ref": null, "candidates": [{"md_atom_id": "md_ch10_a059", "md_file": "knowledge_base/chapters/ch10_appendices.md", "md_atom_type": "LIST_ITEM", "md_parent_section": "§10.C [Controlled Terminology]", "md_verbatim": "- SDTM terminology was previously provided separately for questionnaires and other domains; as of the 2015-12-18 release, these were merged into a single publication", "score": 0.5918, "match_basis": "verbatim_token+global_search"}, {"md_atom_id": "md_index_a131", "md_file": "knowledge_base/INDEX.md", "md_atom_type": "SENTENCE", "md_parent_section": "§ Terminology (91 files)", "md_verbatim": "Files: [questionnaires_part1.md](terminology/questionnaires/questionnaires_part1.md) — [questionnaires_part43.md](terminology/questionnaires/questionnaires_part43.md)", "score": 0.497, "match_basis": "verbatim_token+global_search"}, {"md_atom_id": "md_ch04_a240", "md_file": "knowledge_base/chapters/ch04_general_assumptions.md", "md_atom_type": "SENTENCE", "md_parent_section": "§4.2.6 [Grouping Variables and Categorization]", "md_verbatim": "--LNKID and --LNKGRP express values that are used to link records in separate domains.", "score": 0.4244, "match_basis": "verbatim_token+global_search"}, {"md_atom_id": "md_ch04_a043", "md_file": "knowledge_base/chapters/ch04_general_assumptions.md", "md_atom_type": "SENTENCE", "md_parent_section": "§4.1.6 [Additional Guidance on Dataset Naming]", "md_verbatim": "(See the SDTM Domain Abbreviation codelist, C66734, in CDISC Controlled Terminology at https://www.cancer.gov/research/resources/terminology/cdisc for standard domain codes.)", "score": 0.4211, "match_basis": "verbatim_token+global_search"}, {"md_atom_id": "md_ch10_a166", "md_file": "knowledge_base/chapters/ch10_appendices.md", "md_atom_type": "SENTENCE", "md_parent_section": "§10.E [Revision History]", "md_verbatim": "For data prepared using a version of the SDTMIG that includes both the MO domain and body system-based physiology/morphology domains, morphology findings may be represented in either the MO domain or in a body-system based physiology/morphology domain.", "score": 0.4168, "match_basis": "verbatim_token+global_search"}], "candidate_count": 5, "zero_candidate": false}
{"pdf_atom_id": "ig34_p0447_a014", "pdf_atom_type": "SENTENCE", "pdf_source": "SDTMIG_v3.4", "pdf_page": 447, "pdf_parent_section": "Appendix C: Controlled Terminology", "pdf_verbatim": "However, as of the 2015-12-18 release of CDISC Controlled Terminology, these were merged into a single publication.", "figure_ref": null, "candidates": [{"md_atom_id": "md_dmDM_ex_a154", "md_file": "knowledge_base/domains/DM/examples.md", "md_atom_type": "SENTENCE", "md_parent_section": "§DM.6 [Example 6]", "md_verbatim": "The value of RACE is used to represent the high-level racial designation as a single collected value per CDISC Controlled Terminology in dm.xpt. In this example, subjects chose to select 1 high-level racial designation.", "score": 0.4771, "match_basis": "verbatim_token+global_search"}, {"md_atom_id": "md_ch04_a995", "md_file": "knowledge_base/chapters/ch04_general_assumptions.md", "md_atom_type": "SENTENCE", "md_parent_section": "§4.5.7 [Presence or Absence of Prespecified Interventions and Events]", "md_verbatim": "It has controlled terminology of \"Y\" and \"N\" (for \"Yes\" and \"No\").", "score": 0.47, "match_basis": "verbatim_token+global_search"}, {"md_atom_id": "md_dmAE_ex_a088", "md_file": "knowledge_base/domains/AE/examples.md", "md_atom_type": "SENTENCE", "md_parent_section": "§AE.6 [Example 6]", "md_verbatim": "The sponsor has chosen to use the ISO 14155 controlled terminology for Relationship of AE to Device.", "score": 0.463, "match_basis": "verbatim_token+global_search"}, {"md_atom_id": "md_ch04_a999", "md_file": "knowledge_base/chapters/ch04_general_assumptions.md", "md_atom_type": "SENTENCE", "md_parent_section": "§4.5.7 [Presence or Absence of Prespecified Interventions and Events]", "md_verbatim": "As in Findings, --STAT has controlled terminology of NOT DONE.", "score": 0.4612, "match_basis": "verbatim_token+global_search"}, {"md_atom_id": "md_dmMB_ex_a039", "md_file": "knowledge_base/domains/MB/examples.md", "md_atom_type": "SENTENCE", "md_parent_section": "§MB.2 [Example 2]", "md_verbatim": "**Rows 4-6:** Show that all 3 sputum samples were collected via expectoration, as indicated by QVAL where QNAM=\"Specimen Collection Method\". QVAL is populated using the CDISC Controlled Terminology codelist, \"Specimen Collection Method\".", "score": 0.4603, "match_basis": "verbatim_token+global_search"}], "candidate_count": 5, "zero_candidate": false}
{"pdf_atom_id": "ig34_p0447_a015", "pdf_atom_type": "SENTENCE", "pdf_source": "SDTMIG_v3.4", "pdf_page": 447, "pdf_parent_section": "Appendix C: Controlled Terminology", "pdf_verbatim": "Earlier versions of the SDTMIG included several appendices regarding controlled terminology.", "figure_ref": null, "candidates": [{"md_atom_id": "md_ch10_a060", "md_file": "knowledge_base/chapters/ch10_appendices.md", "md_atom_type": "LIST_ITEM", "md_parent_section": "§10.C [Controlled Terminology]", "md_verbatim": "- Earlier versions of the SDTMIG included several appendices regarding controlled terminology. Starting with SDTMIG 3.2, Appendix C was simplified. Appendix C1 will be considered for expansion in the next version, to contain a complete list of supplemental qualifiers used in the SDTMIG", "score": 0.518, "match_basis": "verbatim_token+global_search"}, {"md_atom_id": "md_dmTS_assn_a036", "md_file": "knowledge_base/domains/TS/assumptions.md", "md_atom_type": "SENTENCE", "md_parent_section": "§TS [TS — Use of Null Flavor]", "md_verbatim": "The controlled terminology for null flavor, which supersedes Appendix C1, Supplemental Qualifiers Name Codes, is included below.", "score": 0.4898, "match_basis": "verbatim_token+global_search"}, {"md_atom_id": "md_ch04_a420", "md_file": "knowledge_base/chapters/ch04_general_assumptions.md", "md_atom_type": "SENTENCE", "md_parent_section": "§4.3.1 [Controlled Terms, Codelist or Format Column]", "md_verbatim": "As of SDTMIG v3.3, controlled terminology is represented in the following ways:", "score": 0.4865, "match_basis": "verbatim_token+global_search"}, {"md_atom_id": "md_ch04_a430", "md_file": "knowledge_base/chapters/ch04_general_assumptions.md", "md_atom_type": "SENTENCE", "md_parent_section": "§4.3.3 [Controlled Terminology Values]", "md_verbatim": "The controlled terminology or a reference to it should be included in the Define-XML document wherever applicable.", "score": 0.48, "match_basis": "verbatim_token+global_search"}, {"md_atom_id": "md_ch04_a999", "md_file": "knowledge_base/chapters/ch04_general_assumptions.md", "md_atom_type": "SENTENCE", "md_parent_section": "§4.5.7 [Presence or Absence of Prespecified Interventions and Events]", "md_verbatim": "As in Findings, --STAT has controlled terminology of NOT DONE.", "score": 0.4791, "match_basis": "verbatim_token+global_search"}], "candidate_count": 5, "zero_candidate": false}
{"pdf_atom_id": "ig34_p0447_a016", "pdf_atom_type": "SENTENCE", "pdf_source": "SDTMIG_v3.4", "pdf_page": 447, "pdf_parent_section": "Appendix C: Controlled Terminology", "pdf_verbatim": "Starting with SDTMIG 3.2, Appendix C was simplified.", "figure_ref": null, "candidates": [{"md_atom_id": "md_ch10_a002", "md_file": "knowledge_base/chapters/ch10_appendices.md", "md_atom_type": "SENTENCE", "md_parent_section": "§10 [Appendices]", "md_verbatim": "Source: SDTMIG v3.4, Appendices A-F (Pages 444-461)", "score": 0.4385, "match_basis": "verbatim_token+global_search"}, {"md_atom_id": "md_ch10_a137", "md_file": "knowledge_base/chapters/ch10_appendices.md", "md_atom_type": "SENTENCE", "md_parent_section": "§10.E [Revision History]", "md_verbatim": "This appendix provides an overview only of revisions since the last production version, SDTMIG v3.3; not all revisions are included.", "score": 0.3833, "match_basis": "verbatim_token+global_search"}, {"md_atom_id": "md_model04_a006", "md_file": "knowledge_base/model/04_associated_persons.md", "md_atom_type": "SENTENCE", "md_parent_section": "§4 [SDTM v2.0 — Chapter 4: Associated Persons Data]", "md_verbatim": "AP domains are created using SDTM variables, with the application of specific AP rules:", "score": 0.3774, "match_basis": "verbatim_token+global_search"}, {"md_atom_id": "md_ch03_a110", "md_file": "knowledge_base/chapters/ch03_submitting_data.md", "md_atom_type": "SENTENCE", "md_parent_section": "§3.2.2 [Conformance]", "md_verbatim": "Conformance with the SDTMIG domain models is minimally indicated by:", "score": 0.3724, "match_basis": "verbatim_token+global_search"}, {"md_atom_id": "md_ch02_a021", "md_file": "knowledge_base/chapters/ch02_fundamentals.md", "md_atom_type": "SENTENCE", "md_parent_section": "§2.1 [Observations and Variables]", "md_verbatim": "**Example:** In the observation \"Subject 101 had mild nausea starting on study day 6\":", "score": 0.3724, "match_basis": "verbatim_token+global_search"}], "candidate_count": 5, "zero_candidate": false}
{"pdf_atom_id": "ig34_p0447_a017", "pdf_atom_type": "SENTENCE", "pdf_source": "SDTMIG_v3.4", "pdf_page": 447, "pdf_parent_section": "Appendix C: Controlled Terminology", "pdf_verbatim": "Appendix C1 will be considered for expansion in the next version, to contain a complete list of supplemental qualifiers used in the SDTMIG.", "figure_ref": null, "candidates": [{"md_atom_id": "md_ch10_a060", "md_file": "knowledge_base/chapters/ch10_appendices.md", "md_atom_type": "LIST_ITEM", "md_parent_section": "§10.C [Controlled Terminology]", "md_verbatim": "- Earlier versions of the SDTMIG included several appendices regarding controlled terminology. Starting with SDTMIG 3.2, Appendix C was simplified. Appendix C1 will be considered for expansion in the next version, to contain a complete list of supplemental qualifiers used in the SDTMIG", "score": 0.5392, "match_basis": "verbatim_token+global_search"}, {"md_atom_id": "md_dmRE_ex_a034", "md_file": "knowledge_base/domains/RE/examples.md", "md_atom_type": "SENTENCE", "md_parent_section": "§RE.2 [Example 2]", "md_verbatim": "Supplemental qualifiers were used to indicate which was the best result and to provide information on the attempt that was considered to produce inadequate results.", "score": 0.4778, "match_basis": "verbatim_token+global_search"}, {"md_atom_id": "md_dmCE_ex_a082", "md_file": "knowledge_base/domains/CE/examples.md", "md_atom_type": "SENTENCE", "md_parent_section": "§CE.3 [Example 3]", "md_verbatim": "The cause of the fracture and whether there were complications were represented as supplemental qualifiers.", "score": 0.4733, "match_basis": "verbatim_token+global_search"}, {"md_atom_id": "md_dmCE_ex_a097", "md_file": "knowledge_base/domains/CE/examples.md", "md_atom_type": "SENTENCE", "md_parent_section": "§CE.3 [Example 3]", "md_verbatim": "The causes of the fractures and whether there were complications were represented as supplemental qualifiers.", "score": 0.4714, "match_basis": "verbatim_token+global_search"}, {"md_atom_id": "md_ch04_a103", "md_file": "knowledge_base/chapters/ch04_general_assumptions.md", "md_atom_type": "SENTENCE", "md_parent_section": "§4.1.7.1 [Example of Splitting Questionnaires]", "md_verbatim": "**Supplemental Qualifiers for QSCG — suppqscg.xpt**", "score": 0.4701, "match_basis": "verbatim_token+global_search"}], "candidate_count": 5, "zero_candidate": false}
{"pdf_atom_id": "ig34_p0448_a001", "pdf_atom_type": "HEADING", "pdf_source": "SDTMIG_v3.4", "pdf_page": 448, "pdf_parent_section": "Appendix C1: Supplemental Qualifiers Name Codes", "pdf_verbatim": "Appendix C1: Supplemental Qualifiers Name Codes", "figure_ref": null, "candidates": [{"md_atom_id": "md_ch10_a061", "md_file": "knowledge_base/chapters/ch10_appendices.md", "md_atom_type": "HEADING", "md_parent_section": "§10.C [Controlled Terminology]", "md_verbatim": "### Appendix C1: Supplemental Qualifiers Name Codes", "score": 0.9, "match_basis": "verbatim_token+global_search"}, {"md_atom_id": "md_model06_a035", "md_file": "knowledge_base/model/06_relationship_datasets.md", "md_atom_type": "HEADING", "md_parent_section": "§6.2 Supplemental Qualifiers (SUPP--)", "md_verbatim": "## 6.2 Supplemental Qualifiers (SUPP--)", "score": 0.6724, "match_basis": "verbatim_token+global_search"}, {"md_atom_id": "md_ch08_a155", "md_file": "knowledge_base/chapters/ch08_relationships.md", "md_atom_type": "HEADING", "md_parent_section": "§8.4 [Relating Non-standard Variable Values to a Parent Domain]", "md_verbatim": "### 8.4.1 Supplemental Qualifiers (SUPP--)", "score": 0.6724, "match_basis": "verbatim_token+global_search"}, {"md_atom_id": "md_ch08_a199", "md_file": "knowledge_base/chapters/ch08_relationships.md", "md_atom_type": "HEADING", "md_parent_section": "§8.4 [Relating Non-standard Variable Values to a Parent Domain]", "md_verbatim": "### 8.4.4 When Not to Use Supplemental Qualifiers", "score": 0.6273, "match_basis": "verbatim_token+global_search"}, {"md_atom_id": "md_dmSUPPQUAL_assn_a010", "md_file": "knowledge_base/domains/SUPPQUAL/assumptions.md", "md_atom_type": "HEADING", "md_parent_section": "§SUPPQUAL [SUPPQUAL — Assumptions]", "md_verbatim": "## When Not to Use Supplemental Qualifiers", "score": 0.6273, "match_basis": "verbatim_token+global_search"}], "candidate_count": 5, "zero_candidate": false}
{"pdf_atom_id": "ig34_p0448_a002", "pdf_atom_type": "SENTENCE", "pdf_source": "SDTMIG_v3.4", "pdf_page": 448, "pdf_parent_section": "Appendix C1: Supplemental Qualifiers Name Codes", "pdf_verbatim": "The following table contains an initial set of standard name codes for use in the supplemental qualifiers (SUPP--) special-purpose datasets.", "figure_ref": null, "candidates": [{"md_atom_id": "md_ch10_a062", "md_file": "knowledge_base/chapters/ch10_appendices.md", "md_atom_type": "SENTENCE", "md_parent_section": "§10.C [Controlled Terminology]", "md_verbatim": "An initial set of standard name codes for use in supplemental qualifiers (SUPP--) datasets:", "score": 0.6761, "match_basis": "verbatim_token+global_search"}, {"md_atom_id": "md_ch04_a907", "md_file": "knowledge_base/chapters/ch04_general_assumptions.md", "md_atom_type": "SENTENCE", "md_parent_section": "§4.5.3.2 [Text Strings Greater than 200 Characters in Other Variables]", "md_verbatim": "For general observation-class variables and supplemental qualifiers (i.e., non-standard variables, NSVs), the conventions are as follows:", "score": 0.5, "match_basis": "verbatim_token+global_search"}, {"md_atom_id": "md_model06_a037", "md_file": "knowledge_base/model/06_relationship_datasets.md", "md_atom_type": "SENTENCE", "md_parent_section": "§6.2 Supplemental Qualifiers (SUPP--)", "md_verbatim": "The Supplemental Qualifiers datasets provide a mechanism for including non-standard variables that cannot be accommodated in the standard domain datasets.", "score": 0.4982, "match_basis": "verbatim_token+global_search"}, {"md_atom_id": "md_ch04_a955", "md_file": "knowledge_base/chapters/ch04_general_assumptions.md", "md_atom_type": "SENTENCE", "md_parent_section": "§4.5.4 [Evaluators in the Interventions and Events Observation Classes]", "md_verbatim": "For observations that have primary and secondary evaluations of specific qualifier variables, sponsors should put data from the primary evaluation into the standard domain dataset and data from the secondary evaluation into the Supplemental Qualifier datasets (SUPP--).", "score": 0.4932, "match_basis": "verbatim_token+global_search"}, {"md_atom_id": "md_ch08_a200", "md_file": "knowledge_base/chapters/ch08_relationships.md", "md_atom_type": "SENTENCE", "md_parent_section": "§8.4.4 [When Not to Use Supplemental Qualifiers]", "md_verbatim": "The following are examples of data that should **not** be submitted as supplemental qualifiers:", "score": 0.4931, "match_basis": "verbatim_token+global_search"}], "candidate_count": 5, "zero_candidate": false}
{"pdf_atom_id": "ig34_p0448_a003", "pdf_atom_type": "TABLE_HEADER", "pdf_source": "SDTMIG_v3.4", "pdf_page": 448, "pdf_parent_section": "Appendix C1: Supplemental Qualifiers Name Codes", "pdf_verbatim": "| QNAM | QLABEL | Applicable Domains |", "figure_ref": null, "candidates": [{"md_atom_id": "md_ch10_a063", "md_file": "knowledge_base/chapters/ch10_appendices.md", "md_atom_type": "TABLE_HEADER", "md_parent_section": "§10.C [Controlled Terminology]", "md_verbatim": "| QNAM | QLABEL | Applicable Domains |\n|------|--------|--------------------|", "score": 0.9, "match_basis": "verbatim_token+global_search"}, {"md_atom_id": "md_ch04_a372", "md_file": "knowledge_base/chapters/ch04_general_assumptions.md", "md_atom_type": "TABLE_HEADER", "md_parent_section": "§4.2.8.3 [Multiple Values for a Non-result Qualifier Variable]", "md_verbatim": "| QNAM | QLABEL | QVAL |\n|------|--------|------|", "score": 0.4714, "match_basis": "verbatim_token+global_search"}, {"md_atom_id": "md_ch04_a382", "md_file": "knowledge_base/chapters/ch04_general_assumptions.md", "md_atom_type": "TABLE_HEADER", "md_parent_section": "§4.2.8.3 [Multiple Values for a Non-result Qualifier Variable]", "md_verbatim": "| QNAM | QLABEL | QVAL |\n|------|--------|------|", "score": 0.4714, "match_basis": "verbatim_token+global_search"}, {"md_atom_id": "md_ch04_a395", "md_file": "knowledge_base/chapters/ch04_general_assumptions.md", "md_atom_type": "TABLE_HEADER", "md_parent_section": "§4.2.8.3 [Multiple Values for a Non-result Qualifier Variable]", "md_verbatim": "| QNAM | QLABEL | QVAL |\n|------|--------|------|", "score": 0.4714, "match_basis": "verbatim_token+global_search"}, {"md_atom_id": "md_dmNV_ex_a018", "md_file": "knowledge_base/domains/NV/examples.md", "md_atom_type": "TABLE_HEADER", "md_parent_section": "§NV.1 [Example 1]", "md_verbatim": "| Row | STUDYID | RDOMAIN | USUBJID | IDVAR | IDVARVAL | QNAM | QLABEL | QVAL |\n|-----|---------|---------|---------|-------|----------|------|--------|------|", "score": 0.4579, "match_basis": "verbatim_token+global_search"}], "candidate_count": 5, "zero_candidate": false}
{"pdf_atom_id": "ig34_p0448_a004", "pdf_atom_type": "TABLE_ROW", "pdf_source": "SDTMIG_v3.4", "pdf_page": 448, "pdf_parent_section": "Appendix C1: Supplemental Qualifiers Name Codes", "pdf_verbatim": "| AESOSP | Other Medically Important SAE | AE |", "figure_ref": null, "candidates": [{"md_atom_id": "md_ch10_a064", "md_file": "knowledge_base/chapters/ch10_appendices.md", "md_atom_type": "TABLE_ROW", "md_parent_section": "§10.C [Controlled Terminology]", "md_verbatim": "| AESOSP | Other Medically Important SAE | AE |", "score": 0.9, "match_basis": "verbatim_token+global_search"}, {"md_atom_id": "md_ch08_a189", "md_file": "knowledge_base/chapters/ch08_relationships.md", "md_atom_type": "TABLE_ROW", "md_parent_section": "§8.4.3 [Examples]", "md_verbatim": "| 1 | 1996001 | AE | 99-401 | AESEQ | 1 | AESOSP | Other Medically Important SAE | Spontaneous Abortion | CRF | |", "score": 0.6, "match_basis": "verbatim_token+global_search"}, {"md_atom_id": "md_ch10_a119", "md_file": "knowledge_base/chapters/ch10_appendices.md", "md_atom_type": "TABLE_ROW", "md_parent_section": "§10.D [CDISC Variable-naming Fragments]", "md_verbatim": "| MEDICALLY-IMPORTANT EVENT | MIE | | SUPPLEMENTAL | SUPP |", "score": 0.54, "match_basis": "verbatim_token+global_search"}, {"md_atom_id": "md_varindex_a078", "md_file": "knowledge_base/VARIABLE_INDEX.md", "md_atom_type": "TABLE_ROW", "md_parent_section": "§ 二、领域专属变量（仅 1 个域，共 1499 个），按域分组", "md_verbatim": "| AESMIE | Other Medically Important Serious Event | Char | Record Qualifier | Perm | C66742 |", "score": 0.5077, "match_basis": "verbatim_token+global_search"}, {"md_atom_id": "md_dmSUPPQUAL_ex_a007", "md_file": "knowledge_base/domains/SUPPQUAL/examples.md", "md_atom_type": "TABLE_ROW", "md_parent_section": "§SUPPQUAL.1 [Example 1]", "md_verbatim": "| 1 | 1996001 | AE | 99-401 | AESEQ | 1 | AEOSP | Clinically Medically Important SAE | Spontaneous Abortion | CRF | |", "score": 0.504, "match_basis": "verbatim_token+global_search"}], "candidate_count": 5, "zero_candidate": false}
{"pdf_atom_id": "ig34_p0448_a005", "pdf_atom_type": "TABLE_ROW", "pdf_source": "SDTMIG_v3.4", "pdf_page": 448, "pdf_parent_section": "Appendix C1: Supplemental Qualifiers Name Codes", "pdf_verbatim": "| AETRTEM | Treatment Emergent Flag | AE |", "figure_ref": null, "candidates": [{"md_atom_id": "md_ch10_a065", "md_file": "knowledge_base/chapters/ch10_appendices.md", "md_atom_type": "TABLE_ROW", "md_parent_section": "§10.C [Controlled Terminology]", "md_verbatim": "| AETRTEM | Treatment Emergent Flag | AE |", "score": 0.9, "match_basis": "verbatim_token+global_search"}, {"md_atom_id": "md_ch08_a190", "md_file": "knowledge_base/chapters/ch08_relationships.md", "md_atom_type": "TABLE_ROW", "md_parent_section": "§8.4.3 [Examples]", "md_verbatim": "| 2 | 1996001 | AE | 99-401 | AESEQ | 1 | AETRTEM | Treatment Emergent Flag | N | Derived | SPONSOR |", "score": 0.6, "match_basis": "verbatim_token+global_search"}, {"md_atom_id": "md_dmSUPPQUAL_ex_a008", "md_file": "knowledge_base/domains/SUPPQUAL/examples.md", "md_atom_type": "TABLE_ROW", "md_parent_section": "§SUPPQUAL.1 [Example 1]", "md_verbatim": "| 2 | 1996001 | AE | 99-401 | AESEQ | 1 | AETRTEMA | Treatment Emergent Flag | N | Derived | SPONSOR |", "score": 0.5923, "match_basis": "verbatim_token+global_search"}, {"md_atom_id": "md_ch10_a128", "md_file": "knowledge_base/chapters/ch10_appendices.md", "md_atom_type": "TABLE_ROW", "md_parent_section": "§10.D [CDISC Variable-naming Fragments]", "md_verbatim": "| | | | TREATMENT | TRT |", "score": 0.5526, "match_basis": "verbatim_token+global_search"}, {"md_atom_id": "md_dmTA_ex_a136", "md_file": "knowledge_base/domains/TA/examples.md", "md_atom_type": "TABLE_ROW", "md_parent_section": "§TA.4 [Example 4]", "md_verbatim": "| 2 | EX4 | TA | A | A | 2 | A | Trt A | | | TREATMENT |", "score": 0.54, "match_basis": "verbatim_token+global_search"}], "candidate_count": 5, "zero_candidate": false}
{"pdf_atom_id": "ig34_p0448_a006", "pdf_atom_type": "TABLE_ROW", "pdf_source": "SDTMIG_v3.4", "pdf_page": 448, "pdf_parent_section": "Appendix C1: Supplemental Qualifiers Name Codes", "pdf_verbatim": "| --REAS | Reason | Intervention domains where the reason for an intervention is other than a medical indication. It may be used in select Event domains (e.g., Healthcare Encounters) where the topic is not a medical condition. |", "figure_ref": null, "candidates": [{"md_atom_id": "md_ch10_a066", "md_file": "knowledge_base/chapters/ch10_appendices.md", "md_atom_type": "TABLE_ROW", "md_parent_section": "§10.C [Controlled Terminology]", "md_verbatim": "| --REAS | Reason | Intervention domains where the reason is other than a medical indication. May be used in select Event domains (e.g., Healthcare Encounters) where the topic is not a medical condition |", "score": 0.8909, "match_basis": "verbatim_token+global_search"}, {"md_atom_id": "md_index_a051", "md_file": "knowledge_base/INDEX.md", "md_atom_type": "TABLE_ROW", "md_parent_section": "§ Domains (63 domains)", "md_verbatim": "| [HO](domains/HO/) | Healthcare Encounters | [spec](domains/HO/spec.md) · [assumptions](domains/HO/assumptions.md) · [examples](domains/HO/examples.md) |", "score": 0.4704, "match_basis": "verbatim_token+global_search"}, {"md_atom_id": "md_varindex_a660", "md_file": "knowledge_base/VARIABLE_INDEX.md", "md_atom_type": "TABLE_ROW", "md_parent_section": "§ 二、领域专属变量（仅 1 个域，共 1499 个），按域分组", "md_verbatim": "| HOTERM | Healthcare Encounter Term | Char | Topic | Req | — |", "score": 0.45, "match_basis": "verbatim_token+global_search"}, {"md_atom_id": "md_ch10_a195", "md_file": "knowledge_base/chapters/ch10_appendices.md", "md_atom_type": "TABLE_ROW", "md_parent_section": "§10.E [Revision History]", "md_verbatim": "| 6.1 | Models for Interventions Domains | Roles of --DOSFRQ and --DOSRGM changed where used in the Interventions Domains to Record Qualifier for consistency with the change for the role of --DOSFRQ and --DOSRGM in the SDTM |", "score": 0.4402, "match_basis": "verbatim_token+global_search"}, {"md_atom_id": "md_ch03_a042", "md_file": "knowledge_base/chapters/ch03_submitting_data.md", "md_atom_type": "TABLE_ROW", "md_parent_section": "§3.2.1 [Dataset-level Metadata]", "md_verbatim": "| HO | Healthcare Encounters | Events | One record per healthcare encounter per subject | Tabulation | STUDYID, USUBJID, HOTERM, HOSTDTC | ho.xpt |", "score": 0.4394, "match_basis": "verbatim_token+global_search"}], "candidate_count": 5, "zero_candidate": false}
{"pdf_atom_id": "ig34_p0448_a007", "pdf_atom_type": "HEADING", "pdf_source": "SDTMIG_v3.4", "pdf_page": 448, "pdf_parent_section": "Appendix D: CDISC Variable-naming Fragments", "pdf_verbatim": "Appendix D: CDISC Variable-naming Fragments", "figure_ref": null, "candidates": [{"md_atom_id": "md_ch10_a067", "md_file": "knowledge_base/chapters/ch10_appendices.md", "md_atom_type": "HEADING", "md_parent_section": "§10 [Appendices]", "md_verbatim": "## Appendix D: CDISC Variable-naming Fragments", "score": 0.9, "match_basis": "verbatim_token+global_search"}, {"md_atom_id": "md_ch04_a173", "md_file": "knowledge_base/chapters/ch04_general_assumptions.md", "md_atom_type": "HEADING", "md_parent_section": "§4.2 [General Variable Assumptions]", "md_verbatim": "### 4.2.1 Variable-Naming Conventions", "score": 0.4941, "match_basis": "verbatim_token+global_search"}, {"md_atom_id": "md_ch10_a003", "md_file": "knowledge_base/chapters/ch10_appendices.md", "md_atom_type": "HEADING", "md_parent_section": "§10 [Appendices]", "md_verbatim": "## Appendix A: CDISC SDS Team", "score": 0.4862, "match_basis": "verbatim_token+global_search"}, {"md_atom_id": "md_ch10_a069", "md_file": "knowledge_base/chapters/ch10_appendices.md", "md_atom_type": "HEADING", "md_parent_section": "§10.D [CDISC Variable-naming Fragments]", "md_verbatim": "### Rules for Using Fragments", "score": 0.45, "match_basis": "verbatim_token+global_search"}, {"md_atom_id": "md_ch10_a073", "md_file": "knowledge_base/chapters/ch10_appendices.md", "md_atom_type": "HEADING", "md_parent_section": "§10.D [CDISC Variable-naming Fragments]", "md_verbatim": "### Fragment Reference Table", "score": 0.4412, "match_basis": "verbatim_token+global_search"}], "candidate_count": 5, "zero_candidate": false}
{"pdf_atom_id": "ig34_p0448_a008", "pdf_atom_type": "SENTENCE", "pdf_source": "SDTMIG_v3.4", "pdf_page": 448, "pdf_parent_section": "Appendix D: CDISC Variable-naming Fragments", "pdf_verbatim": "The CDISC SDS group has defined a standard list of fragments to use as a guide when naming variables in SUPP-- datasets (as QNAM) or assigning --TESTCD values that could conceivably be treated as variables in a horizontal listing derived from a Findings dataset.", "figure_ref": null, "candidates": [{"md_atom_id": "md_ch10_a068", "md_file": "knowledge_base/chapters/ch10_appendices.md", "md_atom_type": "SENTENCE", "md_parent_section": "§10.D [CDISC Variable-naming Fragments]", "md_verbatim": "The CDISC SDS group has defined a standard list of fragments to use as a guide when naming variables in SUPP-- datasets (as QNAM) or assigning --TESTCD values.", "score": 0.6833, "match_basis": "verbatim_token+global_search"}, {"md_atom_id": "md_dmRELREC_assn_a003", "md_file": "knowledge_base/domains/RELREC/assumptions.md", "md_atom_type": "SENTENCE", "md_parent_section": "§RELREC [RELREC — Assumptions]", "md_verbatim": "A relationship is defined by adding a record to RELREC for each record to be related and by assigning a unique character identifier value for the relationship. Each record in the RELREC special-purpose dataset contains keys that identify a record (or group of records) and the relationship identifier, which is stored in the RELID variable. The value of RELID is chosen by the sponsor, but must be identical for all related records within USUBJID. It is recommended that the sponsor use a standard system or naming convention for RELID (e.g., all letters, all numbers, capitalized).", "score": 0.4393, "match_basis": "verbatim_token+global_search"}, {"md_atom_id": "md_ch04_a174", "md_file": "knowledge_base/chapters/ch04_general_assumptions.md", "md_atom_type": "SENTENCE", "md_parent_section": "§4.2.1 [Variable-Naming Conventions]", "md_verbatim": "SDTM variables are named according to a set of conventions, using fragment names (see Appendix D, CDISC Variable-naming Fragments). Variables with names ending in \"CD\" are \"short\" versions of associated variables that do not include the \"CD\" suffix (e.g., --TESTCD is the short version of --TEST).", "score": 0.4376, "match_basis": "verbatim_token+global_search"}, {"md_atom_id": "md_dmBE_ex_a073", "md_file": "knowledge_base/domains/BE/examples.md", "md_atom_type": "SENTENCE", "md_parent_section": "§BE.2 [Example 2]", "md_verbatim": "The specimen type is given in a supplemental qualifier that mimics the standard findings variable --SPEC, and draws from the 2 codelists (GENSMP and SPECTYPE) for its values, depending on whether or not the biospecimen is a sample of the subject's genetic material.", "score": 0.4353, "match_basis": "verbatim_token+global_search"}, {"md_atom_id": "md_ch04_a955", "md_file": "knowledge_base/chapters/ch04_general_assumptions.md", "md_atom_type": "SENTENCE", "md_parent_section": "§4.5.4 [Evaluators in the Interventions and Events Observation Classes]", "md_verbatim": "For observations that have primary and secondary evaluations of specific qualifier variables, sponsors should put data from the primary evaluation into the standard domain dataset and data from the secondary evaluation into the Supplemental Qualifier datasets (SUPP--).", "score": 0.4296, "match_basis": "verbatim_token+global_search"}], "candidate_count": 5, "zero_candidate": false}
{"pdf_atom_id": "ig34_p0448_a009", "pdf_atom_type": "SENTENCE", "pdf_source": "SDTMIG_v3.4", "pdf_page": 448, "pdf_parent_section": "Appendix D: CDISC Variable-naming Fragments", "pdf_verbatim": "In some cases, more than 1 fragment is used for a given keyword.", "figure_ref": null, "candidates": [{"md_atom_id": "md_model05_a031", "md_file": "knowledge_base/model/05_study_level_data.md", "md_atom_type": "SENTENCE", "md_parent_section": "§ Trial Arms (TA)", "md_verbatim": "An arm is an ordered sequence of elements; the same element may occur more than once in a given arm.", "score": 0.4224, "match_basis": "verbatim_token+global_search"}, {"md_atom_id": "md_ch04_a376", "md_file": "knowledge_base/chapters/ch04_general_assumptions.md", "md_atom_type": "SENTENCE", "md_parent_section": "§4.2.8.3 [Multiple Values for a Non-result Qualifier Variable]", "md_verbatim": "In some cases, values for QNAM and QLABEL more specific than these may be needed.", "score": 0.4176, "match_basis": "verbatim_token+global_search"}, {"md_atom_id": "md_dmTA_ex_a188", "md_file": "knowledge_base/domains/TA/examples.md", "md_atom_type": "SENTENCE", "md_parent_section": "§TA.6 [Example 6]", "md_verbatim": "Because the treatment epoch for arm A has more elements than arm B, TAETORD is 10 for the follow-up element in arm A, but 8 for follow-up in arm B.", "score": 0.4, "match_basis": "verbatim_token+global_search"}, {"md_atom_id": "md_ch08_a181", "md_file": "knowledge_base/chapters/ch08_relationships.md", "md_atom_type": "SENTENCE", "md_parent_section": "§8.4.2 [Submitting Supplemental Qualifiers in Separate Datasets]", "md_verbatim": "A dataset name with the SUPP fragment (e.g., SUPPAPFAMH) would be too long.", "score": 0.3857, "match_basis": "verbatim_token+global_search"}, {"md_atom_id": "md_index_a135", "md_file": "knowledge_base/INDEX.md", "md_atom_type": "SENTENCE", "md_parent_section": "§ Terminology (91 files)", "md_verbatim": "188 supplementary codelists for specialized use cases.", "score": 0.3808, "match_basis": "verbatim_token+global_search"}], "candidate_count": 5, "zero_candidate": false}
{"pdf_atom_id": "ig34_p0448_a010", "pdf_atom_type": "SENTENCE", "pdf_source": "SDTMIG_v3.4", "pdf_page": 448, "pdf_parent_section": "Appendix D: CDISC Variable-naming Fragments", "pdf_verbatim": "This is necessary when a shorter fragment must be used for a --TESTCD or QNAM that incorporates several keywords that must be combined while still meeting the 8-character variable naming limit of SAS transport files.", "figure_ref": null, "candidates": [{"md_atom_id": "md_ch04_a896", "md_file": "knowledge_base/chapters/ch04_general_assumptions.md", "md_atom_type": "SENTENCE", "md_parent_section": "§4.5.3.1 [Test Name (--TEST) Greater than 40 Characters]", "md_verbatim": "Because the --TEST variable is meant to serve as a label for a --TESTCD when a Findings dataset is transposed to a more horizontal format, the length of --TEST is limited to 40 characters (except as noted below) to conform to the limitations of the SAS V5 transport file format.", "score": 0.4434, "match_basis": "verbatim_token+global_search"}, {"md_atom_id": "md_ch04_a174", "md_file": "knowledge_base/chapters/ch04_general_assumptions.md", "md_atom_type": "SENTENCE", "md_parent_section": "§4.2.1 [Variable-Naming Conventions]", "md_verbatim": "SDTM variables are named according to a set of conventions, using fragment names (see Appendix D, CDISC Variable-naming Fragments). Variables with names ending in \"CD\" are \"short\" versions of associated variables that do not include the \"CD\" suffix (e.g., --TESTCD is the short version of --TEST).", "score": 0.4272, "match_basis": "verbatim_token+global_search"}, {"md_atom_id": "md_ch04_a508", "md_file": "knowledge_base/chapters/ch04_general_assumptions.md", "md_atom_type": "SENTENCE", "md_parent_section": "§4.4.1 [Formats for Date/Time Variables]", "md_verbatim": "The SDTM fragment employed for date/time character variables is **DTC**.", "score": 0.4255, "match_basis": "verbatim_token+global_search"}, {"md_atom_id": "md_ch04_a175", "md_file": "knowledge_base/chapters/ch04_general_assumptions.md", "md_atom_type": "SENTENCE", "md_parent_section": "§4.2.1 [Variable-Naming Conventions]", "md_verbatim": "Values of --TESTCD must be limited to 8 characters and cannot start with a number, nor can they contain characters other than letters, numbers, or underscores. This is to avoid possible incompatibility with SAS v5 transport files. This limitation will be in effect until the use of other formats (e.g., Dataset-XML) becomes acceptable to regulatory authorities.", "score": 0.4235, "match_basis": "verbatim_token+global_search"}, {"md_atom_id": "md_ch10_a068", "md_file": "knowledge_base/chapters/ch10_appendices.md", "md_atom_type": "SENTENCE", "md_parent_section": "§10.D [CDISC Variable-naming Fragments]", "md_verbatim": "The CDISC SDS group has defined a standard list of fragments to use as a guide when naming variables in SUPP-- datasets (as QNAM) or assigning --TESTCD values.", "score": 0.4209, "match_basis": "verbatim_token+global_search"}], "candidate_count": 5, "zero_candidate": false}
{"pdf_atom_id": "ig34_p0448_a011", "pdf_atom_type": "SENTENCE", "pdf_source": "SDTMIG_v3.4", "pdf_page": 448, "pdf_parent_section": "Appendix D: CDISC Variable-naming Fragments", "pdf_verbatim": "When using fragments, the general rule is to use the fragment(s) that best conveys the meaning of the variable within the 8-character limit; thus, the longer fragment should be used when space allows.", "figure_ref": null, "candidates": [{"md_atom_id": "md_ch10_a070", "md_file": "knowledge_base/chapters/ch10_appendices.md", "md_atom_type": "LIST_ITEM", "md_parent_section": "§10.D [CDISC Variable-naming Fragments]", "md_verbatim": "- The general rule is to use the fragment(s) that best conveys the meaning within the 8-character limit", "score": 0.5683, "match_basis": "verbatim_token+global_search"}, {"md_atom_id": "md_ch04_a508", "md_file": "knowledge_base/chapters/ch04_general_assumptions.md", "md_atom_type": "SENTENCE", "md_parent_section": "§4.4.1 [Formats for Date/Time Variables]", "md_verbatim": "The SDTM fragment employed for date/time character variables is **DTC**.", "score": 0.4379, "match_basis": "verbatim_token+global_search"}, {"md_atom_id": "md_ch10_a071", "md_file": "knowledge_base/chapters/ch10_appendices.md", "md_atom_type": "LIST_ITEM", "md_parent_section": "§10.D [CDISC Variable-naming Fragments]", "md_verbatim": "- The longer fragment should be used when space allows", "score": 0.4267, "match_basis": "verbatim_token+global_search"}, {"md_atom_id": "md_ch04_a476", "md_file": "knowledge_base/chapters/ch04_general_assumptions.md", "md_atom_type": "SENTENCE", "md_parent_section": "§4.4 [Actual and Relative Time Assumptions]", "md_verbatim": "In general, all domains based on the 3 general observation classes should have at least 1 timing variable.", "score": 0.42, "match_basis": "verbatim_token+global_search"}, {"md_atom_id": "md_ch04_a606", "md_file": "knowledge_base/chapters/ch04_general_assumptions.md", "md_atom_type": "SENTENCE", "md_parent_section": "§4.4.5 [Clinical Encounters and Visits]", "md_verbatim": "All domains based on the 3 general observation classes should have at least 1 timing variable.", "score": 0.42, "match_basis": "verbatim_token+global_search"}], "candidate_count": 5, "zero_candidate": false}
{"pdf_atom_id": "ig34_p0448_a012", "pdf_atom_type": "SENTENCE", "pdf_source": "SDTMIG_v3.4", "pdf_page": 448, "pdf_parent_section": "Appendix D: CDISC Variable-naming Fragments", "pdf_verbatim": "If the combination of fragments still exceeds 8 characters, a character should be dropped where most appropriate (while avoiding naming conflicts if possible) to fit within the 8-character limit.", "figure_ref": null, "candidates": [{"md_atom_id": "md_ch10_a072", "md_file": "knowledge_base/chapters/ch10_appendices.md", "md_atom_type": "LIST_ITEM", "md_parent_section": "§10.D [CDISC Variable-naming Fragments]", "md_verbatim": "- If the combination still exceeds 8 characters, drop characters where most appropriate (avoiding naming conflicts)", "score": 0.5986, "match_basis": "verbatim_token+global_search"}, {"md_atom_id": "md_ch04_a253", "md_file": "knowledge_base/chapters/ch04_general_assumptions.md", "md_atom_type": "SENTENCE", "md_parent_section": "§4.2.6 [Grouping Variables and Categorization]", "md_verbatim": "For example, a concomitant medication administered as part of a known combination therapy for all subjects (e.g., \"Mayo Clinic Regimen\") would more appropriately use --CAT/--SCAT to identify the medication as part of that regimen.", "score": 0.4208, "match_basis": "verbatim_token+global_search"}, {"md_atom_id": "md_ch08_a128", "md_file": "knowledge_base/chapters/ch08_relationships.md", "md_atom_type": "SENTENCE", "md_parent_section": "§8.3.1 [RELREC Dataset Relationship Example]", "md_verbatim": "The possible combinations are:", "score": 0.4067, "match_basis": "verbatim_token+global_search"}, {"md_atom_id": "md_ch04_a174", "md_file": "knowledge_base/chapters/ch04_general_assumptions.md", "md_atom_type": "SENTENCE", "md_parent_section": "§4.2.1 [Variable-Naming Conventions]", "md_verbatim": "SDTM variables are named according to a set of conventions, using fragment names (see Appendix D, CDISC Variable-naming Fragments). Variables with names ending in \"CD\" are \"short\" versions of associated variables that do not include the \"CD\" suffix (e.g., --TESTCD is the short version of --TEST).", "score": 0.4061, "match_basis": "verbatim_token+global_search"}, {"md_atom_id": "md_ch04_a957", "md_file": "knowledge_base/chapters/ch04_general_assumptions.md", "md_atom_type": "SENTENCE", "md_parent_section": "§4.5.4 [Evaluators in the Interventions and Events Observation Classes]", "md_verbatim": "In cases where the standard domain variable name is already 8 characters in length, sponsors should replace the last character with a \"1\" (incremented for each additional attribution).", "score": 0.3993, "match_basis": "verbatim_token+global_search"}], "candidate_count": 5, "zero_candidate": false}
{"pdf_atom_id": "ig34_p0448_a013", "pdf_atom_type": "SENTENCE", "pdf_source": "SDTMIG_v3.4", "pdf_page": 448, "pdf_parent_section": "Appendix D: CDISC Variable-naming Fragments", "pdf_verbatim": "In other cases the same fragment may be used for more than one meaning, but these would not normally overlap for the same variable.", "figure_ref": null, "candidates": [{"md_atom_id": "md_ch04_a468", "md_file": "knowledge_base/chapters/ch04_general_assumptions.md", "md_atom_type": "SENTENCE", "md_parent_section": "§4.3.7 [Use of \"Yes\" and \"No\" Values]", "md_verbatim": "Variables where the response is \"Yes\" or \"No\" (\"Y\" or \"N\") should normally be populated for both \"Y\" and \"N\" responses.", "score": 0.4562, "match_basis": "verbatim_token+global_search"}, {"md_atom_id": "md_dmGF_ex_a042", "md_file": "knowledge_base/domains/GF/examples.md", "md_atom_type": "SENTENCE", "md_parent_section": "§GF.3 [Example 3]", "md_verbatim": "**Rows 2-4, 8-10:** Show normalized transcription levels based on the normalization methods noted in variable GFANMETH and the raw fragment count reported in rows 1 and 7.", "score": 0.42, "match_basis": "verbatim_token+global_search"}, {"md_atom_id": "md_dmGF_ex_a045", "md_file": "knowledge_base/domains/GF/examples.md", "md_atom_type": "SENTENCE", "md_parent_section": "§GF.3 [Example 3]", "md_verbatim": "**Rows 13-14:** Show normalized transcription levels based on the normalization methods noted in variable GFANMETH and the raw fragment count reported in rows 1 and 7.", "score": 0.42, "match_basis": "verbatim_token+global_search"}, {"md_atom_id": "md_ch04_a683", "md_file": "knowledge_base/chapters/ch04_general_assumptions.md", "md_atom_type": "SENTENCE", "md_parent_section": "§4.4.8 [Date and Time Reported in a Domain Based on Findings]", "md_verbatim": "In order to ensure that the critical timing information is always represented in the same variable, the --DTC variable is used to represent the time of specimen collection.", "score": 0.4163, "match_basis": "verbatim_token+global_search"}, {"md_atom_id": "md_ch04_a508", "md_file": "knowledge_base/chapters/ch04_general_assumptions.md", "md_atom_type": "SENTENCE", "md_parent_section": "§4.4.1 [Formats for Date/Time Variables]", "md_verbatim": "The SDTM fragment employed for date/time character variables is **DTC**.", "score": 0.4151, "match_basis": "verbatim_token+global_search"}], "candidate_count": 5, "zero_candidate": false}
{"pdf_atom_id": "ig34_p0448_a014", "pdf_atom_type": "TABLE_HEADER", "pdf_source": "SDTMIG_v3.4", "pdf_page": 448, "pdf_parent_section": "Appendix D: CDISC Variable-naming Fragments", "pdf_verbatim": "| Keyword(s) | Fragment |", "figure_ref": null, "candidates": [{"md_atom_id": "md_ch10_a074", "md_file": "knowledge_base/chapters/ch10_appendices.md", "md_atom_type": "TABLE_HEADER", "md_parent_section": "§10.D [CDISC Variable-naming Fragments]", "md_verbatim": "| Keyword(s) | Fragment | | Keyword(s) | Fragment |\n|-----------|----------|-|-----------|----------|", "score": 0.9, "match_basis": "verbatim_token+global_search"}, {"md_atom_id": "md_dmTA_ex_a026", "md_file": "knowledge_base/domains/TA/examples.md", "md_atom_type": "TABLE_HEADER", "md_parent_section": "§TA.1 [Example 1]", "md_verbatim": "|  | Screen | Run-in | Treatment |\n|---|---|---|---|", "score": 0.3571, "match_basis": "verbatim_token+global_search"}, {"md_atom_id": "md_index_a137", "md_file": "knowledge_base/INDEX.md", "md_atom_type": "TABLE_HEADER", "md_parent_section": "§ Source Documents", "md_verbatim": "| Document | Version | Pages |\n|----------|---------|-------|", "score": 0.3522, "match_basis": "verbatim_token+global_search"}, {"md_atom_id": "md_dmTA_ex_a130", "md_file": "knowledge_base/domains/TA/examples.md", "md_atom_type": "TABLE_HEADER", "md_parent_section": "§TA.4 [Example 4]", "md_verbatim": "|  | Screen | Treatment | | | | | | | | Follow-up |\n|---|---|---|---|---|---|---|---|---|---|---|", "score": 0.35, "match_basis": "verbatim_token+global_search"}, {"md_atom_id": "md_dmTA_ex_a164", "md_file": "knowledge_base/domains/TA/examples.md", "md_atom_type": "TABLE_HEADER", "md_parent_section": "§TA.5 [Example 5]", "md_verbatim": "|  | Screen | Treatment | | | | | | Follow-up |\n|---|---|---|---|---|---|---|---|---|", "score": 0.35, "match_basis": "verbatim_token+global_search"}], "candidate_count": 5, "zero_candidate": false}
{"pdf_atom_id": "ig34_p0448_a015", "pdf_atom_type": "TABLE_ROW", "pdf_source": "SDTMIG_v3.4", "pdf_page": 448, "pdf_parent_section": "Appendix D: CDISC Variable-naming Fragments", "pdf_verbatim": "| ACTION | ACN |", "figure_ref": null, "candidates": [{"md_atom_id": "md_ch10_a075", "md_file": "knowledge_base/chapters/ch10_appendices.md", "md_atom_type": "TABLE_ROW", "md_parent_section": "§10.D [CDISC Variable-naming Fragments]", "md_verbatim": "| ACTION | ACN | | INDICATOR | IND |", "score": 0.55, "match_basis": "verbatim_token+global_search"}, {"md_atom_id": "md_dmEX_ex_a040", "md_file": "knowledge_base/domains/EX/examples.md", "md_atom_type": "TABLE_ROW", "md_parent_section": "§EX.2 [Example 2]", "md_verbatim": "| **Injection 1** | |", "score": 0.5, "match_basis": "verbatim_token+global_search"}, {"md_atom_id": "md_dmEX_ex_a044", "md_file": "knowledge_base/domains/EX/examples.md", "md_atom_type": "TABLE_ROW", "md_parent_section": "§EX.2 [Example 2]", "md_verbatim": "| **Injection 2** | |", "score": 0.5, "match_basis": "verbatim_token+global_search"}, {"md_atom_id": "md_dmEX_ex_a048", "md_file": "knowledge_base/domains/EX/examples.md", "md_atom_type": "TABLE_ROW", "md_parent_section": "§EX.2 [Example 2]", "md_verbatim": "| **Injection 3** | |", "score": 0.5, "match_basis": "verbatim_token+global_search"}, {"md_atom_id": "md_dmCE_ex_a059", "md_file": "knowledge_base/domains/CE/examples.md", "md_atom_type": "TABLE_ROW", "md_parent_section": "§CE.3 [Example 3]", "md_verbatim": "| Date of collection | -- / --- / -- |", "score": 0.45, "match_basis": "verbatim_token+global_search"}, {"md_atom_id": "md_ch04_a373", "md_file": "knowledge_base/chapters/ch04_general_assumptions.md", "md_atom_type": "TABLE_ROW", "md_parent_section": "§4.2.8.3 [Multiple Values for a Non-result Qualifier Variable]", "md_verbatim": "| AELOC1 | Location of the Reaction 1 | FACE |", "score": 0.4412, "match_basis": "verbatim_token+global_search"}, {"md_atom_id": "md_ch04_a374", "md_file": "knowledge_base/chapters/ch04_general_assumptions.md", "md_atom_type": "TABLE_ROW", "md_parent_section": "§4.2.8.3 [Multiple Values for a Non-result Qualifier Variable]", "md_verbatim": "| AELOC2 | Location of the Reaction 2 | NECK |", "score": 0.4412, "match_basis": "verbatim_token+global_search"}, {"md_atom_id": "md_ch04_a375", "md_file": "knowledge_base/chapters/ch04_general_assumptions.md", "md_atom_type": "TABLE_ROW", "md_parent_section": "§4.2.8.3 [Multiple Values for a Non-result Qualifier Variable]", "md_verbatim": "| AELOC3 | Location of the Reaction 3 | CHEST |", "score": 0.4333, "match_basis": "verbatim_token+global_search"}, {"md_atom_id": "md_ch10_a171", "md_file": "knowledge_base/chapters/ch10_appendices.md", "md_atom_type": "TABLE_ROW", "md_parent_section": "§10.E [Revision History]", "md_verbatim": "| **Section 1. Introduction** | | |", "score": 0.4286, "match_basis": "verbatim_token+global_search"}, {"md_atom_id": "md_ch04_a385", "md_file": "knowledge_base/chapters/ch04_general_assumptions.md", "md_atom_type": "TABLE_ROW", "md_parent_section": "§4.2.8.3 [Multiple Values for a Non-result Qualifier Variable]", "md_verbatim": "| AEACNABC | Action Taken with Abcicin | DOSE REDUCED |", "score": 0.4154, "match_basis": "verbatim_token+global_search"}], "candidate_count": 10, "zero_candidate": false}
{"pdf_atom_id": "ig34_p0448_a016", "pdf_atom_type": "TABLE_ROW", "pdf_source": "SDTMIG_v3.4", "pdf_page": 448, "pdf_parent_section": "Appendix D: CDISC Variable-naming Fragments", "pdf_verbatim": "| ADJUSTMENT | ADJ |", "figure_ref": null, "candidates": [{"md_atom_id": "md_ch10_a076", "md_file": "knowledge_base/chapters/ch10_appendices.md", "md_atom_type": "TABLE_ROW", "md_parent_section": "§10.D [CDISC Variable-naming Fragments]", "md_verbatim": "| ADJUSTMENT | ADJ | | INTERPRETATION | INTP |", "score": 0.5286, "match_basis": "verbatim_token+global_search"}, {"md_atom_id": "md_dmEX_ex_a209", "md_file": "knowledge_base/domains/EX/examples.md", "md_atom_type": "TABLE_ROW", "md_parent_section": "§EX.7 [Example 7]", "md_verbatim": "| Reason for Dose Adjustment | | Dose-limiting toxicity | Dose-limiting toxicity |", "score": 0.4778, "match_basis": "verbatim_token+global_search"}, {"md_atom_id": "md_varindex_a232", "md_file": "knowledge_base/VARIABLE_INDEX.md", "md_atom_type": "TABLE_ROW", "md_parent_section": "§ 二、领域专属变量（仅 1 个域，共 1499 个），按域分组", "md_verbatim": "| CMADJ | Reason for Dose Adjustment | Char | Record Qualifier | Perm | — |", "score": 0.45, "match_basis": "verbatim_token+global_search"}, {"md_atom_id": "md_varindex_a465", "md_file": "knowledge_base/VARIABLE_INDEX.md", "md_atom_type": "TABLE_ROW", "md_parent_section": "§ 二、领域专属变量（仅 1 个域，共 1499 个），按域分组", "md_verbatim": "| ECADJ | Reason for Dose Adjustment | Char | Record Qualifier | Perm | — |", "score": 0.45, "match_basis": "verbatim_token+global_search"}, {"md_atom_id": "md_varindex_a536", "md_file": "knowledge_base/VARIABLE_INDEX.md", "md_atom_type": "TABLE_ROW", "md_parent_section": "§ 二、领域专属变量（仅 1 个域，共 1499 个），按域分组", "md_verbatim": "| EXADJ | Reason for Dose Adjustment | Char | Record Qualifier | Perm | — |", "score": 0.45, "match_basis": "verbatim_token+global_search"}], "candidate_count": 5, "zero_candidate": false}
{"pdf_atom_id": "ig34_p0448_a017", "pdf_atom_type": "TABLE_ROW", "pdf_source": "SDTMIG_v3.4", "pdf_page": 448, "pdf_parent_section": "Appendix D: CDISC Variable-naming Fragments", "pdf_verbatim": "| ANALYSIS DATASET | AD |", "figure_ref": null, "candidates": [{"md_atom_id": "md_ch10_a077", "md_file": "knowledge_base/chapters/ch10_appendices.md", "md_atom_type": "TABLE_ROW", "md_parent_section": "§10.D [CDISC Variable-naming Fragments]", "md_verbatim": "| ANALYSIS DATASET | AD | | INTERVAL | INT |", "score": 0.6882, "match_basis": "verbatim_token+global_search"}, {"md_atom_id": "md_ch10_a013", "md_file": "knowledge_base/chapters/ch10_appendices.md", "md_atom_type": "TABLE_ROW", "md_parent_section": "§10.B [Glossary and Abbreviations]", "md_verbatim": "| ADaM | CDISC Analysis Dataset Model |", "score": 0.6474, "match_basis": "verbatim_token+global_search"}, {"md_atom_id": "md_ch10_a014", "md_file": "knowledge_base/chapters/ch10_appendices.md", "md_atom_type": "TABLE_ROW", "md_parent_section": "§10.B [Glossary and Abbreviations]", "md_verbatim": "| ADSL | (ADaM) Subject-level Analysis Dataset |", "score": 0.587, "match_basis": "verbatim_token+global_search"}, {"md_atom_id": "md_ch04_a852", "md_file": "knowledge_base/chapters/ch04_general_assumptions.md", "md_atom_type": "TABLE_ROW", "md_parent_section": "§4.5.1.3 [Examples of Original and Standard Units and Test Not Done]", "md_verbatim": "| 5 | RBC | URINALYSIS | 2+ | | 2+ | | | | | 1 | 2016-02-01 |", "score": 0.4765, "match_basis": "verbatim_token+global_search"}, {"md_atom_id": "md_ch10_a040", "md_file": "knowledge_base/chapters/ch10_appendices.md", "md_atom_type": "TABLE_ROW", "md_parent_section": "§10.B [Glossary and Abbreviations]", "md_verbatim": "| SAP | Statistical analysis plan |", "score": 0.4565, "match_basis": "verbatim_token+global_search"}], "candidate_count": 5, "zero_candidate": false}
{"pdf_atom_id": "ig34_p0448_a018", "pdf_atom_type": "TABLE_ROW", "pdf_source": "SDTMIG_v3.4", "pdf_page": 448, "pdf_parent_section": "Appendix D: CDISC Variable-naming Fragments", "pdf_verbatim": "| ASSAY | AS |", "figure_ref": null, "candidates": [{"md_atom_id": "md_ch10_a078", "md_file": "knowledge_base/chapters/ch10_appendices.md", "md_atom_type": "TABLE_ROW", "md_parent_section": "§10.D [CDISC Variable-naming Fragments]", "md_verbatim": "| ASSAY | AS | | INVESTIGATOR | INV |", "score": 0.4385, "match_basis": "verbatim_token+global_search"}, {"md_atom_id": "md_ch10_a085", "md_file": "knowledge_base/chapters/ch10_appendices.md", "md_atom_type": "TABLE_ROW", "md_parent_section": "§10.D [CDISC Variable-naming Fragments]", "md_verbatim": "| CLASS | CLAS | | NUMBER | NUM |", "score": 0.3667, "match_basis": "verbatim_token+global_search"}, {"md_atom_id": "md_dmDM_ex_a023", "md_file": "knowledge_base/domains/DM/examples.md", "md_atom_type": "TABLE_ROW", "md_parent_section": "§DM.2 [Example 2]", "md_verbatim": "| 4 | ABC | DM | 004 | | | | | NOT ASSIGNED | |", "score": 0.3545, "match_basis": "verbatim_token+global_search"}, {"md_atom_id": "md_ch10_a049", "md_file": "knowledge_base/chapters/ch10_appendices.md", "md_atom_type": "TABLE_ROW", "md_parent_section": "§10.B [Glossary and Abbreviations]", "md_verbatim": "| SOC | System organ class |", "score": 0.3462, "match_basis": "verbatim_token+global_search"}, {"md_atom_id": "md_routing_a042", "md_file": "knowledge_base/ROUTING.md", "md_atom_type": "TABLE_ROW", "md_parent_section": "§ 文件类型速查", "md_verbatim": "| assumptions.md | domains/{DOMAIN}/assumptions.md | 域专属业务规则，编号列表 | 查数据收集/处理规则 |", "score": 0.3375, "match_basis": "verbatim_token+global_search"}, {"md_atom_id": "md_dmDM_ex_a024", "md_file": "knowledge_base/domains/DM/examples.md", "md_atom_type": "TABLE_ROW", "md_parent_section": "§DM.2 [Example 2]", "md_verbatim": "| 5 | ABC | DM | 005 | A | Drug A | | | ASSIGNED, NOT TREATED | |", "score": 0.3333, "match_basis": "verbatim_token+global_search"}, {"md_atom_id": "md_dmLB_ex_a042", "md_file": "knowledge_base/domains/LB/examples.md", "md_atom_type": "TABLE_ROW", "md_parent_section": "§LB.4 [Example 4]", "md_verbatim": "| 1 | ABC | LB | ABC-001-001 | 1 | 1 | CANNAB | Cannabinoids | SCREEN | DRUG TOXICITY | POSITIVE | | POSITIVE | | | 19287-2 | URINE | KINETIC MICROPARTICLE IMMUNOASSAY | Y | 2013-02-16 | 1 | Week 1 |", "score": 0.3286, "match_basis": "verbatim_token+global_search"}, {"md_atom_id": "md_dmTS_ex_a076", "md_file": "knowledge_base/domains/TS/examples.md", "md_atom_type": "TABLE_ROW", "md_parent_section": "§TS.3 [Example 3]", "md_verbatim": "| 2 | XYZ | TS | 1 | | TPHASE | Trial Phase Classification | | NA | | | |", "score": 0.3273, "match_basis": "verbatim_token+global_search"}, {"md_atom_id": "md_dmIS_ex_a055", "md_file": "knowledge_base/domains/IS/examples.md", "md_atom_type": "TABLE_ROW", "md_parent_section": "§IS.4 [Example 4]", "md_verbatim": "| 1 | ABC | IS | ABC-007 | 1 | A1 | | ADA_BAB | Binding Antidrug Antibody | ACTIVE INTERFERON BETA 1A | SCREEN | ANTIDRUG ANTIBODIES | HUMORAL IMMUNITY | POSITIVE | | POSITIVE | | | SERUM | IMMUNOASSAY | 1 | VISIT 1 | 2017-07-27 |", "score": 0.3265, "match_basis": "verbatim_token+global_search"}, {"md_atom_id": "md_dmIS_ex_a136", "md_file": "knowledge_base/domains/IS/examples.md", "md_atom_type": "TABLE_ROW", "md_parent_section": "§IS.10 [Example 10]", "md_verbatim": "| 1 | XYZ | IS | XYZ1234 | 1 | 19283746 | 1 | ATAB | Autoantibody | NUCLEAR AUTOANTIGENS | | SCREEN | POSITIVE | | POSITIVE | | | SERUM | FLUORESCENT IMMUNOASSAY | 1 | SCREENING | 2018-06-20 |", "score": 0.3265, "match_basis": "verbatim_token+global_search"}], "candidate_count": 10, "zero_candidate": false}
