{"pdf_atom_id": "ig34_p0101_a011", "pdf_atom_type": "SENTENCE", "pdf_source": "SDTMIG_v3.4", "pdf_page": 101, "pdf_parent_section": "§6.1.2 [Concomitant/Prior Medications (CM)]", "pdf_verbatim": "CMENDC could be used to indicate that the use is unknown/has not yet happened.", "figure_ref": null, "candidates": [{"md_atom_id": "md_dmCM_ex_a039", "md_file": "knowledge_base/domains/CM/examples.md", "md_atom_type": "SENTENCE", "md_parent_section": "§CM.3 [Example 3]", "md_verbatim": "**Row 2:** Medication use was solicited and the medication was not taken.", "score": 0.472, "match_basis": "verbatim_token+domain_route:CM"}, {"md_atom_id": "md_dmCM_ex_a035", "md_file": "knowledge_base/domains/CM/examples.md", "md_atom_type": "SENTENCE", "md_parent_section": "§CM.3 [Example 3]", "md_verbatim": "The value of CMOCCUR indicates the response to the prespecified medication question.", "score": 0.4656, "match_basis": "verbatim_token+domain_route:CM"}, {"md_atom_id": "md_dmCM_ex_a031", "md_file": "knowledge_base/domains/CM/examples.md", "md_atom_type": "SENTENCE", "md_parent_section": "§CM.3 [Example 3]", "md_verbatim": "This example is for a study that had a particular interest in the antidepressant medications that subjects used.", "score": 0.46, "match_basis": "verbatim_token+domain_route:CM"}, {"md_atom_id": "md_dmCM_ex_a038", "md_file": "knowledge_base/domains/CM/examples.md", "md_atom_type": "SENTENCE", "md_parent_section": "§CM.3 [Example 3]", "md_verbatim": "**Row 1:** Medication use was solicited and the medication was taken.", "score": 0.46, "match_basis": "verbatim_token+domain_route:CM"}, {"md_atom_id": "md_dmCM_ex_a069", "md_file": "knowledge_base/domains/CM/examples.md", "md_atom_type": "SENTENCE", "md_parent_section": "§CM.5 [Example 5]", "md_verbatim": "**Rows 5-6:** Show 2 prior DMARDS received by subject 102, one ending before the date of data collection, and the other ongoing at that time. These medications were not prespecified, so CMPRESP is null.", "score": 0.4588, "match_basis": "verbatim_token+domain_route:CM"}], "candidate_count": 5, "zero_candidate": false}
{"pdf_atom_id": "ig34_p0101_a012", "pdf_atom_type": "SENTENCE", "pdf_source": "SDTMIG_v3.4", "pdf_page": 101, "pdf_parent_section": "§6.1.2 [Concomitant/Prior Medications (CM)]", "pdf_verbatim": "This fact can be recorded by setting CMENTPT = \"2007-04-30\" (the date the assessment was made) and CMENRTPT = \"ONGOING\".", "figure_ref": null, "candidates": [{"md_atom_id": "md_dmCM_ex_a007", "md_file": "knowledge_base/domains/CM/examples.md", "md_atom_type": "SENTENCE", "md_parent_section": "§CM.1 [Example 1]", "md_verbatim": "**Rows 1-6:** For subject ABC-0001, each instance of aspirin use was recorded separately, and the frequency in each record is (CMDOSFRQ) is \"ONCE\".", "score": 0.4674, "match_basis": "verbatim_token+domain_route:CM"}, {"md_atom_id": "md_dmCM_ex_a065", "md_file": "knowledge_base/domains/CM/examples.md", "md_atom_type": "SENTENCE", "md_parent_section": "§CM.5 [Example 5]", "md_verbatim": "**Row 1:** Shows that subject 101 received prior RA medications. The values of CMTRT and CMCAT are the same, indicating that this record represents the response to a question about a category of medications, rather than an individual medication.", "score": 0.4615, "match_basis": "verbatim_token+domain_route:CM"}, {"md_atom_id": "md_dmCM_ex_a051", "md_file": "knowledge_base/domains/CM/examples.md", "md_atom_type": "SENTENCE", "md_parent_section": "§CM.4 [Example 4]", "md_verbatim": "**Rows 4-6:** Another subject received the same set of 3 medications. The medications for this subject are also grouped using CMGRPID = \"1\". Note, however, that the fact that the same CMGRPID value has been used for the same set of medications for subjects \"ABC123-765\" and \"ABC123-899\" is coincidence; CMGRPID groups records only within a subject. This subject stopped the regimen due to side effects.", "score": 0.4613, "match_basis": "verbatim_token+domain_route:CM"}, {"md_atom_id": "md_dmCM_ex_a009", "md_file": "knowledge_base/domains/CM/examples.md", "md_atom_type": "SENTENCE", "md_parent_section": "§CM.1 [Example 1]", "md_verbatim": "**Row 10:** Records for subject ABC-0003 are collapsed into a single entry that spans the relevant time period, with a frequency of \"PRN\". This is shown as an example only, not as a recommendation. This approach assumes that knowing exactly when aspirin was used is not important for evaluating safety and efficacy in this study.", "score": 0.4589, "match_basis": "verbatim_token+domain_route:CM"}, {"md_atom_id": "md_dmCM_ex_a008", "md_file": "knowledge_base/domains/CM/examples.md", "md_atom_type": "SENTENCE", "md_parent_section": "§CM.1 [Example 1]", "md_verbatim": "**Rows 7-9:** For subject ABC-0002, frequency was once a day (\"QD\") in the first and third records (where CMSEQ is \"1\" and \"3\"), but twice a day in the second record (CMSEQ = \"2\").", "score": 0.4578, "match_basis": "verbatim_token+domain_route:CM"}], "candidate_count": 5, "zero_candidate": false}
{"pdf_atom_id": "ig34_p0101_a013", "pdf_atom_type": "LIST_ITEM", "pdf_source": "SDTMIG_v3.4", "pdf_page": 101, "pdf_parent_section": "§6.1.2 [Concomitant/Prior Medications (CM)]", "pdf_verbatim": "Although any identifier variables, timing variables, or interventions general observation-class qualifiers may be added to the CM domain, the following qualifiers would generally not be used: --MOOD, --LOT.", "figure_ref": null, "candidates": [{"md_atom_id": "md_dmCM_assn_a006", "md_file": "knowledge_base/domains/CM/assumptions.md", "md_atom_type": "LIST_ITEM", "md_parent_section": "§CM [CM — Assumptions]", "md_verbatim": "5. Although any identifier, timing variables, or interventions general observation-class qualifiers may be added to the CM domain, the following qualifiers would generally not be used: --MOOD, --LOT.", "score": 1.0, "match_basis": "verbatim_token+domain_route:CM"}, {"md_atom_id": "md_dmCM_assn_a005", "md_file": "knowledge_base/domains/CM/assumptions.md", "md_atom_type": "LIST_ITEM", "md_parent_section": "§CM [CM — Assumptions]", "md_verbatim": "4. Variables for timing relative to a time point\n   a. CMSTRTPT, CMSTTPT, CMENRTPT, and CMENTPT may be populated as necessary to indicate when a medication was used relative to specified time points. For example, assume a subject uses birth control medication. The subject has used the same medication for many years and continues to do so. The date the subject began using the medication (or at least a partial date) would be stored in CMSTDTC. CMENDTC is null because the end date is unknown/has not yet happened. This fact can be recorded by setting CMENTPT = \"2007-04-30\" (the date the assessment was made) and CMENRTPT = \"ONGOING\".", "score": 0.4816, "match_basis": "verbatim_token+domain_route:CM"}, {"md_atom_id": "md_dmCM_assn_a004", "md_file": "knowledge_base/domains/CM/assumptions.md", "md_atom_type": "LIST_ITEM", "md_parent_section": "§CM [CM — Assumptions]", "md_verbatim": "3. Prespecified terms; presence or absence of concomitant medications\n   a. Information on concomitant medications is generally collected in 2 different ways, either by recording free text or using a prespecified list of terms. Because the solicitation of information on specific concomitant medications may affect the frequency at which they are reported, the fact that a specific medication was solicited may be of interest to reviewers. CMPRESP and CMOCCUR are used together to indicate the intervention in CMTRT was prespecified and whether it occurred, respectively.\n   b. CMOCCUR is used to indicate whether a prespecified medication was used. A value of \"Y\" indicates that the medication was used and \"N\" indicates that it was not.\n   c. If a medication was not prespecified, the value of CMOCCUR should be null. CMPRESP and CMOCCUR are permissible fields and may be omitted from the dataset if all medications were collected as free text. Values of CMOCCUR may also be null for prespecified medications if no Y/N response was collected; in such cases, CMSTAT = \"NOT DONE\", and CMREASND could be used to describe the reason the answer was missing.", "score": 0.4745, "match_basis": "verbatim_token+domain_route:CM"}, {"md_atom_id": "md_dmCM_assn_a002", "md_file": "knowledge_base/domains/CM/assumptions.md", "md_atom_type": "LIST_ITEM", "md_parent_section": "§CM [CM — Assumptions]", "md_verbatim": "1. The structure of the CM domain is 1 record per medication intervention episode, constant-dosing interval, or prespecified medication assessment per subject. It is the sponsor's responsibility to define an intervention episode. This definition may vary based on the sponsor's requirements for review and analysis. The submission dataset structure may differ from the structure used for collection. One common approach is to submit a new record when there is a change in the dosing regimen. Another approach is to collapse all records for a medication to a summary level with either a dose range or the highest dose level. Other approaches may also be reasonable as long as they meet the sponsor's evaluation requirements.", "score": 0.4715, "match_basis": "verbatim_token+domain_route:CM"}, {"md_atom_id": "md_dmCM_assn_a003", "md_file": "knowledge_base/domains/CM/assumptions.md", "md_atom_type": "LIST_ITEM", "md_parent_section": "§CM [CM — Assumptions]", "md_verbatim": "2. CM description and coding\n   a. CMTRT is the topic variable and captures the name of the concomitant medication/therapy or the prespecified term used to collect information about the occurrence of any of a group of medications and/or therapies. It is a required variable and must have a value. CMTRT only includes the medication/therapy name and does not include dosage, formulation, or other qualifying information. For example, \"ASPIRIN 100MG TABLET\" is not a valid value for CMTRT. This example should be expressed as CMTRT= \"ASPIRIN\", CMDOSE= \"100\", CMDOSU= \"MG\", and CMDOSFRM= \"TABLET\". When referring to a prespecified group of medications/therapies, CMTRT contains the description of the group used to solicit the occurrence response.\n   b. CMMODIFY should be included if the sponsor's procedure permits modification of a verbatim term for coding.\n   c. CMDECOD is the standardized medication/therapy term derived by the sponsor from the coding dictionary. It is expected that the reported term (CMTRT) or the modified term (CMMODIFY) will be coded using a standard dictionary. The sponsor is expected to provide the dictionary name and version used to map the terms utilizing the external codelist element in the Define-XML document. If an intervention term does not have a decode value in the dictionary, then CMDECOD will be left blank.\n   d. When CMDECOD values from the WHODrug Dictionary are longer than 200 characters, split the values at semicolons rather than spaces when implementing guidance in Section 4.5.3.2, Text Strings Greater than 200 Characters.", "score": 0.4622, "match_basis": "verbatim_token+domain_route:CM"}], "candidate_count": 5, "zero_candidate": false}
{"pdf_atom_id": "ig34_p0101_a014", "pdf_atom_type": "HEADING", "pdf_source": "SDTMIG_v3.4", "pdf_page": 101, "pdf_parent_section": "§6.1.2 [Concomitant/Prior Medications (CM)]", "pdf_verbatim": "CM – Examples", "figure_ref": null, "candidates": [{"md_atom_id": "md_dmCM_ex_a001", "md_file": "knowledge_base/domains/CM/examples.md", "md_atom_type": "HEADING", "md_parent_section": "§CM [CM — Examples]", "md_verbatim": "# CM — Examples", "score": 1.0, "match_basis": "verbatim_token+domain_route:CM"}, {"md_atom_id": "md_dmCM_ex_a002", "md_file": "knowledge_base/domains/CM/examples.md", "md_atom_type": "HEADING", "md_parent_section": "§CM.1 [Example 1]", "md_verbatim": "## Example 1", "score": 0.9, "match_basis": "verbatim_token+domain_route:CM"}, {"md_atom_id": "md_dmCM_ex_a022", "md_file": "knowledge_base/domains/CM/examples.md", "md_atom_type": "HEADING", "md_parent_section": "§CM.2 [Example 2]", "md_verbatim": "## Example 2", "score": 0.9, "match_basis": "verbatim_token+domain_route:CM"}, {"md_atom_id": "md_dmCM_ex_a029", "md_file": "knowledge_base/domains/CM/examples.md", "md_atom_type": "HEADING", "md_parent_section": "§CM.3 [Example 3]", "md_verbatim": "## Example 3", "score": 0.9, "match_basis": "verbatim_token+domain_route:CM"}, {"md_atom_id": "md_dmCM_ex_a047", "md_file": "knowledge_base/domains/CM/examples.md", "md_atom_type": "HEADING", "md_parent_section": "§CM.4 [Example 4]", "md_verbatim": "## Example 4", "score": 0.9, "match_basis": "verbatim_token+domain_route:CM"}], "candidate_count": 5, "zero_candidate": false}
{"pdf_atom_id": "ig34_p0101_a015", "pdf_atom_type": "HEADING", "pdf_source": "SDTMIG_v3.4", "pdf_page": 101, "pdf_parent_section": "§6.1.2 [Concomitant/Prior Medications (CM)]", "pdf_verbatim": "Example 1", "figure_ref": null, "candidates": [{"md_atom_id": "md_dmCM_ex_a002", "md_file": "knowledge_base/domains/CM/examples.md", "md_atom_type": "HEADING", "md_parent_section": "§CM.1 [Example 1]", "md_verbatim": "## Example 1", "score": 1.0, "match_basis": "verbatim_token+domain_route:CM"}, {"md_atom_id": "md_dmCM_ex_a022", "md_file": "knowledge_base/domains/CM/examples.md", "md_atom_type": "HEADING", "md_parent_section": "§CM.2 [Example 2]", "md_verbatim": "## Example 2", "score": 1.0, "match_basis": "verbatim_token+domain_route:CM"}, {"md_atom_id": "md_dmCM_ex_a029", "md_file": "knowledge_base/domains/CM/examples.md", "md_atom_type": "HEADING", "md_parent_section": "§CM.3 [Example 3]", "md_verbatim": "## Example 3", "score": 1.0, "match_basis": "verbatim_token+domain_route:CM"}, {"md_atom_id": "md_dmCM_ex_a047", "md_file": "knowledge_base/domains/CM/examples.md", "md_atom_type": "HEADING", "md_parent_section": "§CM.4 [Example 4]", "md_verbatim": "## Example 4", "score": 1.0, "match_basis": "verbatim_token+domain_route:CM"}, {"md_atom_id": "md_dmCM_ex_a060", "md_file": "knowledge_base/domains/CM/examples.md", "md_atom_type": "HEADING", "md_parent_section": "§CM.5 [Example 5]", "md_verbatim": "## Example 5", "score": 1.0, "match_basis": "verbatim_token+domain_route:CM"}, {"md_atom_id": "md_dmCM_ex_a001", "md_file": "knowledge_base/domains/CM/examples.md", "md_atom_type": "HEADING", "md_parent_section": "§CM [CM — Examples]", "md_verbatim": "# CM — Examples", "score": 0.9, "match_basis": "verbatim_token+domain_route:CM"}, {"md_atom_id": "md_dmCM_assn_a001", "md_file": "knowledge_base/domains/CM/assumptions.md", "md_atom_type": "HEADING", "md_parent_section": "§CM [CM — Assumptions]", "md_verbatim": "# CM — Assumptions", "score": 0.4, "match_basis": "verbatim_token+domain_route:CM"}], "candidate_count": 7, "zero_candidate": false}
{"pdf_atom_id": "ig34_p0101_a016", "pdf_atom_type": "SENTENCE", "pdf_source": "SDTMIG_v3.4", "pdf_page": 101, "pdf_parent_section": "§6.1.2 [Concomitant/Prior Medications (CM)]", "pdf_verbatim": "Sponsors collect the timing of concomitant medication use with varying specificity, depending on the pattern of use; the type, purpose, and importance of the medication; and the needs of the study.", "figure_ref": null, "candidates": [{"md_atom_id": "md_dmCM_ex_a003", "md_file": "knowledge_base/domains/CM/examples.md", "md_atom_type": "SENTENCE", "md_parent_section": "§CM.1 [Example 1]", "md_verbatim": "Sponsors collect the timing of concomitant medication use with varying specificity, depending on the pattern of use; the type, purpose, and importance of the medication; and the needs of the study.", "score": 1.0, "match_basis": "verbatim_token+domain_route:CM"}, {"md_atom_id": "md_dmCM_ex_a030", "md_file": "knowledge_base/domains/CM/examples.md", "md_atom_type": "SENTENCE", "md_parent_section": "§CM.3 [Example 3]", "md_verbatim": "Sponsors often are interested in whether subjects are exposed to specific concomitant medications, and collect this information using a checklist.", "score": 0.5983, "match_basis": "verbatim_token+domain_route:CM"}, {"md_atom_id": "md_dmCM_ex_a032", "md_file": "knowledge_base/domains/CM/examples.md", "md_atom_type": "SENTENCE", "md_parent_section": "§CM.3 [Example 3]", "md_verbatim": "For the study's purposes, absence is just as important as presence of a medication.", "score": 0.563, "match_basis": "verbatim_token+domain_route:CM"}, {"md_atom_id": "md_dmCM_ex_a069", "md_file": "knowledge_base/domains/CM/examples.md", "md_atom_type": "SENTENCE", "md_parent_section": "§CM.5 [Example 5]", "md_verbatim": "**Rows 5-6:** Show 2 prior DMARDS received by subject 102, one ending before the date of data collection, and the other ongoing at that time. These medications were not prespecified, so CMPRESP is null.", "score": 0.5156, "match_basis": "verbatim_token+domain_route:CM"}, {"md_atom_id": "md_dmCM_ex_a035", "md_file": "knowledge_base/domains/CM/examples.md", "md_atom_type": "SENTENCE", "md_parent_section": "§CM.3 [Example 3]", "md_verbatim": "The value of CMOCCUR indicates the response to the prespecified medication question.", "score": 0.5059, "match_basis": "verbatim_token+domain_route:CM"}], "candidate_count": 5, "zero_candidate": false}
{"pdf_atom_id": "ig34_p0101_a017", "pdf_atom_type": "SENTENCE", "pdf_source": "SDTMIG_v3.4", "pdf_page": 101, "pdf_parent_section": "§6.1.2 [Concomitant/Prior Medications (CM)]", "pdf_verbatim": "It is often unnecessary to record every unique instance of medication use, since the same information can be conveyed with start and end dates and frequency of use.", "figure_ref": null, "candidates": [{"md_atom_id": "md_dmCM_ex_a004", "md_file": "knowledge_base/domains/CM/examples.md", "md_atom_type": "SENTENCE", "md_parent_section": "§CM.1 [Example 1]", "md_verbatim": "It is often unnecessary to record every unique instance of medication use, since the same information can be conveyed with start and end dates and frequency of use.", "score": 1.0, "match_basis": "verbatim_token+domain_route:CM"}, {"md_atom_id": "md_dmCM_ex_a005", "md_file": "knowledge_base/domains/CM/examples.md", "md_atom_type": "SENTENCE", "md_parent_section": "§CM.1 [Example 1]", "md_verbatim": "If appropriate, medications taken as needed (intermittently or sporadically over a time period) may be reported with a start and end date and a frequency of \"PRN\".", "score": 0.53, "match_basis": "verbatim_token+domain_route:CM"}, {"md_atom_id": "md_dmCM_ex_a007", "md_file": "knowledge_base/domains/CM/examples.md", "md_atom_type": "SENTENCE", "md_parent_section": "§CM.1 [Example 1]", "md_verbatim": "**Rows 1-6:** For subject ABC-0001, each instance of aspirin use was recorded separately, and the frequency in each record is (CMDOSFRQ) is \"ONCE\".", "score": 0.5257, "match_basis": "verbatim_token+domain_route:CM"}, {"md_atom_id": "md_dmCM_ex_a051", "md_file": "knowledge_base/domains/CM/examples.md", "md_atom_type": "SENTENCE", "md_parent_section": "§CM.4 [Example 4]", "md_verbatim": "**Rows 4-6:** Another subject received the same set of 3 medications. The medications for this subject are also grouped using CMGRPID = \"1\". Note, however, that the fact that the same CMGRPID value has been used for the same set of medications for subjects \"ABC123-765\" and \"ABC123-899\" is coincidence; CMGRPID groups records only within a subject. This subject stopped the regimen due to side effects.", "score": 0.5066, "match_basis": "verbatim_token+domain_route:CM"}, {"md_atom_id": "md_dmCM_ex_a037", "md_file": "knowledge_base/domains/CM/examples.md", "md_atom_type": "SENTENCE", "md_parent_section": "§CM.3 [Example 3]", "md_verbatim": "The medication details (e.g., dose, frequency) were not of interest in this study.", "score": 0.5055, "match_basis": "verbatim_token+domain_route:CM"}], "candidate_count": 5, "zero_candidate": false}
{"pdf_atom_id": "ig34_p0101_a018", "pdf_atom_type": "SENTENCE", "pdf_source": "SDTMIG_v3.4", "pdf_page": 101, "pdf_parent_section": "§6.1.2 [Concomitant/Prior Medications (CM)]", "pdf_verbatim": "If appropriate, medications taken as needed (intermittently or sporadically over a time period) may be reported with a start and end date and a frequency of \"PRN\".", "figure_ref": null, "candidates": [{"md_atom_id": "md_dmCM_ex_a005", "md_file": "knowledge_base/domains/CM/examples.md", "md_atom_type": "SENTENCE", "md_parent_section": "§CM.1 [Example 1]", "md_verbatim": "If appropriate, medications taken as needed (intermittently or sporadically over a time period) may be reported with a start and end date and a frequency of \"PRN\".", "score": 1.0, "match_basis": "verbatim_token+domain_route:CM"}, {"md_atom_id": "md_dmCM_ex_a004", "md_file": "knowledge_base/domains/CM/examples.md", "md_atom_type": "SENTENCE", "md_parent_section": "§CM.1 [Example 1]", "md_verbatim": "It is often unnecessary to record every unique instance of medication use, since the same information can be conveyed with start and end dates and frequency of use.", "score": 0.53, "match_basis": "verbatim_token+domain_route:CM"}, {"md_atom_id": "md_dmCM_ex_a037", "md_file": "knowledge_base/domains/CM/examples.md", "md_atom_type": "SENTENCE", "md_parent_section": "§CM.3 [Example 3]", "md_verbatim": "The medication details (e.g., dose, frequency) were not of interest in this study.", "score": 0.5161, "match_basis": "verbatim_token+domain_route:CM"}, {"md_atom_id": "md_dmCM_ex_a009", "md_file": "knowledge_base/domains/CM/examples.md", "md_atom_type": "SENTENCE", "md_parent_section": "§CM.1 [Example 1]", "md_verbatim": "**Row 10:** Records for subject ABC-0003 are collapsed into a single entry that spans the relevant time period, with a frequency of \"PRN\". This is shown as an example only, not as a recommendation. This approach assumes that knowing exactly when aspirin was used is not important for evaluating safety and efficacy in this study.", "score": 0.5033, "match_basis": "verbatim_token+domain_route:CM"}, {"md_atom_id": "md_dmCM_ex_a003", "md_file": "knowledge_base/domains/CM/examples.md", "md_atom_type": "SENTENCE", "md_parent_section": "§CM.1 [Example 1]", "md_verbatim": "Sponsors collect the timing of concomitant medication use with varying specificity, depending on the pattern of use; the type, purpose, and importance of the medication; and the needs of the study.", "score": 0.4985, "match_basis": "verbatim_token+domain_route:CM"}], "candidate_count": 5, "zero_candidate": false}
{"pdf_atom_id": "ig34_p0101_a019", "pdf_atom_type": "SENTENCE", "pdf_source": "SDTMIG_v3.4", "pdf_page": 101, "pdf_parent_section": "§6.1.2 [Concomitant/Prior Medications (CM)]", "pdf_verbatim": "The example below shows 3 subjects who took the same medication on the same day.", "figure_ref": null, "candidates": [{"md_atom_id": "md_dmCM_ex_a006", "md_file": "knowledge_base/domains/CM/examples.md", "md_atom_type": "SENTENCE", "md_parent_section": "§CM.1 [Example 1]", "md_verbatim": "The example below shows 3 subjects who took the same medication on the same day.", "score": 1.0, "match_basis": "verbatim_token+domain_route:CM"}, {"md_atom_id": "md_dmCM_ex_a063", "md_file": "knowledge_base/domains/CM/examples.md", "md_atom_type": "SENTENCE", "md_parent_section": "§CM.5 [Example 5]", "md_verbatim": "This example shows data for 2 subjects who received prior RA medications.", "score": 0.6936, "match_basis": "verbatim_token+domain_route:CM"}, {"md_atom_id": "md_dmCM_ex_a067", "md_file": "knowledge_base/domains/CM/examples.md", "md_atom_type": "SENTENCE", "md_parent_section": "§CM.5 [Example 5]", "md_verbatim": "**Row 3:** Shows that subject 102 received prior RA medications.", "score": 0.6087, "match_basis": "verbatim_token+domain_route:CM"}, {"md_atom_id": "md_dmCM_ex_a031", "md_file": "knowledge_base/domains/CM/examples.md", "md_atom_type": "SENTENCE", "md_parent_section": "§CM.3 [Example 3]", "md_verbatim": "This example is for a study that had a particular interest in the antidepressant medications that subjects used.", "score": 0.5765, "match_basis": "verbatim_token+domain_route:CM"}, {"md_atom_id": "md_dmCM_ex_a023", "md_file": "knowledge_base/domains/CM/examples.md", "md_atom_type": "SENTENCE", "md_parent_section": "§CM.2 [Example 2]", "md_verbatim": "In this example study, it was of particular interest whether subjects use any anticonvulsant medications.", "score": 0.5739, "match_basis": "verbatim_token+domain_route:CM"}], "candidate_count": 5, "zero_candidate": false}
{"pdf_atom_id": "ig34_p0101_a020", "pdf_atom_type": "LIST_ITEM", "pdf_source": "SDTMIG_v3.4", "pdf_page": 101, "pdf_parent_section": "§6.1.2 [Concomitant/Prior Medications (CM)]", "pdf_verbatim": "Rows 1-6: For subject ABC-0001, each instance of aspirin use was recorded separately, and the frequency in each record is (CMDOSFRQ) is \"ONCE\".", "figure_ref": null, "candidates": [{"md_atom_id": "md_dmCM_ex_a007", "md_file": "knowledge_base/domains/CM/examples.md", "md_atom_type": "SENTENCE", "md_parent_section": "§CM.1 [Example 1]", "md_verbatim": "**Rows 1-6:** For subject ABC-0001, each instance of aspirin use was recorded separately, and the frequency in each record is (CMDOSFRQ) is \"ONCE\".", "score": 0.91, "match_basis": "verbatim_token+domain_route:CM"}, {"md_atom_id": "md_dmCM_ex_a008", "md_file": "knowledge_base/domains/CM/examples.md", "md_atom_type": "SENTENCE", "md_parent_section": "§CM.1 [Example 1]", "md_verbatim": "**Rows 7-9:** For subject ABC-0002, frequency was once a day (\"QD\") in the first and third records (where CMSEQ is \"1\" and \"3\"), but twice a day in the second record (CMSEQ = \"2\").", "score": 0.51, "match_basis": "verbatim_token+domain_route:CM"}, {"md_atom_id": "md_dmCM_assn_a004", "md_file": "knowledge_base/domains/CM/assumptions.md", "md_atom_type": "LIST_ITEM", "md_parent_section": "§CM [CM — Assumptions]", "md_verbatim": "3. Prespecified terms; presence or absence of concomitant medications\n   a. Information on concomitant medications is generally collected in 2 different ways, either by recording free text or using a prespecified list of terms. Because the solicitation of information on specific concomitant medications may affect the frequency at which they are reported, the fact that a specific medication was solicited may be of interest to reviewers. CMPRESP and CMOCCUR are used together to indicate the intervention in CMTRT was prespecified and whether it occurred, respectively.\n   b. CMOCCUR is used to indicate whether a prespecified medication was used. A value of \"Y\" indicates that the medication was used and \"N\" indicates that it was not.\n   c. If a medication was not prespecified, the value of CMOCCUR should be null. CMPRESP and CMOCCUR are permissible fields and may be omitted from the dataset if all medications were collected as free text. Values of CMOCCUR may also be null for prespecified medications if no Y/N response was collected; in such cases, CMSTAT = \"NOT DONE\", and CMREASND could be used to describe the reason the answer was missing.", "score": 0.4529, "match_basis": "verbatim_token+domain_route:CM"}, {"md_atom_id": "md_dmCM_assn_a005", "md_file": "knowledge_base/domains/CM/assumptions.md", "md_atom_type": "LIST_ITEM", "md_parent_section": "§CM [CM — Assumptions]", "md_verbatim": "4. Variables for timing relative to a time point\n   a. CMSTRTPT, CMSTTPT, CMENRTPT, and CMENTPT may be populated as necessary to indicate when a medication was used relative to specified time points. For example, assume a subject uses birth control medication. The subject has used the same medication for many years and continues to do so. The date the subject began using the medication (or at least a partial date) would be stored in CMSTDTC. CMENDTC is null because the end date is unknown/has not yet happened. This fact can be recorded by setting CMENTPT = \"2007-04-30\" (the date the assessment was made) and CMENRTPT = \"ONGOING\".", "score": 0.4498, "match_basis": "verbatim_token+domain_route:CM"}, {"md_atom_id": "md_dmCM_assn_a002", "md_file": "knowledge_base/domains/CM/assumptions.md", "md_atom_type": "LIST_ITEM", "md_parent_section": "§CM [CM — Assumptions]", "md_verbatim": "1. The structure of the CM domain is 1 record per medication intervention episode, constant-dosing interval, or prespecified medication assessment per subject. It is the sponsor's responsibility to define an intervention episode. This definition may vary based on the sponsor's requirements for review and analysis. The submission dataset structure may differ from the structure used for collection. One common approach is to submit a new record when there is a change in the dosing regimen. Another approach is to collapse all records for a medication to a summary level with either a dose range or the highest dose level. Other approaches may also be reasonable as long as they meet the sponsor's evaluation requirements.", "score": 0.4486, "match_basis": "verbatim_token+domain_route:CM"}], "candidate_count": 5, "zero_candidate": false}
{"pdf_atom_id": "ig34_p0101_a021", "pdf_atom_type": "LIST_ITEM", "pdf_source": "SDTMIG_v3.4", "pdf_page": 101, "pdf_parent_section": "§6.1.2 [Concomitant/Prior Medications (CM)]", "pdf_verbatim": "Rows 7-9: For subject ABC-0002, frequency was once a day (\"QD\") in the first and third records (where CMSEQ = \"1\" and \"3\"), but twice a day in the second record (where CMSEQ = \"2\").", "figure_ref": null, "candidates": [{"md_atom_id": "md_dmCM_ex_a008", "md_file": "knowledge_base/domains/CM/examples.md", "md_atom_type": "SENTENCE", "md_parent_section": "§CM.1 [Example 1]", "md_verbatim": "**Rows 7-9:** For subject ABC-0002, frequency was once a day (\"QD\") in the first and third records (where CMSEQ is \"1\" and \"3\"), but twice a day in the second record (CMSEQ = \"2\").", "score": 0.91, "match_basis": "verbatim_token+domain_route:CM"}, {"md_atom_id": "md_dmCM_ex_a007", "md_file": "knowledge_base/domains/CM/examples.md", "md_atom_type": "SENTENCE", "md_parent_section": "§CM.1 [Example 1]", "md_verbatim": "**Rows 1-6:** For subject ABC-0001, each instance of aspirin use was recorded separately, and the frequency in each record is (CMDOSFRQ) is \"ONCE\".", "score": 0.51, "match_basis": "verbatim_token+domain_route:CM"}, {"md_atom_id": "md_dmCM_assn_a004", "md_file": "knowledge_base/domains/CM/assumptions.md", "md_atom_type": "LIST_ITEM", "md_parent_section": "§CM [CM — Assumptions]", "md_verbatim": "3. Prespecified terms; presence or absence of concomitant medications\n   a. Information on concomitant medications is generally collected in 2 different ways, either by recording free text or using a prespecified list of terms. Because the solicitation of information on specific concomitant medications may affect the frequency at which they are reported, the fact that a specific medication was solicited may be of interest to reviewers. CMPRESP and CMOCCUR are used together to indicate the intervention in CMTRT was prespecified and whether it occurred, respectively.\n   b. CMOCCUR is used to indicate whether a prespecified medication was used. A value of \"Y\" indicates that the medication was used and \"N\" indicates that it was not.\n   c. If a medication was not prespecified, the value of CMOCCUR should be null. CMPRESP and CMOCCUR are permissible fields and may be omitted from the dataset if all medications were collected as free text. Values of CMOCCUR may also be null for prespecified medications if no Y/N response was collected; in such cases, CMSTAT = \"NOT DONE\", and CMREASND could be used to describe the reason the answer was missing.", "score": 0.4545, "match_basis": "verbatim_token+domain_route:CM"}, {"md_atom_id": "md_dmCM_assn_a002", "md_file": "knowledge_base/domains/CM/assumptions.md", "md_atom_type": "LIST_ITEM", "md_parent_section": "§CM [CM — Assumptions]", "md_verbatim": "1. The structure of the CM domain is 1 record per medication intervention episode, constant-dosing interval, or prespecified medication assessment per subject. It is the sponsor's responsibility to define an intervention episode. This definition may vary based on the sponsor's requirements for review and analysis. The submission dataset structure may differ from the structure used for collection. One common approach is to submit a new record when there is a change in the dosing regimen. Another approach is to collapse all records for a medication to a summary level with either a dose range or the highest dose level. Other approaches may also be reasonable as long as they meet the sponsor's evaluation requirements.", "score": 0.4502, "match_basis": "verbatim_token+domain_route:CM"}, {"md_atom_id": "md_dmCM_assn_a005", "md_file": "knowledge_base/domains/CM/assumptions.md", "md_atom_type": "LIST_ITEM", "md_parent_section": "§CM [CM — Assumptions]", "md_verbatim": "4. Variables for timing relative to a time point\n   a. CMSTRTPT, CMSTTPT, CMENRTPT, and CMENTPT may be populated as necessary to indicate when a medication was used relative to specified time points. For example, assume a subject uses birth control medication. The subject has used the same medication for many years and continues to do so. The date the subject began using the medication (or at least a partial date) would be stored in CMSTDTC. CMENDTC is null because the end date is unknown/has not yet happened. This fact can be recorded by setting CMENTPT = \"2007-04-30\" (the date the assessment was made) and CMENRTPT = \"ONGOING\".", "score": 0.4486, "match_basis": "verbatim_token+domain_route:CM"}], "candidate_count": 5, "zero_candidate": false}
{"pdf_atom_id": "ig34_p0101_a022", "pdf_atom_type": "LIST_ITEM", "pdf_source": "SDTMIG_v3.4", "pdf_page": 101, "pdf_parent_section": "§6.1.2 [Concomitant/Prior Medications (CM)]", "pdf_verbatim": "Row 10: Records for subject ABC-0003 are collapsed into a single entry that spans the relevant time period, with a frequency of \"PRN\". This is shown as an example only, not as a recommendation. This approach assumes that knowing exactly when aspirin was used is not important for evaluating safety and efficacy in the study.", "figure_ref": null, "candidates": [{"md_atom_id": "md_dmCM_ex_a009", "md_file": "knowledge_base/domains/CM/examples.md", "md_atom_type": "SENTENCE", "md_parent_section": "§CM.1 [Example 1]", "md_verbatim": "**Row 10:** Records for subject ABC-0003 are collapsed into a single entry that spans the relevant time period, with a frequency of \"PRN\". This is shown as an example only, not as a recommendation. This approach assumes that knowing exactly when aspirin was used is not important for evaluating safety and efficacy in this study.", "score": 0.91, "match_basis": "verbatim_token+domain_route:CM"}, {"md_atom_id": "md_dmCM_assn_a002", "md_file": "knowledge_base/domains/CM/assumptions.md", "md_atom_type": "LIST_ITEM", "md_parent_section": "§CM [CM — Assumptions]", "md_verbatim": "1. The structure of the CM domain is 1 record per medication intervention episode, constant-dosing interval, or prespecified medication assessment per subject. It is the sponsor's responsibility to define an intervention episode. This definition may vary based on the sponsor's requirements for review and analysis. The submission dataset structure may differ from the structure used for collection. One common approach is to submit a new record when there is a change in the dosing regimen. Another approach is to collapse all records for a medication to a summary level with either a dose range or the highest dose level. Other approaches may also be reasonable as long as they meet the sponsor's evaluation requirements.", "score": 0.5254, "match_basis": "verbatim_token+domain_route:CM"}, {"md_atom_id": "md_dmCM_assn_a005", "md_file": "knowledge_base/domains/CM/assumptions.md", "md_atom_type": "LIST_ITEM", "md_parent_section": "§CM [CM — Assumptions]", "md_verbatim": "4. Variables for timing relative to a time point\n   a. CMSTRTPT, CMSTTPT, CMENRTPT, and CMENTPT may be populated as necessary to indicate when a medication was used relative to specified time points. For example, assume a subject uses birth control medication. The subject has used the same medication for many years and continues to do so. The date the subject began using the medication (or at least a partial date) would be stored in CMSTDTC. CMENDTC is null because the end date is unknown/has not yet happened. This fact can be recorded by setting CMENTPT = \"2007-04-30\" (the date the assessment was made) and CMENRTPT = \"ONGOING\".", "score": 0.5132, "match_basis": "verbatim_token+domain_route:CM"}, {"md_atom_id": "md_dmCM_assn_a004", "md_file": "knowledge_base/domains/CM/assumptions.md", "md_atom_type": "LIST_ITEM", "md_parent_section": "§CM [CM — Assumptions]", "md_verbatim": "3. Prespecified terms; presence or absence of concomitant medications\n   a. Information on concomitant medications is generally collected in 2 different ways, either by recording free text or using a prespecified list of terms. Because the solicitation of information on specific concomitant medications may affect the frequency at which they are reported, the fact that a specific medication was solicited may be of interest to reviewers. CMPRESP and CMOCCUR are used together to indicate the intervention in CMTRT was prespecified and whether it occurred, respectively.\n   b. CMOCCUR is used to indicate whether a prespecified medication was used. A value of \"Y\" indicates that the medication was used and \"N\" indicates that it was not.\n   c. If a medication was not prespecified, the value of CMOCCUR should be null. CMPRESP and CMOCCUR are permissible fields and may be omitted from the dataset if all medications were collected as free text. Values of CMOCCUR may also be null for prespecified medications if no Y/N response was collected; in such cases, CMSTAT = \"NOT DONE\", and CMREASND could be used to describe the reason the answer was missing.", "score": 0.489, "match_basis": "verbatim_token+domain_route:CM"}, {"md_atom_id": "md_dmCM_assn_a003", "md_file": "knowledge_base/domains/CM/assumptions.md", "md_atom_type": "LIST_ITEM", "md_parent_section": "§CM [CM — Assumptions]", "md_verbatim": "2. CM description and coding\n   a. CMTRT is the topic variable and captures the name of the concomitant medication/therapy or the prespecified term used to collect information about the occurrence of any of a group of medications and/or therapies. It is a required variable and must have a value. CMTRT only includes the medication/therapy name and does not include dosage, formulation, or other qualifying information. For example, \"ASPIRIN 100MG TABLET\" is not a valid value for CMTRT. This example should be expressed as CMTRT= \"ASPIRIN\", CMDOSE= \"100\", CMDOSU= \"MG\", and CMDOSFRM= \"TABLET\". When referring to a prespecified group of medications/therapies, CMTRT contains the description of the group used to solicit the occurrence response.\n   b. CMMODIFY should be included if the sponsor's procedure permits modification of a verbatim term for coding.\n   c. CMDECOD is the standardized medication/therapy term derived by the sponsor from the coding dictionary. It is expected that the reported term (CMTRT) or the modified term (CMMODIFY) will be coded using a standard dictionary. The sponsor is expected to provide the dictionary name and version used to map the terms utilizing the external codelist element in the Define-XML document. If an intervention term does not have a decode value in the dictionary, then CMDECOD will be left blank.\n   d. When CMDECOD values from the WHODrug Dictionary are longer than 200 characters, split the values at semicolons rather than spaces when implementing guidance in Section 4.5.3.2, Text Strings Greater than 200 Characters.", "score": 0.4869, "match_basis": "verbatim_token+domain_route:CM"}], "candidate_count": 5, "zero_candidate": false}
{"pdf_atom_id": "ig34_p0101_a023", "pdf_atom_type": "TABLE_HEADER", "pdf_source": "SDTMIG_v3.4", "pdf_page": 101, "pdf_parent_section": "§6.1.2 [Concomitant/Prior Medications (CM)]", "pdf_verbatim": "Row | STUDYID | DOMAIN | USUBJID | CMSEQ | CMTRT | CMDOSE | CMDOSU | CMDOSFRQ | CMSTDTC | CMEDTC", "figure_ref": null, "candidates": [{"md_atom_id": "md_dmCM_ex_a011", "md_file": "knowledge_base/domains/CM/examples.md", "md_atom_type": "TABLE_HEADER", "md_parent_section": "§CM.1 [Example 1]", "md_verbatim": "| Row | STUDYID | DOMAIN | USUBJID | CMSEQ | CMTRT | CMDOSE | CMDOSU | CMDOSFRQ | CMSTDTC | CMENDTC |\n|-----|---------|--------|---------|-------|-------|--------|--------|----------|---------|---------|", "score": 0.9231, "match_basis": "verbatim_token+domain_route:CM"}, {"md_atom_id": "md_dmCM_ex_a026", "md_file": "knowledge_base/domains/CM/examples.md", "md_atom_type": "TABLE_HEADER", "md_parent_section": "§CM.2 [Example 2]", "md_verbatim": "| Row | STUDYID | DOMAIN | USUBJID | CMSEQ | CMTRT | CMCAT |\n|-----|---------|--------|---------|-------|-------|-------|", "score": 0.7231, "match_basis": "verbatim_token+domain_route:CM"}, {"md_atom_id": "md_dmCM_ex_a053", "md_file": "knowledge_base/domains/CM/examples.md", "md_atom_type": "TABLE_HEADER", "md_parent_section": "§CM.4 [Example 4]", "md_verbatim": "| Row | STUDYID | DOMAIN | USUBJID | CMSEQ | CMGRPID | CMTRT | CMCAT | CMDOSFRM | CMROUTE | CMRSDISC |\n|-----|---------|--------|---------|-------|---------|-------|-------|----------|---------|----------|", "score": 0.6836, "match_basis": "verbatim_token+domain_route:CM"}, {"md_atom_id": "md_dmCM_ex_a043", "md_file": "knowledge_base/domains/CM/examples.md", "md_atom_type": "TABLE_HEADER", "md_parent_section": "§CM.3 [Example 3]", "md_verbatim": "| Row | STUDYID | DOMAIN | USUBJID | CMSEQ | CMTRT | CMPRESP | CMOCCUR | CMSTAT | CMREASND |\n|-----|---------|--------|---------|-------|-------|---------|---------|--------|----------|", "score": 0.6444, "match_basis": "verbatim_token+domain_route:CM"}, {"md_atom_id": "md_dmCM_ex_a071", "md_file": "knowledge_base/domains/CM/examples.md", "md_atom_type": "TABLE_HEADER", "md_parent_section": "§CM.5 [Example 5]", "md_verbatim": "| Row | STUDYID | DOMAIN | USUBJID | CMSEQ | CMTRT | CMCAT | CMSCAT | CMPRESP | CMOCCUR | CMINDC | CMDTC | CMDY | CMENRTPT | CMENTPT |\n|-----|---------|--------|---------|-------|-------|-------|--------|---------|---------|--------|-------|------|----------|---------|", "score": 0.625, "match_basis": "verbatim_token+domain_route:CM"}], "candidate_count": 5, "zero_candidate": false}
{"pdf_atom_id": "ig34_p0101_a024", "pdf_atom_type": "TABLE_ROW", "pdf_source": "SDTMIG_v3.4", "pdf_page": 101, "pdf_parent_section": "§6.1.2 [Concomitant/Prior Medications (CM)]", "pdf_verbatim": "1 | ABC | CM | ABC-0001 | 1 | ASPIRIN | 100 | mg | ONCE | 2004-01-01 | 2004-01-01", "figure_ref": null, "candidates": [{"md_atom_id": "md_dmCM_ex_a012", "md_file": "knowledge_base/domains/CM/examples.md", "md_atom_type": "TABLE_ROW", "md_parent_section": "§CM.1 [Example 1]", "md_verbatim": "| 1 | ABC | CM | ABC-0001 | 1 | ASPIRIN | 100 | mg | ONCE | 2004-01-01 | 2004-01-01 |", "score": 1.0, "match_basis": "verbatim_token+domain_route:CM"}, {"md_atom_id": "md_dmCM_ex_a013", "md_file": "knowledge_base/domains/CM/examples.md", "md_atom_type": "TABLE_ROW", "md_parent_section": "§CM.1 [Example 1]", "md_verbatim": "| 2 | ABC | CM | ABC-0001 | 2 | ASPIRIN | 100 | mg | ONCE | 2004-01-02 | 2004-01-02 |", "score": 1.0, "match_basis": "verbatim_token+domain_route:CM"}, {"md_atom_id": "md_dmCM_ex_a014", "md_file": "knowledge_base/domains/CM/examples.md", "md_atom_type": "TABLE_ROW", "md_parent_section": "§CM.1 [Example 1]", "md_verbatim": "| 3 | ABC | CM | ABC-0001 | 3 | ASPIRIN | 100 | mg | ONCE | 2004-01-03 | 2004-01-03 |", "score": 1.0, "match_basis": "verbatim_token+domain_route:CM"}, {"md_atom_id": "md_dmCM_ex_a015", "md_file": "knowledge_base/domains/CM/examples.md", "md_atom_type": "TABLE_ROW", "md_parent_section": "§CM.1 [Example 1]", "md_verbatim": "| 4 | ABC | CM | ABC-0001 | 4 | ASPIRIN | 100 | mg | ONCE | 2004-01-07 | 2004-01-07 |", "score": 1.0, "match_basis": "verbatim_token+domain_route:CM"}, {"md_atom_id": "md_dmCM_ex_a016", "md_file": "knowledge_base/domains/CM/examples.md", "md_atom_type": "TABLE_ROW", "md_parent_section": "§CM.1 [Example 1]", "md_verbatim": "| 5 | ABC | CM | ABC-0001 | 5 | ASPIRIN | 100 | mg | ONCE | 2004-01-07 | 2004-01-07 |", "score": 1.0, "match_basis": "verbatim_token+domain_route:CM"}], "candidate_count": 5, "zero_candidate": false}
{"pdf_atom_id": "ig34_p0101_a025", "pdf_atom_type": "TABLE_ROW", "pdf_source": "SDTMIG_v3.4", "pdf_page": 101, "pdf_parent_section": "§6.1.2 [Concomitant/Prior Medications (CM)]", "pdf_verbatim": "2 | ABC | CM | ABC-0001 | 2 | ASPIRIN | 100 | mg | ONCE | 2004-01-02 | 2004-01-02", "figure_ref": null, "candidates": [{"md_atom_id": "md_dmCM_ex_a012", "md_file": "knowledge_base/domains/CM/examples.md", "md_atom_type": "TABLE_ROW", "md_parent_section": "§CM.1 [Example 1]", "md_verbatim": "| 1 | ABC | CM | ABC-0001 | 1 | ASPIRIN | 100 | mg | ONCE | 2004-01-01 | 2004-01-01 |", "score": 1.0, "match_basis": "verbatim_token+domain_route:CM"}, {"md_atom_id": "md_dmCM_ex_a013", "md_file": "knowledge_base/domains/CM/examples.md", "md_atom_type": "TABLE_ROW", "md_parent_section": "§CM.1 [Example 1]", "md_verbatim": "| 2 | ABC | CM | ABC-0001 | 2 | ASPIRIN | 100 | mg | ONCE | 2004-01-02 | 2004-01-02 |", "score": 1.0, "match_basis": "verbatim_token+domain_route:CM"}, {"md_atom_id": "md_dmCM_ex_a014", "md_file": "knowledge_base/domains/CM/examples.md", "md_atom_type": "TABLE_ROW", "md_parent_section": "§CM.1 [Example 1]", "md_verbatim": "| 3 | ABC | CM | ABC-0001 | 3 | ASPIRIN | 100 | mg | ONCE | 2004-01-03 | 2004-01-03 |", "score": 1.0, "match_basis": "verbatim_token+domain_route:CM"}, {"md_atom_id": "md_dmCM_ex_a015", "md_file": "knowledge_base/domains/CM/examples.md", "md_atom_type": "TABLE_ROW", "md_parent_section": "§CM.1 [Example 1]", "md_verbatim": "| 4 | ABC | CM | ABC-0001 | 4 | ASPIRIN | 100 | mg | ONCE | 2004-01-07 | 2004-01-07 |", "score": 1.0, "match_basis": "verbatim_token+domain_route:CM"}, {"md_atom_id": "md_dmCM_ex_a016", "md_file": "knowledge_base/domains/CM/examples.md", "md_atom_type": "TABLE_ROW", "md_parent_section": "§CM.1 [Example 1]", "md_verbatim": "| 5 | ABC | CM | ABC-0001 | 5 | ASPIRIN | 100 | mg | ONCE | 2004-01-07 | 2004-01-07 |", "score": 1.0, "match_basis": "verbatim_token+domain_route:CM"}], "candidate_count": 5, "zero_candidate": false}
{"pdf_atom_id": "ig34_p0101_a026", "pdf_atom_type": "TABLE_ROW", "pdf_source": "SDTMIG_v3.4", "pdf_page": 101, "pdf_parent_section": "§6.1.2 [Concomitant/Prior Medications (CM)]", "pdf_verbatim": "3 | ABC | CM | ABC-0001 | 3 | ASPIRIN | 100 | mg | ONCE | 2004-01-03 | 2004-01-03", "figure_ref": null, "candidates": [{"md_atom_id": "md_dmCM_ex_a012", "md_file": "knowledge_base/domains/CM/examples.md", "md_atom_type": "TABLE_ROW", "md_parent_section": "§CM.1 [Example 1]", "md_verbatim": "| 1 | ABC | CM | ABC-0001 | 1 | ASPIRIN | 100 | mg | ONCE | 2004-01-01 | 2004-01-01 |", "score": 1.0, "match_basis": "verbatim_token+domain_route:CM"}, {"md_atom_id": "md_dmCM_ex_a013", "md_file": "knowledge_base/domains/CM/examples.md", "md_atom_type": "TABLE_ROW", "md_parent_section": "§CM.1 [Example 1]", "md_verbatim": "| 2 | ABC | CM | ABC-0001 | 2 | ASPIRIN | 100 | mg | ONCE | 2004-01-02 | 2004-01-02 |", "score": 1.0, "match_basis": "verbatim_token+domain_route:CM"}, {"md_atom_id": "md_dmCM_ex_a014", "md_file": "knowledge_base/domains/CM/examples.md", "md_atom_type": "TABLE_ROW", "md_parent_section": "§CM.1 [Example 1]", "md_verbatim": "| 3 | ABC | CM | ABC-0001 | 3 | ASPIRIN | 100 | mg | ONCE | 2004-01-03 | 2004-01-03 |", "score": 1.0, "match_basis": "verbatim_token+domain_route:CM"}, {"md_atom_id": "md_dmCM_ex_a015", "md_file": "knowledge_base/domains/CM/examples.md", "md_atom_type": "TABLE_ROW", "md_parent_section": "§CM.1 [Example 1]", "md_verbatim": "| 4 | ABC | CM | ABC-0001 | 4 | ASPIRIN | 100 | mg | ONCE | 2004-01-07 | 2004-01-07 |", "score": 1.0, "match_basis": "verbatim_token+domain_route:CM"}, {"md_atom_id": "md_dmCM_ex_a016", "md_file": "knowledge_base/domains/CM/examples.md", "md_atom_type": "TABLE_ROW", "md_parent_section": "§CM.1 [Example 1]", "md_verbatim": "| 5 | ABC | CM | ABC-0001 | 5 | ASPIRIN | 100 | mg | ONCE | 2004-01-07 | 2004-01-07 |", "score": 1.0, "match_basis": "verbatim_token+domain_route:CM"}], "candidate_count": 5, "zero_candidate": false}
{"pdf_atom_id": "ig34_p0101_a027", "pdf_atom_type": "TABLE_ROW", "pdf_source": "SDTMIG_v3.4", "pdf_page": 101, "pdf_parent_section": "§6.1.2 [Concomitant/Prior Medications (CM)]", "pdf_verbatim": "4 | ABC | CM | ABC-0001 | 4 | ASPIRIN | 100 | mg | ONCE | 2004-01-07 | 2004-01-07", "figure_ref": null, "candidates": [{"md_atom_id": "md_dmCM_ex_a012", "md_file": "knowledge_base/domains/CM/examples.md", "md_atom_type": "TABLE_ROW", "md_parent_section": "§CM.1 [Example 1]", "md_verbatim": "| 1 | ABC | CM | ABC-0001 | 1 | ASPIRIN | 100 | mg | ONCE | 2004-01-01 | 2004-01-01 |", "score": 1.0, "match_basis": "verbatim_token+domain_route:CM"}, {"md_atom_id": "md_dmCM_ex_a013", "md_file": "knowledge_base/domains/CM/examples.md", "md_atom_type": "TABLE_ROW", "md_parent_section": "§CM.1 [Example 1]", "md_verbatim": "| 2 | ABC | CM | ABC-0001 | 2 | ASPIRIN | 100 | mg | ONCE | 2004-01-02 | 2004-01-02 |", "score": 1.0, "match_basis": "verbatim_token+domain_route:CM"}, {"md_atom_id": "md_dmCM_ex_a014", "md_file": "knowledge_base/domains/CM/examples.md", "md_atom_type": "TABLE_ROW", "md_parent_section": "§CM.1 [Example 1]", "md_verbatim": "| 3 | ABC | CM | ABC-0001 | 3 | ASPIRIN | 100 | mg | ONCE | 2004-01-03 | 2004-01-03 |", "score": 1.0, "match_basis": "verbatim_token+domain_route:CM"}, {"md_atom_id": "md_dmCM_ex_a015", "md_file": "knowledge_base/domains/CM/examples.md", "md_atom_type": "TABLE_ROW", "md_parent_section": "§CM.1 [Example 1]", "md_verbatim": "| 4 | ABC | CM | ABC-0001 | 4 | ASPIRIN | 100 | mg | ONCE | 2004-01-07 | 2004-01-07 |", "score": 1.0, "match_basis": "verbatim_token+domain_route:CM"}, {"md_atom_id": "md_dmCM_ex_a016", "md_file": "knowledge_base/domains/CM/examples.md", "md_atom_type": "TABLE_ROW", "md_parent_section": "§CM.1 [Example 1]", "md_verbatim": "| 5 | ABC | CM | ABC-0001 | 5 | ASPIRIN | 100 | mg | ONCE | 2004-01-07 | 2004-01-07 |", "score": 1.0, "match_basis": "verbatim_token+domain_route:CM"}], "candidate_count": 5, "zero_candidate": false}
{"pdf_atom_id": "ig34_p0101_a028", "pdf_atom_type": "TABLE_ROW", "pdf_source": "SDTMIG_v3.4", "pdf_page": 101, "pdf_parent_section": "§6.1.2 [Concomitant/Prior Medications (CM)]", "pdf_verbatim": "5 | ABC | CM | ABC-0001 | 5 | ASPIRIN | 100 | mg | ONCE | 2004-01-07 | 2004-01-07", "figure_ref": null, "candidates": [{"md_atom_id": "md_dmCM_ex_a012", "md_file": "knowledge_base/domains/CM/examples.md", "md_atom_type": "TABLE_ROW", "md_parent_section": "§CM.1 [Example 1]", "md_verbatim": "| 1 | ABC | CM | ABC-0001 | 1 | ASPIRIN | 100 | mg | ONCE | 2004-01-01 | 2004-01-01 |", "score": 1.0, "match_basis": "verbatim_token+domain_route:CM"}, {"md_atom_id": "md_dmCM_ex_a013", "md_file": "knowledge_base/domains/CM/examples.md", "md_atom_type": "TABLE_ROW", "md_parent_section": "§CM.1 [Example 1]", "md_verbatim": "| 2 | ABC | CM | ABC-0001 | 2 | ASPIRIN | 100 | mg | ONCE | 2004-01-02 | 2004-01-02 |", "score": 1.0, "match_basis": "verbatim_token+domain_route:CM"}, {"md_atom_id": "md_dmCM_ex_a014", "md_file": "knowledge_base/domains/CM/examples.md", "md_atom_type": "TABLE_ROW", "md_parent_section": "§CM.1 [Example 1]", "md_verbatim": "| 3 | ABC | CM | ABC-0001 | 3 | ASPIRIN | 100 | mg | ONCE | 2004-01-03 | 2004-01-03 |", "score": 1.0, "match_basis": "verbatim_token+domain_route:CM"}, {"md_atom_id": "md_dmCM_ex_a015", "md_file": "knowledge_base/domains/CM/examples.md", "md_atom_type": "TABLE_ROW", "md_parent_section": "§CM.1 [Example 1]", "md_verbatim": "| 4 | ABC | CM | ABC-0001 | 4 | ASPIRIN | 100 | mg | ONCE | 2004-01-07 | 2004-01-07 |", "score": 1.0, "match_basis": "verbatim_token+domain_route:CM"}, {"md_atom_id": "md_dmCM_ex_a016", "md_file": "knowledge_base/domains/CM/examples.md", "md_atom_type": "TABLE_ROW", "md_parent_section": "§CM.1 [Example 1]", "md_verbatim": "| 5 | ABC | CM | ABC-0001 | 5 | ASPIRIN | 100 | mg | ONCE | 2004-01-07 | 2004-01-07 |", "score": 1.0, "match_basis": "verbatim_token+domain_route:CM"}], "candidate_count": 5, "zero_candidate": false}
{"pdf_atom_id": "ig34_p0101_a029", "pdf_atom_type": "TABLE_ROW", "pdf_source": "SDTMIG_v3.4", "pdf_page": 101, "pdf_parent_section": "§6.1.2 [Concomitant/Prior Medications (CM)]", "pdf_verbatim": "6 | ABC | CM | ABC-0001 | 6 | ASPIRIN | 100 | mg | ONCE | 2004-01-09 | 2004-01-09", "figure_ref": null, "candidates": [{"md_atom_id": "md_dmCM_ex_a012", "md_file": "knowledge_base/domains/CM/examples.md", "md_atom_type": "TABLE_ROW", "md_parent_section": "§CM.1 [Example 1]", "md_verbatim": "| 1 | ABC | CM | ABC-0001 | 1 | ASPIRIN | 100 | mg | ONCE | 2004-01-01 | 2004-01-01 |", "score": 1.0, "match_basis": "verbatim_token+domain_route:CM"}, {"md_atom_id": "md_dmCM_ex_a013", "md_file": "knowledge_base/domains/CM/examples.md", "md_atom_type": "TABLE_ROW", "md_parent_section": "§CM.1 [Example 1]", "md_verbatim": "| 2 | ABC | CM | ABC-0001 | 2 | ASPIRIN | 100 | mg | ONCE | 2004-01-02 | 2004-01-02 |", "score": 1.0, "match_basis": "verbatim_token+domain_route:CM"}, {"md_atom_id": "md_dmCM_ex_a014", "md_file": "knowledge_base/domains/CM/examples.md", "md_atom_type": "TABLE_ROW", "md_parent_section": "§CM.1 [Example 1]", "md_verbatim": "| 3 | ABC | CM | ABC-0001 | 3 | ASPIRIN | 100 | mg | ONCE | 2004-01-03 | 2004-01-03 |", "score": 1.0, "match_basis": "verbatim_token+domain_route:CM"}, {"md_atom_id": "md_dmCM_ex_a015", "md_file": "knowledge_base/domains/CM/examples.md", "md_atom_type": "TABLE_ROW", "md_parent_section": "§CM.1 [Example 1]", "md_verbatim": "| 4 | ABC | CM | ABC-0001 | 4 | ASPIRIN | 100 | mg | ONCE | 2004-01-07 | 2004-01-07 |", "score": 1.0, "match_basis": "verbatim_token+domain_route:CM"}, {"md_atom_id": "md_dmCM_ex_a016", "md_file": "knowledge_base/domains/CM/examples.md", "md_atom_type": "TABLE_ROW", "md_parent_section": "§CM.1 [Example 1]", "md_verbatim": "| 5 | ABC | CM | ABC-0001 | 5 | ASPIRIN | 100 | mg | ONCE | 2004-01-07 | 2004-01-07 |", "score": 1.0, "match_basis": "verbatim_token+domain_route:CM"}], "candidate_count": 5, "zero_candidate": false}
{"pdf_atom_id": "ig34_p0101_a030", "pdf_atom_type": "TABLE_ROW", "pdf_source": "SDTMIG_v3.4", "pdf_page": 101, "pdf_parent_section": "§6.1.2 [Concomitant/Prior Medications (CM)]", "pdf_verbatim": "7 | ABC | CM | ABC-0002 | 1 | ASPIRIN | 100 | mg | BID | 2004-01-07 | 2004-01-07", "figure_ref": null, "candidates": [{"md_atom_id": "md_dmCM_ex_a019", "md_file": "knowledge_base/domains/CM/examples.md", "md_atom_type": "TABLE_ROW", "md_parent_section": "§CM.1 [Example 1]", "md_verbatim": "| 8 | ABC | CM | ABC-0002 | 2 | ASPIRIN | 100 | mg | BID | 2004-01-07 | 2004-01-07 |", "score": 1.0, "match_basis": "verbatim_token+domain_route:CM"}, {"md_atom_id": "md_dmCM_ex_a018", "md_file": "knowledge_base/domains/CM/examples.md", "md_atom_type": "TABLE_ROW", "md_parent_section": "§CM.1 [Example 1]", "md_verbatim": "| 7 | ABC | CM | ABC-0002 | 1 | ASPIRIN | 100 | mg | QD | 2004-01-01 | 2004-01-03 |", "score": 0.95, "match_basis": "verbatim_token+domain_route:CM"}, {"md_atom_id": "md_dmCM_ex_a020", "md_file": "knowledge_base/domains/CM/examples.md", "md_atom_type": "TABLE_ROW", "md_parent_section": "§CM.1 [Example 1]", "md_verbatim": "| 9 | ABC | CM | ABC-0002 | 3 | ASPIRIN | 100 | mg | QD | 2004-01-09 | 2004-01-09 |", "score": 0.95, "match_basis": "verbatim_token+domain_route:CM"}, {"md_atom_id": "md_dmCM_ex_a021", "md_file": "knowledge_base/domains/CM/examples.md", "md_atom_type": "TABLE_ROW", "md_parent_section": "§CM.1 [Example 1]", "md_verbatim": "| 10 | ABC | CM | ABC-0003 | 1 | ASPIRIN | 100 | mg | PRN | 2004-01-01 | 2004-01-09 |", "score": 0.8286, "match_basis": "verbatim_token+domain_route:CM"}, {"md_atom_id": "md_dmCM_ex_a012", "md_file": "knowledge_base/domains/CM/examples.md", "md_atom_type": "TABLE_ROW", "md_parent_section": "§CM.1 [Example 1]", "md_verbatim": "| 1 | ABC | CM | ABC-0001 | 1 | ASPIRIN | 100 | mg | ONCE | 2004-01-01 | 2004-01-01 |", "score": 0.8, "match_basis": "verbatim_token+domain_route:CM"}], "candidate_count": 5, "zero_candidate": false}
{"pdf_atom_id": "ig34_p0101_a031", "pdf_atom_type": "TABLE_ROW", "pdf_source": "SDTMIG_v3.4", "pdf_page": 101, "pdf_parent_section": "§6.1.2 [Concomitant/Prior Medications (CM)]", "pdf_verbatim": "8 | ABC | CM | ABC-0002 | 2 | ASPIRIN | 100 | mg | BID | 2004-01-07 | 2004-01-07", "figure_ref": null, "candidates": [{"md_atom_id": "md_dmCM_ex_a019", "md_file": "knowledge_base/domains/CM/examples.md", "md_atom_type": "TABLE_ROW", "md_parent_section": "§CM.1 [Example 1]", "md_verbatim": "| 8 | ABC | CM | ABC-0002 | 2 | ASPIRIN | 100 | mg | BID | 2004-01-07 | 2004-01-07 |", "score": 1.0, "match_basis": "verbatim_token+domain_route:CM"}, {"md_atom_id": "md_dmCM_ex_a018", "md_file": "knowledge_base/domains/CM/examples.md", "md_atom_type": "TABLE_ROW", "md_parent_section": "§CM.1 [Example 1]", "md_verbatim": "| 7 | ABC | CM | ABC-0002 | 1 | ASPIRIN | 100 | mg | QD | 2004-01-01 | 2004-01-03 |", "score": 0.95, "match_basis": "verbatim_token+domain_route:CM"}, {"md_atom_id": "md_dmCM_ex_a020", "md_file": "knowledge_base/domains/CM/examples.md", "md_atom_type": "TABLE_ROW", "md_parent_section": "§CM.1 [Example 1]", "md_verbatim": "| 9 | ABC | CM | ABC-0002 | 3 | ASPIRIN | 100 | mg | QD | 2004-01-09 | 2004-01-09 |", "score": 0.95, "match_basis": "verbatim_token+domain_route:CM"}, {"md_atom_id": "md_dmCM_ex_a021", "md_file": "knowledge_base/domains/CM/examples.md", "md_atom_type": "TABLE_ROW", "md_parent_section": "§CM.1 [Example 1]", "md_verbatim": "| 10 | ABC | CM | ABC-0003 | 1 | ASPIRIN | 100 | mg | PRN | 2004-01-01 | 2004-01-09 |", "score": 0.8286, "match_basis": "verbatim_token+domain_route:CM"}, {"md_atom_id": "md_dmCM_ex_a012", "md_file": "knowledge_base/domains/CM/examples.md", "md_atom_type": "TABLE_ROW", "md_parent_section": "§CM.1 [Example 1]", "md_verbatim": "| 1 | ABC | CM | ABC-0001 | 1 | ASPIRIN | 100 | mg | ONCE | 2004-01-01 | 2004-01-01 |", "score": 0.8, "match_basis": "verbatim_token+domain_route:CM"}], "candidate_count": 5, "zero_candidate": false}
{"pdf_atom_id": "ig34_p0102_a001", "pdf_atom_type": "TABLE_ROW", "pdf_source": "SDTMIG_v3.4", "pdf_page": 102, "pdf_parent_section": "§6.1.2 [Concomitant/Prior Medications (CM)]", "pdf_verbatim": "9 | ABC | CM | ABC-0002 | 3 | ASPIRIN | 100 | mg | QD | 2004-01-09 | 2004-01-09", "figure_ref": null, "candidates": [{"md_atom_id": "md_dmCM_ex_a018", "md_file": "knowledge_base/domains/CM/examples.md", "md_atom_type": "TABLE_ROW", "md_parent_section": "§CM.1 [Example 1]", "md_verbatim": "| 7 | ABC | CM | ABC-0002 | 1 | ASPIRIN | 100 | mg | QD | 2004-01-01 | 2004-01-03 |", "score": 1.0, "match_basis": "verbatim_token+domain_route:CM"}, {"md_atom_id": "md_dmCM_ex_a020", "md_file": "knowledge_base/domains/CM/examples.md", "md_atom_type": "TABLE_ROW", "md_parent_section": "§CM.1 [Example 1]", "md_verbatim": "| 9 | ABC | CM | ABC-0002 | 3 | ASPIRIN | 100 | mg | QD | 2004-01-09 | 2004-01-09 |", "score": 1.0, "match_basis": "verbatim_token+domain_route:CM"}, {"md_atom_id": "md_dmCM_ex_a019", "md_file": "knowledge_base/domains/CM/examples.md", "md_atom_type": "TABLE_ROW", "md_parent_section": "§CM.1 [Example 1]", "md_verbatim": "| 8 | ABC | CM | ABC-0002 | 2 | ASPIRIN | 100 | mg | BID | 2004-01-07 | 2004-01-07 |", "score": 0.95, "match_basis": "verbatim_token+domain_route:CM"}, {"md_atom_id": "md_dmCM_ex_a021", "md_file": "knowledge_base/domains/CM/examples.md", "md_atom_type": "TABLE_ROW", "md_parent_section": "§CM.1 [Example 1]", "md_verbatim": "| 10 | ABC | CM | ABC-0003 | 1 | ASPIRIN | 100 | mg | PRN | 2004-01-01 | 2004-01-09 |", "score": 0.8615, "match_basis": "verbatim_token+domain_route:CM"}, {"md_atom_id": "md_dmCM_ex_a012", "md_file": "knowledge_base/domains/CM/examples.md", "md_atom_type": "TABLE_ROW", "md_parent_section": "§CM.1 [Example 1]", "md_verbatim": "| 1 | ABC | CM | ABC-0001 | 1 | ASPIRIN | 100 | mg | ONCE | 2004-01-01 | 2004-01-01 |", "score": 0.8286, "match_basis": "verbatim_token+domain_route:CM"}], "candidate_count": 5, "zero_candidate": false}
{"pdf_atom_id": "ig34_p0102_a002", "pdf_atom_type": "TABLE_ROW", "pdf_source": "SDTMIG_v3.4", "pdf_page": 102, "pdf_parent_section": "§6.1.2 [Concomitant/Prior Medications (CM)]", "pdf_verbatim": "10 | ABC | CM | ABC-0003 | 1 | ASPIRIN | 100 | mg | PRN | 2004-01-01 | 2004-01-09", "figure_ref": null, "candidates": [{"md_atom_id": "md_dmCM_ex_a021", "md_file": "knowledge_base/domains/CM/examples.md", "md_atom_type": "TABLE_ROW", "md_parent_section": "§CM.1 [Example 1]", "md_verbatim": "| 10 | ABC | CM | ABC-0003 | 1 | ASPIRIN | 100 | mg | PRN | 2004-01-01 | 2004-01-09 |", "score": 1.0, "match_basis": "verbatim_token+domain_route:CM"}, {"md_atom_id": "md_dmCM_ex_a018", "md_file": "knowledge_base/domains/CM/examples.md", "md_atom_type": "TABLE_ROW", "md_parent_section": "§CM.1 [Example 1]", "md_verbatim": "| 7 | ABC | CM | ABC-0002 | 1 | ASPIRIN | 100 | mg | QD | 2004-01-01 | 2004-01-03 |", "score": 0.8615, "match_basis": "verbatim_token+domain_route:CM"}, {"md_atom_id": "md_dmCM_ex_a020", "md_file": "knowledge_base/domains/CM/examples.md", "md_atom_type": "TABLE_ROW", "md_parent_section": "§CM.1 [Example 1]", "md_verbatim": "| 9 | ABC | CM | ABC-0002 | 3 | ASPIRIN | 100 | mg | QD | 2004-01-09 | 2004-01-09 |", "score": 0.8615, "match_basis": "verbatim_token+domain_route:CM"}, {"md_atom_id": "md_dmCM_ex_a019", "md_file": "knowledge_base/domains/CM/examples.md", "md_atom_type": "TABLE_ROW", "md_parent_section": "§CM.1 [Example 1]", "md_verbatim": "| 8 | ABC | CM | ABC-0002 | 2 | ASPIRIN | 100 | mg | BID | 2004-01-07 | 2004-01-07 |", "score": 0.8286, "match_basis": "verbatim_token+domain_route:CM"}, {"md_atom_id": "md_dmCM_ex_a012", "md_file": "knowledge_base/domains/CM/examples.md", "md_atom_type": "TABLE_ROW", "md_parent_section": "§CM.1 [Example 1]", "md_verbatim": "| 1 | ABC | CM | ABC-0001 | 1 | ASPIRIN | 100 | mg | ONCE | 2004-01-01 | 2004-01-01 |", "score": 0.8, "match_basis": "verbatim_token+domain_route:CM"}], "candidate_count": 5, "zero_candidate": false}
{"pdf_atom_id": "ig34_p0102_a003", "pdf_atom_type": "HEADING", "pdf_source": "SDTMIG_v3.4", "pdf_page": 102, "pdf_parent_section": "§6.1.2 [Concomitant/Prior Medications (CM)]", "pdf_verbatim": "Example 2", "figure_ref": null, "candidates": [{"md_atom_id": "md_dmCM_ex_a002", "md_file": "knowledge_base/domains/CM/examples.md", "md_atom_type": "HEADING", "md_parent_section": "§CM.1 [Example 1]", "md_verbatim": "## Example 1", "score": 1.0, "match_basis": "verbatim_token+domain_route:CM"}, {"md_atom_id": "md_dmCM_ex_a022", "md_file": "knowledge_base/domains/CM/examples.md", "md_atom_type": "HEADING", "md_parent_section": "§CM.2 [Example 2]", "md_verbatim": "## Example 2", "score": 1.0, "match_basis": "verbatim_token+domain_route:CM"}, {"md_atom_id": "md_dmCM_ex_a029", "md_file": "knowledge_base/domains/CM/examples.md", "md_atom_type": "HEADING", "md_parent_section": "§CM.3 [Example 3]", "md_verbatim": "## Example 3", "score": 1.0, "match_basis": "verbatim_token+domain_route:CM"}, {"md_atom_id": "md_dmCM_ex_a047", "md_file": "knowledge_base/domains/CM/examples.md", "md_atom_type": "HEADING", "md_parent_section": "§CM.4 [Example 4]", "md_verbatim": "## Example 4", "score": 1.0, "match_basis": "verbatim_token+domain_route:CM"}, {"md_atom_id": "md_dmCM_ex_a060", "md_file": "knowledge_base/domains/CM/examples.md", "md_atom_type": "HEADING", "md_parent_section": "§CM.5 [Example 5]", "md_verbatim": "## Example 5", "score": 1.0, "match_basis": "verbatim_token+domain_route:CM"}, {"md_atom_id": "md_dmCM_ex_a001", "md_file": "knowledge_base/domains/CM/examples.md", "md_atom_type": "HEADING", "md_parent_section": "§CM [CM — Examples]", "md_verbatim": "# CM — Examples", "score": 0.9, "match_basis": "verbatim_token+domain_route:CM"}, {"md_atom_id": "md_dmCM_assn_a001", "md_file": "knowledge_base/domains/CM/assumptions.md", "md_atom_type": "HEADING", "md_parent_section": "§CM [CM — Assumptions]", "md_verbatim": "# CM — Assumptions", "score": 0.4, "match_basis": "verbatim_token+domain_route:CM"}], "candidate_count": 7, "zero_candidate": false}
{"pdf_atom_id": "ig34_p0102_a004", "pdf_atom_type": "SENTENCE", "pdf_source": "SDTMIG_v3.4", "pdf_page": 102, "pdf_parent_section": "§6.1.2 [Concomitant/Prior Medications (CM)]", "pdf_verbatim": "In this example study, it was of particular interest whether subjects use any anticonvulsant medications.", "figure_ref": null, "candidates": [{"md_atom_id": "md_dmCM_ex_a023", "md_file": "knowledge_base/domains/CM/examples.md", "md_atom_type": "SENTENCE", "md_parent_section": "§CM.2 [Example 2]", "md_verbatim": "In this example study, it was of particular interest whether subjects use any anticonvulsant medications.", "score": 1.0, "match_basis": "verbatim_token+domain_route:CM"}, {"md_atom_id": "md_dmCM_ex_a031", "md_file": "knowledge_base/domains/CM/examples.md", "md_atom_type": "SENTENCE", "md_parent_section": "§CM.3 [Example 3]", "md_verbatim": "This example is for a study that had a particular interest in the antidepressant medications that subjects used.", "score": 0.7826, "match_basis": "verbatim_token+domain_route:CM"}, {"md_atom_id": "md_dmCM_ex_a024", "md_file": "knowledge_base/domains/CM/examples.md", "md_atom_type": "SENTENCE", "md_parent_section": "§CM.2 [Example 2]", "md_verbatim": "The medication history, dosing, and so on was not of interest; the study only asked for the anticonvulsants to which subjects were exposed.", "score": 0.6675, "match_basis": "verbatim_token+domain_route:CM"}, {"md_atom_id": "md_dmCM_ex_a063", "md_file": "knowledge_base/domains/CM/examples.md", "md_atom_type": "SENTENCE", "md_parent_section": "§CM.5 [Example 5]", "md_verbatim": "This example shows data for 2 subjects who received prior RA medications.", "score": 0.5808, "match_basis": "verbatim_token+domain_route:CM"}, {"md_atom_id": "md_dmCM_ex_a006", "md_file": "knowledge_base/domains/CM/examples.md", "md_atom_type": "SENTENCE", "md_parent_section": "§CM.1 [Example 1]", "md_verbatim": "The example below shows 3 subjects who took the same medication on the same day.", "score": 0.5739, "match_basis": "verbatim_token+domain_route:CM"}], "candidate_count": 5, "zero_candidate": false}
{"pdf_atom_id": "ig34_p0102_a005", "pdf_atom_type": "SENTENCE", "pdf_source": "SDTMIG_v3.4", "pdf_page": 102, "pdf_parent_section": "§6.1.2 [Concomitant/Prior Medications (CM)]", "pdf_verbatim": "The medication history, dosing, and so on was not of interest; the study only asked for the anticonvulsants to which subjects were exposed.", "figure_ref": null, "candidates": [{"md_atom_id": "md_dmCM_ex_a024", "md_file": "knowledge_base/domains/CM/examples.md", "md_atom_type": "SENTENCE", "md_parent_section": "§CM.2 [Example 2]", "md_verbatim": "The medication history, dosing, and so on was not of interest; the study only asked for the anticonvulsants to which subjects were exposed.", "score": 1.0, "match_basis": "verbatim_token+domain_route:CM"}, {"md_atom_id": "md_dmCM_ex_a023", "md_file": "knowledge_base/domains/CM/examples.md", "md_atom_type": "SENTENCE", "md_parent_section": "§CM.2 [Example 2]", "md_verbatim": "In this example study, it was of particular interest whether subjects use any anticonvulsant medications.", "score": 0.6675, "match_basis": "verbatim_token+domain_route:CM"}, {"md_atom_id": "md_dmCM_ex_a031", "md_file": "knowledge_base/domains/CM/examples.md", "md_atom_type": "SENTENCE", "md_parent_section": "§CM.3 [Example 3]", "md_verbatim": "This example is for a study that had a particular interest in the antidepressant medications that subjects used.", "score": 0.6114, "match_basis": "verbatim_token+domain_route:CM"}, {"md_atom_id": "md_dmCM_ex_a030", "md_file": "knowledge_base/domains/CM/examples.md", "md_atom_type": "SENTENCE", "md_parent_section": "§CM.3 [Example 3]", "md_verbatim": "Sponsors often are interested in whether subjects are exposed to specific concomitant medications, and collect this information using a checklist.", "score": 0.5872, "match_basis": "verbatim_token+domain_route:CM"}, {"md_atom_id": "md_dmCM_ex_a037", "md_file": "knowledge_base/domains/CM/examples.md", "md_atom_type": "SENTENCE", "md_parent_section": "§CM.3 [Example 3]", "md_verbatim": "The medication details (e.g., dose, frequency) were not of interest in this study.", "score": 0.5816, "match_basis": "verbatim_token+domain_route:CM"}], "candidate_count": 5, "zero_candidate": false}
{"pdf_atom_id": "ig34_p0102_a006", "pdf_atom_type": "TABLE_HEADER", "pdf_source": "SDTMIG_v3.4", "pdf_page": 102, "pdf_parent_section": "§6.1.2 [Concomitant/Prior Medications (CM)]", "pdf_verbatim": "Row | STUDYID | DOMAIN | USUBJID | CMSEQ | CMTRT | CMCAT", "figure_ref": null, "candidates": [{"md_atom_id": "md_dmCM_ex_a026", "md_file": "knowledge_base/domains/CM/examples.md", "md_atom_type": "TABLE_HEADER", "md_parent_section": "§CM.2 [Example 2]", "md_verbatim": "| Row | STUDYID | DOMAIN | USUBJID | CMSEQ | CMTRT | CMCAT |\n|-----|---------|--------|---------|-------|-------|-------|", "score": 1.0, "match_basis": "verbatim_token+domain_route:CM"}, {"md_atom_id": "md_dmCM_ex_a053", "md_file": "knowledge_base/domains/CM/examples.md", "md_atom_type": "TABLE_HEADER", "md_parent_section": "§CM.4 [Example 4]", "md_verbatim": "| Row | STUDYID | DOMAIN | USUBJID | CMSEQ | CMGRPID | CMTRT | CMCAT | CMDOSFRM | CMROUTE | CMRSDISC |\n|-----|---------|--------|---------|-------|---------|-------|-------|----------|---------|----------|", "score": 0.72, "match_basis": "verbatim_token+domain_route:CM"}, {"md_atom_id": "md_dmCM_ex_a011", "md_file": "knowledge_base/domains/CM/examples.md", "md_atom_type": "TABLE_HEADER", "md_parent_section": "§CM.1 [Example 1]", "md_verbatim": "| Row | STUDYID | DOMAIN | USUBJID | CMSEQ | CMTRT | CMDOSE | CMDOSU | CMDOSFRQ | CMSTDTC | CMENDTC |\n|-----|---------|--------|---------|-------|-------|--------|--------|----------|---------|---------|", "score": 0.715, "match_basis": "verbatim_token+domain_route:CM"}, {"md_atom_id": "md_dmCM_ex_a043", "md_file": "knowledge_base/domains/CM/examples.md", "md_atom_type": "TABLE_HEADER", "md_parent_section": "§CM.3 [Example 3]", "md_verbatim": "| Row | STUDYID | DOMAIN | USUBJID | CMSEQ | CMTRT | CMPRESP | CMOCCUR | CMSTAT | CMREASND |\n|-----|---------|--------|---------|-------|-------|---------|---------|--------|----------|", "score": 0.693, "match_basis": "verbatim_token+domain_route:CM"}, {"md_atom_id": "md_dmCM_ex_a071", "md_file": "knowledge_base/domains/CM/examples.md", "md_atom_type": "TABLE_HEADER", "md_parent_section": "§CM.5 [Example 5]", "md_verbatim": "| Row | STUDYID | DOMAIN | USUBJID | CMSEQ | CMTRT | CMCAT | CMSCAT | CMPRESP | CMOCCUR | CMINDC | CMDTC | CMDY | CMENRTPT | CMENTPT |\n|-----|---------|--------|---------|-------|-------|-------|--------|---------|---------|--------|-------|------|----------|---------|", "score": 0.6769, "match_basis": "verbatim_token+domain_route:CM"}], "candidate_count": 5, "zero_candidate": false}
{"pdf_atom_id": "ig34_p0102_a007", "pdf_atom_type": "TABLE_ROW", "pdf_source": "SDTMIG_v3.4", "pdf_page": 102, "pdf_parent_section": "§6.1.2 [Concomitant/Prior Medications (CM)]", "pdf_verbatim": "1 | ABC123 | CM | 1 | 1 | LITHIUM | ANTI-CONVULSANT", "figure_ref": null, "candidates": [{"md_atom_id": "md_dmCM_ex_a027", "md_file": "knowledge_base/domains/CM/examples.md", "md_atom_type": "TABLE_ROW", "md_parent_section": "§CM.2 [Example 2]", "md_verbatim": "| 1 | ABC123 | CM | 1 | 1 | LITHIUM | ANTI-CONVULSANT |", "score": 1.0, "match_basis": "verbatim_token+domain_route:CM"}, {"md_atom_id": "md_dmCM_ex_a028", "md_file": "knowledge_base/domains/CM/examples.md", "md_atom_type": "TABLE_ROW", "md_parent_section": "§CM.2 [Example 2]", "md_verbatim": "| 2 | ABC123 | CM | 1 | 2 | VPA | ANTI-CONVULSANT |", "score": 0.8105, "match_basis": "verbatim_token+domain_route:CM"}, {"md_atom_id": "md_dmCM_ex_a044", "md_file": "knowledge_base/domains/CM/examples.md", "md_atom_type": "TABLE_ROW", "md_parent_section": "§CM.3 [Example 3]", "md_verbatim": "| 1 | ABC123 | CM | 1 | 1 | ZOLOFT | Y | Y | | |", "score": 0.5091, "match_basis": "verbatim_token+domain_route:CM"}, {"md_atom_id": "md_dmCM_ex_a045", "md_file": "knowledge_base/domains/CM/examples.md", "md_atom_type": "TABLE_ROW", "md_parent_section": "§CM.3 [Example 3]", "md_verbatim": "| 2 | ABC123 | CM | 1 | 2 | PROZAC | Y | N | | |", "score": 0.5091, "match_basis": "verbatim_token+domain_route:CM"}, {"md_atom_id": "md_dmCM_ex_a046", "md_file": "knowledge_base/domains/CM/examples.md", "md_atom_type": "TABLE_ROW", "md_parent_section": "§CM.3 [Example 3]", "md_verbatim": "| 3 | ABC123 | CM | 1 | 3 | PAXIL | Y | | NOT DONE | Didn't ask due to interruption |", "score": 0.4632, "match_basis": "verbatim_token+domain_route:CM"}], "candidate_count": 5, "zero_candidate": false}
{"pdf_atom_id": "ig34_p0102_a008", "pdf_atom_type": "TABLE_ROW", "pdf_source": "SDTMIG_v3.4", "pdf_page": 102, "pdf_parent_section": "§6.1.2 [Concomitant/Prior Medications (CM)]", "pdf_verbatim": "2 | ABC123 | CM | 2 | 1 | VPA | ANTI-CONVULSANT", "figure_ref": null, "candidates": [{"md_atom_id": "md_dmCM_ex_a028", "md_file": "knowledge_base/domains/CM/examples.md", "md_atom_type": "TABLE_ROW", "md_parent_section": "§CM.2 [Example 2]", "md_verbatim": "| 2 | ABC123 | CM | 1 | 2 | VPA | ANTI-CONVULSANT |", "score": 1.0, "match_basis": "verbatim_token+domain_route:CM"}, {"md_atom_id": "md_dmCM_ex_a027", "md_file": "knowledge_base/domains/CM/examples.md", "md_atom_type": "TABLE_ROW", "md_parent_section": "§CM.2 [Example 2]", "md_verbatim": "| 1 | ABC123 | CM | 1 | 1 | LITHIUM | ANTI-CONVULSANT |", "score": 0.8105, "match_basis": "verbatim_token+domain_route:CM"}, {"md_atom_id": "md_dmCM_ex_a044", "md_file": "knowledge_base/domains/CM/examples.md", "md_atom_type": "TABLE_ROW", "md_parent_section": "§CM.3 [Example 3]", "md_verbatim": "| 1 | ABC123 | CM | 1 | 1 | ZOLOFT | Y | Y | | |", "score": 0.5333, "match_basis": "verbatim_token+domain_route:CM"}, {"md_atom_id": "md_dmCM_ex_a045", "md_file": "knowledge_base/domains/CM/examples.md", "md_atom_type": "TABLE_ROW", "md_parent_section": "§CM.3 [Example 3]", "md_verbatim": "| 2 | ABC123 | CM | 1 | 2 | PROZAC | Y | N | | |", "score": 0.5333, "match_basis": "verbatim_token+domain_route:CM"}, {"md_atom_id": "md_dmCM_ex_a046", "md_file": "knowledge_base/domains/CM/examples.md", "md_atom_type": "TABLE_ROW", "md_parent_section": "§CM.3 [Example 3]", "md_verbatim": "| 3 | ABC123 | CM | 1 | 3 | PAXIL | Y | | NOT DONE | Didn't ask due to interruption |", "score": 0.4706, "match_basis": "verbatim_token+domain_route:CM"}], "candidate_count": 5, "zero_candidate": false}
{"pdf_atom_id": "ig34_p0102_a009", "pdf_atom_type": "HEADING", "pdf_source": "SDTMIG_v3.4", "pdf_page": 102, "pdf_parent_section": "§6.1.2 [Concomitant/Prior Medications (CM)]", "pdf_verbatim": "Example 3", "figure_ref": null, "candidates": [{"md_atom_id": "md_dmCM_ex_a002", "md_file": "knowledge_base/domains/CM/examples.md", "md_atom_type": "HEADING", "md_parent_section": "§CM.1 [Example 1]", "md_verbatim": "## Example 1", "score": 1.0, "match_basis": "verbatim_token+domain_route:CM"}, {"md_atom_id": "md_dmCM_ex_a022", "md_file": "knowledge_base/domains/CM/examples.md", "md_atom_type": "HEADING", "md_parent_section": "§CM.2 [Example 2]", "md_verbatim": "## Example 2", "score": 1.0, "match_basis": "verbatim_token+domain_route:CM"}, {"md_atom_id": "md_dmCM_ex_a029", "md_file": "knowledge_base/domains/CM/examples.md", "md_atom_type": "HEADING", "md_parent_section": "§CM.3 [Example 3]", "md_verbatim": "## Example 3", "score": 1.0, "match_basis": "verbatim_token+domain_route:CM"}, {"md_atom_id": "md_dmCM_ex_a047", "md_file": "knowledge_base/domains/CM/examples.md", "md_atom_type": "HEADING", "md_parent_section": "§CM.4 [Example 4]", "md_verbatim": "## Example 4", "score": 1.0, "match_basis": "verbatim_token+domain_route:CM"}, {"md_atom_id": "md_dmCM_ex_a060", "md_file": "knowledge_base/domains/CM/examples.md", "md_atom_type": "HEADING", "md_parent_section": "§CM.5 [Example 5]", "md_verbatim": "## Example 5", "score": 1.0, "match_basis": "verbatim_token+domain_route:CM"}, {"md_atom_id": "md_dmCM_ex_a001", "md_file": "knowledge_base/domains/CM/examples.md", "md_atom_type": "HEADING", "md_parent_section": "§CM [CM — Examples]", "md_verbatim": "# CM — Examples", "score": 0.9, "match_basis": "verbatim_token+domain_route:CM"}, {"md_atom_id": "md_dmCM_assn_a001", "md_file": "knowledge_base/domains/CM/assumptions.md", "md_atom_type": "HEADING", "md_parent_section": "§CM [CM — Assumptions]", "md_verbatim": "# CM — Assumptions", "score": 0.4, "match_basis": "verbatim_token+domain_route:CM"}], "candidate_count": 7, "zero_candidate": false}
{"pdf_atom_id": "ig34_p0102_a010", "pdf_atom_type": "SENTENCE", "pdf_source": "SDTMIG_v3.4", "pdf_page": 102, "pdf_parent_section": "§6.1.2 [Concomitant/Prior Medications (CM)]", "pdf_verbatim": "Sponsors often are interested in whether subjects are exposed to specific concomitant medications, and collect this information using a checklist.", "figure_ref": null, "candidates": [{"md_atom_id": "md_dmCM_ex_a030", "md_file": "knowledge_base/domains/CM/examples.md", "md_atom_type": "SENTENCE", "md_parent_section": "§CM.3 [Example 3]", "md_verbatim": "Sponsors often are interested in whether subjects are exposed to specific concomitant medications, and collect this information using a checklist.", "score": 1.0, "match_basis": "verbatim_token+domain_route:CM"}, {"md_atom_id": "md_dmCM_ex_a003", "md_file": "knowledge_base/domains/CM/examples.md", "md_atom_type": "SENTENCE", "md_parent_section": "§CM.1 [Example 1]", "md_verbatim": "Sponsors collect the timing of concomitant medication use with varying specificity, depending on the pattern of use; the type, purpose, and importance of the medication; and the needs of the study.", "score": 0.5983, "match_basis": "verbatim_token+domain_route:CM"}, {"md_atom_id": "md_dmCM_ex_a024", "md_file": "knowledge_base/domains/CM/examples.md", "md_atom_type": "SENTENCE", "md_parent_section": "§CM.2 [Example 2]", "md_verbatim": "The medication history, dosing, and so on was not of interest; the study only asked for the anticonvulsants to which subjects were exposed.", "score": 0.5872, "match_basis": "verbatim_token+domain_route:CM"}, {"md_atom_id": "md_dmCM_ex_a061", "md_file": "knowledge_base/domains/CM/examples.md", "md_atom_type": "SENTENCE", "md_parent_section": "§CM.5 [Example 5]", "md_verbatim": "In this rheumatoid arthritis (RA) study, the sponsor collected medications using the category \"Prior RA Medications\", then collected information on whether the subject had received certain medication classes, represented as subcategories.", "score": 0.5822, "match_basis": "verbatim_token+domain_route:CM"}, {"md_atom_id": "md_dmCM_ex_a023", "md_file": "knowledge_base/domains/CM/examples.md", "md_atom_type": "SENTENCE", "md_parent_section": "§CM.2 [Example 2]", "md_verbatim": "In this example study, it was of particular interest whether subjects use any anticonvulsant medications.", "score": 0.5682, "match_basis": "verbatim_token+domain_route:CM"}], "candidate_count": 5, "zero_candidate": false}
{"pdf_atom_id": "ig34_p0102_a011", "pdf_atom_type": "SENTENCE", "pdf_source": "SDTMIG_v3.4", "pdf_page": 102, "pdf_parent_section": "§6.1.2 [Concomitant/Prior Medications (CM)]", "pdf_verbatim": "This example is for a study that had a particular interest in the antidepressant medications that subjects used.", "figure_ref": null, "candidates": [{"md_atom_id": "md_dmCM_ex_a031", "md_file": "knowledge_base/domains/CM/examples.md", "md_atom_type": "SENTENCE", "md_parent_section": "§CM.3 [Example 3]", "md_verbatim": "This example is for a study that had a particular interest in the antidepressant medications that subjects used.", "score": 1.0, "match_basis": "verbatim_token+domain_route:CM"}, {"md_atom_id": "md_dmCM_ex_a023", "md_file": "knowledge_base/domains/CM/examples.md", "md_atom_type": "SENTENCE", "md_parent_section": "§CM.2 [Example 2]", "md_verbatim": "In this example study, it was of particular interest whether subjects use any anticonvulsant medications.", "score": 0.7826, "match_basis": "verbatim_token+domain_route:CM"}, {"md_atom_id": "md_dmCM_ex_a024", "md_file": "knowledge_base/domains/CM/examples.md", "md_atom_type": "SENTENCE", "md_parent_section": "§CM.2 [Example 2]", "md_verbatim": "The medication history, dosing, and so on was not of interest; the study only asked for the anticonvulsants to which subjects were exposed.", "score": 0.6114, "match_basis": "verbatim_token+domain_route:CM"}, {"md_atom_id": "md_dmCM_ex_a034", "md_file": "knowledge_base/domains/CM/examples.md", "md_atom_type": "SENTENCE", "md_parent_section": "§CM.3 [Example 3]", "md_verbatim": "In this example, CMPRESP shows that the subjects were specifically asked if they use any of 3 antidepressants (Zoloft, Prozac, and Paxil).", "score": 0.6, "match_basis": "verbatim_token+domain_route:CM"}, {"md_atom_id": "md_dmCM_ex_a063", "md_file": "knowledge_base/domains/CM/examples.md", "md_atom_type": "SENTENCE", "md_parent_section": "§CM.5 [Example 5]", "md_verbatim": "This example shows data for 2 subjects who received prior RA medications.", "score": 0.5944, "match_basis": "verbatim_token+domain_route:CM"}], "candidate_count": 5, "zero_candidate": false}
{"pdf_atom_id": "ig34_p0102_a012", "pdf_atom_type": "SENTENCE", "pdf_source": "SDTMIG_v3.4", "pdf_page": 102, "pdf_parent_section": "§6.1.2 [Concomitant/Prior Medications (CM)]", "pdf_verbatim": "For the study's purposes, absence is just as important as presence of a medication.", "figure_ref": null, "candidates": [{"md_atom_id": "md_dmCM_ex_a032", "md_file": "knowledge_base/domains/CM/examples.md", "md_atom_type": "SENTENCE", "md_parent_section": "§CM.3 [Example 3]", "md_verbatim": "For the study's purposes, absence is just as important as presence of a medication.", "score": 1.0, "match_basis": "verbatim_token+domain_route:CM"}, {"md_atom_id": "md_dmCM_ex_a003", "md_file": "knowledge_base/domains/CM/examples.md", "md_atom_type": "SENTENCE", "md_parent_section": "§CM.1 [Example 1]", "md_verbatim": "Sponsors collect the timing of concomitant medication use with varying specificity, depending on the pattern of use; the type, purpose, and importance of the medication; and the needs of the study.", "score": 0.563, "match_basis": "verbatim_token+domain_route:CM"}, {"md_atom_id": "md_dmCM_ex_a037", "md_file": "knowledge_base/domains/CM/examples.md", "md_atom_type": "SENTENCE", "md_parent_section": "§CM.3 [Example 3]", "md_verbatim": "The medication details (e.g., dose, frequency) were not of interest in this study.", "score": 0.5579, "match_basis": "verbatim_token+domain_route:CM"}, {"md_atom_id": "md_dmCM_ex_a031", "md_file": "knowledge_base/domains/CM/examples.md", "md_atom_type": "SENTENCE", "md_parent_section": "§CM.3 [Example 3]", "md_verbatim": "This example is for a study that had a particular interest in the antidepressant medications that subjects used.", "score": 0.5263, "match_basis": "verbatim_token+domain_route:CM"}, {"md_atom_id": "md_dmCM_ex_a024", "md_file": "knowledge_base/domains/CM/examples.md", "md_atom_type": "SENTENCE", "md_parent_section": "§CM.2 [Example 2]", "md_verbatim": "The medication history, dosing, and so on was not of interest; the study only asked for the anticonvulsants to which subjects were exposed.", "score": 0.5244, "match_basis": "verbatim_token+domain_route:CM"}], "candidate_count": 5, "zero_candidate": false}
{"pdf_atom_id": "ig34_p0102_a013", "pdf_atom_type": "SENTENCE", "pdf_source": "SDTMIG_v3.4", "pdf_page": 102, "pdf_parent_section": "§6.1.2 [Concomitant/Prior Medications (CM)]", "pdf_verbatim": "This can be clearly shown using CMOCCUR.", "figure_ref": null, "candidates": [{"md_atom_id": "md_dmCM_ex_a033", "md_file": "knowledge_base/domains/CM/examples.md", "md_atom_type": "SENTENCE", "md_parent_section": "§CM.3 [Example 3]", "md_verbatim": "This can be clearly shown using CMOCCUR.", "score": 1.0, "match_basis": "verbatim_token+domain_route:CM"}, {"md_atom_id": "md_dmCM_ex_a035", "md_file": "knowledge_base/domains/CM/examples.md", "md_atom_type": "SENTENCE", "md_parent_section": "§CM.3 [Example 3]", "md_verbatim": "The value of CMOCCUR indicates the response to the prespecified medication question.", "score": 0.4566, "match_basis": "verbatim_token+domain_route:CM"}, {"md_atom_id": "md_dmCM_ex_a063", "md_file": "knowledge_base/domains/CM/examples.md", "md_atom_type": "SENTENCE", "md_parent_section": "§CM.5 [Example 5]", "md_verbatim": "This example shows data for 2 subjects who received prior RA medications.", "score": 0.4453, "match_basis": "verbatim_token+domain_route:CM"}, {"md_atom_id": "md_dmCM_ex_a036", "md_file": "knowledge_base/domains/CM/examples.md", "md_atom_type": "SENTENCE", "md_parent_section": "§CM.3 [Example 3]", "md_verbatim": "CMSTAT indicates whether the response was missing for a prespecified medication, and CMREASND shows the reason for missing response.", "score": 0.4348, "match_basis": "verbatim_token+domain_route:CM"}, {"md_atom_id": "md_dmCM_ex_a030", "md_file": "knowledge_base/domains/CM/examples.md", "md_atom_type": "SENTENCE", "md_parent_section": "§CM.3 [Example 3]", "md_verbatim": "Sponsors often are interested in whether subjects are exposed to specific concomitant medications, and collect this information using a checklist.", "score": 0.4319, "match_basis": "verbatim_token+domain_route:CM"}], "candidate_count": 5, "zero_candidate": false}
{"pdf_atom_id": "ig34_p0102_a014", "pdf_atom_type": "SENTENCE", "pdf_source": "SDTMIG_v3.4", "pdf_page": 102, "pdf_parent_section": "§6.1.2 [Concomitant/Prior Medications (CM)]", "pdf_verbatim": "In this example, CMPRESP shows that the subjects were specifically asked if they use any of 3 antidepressants (Zoloft, Prozac, and Paxil).", "figure_ref": null, "candidates": [{"md_atom_id": "md_dmCM_ex_a034", "md_file": "knowledge_base/domains/CM/examples.md", "md_atom_type": "SENTENCE", "md_parent_section": "§CM.3 [Example 3]", "md_verbatim": "In this example, CMPRESP shows that the subjects were specifically asked if they use any of 3 antidepressants (Zoloft, Prozac, and Paxil).", "score": 1.0, "match_basis": "verbatim_token+domain_route:CM"}, {"md_atom_id": "md_dmCM_ex_a031", "md_file": "knowledge_base/domains/CM/examples.md", "md_atom_type": "SENTENCE", "md_parent_section": "§CM.3 [Example 3]", "md_verbatim": "This example is for a study that had a particular interest in the antidepressant medications that subjects used.", "score": 0.6, "match_basis": "verbatim_token+domain_route:CM"}, {"md_atom_id": "md_dmCM_ex_a023", "md_file": "knowledge_base/domains/CM/examples.md", "md_atom_type": "SENTENCE", "md_parent_section": "§CM.2 [Example 2]", "md_verbatim": "In this example study, it was of particular interest whether subjects use any anticonvulsant medications.", "score": 0.5333, "match_basis": "verbatim_token+domain_route:CM"}, {"md_atom_id": "md_dmCM_ex_a069", "md_file": "knowledge_base/domains/CM/examples.md", "md_atom_type": "SENTENCE", "md_parent_section": "§CM.5 [Example 5]", "md_verbatim": "**Rows 5-6:** Show 2 prior DMARDS received by subject 102, one ending before the date of data collection, and the other ongoing at that time. These medications were not prespecified, so CMPRESP is null.", "score": 0.5261, "match_basis": "verbatim_token+domain_route:CM"}, {"md_atom_id": "md_dmCM_ex_a006", "md_file": "knowledge_base/domains/CM/examples.md", "md_atom_type": "SENTENCE", "md_parent_section": "§CM.1 [Example 1]", "md_verbatim": "The example below shows 3 subjects who took the same medication on the same day.", "score": 0.52, "match_basis": "verbatim_token+domain_route:CM"}], "candidate_count": 5, "zero_candidate": false}
{"pdf_atom_id": "ig34_p0102_a015", "pdf_atom_type": "SENTENCE", "pdf_source": "SDTMIG_v3.4", "pdf_page": 102, "pdf_parent_section": "§6.1.2 [Concomitant/Prior Medications (CM)]", "pdf_verbatim": "The value of CMOCCUR indicates the response to the prespecified medication question.", "figure_ref": null, "candidates": [{"md_atom_id": "md_dmCM_ex_a035", "md_file": "knowledge_base/domains/CM/examples.md", "md_atom_type": "SENTENCE", "md_parent_section": "§CM.3 [Example 3]", "md_verbatim": "The value of CMOCCUR indicates the response to the prespecified medication question.", "score": 1.0, "match_basis": "verbatim_token+domain_route:CM"}, {"md_atom_id": "md_dmCM_ex_a036", "md_file": "knowledge_base/domains/CM/examples.md", "md_atom_type": "SENTENCE", "md_parent_section": "§CM.3 [Example 3]", "md_verbatim": "CMSTAT indicates whether the response was missing for a prespecified medication, and CMREASND shows the reason for missing response.", "score": 0.6455, "match_basis": "verbatim_token+domain_route:CM"}, {"md_atom_id": "md_dmCM_ex_a065", "md_file": "knowledge_base/domains/CM/examples.md", "md_atom_type": "SENTENCE", "md_parent_section": "§CM.5 [Example 5]", "md_verbatim": "**Row 1:** Shows that subject 101 received prior RA medications. The values of CMTRT and CMCAT are the same, indicating that this record represents the response to a question about a category of medications, rather than an individual medication.", "score": 0.5576, "match_basis": "verbatim_token+domain_route:CM"}, {"md_atom_id": "md_dmCM_ex_a066", "md_file": "knowledge_base/domains/CM/examples.md", "md_atom_type": "SENTENCE", "md_parent_section": "§CM.5 [Example 5]", "md_verbatim": "**Row 2:** Shows that subject 101 did not receive prior DMARDs. The values in CMTRT and CMSCAT are the same, indicating that this record represents the response to a question about a group of medications, rather than an individual medication.", "score": 0.5442, "match_basis": "verbatim_token+domain_route:CM"}, {"md_atom_id": "md_dmCM_ex_a069", "md_file": "knowledge_base/domains/CM/examples.md", "md_atom_type": "SENTENCE", "md_parent_section": "§CM.5 [Example 5]", "md_verbatim": "**Rows 5-6:** Show 2 prior DMARDS received by subject 102, one ending before the date of data collection, and the other ongoing at that time. These medications were not prespecified, so CMPRESP is null.", "score": 0.5361, "match_basis": "verbatim_token+domain_route:CM"}], "candidate_count": 5, "zero_candidate": false}
{"pdf_atom_id": "ig34_p0102_a016", "pdf_atom_type": "SENTENCE", "pdf_source": "SDTMIG_v3.4", "pdf_page": 102, "pdf_parent_section": "§6.1.2 [Concomitant/Prior Medications (CM)]", "pdf_verbatim": "CMSTAT indicates whether the response was missing for a prespecified medication, and CMREASND shows the reason for missing response.", "figure_ref": null, "candidates": [{"md_atom_id": "md_dmCM_ex_a036", "md_file": "knowledge_base/domains/CM/examples.md", "md_atom_type": "SENTENCE", "md_parent_section": "§CM.3 [Example 3]", "md_verbatim": "CMSTAT indicates whether the response was missing for a prespecified medication, and CMREASND shows the reason for missing response.", "score": 1.0, "match_basis": "verbatim_token+domain_route:CM"}, {"md_atom_id": "md_dmCM_ex_a035", "md_file": "knowledge_base/domains/CM/examples.md", "md_atom_type": "SENTENCE", "md_parent_section": "§CM.3 [Example 3]", "md_verbatim": "The value of CMOCCUR indicates the response to the prespecified medication question.", "score": 0.6455, "match_basis": "verbatim_token+domain_route:CM"}, {"md_atom_id": "md_dmCM_ex_a069", "md_file": "knowledge_base/domains/CM/examples.md", "md_atom_type": "SENTENCE", "md_parent_section": "§CM.5 [Example 5]", "md_verbatim": "**Rows 5-6:** Show 2 prior DMARDS received by subject 102, one ending before the date of data collection, and the other ongoing at that time. These medications were not prespecified, so CMPRESP is null.", "score": 0.5657, "match_basis": "verbatim_token+domain_route:CM"}, {"md_atom_id": "md_dmCM_ex_a041", "md_file": "knowledge_base/domains/CM/examples.md", "md_atom_type": "SENTENCE", "md_parent_section": "§CM.3 [Example 3]", "md_verbatim": "The reason for the lack of a response was collected and is represented in CMREASND.", "score": 0.5652, "match_basis": "verbatim_token+domain_route:CM"}, {"md_atom_id": "md_dmCM_ex_a030", "md_file": "knowledge_base/domains/CM/examples.md", "md_atom_type": "SENTENCE", "md_parent_section": "§CM.3 [Example 3]", "md_verbatim": "Sponsors often are interested in whether subjects are exposed to specific concomitant medications, and collect this information using a checklist.", "score": 0.5444, "match_basis": "verbatim_token+domain_route:CM"}], "candidate_count": 5, "zero_candidate": false}
{"pdf_atom_id": "ig34_p0102_a017", "pdf_atom_type": "SENTENCE", "pdf_source": "SDTMIG_v3.4", "pdf_page": 102, "pdf_parent_section": "§6.1.2 [Concomitant/Prior Medications (CM)]", "pdf_verbatim": "The medication details (e.g., dose, frequency) were not of interest in this study.", "figure_ref": null, "candidates": [{"md_atom_id": "md_dmCM_ex_a037", "md_file": "knowledge_base/domains/CM/examples.md", "md_atom_type": "SENTENCE", "md_parent_section": "§CM.3 [Example 3]", "md_verbatim": "The medication details (e.g., dose, frequency) were not of interest in this study.", "score": 1.0, "match_basis": "verbatim_token+domain_route:CM"}, {"md_atom_id": "md_dmCM_ex_a024", "md_file": "knowledge_base/domains/CM/examples.md", "md_atom_type": "SENTENCE", "md_parent_section": "§CM.2 [Example 2]", "md_verbatim": "The medication history, dosing, and so on was not of interest; the study only asked for the anticonvulsants to which subjects were exposed.", "score": 0.5816, "match_basis": "verbatim_token+domain_route:CM"}, {"md_atom_id": "md_dmCM_ex_a031", "md_file": "knowledge_base/domains/CM/examples.md", "md_atom_type": "SENTENCE", "md_parent_section": "§CM.3 [Example 3]", "md_verbatim": "This example is for a study that had a particular interest in the antidepressant medications that subjects used.", "score": 0.5667, "match_basis": "verbatim_token+domain_route:CM"}, {"md_atom_id": "md_dmCM_ex_a023", "md_file": "knowledge_base/domains/CM/examples.md", "md_atom_type": "SENTENCE", "md_parent_section": "§CM.2 [Example 2]", "md_verbatim": "In this example study, it was of particular interest whether subjects use any anticonvulsant medications.", "score": 0.5644, "match_basis": "verbatim_token+domain_route:CM"}, {"md_atom_id": "md_dmCM_ex_a032", "md_file": "knowledge_base/domains/CM/examples.md", "md_atom_type": "SENTENCE", "md_parent_section": "§CM.3 [Example 3]", "md_verbatim": "For the study's purposes, absence is just as important as presence of a medication.", "score": 0.5579, "match_basis": "verbatim_token+domain_route:CM"}], "candidate_count": 5, "zero_candidate": false}
{"pdf_atom_id": "ig34_p0102_a018", "pdf_atom_type": "LIST_ITEM", "pdf_source": "SDTMIG_v3.4", "pdf_page": 102, "pdf_parent_section": "§6.1.2 [Concomitant/Prior Medications (CM)]", "pdf_verbatim": "Row 1: Medication use was solicited and the medication was taken.", "figure_ref": null, "candidates": [{"md_atom_id": "md_dmCM_ex_a038", "md_file": "knowledge_base/domains/CM/examples.md", "md_atom_type": "SENTENCE", "md_parent_section": "§CM.3 [Example 3]", "md_verbatim": "**Row 1:** Medication use was solicited and the medication was taken.", "score": 0.91, "match_basis": "verbatim_token+domain_route:CM"}, {"md_atom_id": "md_dmCM_ex_a039", "md_file": "knowledge_base/domains/CM/examples.md", "md_atom_type": "SENTENCE", "md_parent_section": "§CM.3 [Example 3]", "md_verbatim": "**Row 2:** Medication use was solicited and the medication was not taken.", "score": 0.885, "match_basis": "verbatim_token+domain_route:CM"}, {"md_atom_id": "md_dmCM_ex_a040", "md_file": "knowledge_base/domains/CM/examples.md", "md_atom_type": "SENTENCE", "md_parent_section": "§CM.3 [Example 3]", "md_verbatim": "**Row 3:** Medication use was solicited, but data were not collected.", "score": 0.6186, "match_basis": "verbatim_token+domain_route:CM"}, {"md_atom_id": "md_dmCM_assn_a004", "md_file": "knowledge_base/domains/CM/assumptions.md", "md_atom_type": "LIST_ITEM", "md_parent_section": "§CM [CM — Assumptions]", "md_verbatim": "3. Prespecified terms; presence or absence of concomitant medications\n   a. Information on concomitant medications is generally collected in 2 different ways, either by recording free text or using a prespecified list of terms. Because the solicitation of information on specific concomitant medications may affect the frequency at which they are reported, the fact that a specific medication was solicited may be of interest to reviewers. CMPRESP and CMOCCUR are used together to indicate the intervention in CMTRT was prespecified and whether it occurred, respectively.\n   b. CMOCCUR is used to indicate whether a prespecified medication was used. A value of \"Y\" indicates that the medication was used and \"N\" indicates that it was not.\n   c. If a medication was not prespecified, the value of CMOCCUR should be null. CMPRESP and CMOCCUR are permissible fields and may be omitted from the dataset if all medications were collected as free text. Values of CMOCCUR may also be null for prespecified medications if no Y/N response was collected; in such cases, CMSTAT = \"NOT DONE\", and CMREASND could be used to describe the reason the answer was missing.", "score": 0.4491, "match_basis": "verbatim_token+domain_route:CM"}, {"md_atom_id": "md_dmCM_assn_a005", "md_file": "knowledge_base/domains/CM/assumptions.md", "md_atom_type": "LIST_ITEM", "md_parent_section": "§CM [CM — Assumptions]", "md_verbatim": "4. Variables for timing relative to a time point\n   a. CMSTRTPT, CMSTTPT, CMENRTPT, and CMENTPT may be populated as necessary to indicate when a medication was used relative to specified time points. For example, assume a subject uses birth control medication. The subject has used the same medication for many years and continues to do so. The date the subject began using the medication (or at least a partial date) would be stored in CMSTDTC. CMENDTC is null because the end date is unknown/has not yet happened. This fact can be recorded by setting CMENTPT = \"2007-04-30\" (the date the assessment was made) and CMENRTPT = \"ONGOING\".", "score": 0.4413, "match_basis": "verbatim_token+domain_route:CM"}], "candidate_count": 5, "zero_candidate": false}
{"pdf_atom_id": "ig34_p0102_a019", "pdf_atom_type": "LIST_ITEM", "pdf_source": "SDTMIG_v3.4", "pdf_page": 102, "pdf_parent_section": "§6.1.2 [Concomitant/Prior Medications (CM)]", "pdf_verbatim": "Row 2: Medication use was solicited and the medication was not taken.", "figure_ref": null, "candidates": [{"md_atom_id": "md_dmCM_ex_a039", "md_file": "knowledge_base/domains/CM/examples.md", "md_atom_type": "SENTENCE", "md_parent_section": "§CM.3 [Example 3]", "md_verbatim": "**Row 2:** Medication use was solicited and the medication was not taken.", "score": 0.91, "match_basis": "verbatim_token+domain_route:CM"}, {"md_atom_id": "md_dmCM_ex_a038", "md_file": "knowledge_base/domains/CM/examples.md", "md_atom_type": "SENTENCE", "md_parent_section": "§CM.3 [Example 3]", "md_verbatim": "**Row 1:** Medication use was solicited and the medication was taken.", "score": 0.885, "match_basis": "verbatim_token+domain_route:CM"}, {"md_atom_id": "md_dmCM_ex_a040", "md_file": "knowledge_base/domains/CM/examples.md", "md_atom_type": "SENTENCE", "md_parent_section": "§CM.3 [Example 3]", "md_verbatim": "**Row 3:** Medication use was solicited, but data were not collected.", "score": 0.6357, "match_basis": "verbatim_token+domain_route:CM"}, {"md_atom_id": "md_dmCM_assn_a004", "md_file": "knowledge_base/domains/CM/assumptions.md", "md_atom_type": "LIST_ITEM", "md_parent_section": "§CM [CM — Assumptions]", "md_verbatim": "3. Prespecified terms; presence or absence of concomitant medications\n   a. Information on concomitant medications is generally collected in 2 different ways, either by recording free text or using a prespecified list of terms. Because the solicitation of information on specific concomitant medications may affect the frequency at which they are reported, the fact that a specific medication was solicited may be of interest to reviewers. CMPRESP and CMOCCUR are used together to indicate the intervention in CMTRT was prespecified and whether it occurred, respectively.\n   b. CMOCCUR is used to indicate whether a prespecified medication was used. A value of \"Y\" indicates that the medication was used and \"N\" indicates that it was not.\n   c. If a medication was not prespecified, the value of CMOCCUR should be null. CMPRESP and CMOCCUR are permissible fields and may be omitted from the dataset if all medications were collected as free text. Values of CMOCCUR may also be null for prespecified medications if no Y/N response was collected; in such cases, CMSTAT = \"NOT DONE\", and CMREASND could be used to describe the reason the answer was missing.", "score": 0.4517, "match_basis": "verbatim_token+domain_route:CM"}, {"md_atom_id": "md_dmCM_assn_a005", "md_file": "knowledge_base/domains/CM/assumptions.md", "md_atom_type": "LIST_ITEM", "md_parent_section": "§CM [CM — Assumptions]", "md_verbatim": "4. Variables for timing relative to a time point\n   a. CMSTRTPT, CMSTTPT, CMENRTPT, and CMENTPT may be populated as necessary to indicate when a medication was used relative to specified time points. For example, assume a subject uses birth control medication. The subject has used the same medication for many years and continues to do so. The date the subject began using the medication (or at least a partial date) would be stored in CMSTDTC. CMENDTC is null because the end date is unknown/has not yet happened. This fact can be recorded by setting CMENTPT = \"2007-04-30\" (the date the assessment was made) and CMENRTPT = \"ONGOING\".", "score": 0.4444, "match_basis": "verbatim_token+domain_route:CM"}], "candidate_count": 5, "zero_candidate": false}
{"pdf_atom_id": "ig34_p0102_a020", "pdf_atom_type": "LIST_ITEM", "pdf_source": "SDTMIG_v3.4", "pdf_page": 102, "pdf_parent_section": "§6.1.2 [Concomitant/Prior Medications (CM)]", "pdf_verbatim": "Row 3: Medication use was solicited, but data were not collected. The reason for the lack of a response was collected and is represented in CMREASND.", "figure_ref": null, "candidates": [{"md_atom_id": "md_dmCM_ex_a041", "md_file": "knowledge_base/domains/CM/examples.md", "md_atom_type": "SENTENCE", "md_parent_section": "§CM.3 [Example 3]", "md_verbatim": "The reason for the lack of a response was collected and is represented in CMREASND.", "score": 0.6743, "match_basis": "verbatim_token+domain_route:CM"}, {"md_atom_id": "md_dmCM_ex_a040", "md_file": "knowledge_base/domains/CM/examples.md", "md_atom_type": "SENTENCE", "md_parent_section": "§CM.3 [Example 3]", "md_verbatim": "**Row 3:** Medication use was solicited, but data were not collected.", "score": 0.6314, "match_basis": "verbatim_token+domain_route:CM"}, {"md_atom_id": "md_dmCM_assn_a004", "md_file": "knowledge_base/domains/CM/assumptions.md", "md_atom_type": "LIST_ITEM", "md_parent_section": "§CM [CM — Assumptions]", "md_verbatim": "3. Prespecified terms; presence or absence of concomitant medications\n   a. Information on concomitant medications is generally collected in 2 different ways, either by recording free text or using a prespecified list of terms. Because the solicitation of information on specific concomitant medications may affect the frequency at which they are reported, the fact that a specific medication was solicited may be of interest to reviewers. CMPRESP and CMOCCUR are used together to indicate the intervention in CMTRT was prespecified and whether it occurred, respectively.\n   b. CMOCCUR is used to indicate whether a prespecified medication was used. A value of \"Y\" indicates that the medication was used and \"N\" indicates that it was not.\n   c. If a medication was not prespecified, the value of CMOCCUR should be null. CMPRESP and CMOCCUR are permissible fields and may be omitted from the dataset if all medications were collected as free text. Values of CMOCCUR may also be null for prespecified medications if no Y/N response was collected; in such cases, CMSTAT = \"NOT DONE\", and CMREASND could be used to describe the reason the answer was missing.", "score": 0.5313, "match_basis": "verbatim_token+domain_route:CM"}, {"md_atom_id": "md_dmCM_ex_a039", "md_file": "knowledge_base/domains/CM/examples.md", "md_atom_type": "SENTENCE", "md_parent_section": "§CM.3 [Example 3]", "md_verbatim": "**Row 2:** Medication use was solicited and the medication was not taken.", "score": 0.5236, "match_basis": "verbatim_token+domain_route:CM"}, {"md_atom_id": "md_dmCM_ex_a038", "md_file": "knowledge_base/domains/CM/examples.md", "md_atom_type": "SENTENCE", "md_parent_section": "§CM.3 [Example 3]", "md_verbatim": "**Row 1:** Medication use was solicited and the medication was taken.", "score": 0.5134, "match_basis": "verbatim_token+domain_route:CM"}], "candidate_count": 5, "zero_candidate": false}
{"pdf_atom_id": "ig34_p0102_a021", "pdf_atom_type": "TABLE_HEADER", "pdf_source": "SDTMIG_v3.4", "pdf_page": 102, "pdf_parent_section": "§6.1.2 [Concomitant/Prior Medications (CM)]", "pdf_verbatim": "Row | STUDYID | DOMAIN | USUBJID | CMSEQ | CMTRT | CMPRESP | CMOCCUR | CMSTAT | CMREASND", "figure_ref": null, "candidates": [{"md_atom_id": "md_dmCM_ex_a043", "md_file": "knowledge_base/domains/CM/examples.md", "md_atom_type": "TABLE_HEADER", "md_parent_section": "§CM.3 [Example 3]", "md_verbatim": "| Row | STUDYID | DOMAIN | USUBJID | CMSEQ | CMTRT | CMPRESP | CMOCCUR | CMSTAT | CMREASND |\n|-----|---------|--------|---------|-------|-------|---------|---------|--------|----------|", "score": 1.0, "match_basis": "verbatim_token+domain_route:CM"}, {"md_atom_id": "md_dmCM_ex_a071", "md_file": "knowledge_base/domains/CM/examples.md", "md_atom_type": "TABLE_HEADER", "md_parent_section": "§CM.5 [Example 5]", "md_verbatim": "| Row | STUDYID | DOMAIN | USUBJID | CMSEQ | CMTRT | CMCAT | CMSCAT | CMPRESP | CMOCCUR | CMINDC | CMDTC | CMDY | CMENRTPT | CMENTPT |\n|-----|---------|--------|---------|-------|-------|-------|--------|---------|---------|--------|-------|------|----------|---------|", "score": 0.7049, "match_basis": "verbatim_token+domain_route:CM"}, {"md_atom_id": "md_dmCM_ex_a026", "md_file": "knowledge_base/domains/CM/examples.md", "md_atom_type": "TABLE_HEADER", "md_parent_section": "§CM.2 [Example 2]", "md_verbatim": "| Row | STUDYID | DOMAIN | USUBJID | CMSEQ | CMTRT | CMCAT |\n|-----|---------|--------|---------|-------|-------|-------|", "score": 0.693, "match_basis": "verbatim_token+domain_route:CM"}, {"md_atom_id": "md_dmCM_ex_a011", "md_file": "knowledge_base/domains/CM/examples.md", "md_atom_type": "TABLE_HEADER", "md_parent_section": "§CM.1 [Example 1]", "md_verbatim": "| Row | STUDYID | DOMAIN | USUBJID | CMSEQ | CMTRT | CMDOSE | CMDOSU | CMDOSFRQ | CMSTDTC | CMENDTC |\n|-----|---------|--------|---------|-------|-------|--------|--------|----------|---------|---------|", "score": 0.64, "match_basis": "verbatim_token+domain_route:CM"}, {"md_atom_id": "md_dmCM_ex_a053", "md_file": "knowledge_base/domains/CM/examples.md", "md_atom_type": "TABLE_HEADER", "md_parent_section": "§CM.4 [Example 4]", "md_verbatim": "| Row | STUDYID | DOMAIN | USUBJID | CMSEQ | CMGRPID | CMTRT | CMCAT | CMDOSFRM | CMROUTE | CMRSDISC |\n|-----|---------|--------|---------|-------|---------|-------|-------|----------|---------|----------|", "score": 0.6095, "match_basis": "verbatim_token+domain_route:CM"}], "candidate_count": 5, "zero_candidate": false}
{"pdf_atom_id": "ig34_p0102_a022", "pdf_atom_type": "TABLE_ROW", "pdf_source": "SDTMIG_v3.4", "pdf_page": 102, "pdf_parent_section": "§6.1.2 [Concomitant/Prior Medications (CM)]", "pdf_verbatim": "1 | ABC123 | CM | 1 | 1 | ZOLOFT | Y | Y | | |", "figure_ref": null, "candidates": [{"md_atom_id": "md_dmCM_ex_a044", "md_file": "knowledge_base/domains/CM/examples.md", "md_atom_type": "TABLE_ROW", "md_parent_section": "§CM.3 [Example 3]", "md_verbatim": "| 1 | ABC123 | CM | 1 | 1 | ZOLOFT | Y | Y | | |", "score": 1.0, "match_basis": "verbatim_token+domain_route:CM"}, {"md_atom_id": "md_dmCM_ex_a045", "md_file": "knowledge_base/domains/CM/examples.md", "md_atom_type": "TABLE_ROW", "md_parent_section": "§CM.3 [Example 3]", "md_verbatim": "| 2 | ABC123 | CM | 1 | 2 | PROZAC | Y | N | | |", "score": 0.6, "match_basis": "verbatim_token+domain_route:CM"}, {"md_atom_id": "md_dmCM_ex_a028", "md_file": "knowledge_base/domains/CM/examples.md", "md_atom_type": "TABLE_ROW", "md_parent_section": "§CM.2 [Example 2]", "md_verbatim": "| 2 | ABC123 | CM | 1 | 2 | VPA | ANTI-CONVULSANT |", "score": 0.5333, "match_basis": "verbatim_token+domain_route:CM"}, {"md_atom_id": "md_dmCM_ex_a027", "md_file": "knowledge_base/domains/CM/examples.md", "md_atom_type": "TABLE_ROW", "md_parent_section": "§CM.2 [Example 2]", "md_verbatim": "| 1 | ABC123 | CM | 1 | 1 | LITHIUM | ANTI-CONVULSANT |", "score": 0.5091, "match_basis": "verbatim_token+domain_route:CM"}, {"md_atom_id": "md_dmCM_ex_a046", "md_file": "knowledge_base/domains/CM/examples.md", "md_atom_type": "TABLE_ROW", "md_parent_section": "§CM.3 [Example 3]", "md_verbatim": "| 3 | ABC123 | CM | 1 | 3 | PAXIL | Y | | NOT DONE | Didn't ask due to interruption |", "score": 0.4857, "match_basis": "verbatim_token+domain_route:CM"}], "candidate_count": 5, "zero_candidate": false}
{"pdf_atom_id": "ig34_p0102_a023", "pdf_atom_type": "TABLE_ROW", "pdf_source": "SDTMIG_v3.4", "pdf_page": 102, "pdf_parent_section": "§6.1.2 [Concomitant/Prior Medications (CM)]", "pdf_verbatim": "2 | ABC123 | CM | 1 | 2 | PROZAC | Y | N | | |", "figure_ref": null, "candidates": [{"md_atom_id": "md_dmCM_ex_a045", "md_file": "knowledge_base/domains/CM/examples.md", "md_atom_type": "TABLE_ROW", "md_parent_section": "§CM.3 [Example 3]", "md_verbatim": "| 2 | ABC123 | CM | 1 | 2 | PROZAC | Y | N | | |", "score": 1.0, "match_basis": "verbatim_token+domain_route:CM"}, {"md_atom_id": "md_dmCM_ex_a044", "md_file": "knowledge_base/domains/CM/examples.md", "md_atom_type": "TABLE_ROW", "md_parent_section": "§CM.3 [Example 3]", "md_verbatim": "| 1 | ABC123 | CM | 1 | 1 | ZOLOFT | Y | Y | | |", "score": 0.6, "match_basis": "verbatim_token+domain_route:CM"}, {"md_atom_id": "md_dmCM_ex_a028", "md_file": "knowledge_base/domains/CM/examples.md", "md_atom_type": "TABLE_ROW", "md_parent_section": "§CM.2 [Example 2]", "md_verbatim": "| 2 | ABC123 | CM | 1 | 2 | VPA | ANTI-CONVULSANT |", "score": 0.5333, "match_basis": "verbatim_token+domain_route:CM"}, {"md_atom_id": "md_dmCM_ex_a027", "md_file": "knowledge_base/domains/CM/examples.md", "md_atom_type": "TABLE_ROW", "md_parent_section": "§CM.2 [Example 2]", "md_verbatim": "| 1 | ABC123 | CM | 1 | 1 | LITHIUM | ANTI-CONVULSANT |", "score": 0.5091, "match_basis": "verbatim_token+domain_route:CM"}, {"md_atom_id": "md_dmCM_ex_a046", "md_file": "knowledge_base/domains/CM/examples.md", "md_atom_type": "TABLE_ROW", "md_parent_section": "§CM.3 [Example 3]", "md_verbatim": "| 3 | ABC123 | CM | 1 | 3 | PAXIL | Y | | NOT DONE | Didn't ask due to interruption |", "score": 0.4857, "match_basis": "verbatim_token+domain_route:CM"}], "candidate_count": 5, "zero_candidate": false}
{"pdf_atom_id": "ig34_p0102_a024", "pdf_atom_type": "TABLE_ROW", "pdf_source": "SDTMIG_v3.4", "pdf_page": 102, "pdf_parent_section": "§6.1.2 [Concomitant/Prior Medications (CM)]", "pdf_verbatim": "3 | ABC123 | CM | 1 | 3 | PAXIL | Y | | NOT DONE | Didn't ask due to interruption", "figure_ref": null, "candidates": [{"md_atom_id": "md_dmCM_ex_a046", "md_file": "knowledge_base/domains/CM/examples.md", "md_atom_type": "TABLE_ROW", "md_parent_section": "§CM.3 [Example 3]", "md_verbatim": "| 3 | ABC123 | CM | 1 | 3 | PAXIL | Y | | NOT DONE | Didn't ask due to interruption |", "score": 1.0, "match_basis": "verbatim_token+domain_route:CM"}, {"md_atom_id": "md_dmCM_ex_a044", "md_file": "knowledge_base/domains/CM/examples.md", "md_atom_type": "TABLE_ROW", "md_parent_section": "§CM.3 [Example 3]", "md_verbatim": "| 1 | ABC123 | CM | 1 | 1 | ZOLOFT | Y | Y | | |", "score": 0.4857, "match_basis": "verbatim_token+domain_route:CM"}, {"md_atom_id": "md_dmCM_ex_a045", "md_file": "knowledge_base/domains/CM/examples.md", "md_atom_type": "TABLE_ROW", "md_parent_section": "§CM.3 [Example 3]", "md_verbatim": "| 2 | ABC123 | CM | 1 | 2 | PROZAC | Y | N | | |", "score": 0.4857, "match_basis": "verbatim_token+domain_route:CM"}, {"md_atom_id": "md_dmCM_ex_a028", "md_file": "knowledge_base/domains/CM/examples.md", "md_atom_type": "TABLE_ROW", "md_parent_section": "§CM.2 [Example 2]", "md_verbatim": "| 2 | ABC123 | CM | 1 | 2 | VPA | ANTI-CONVULSANT |", "score": 0.4706, "match_basis": "verbatim_token+domain_route:CM"}, {"md_atom_id": "md_dmCM_ex_a072", "md_file": "knowledge_base/domains/CM/examples.md", "md_atom_type": "TABLE_ROW", "md_parent_section": "§CM.5 [Example 5]", "md_verbatim": "| 1 | ABC123 | CM | 101 | 1 | PRIOR RA MEDICATIONS | PRIOR RA MEDICATIONS | | Y | Y | RHEUMATOID ARTHRITIS | 2020-02-02 | -1 | | |", "score": 0.4692, "match_basis": "verbatim_token+domain_route:CM"}], "candidate_count": 5, "zero_candidate": false}
{"pdf_atom_id": "ig34_p0102_a025", "pdf_atom_type": "HEADING", "pdf_source": "SDTMIG_v3.4", "pdf_page": 102, "pdf_parent_section": "§6.1.2 [Concomitant/Prior Medications (CM)]", "pdf_verbatim": "Example 4", "figure_ref": null, "candidates": [{"md_atom_id": "md_dmCM_ex_a002", "md_file": "knowledge_base/domains/CM/examples.md", "md_atom_type": "HEADING", "md_parent_section": "§CM.1 [Example 1]", "md_verbatim": "## Example 1", "score": 1.0, "match_basis": "verbatim_token+domain_route:CM"}, {"md_atom_id": "md_dmCM_ex_a022", "md_file": "knowledge_base/domains/CM/examples.md", "md_atom_type": "HEADING", "md_parent_section": "§CM.2 [Example 2]", "md_verbatim": "## Example 2", "score": 1.0, "match_basis": "verbatim_token+domain_route:CM"}, {"md_atom_id": "md_dmCM_ex_a029", "md_file": "knowledge_base/domains/CM/examples.md", "md_atom_type": "HEADING", "md_parent_section": "§CM.3 [Example 3]", "md_verbatim": "## Example 3", "score": 1.0, "match_basis": "verbatim_token+domain_route:CM"}, {"md_atom_id": "md_dmCM_ex_a047", "md_file": "knowledge_base/domains/CM/examples.md", "md_atom_type": "HEADING", "md_parent_section": "§CM.4 [Example 4]", "md_verbatim": "## Example 4", "score": 1.0, "match_basis": "verbatim_token+domain_route:CM"}, {"md_atom_id": "md_dmCM_ex_a060", "md_file": "knowledge_base/domains/CM/examples.md", "md_atom_type": "HEADING", "md_parent_section": "§CM.5 [Example 5]", "md_verbatim": "## Example 5", "score": 1.0, "match_basis": "verbatim_token+domain_route:CM"}, {"md_atom_id": "md_dmCM_ex_a001", "md_file": "knowledge_base/domains/CM/examples.md", "md_atom_type": "HEADING", "md_parent_section": "§CM [CM — Examples]", "md_verbatim": "# CM — Examples", "score": 0.9, "match_basis": "verbatim_token+domain_route:CM"}, {"md_atom_id": "md_dmCM_assn_a001", "md_file": "knowledge_base/domains/CM/assumptions.md", "md_atom_type": "HEADING", "md_parent_section": "§CM [CM — Assumptions]", "md_verbatim": "# CM — Assumptions", "score": 0.4, "match_basis": "verbatim_token+domain_route:CM"}], "candidate_count": 7, "zero_candidate": false}
{"pdf_atom_id": "ig34_p0102_a026", "pdf_atom_type": "SENTENCE", "pdf_source": "SDTMIG_v3.4", "pdf_page": 102, "pdf_parent_section": "§6.1.2 [Concomitant/Prior Medications (CM)]", "pdf_verbatim": "In this hepatitis C study, collection of data on prior treatments included reason for discontinuation.", "figure_ref": null, "candidates": [{"md_atom_id": "md_dmCM_ex_a048", "md_file": "knowledge_base/domains/CM/examples.md", "md_atom_type": "SENTENCE", "md_parent_section": "§CM.4 [Example 4]", "md_verbatim": "In this hepatitis C study, collection of data on prior treatments included reason for discontinuation.", "score": 1.0, "match_basis": "verbatim_token+domain_route:CM"}, {"md_atom_id": "md_dmCM_ex_a064", "md_file": "knowledge_base/domains/CM/examples.md", "md_atom_type": "SENTENCE", "md_parent_section": "§CM.5 [Example 5]", "md_verbatim": "It includes data only about their prior disease-modifying antirheumatic drugs (DMARDs); information about other kinds of prior RA medications is not included.", "score": 0.5038, "match_basis": "verbatim_token+domain_route:CM"}, {"md_atom_id": "md_dmCM_ex_a061", "md_file": "knowledge_base/domains/CM/examples.md", "md_atom_type": "SENTENCE", "md_parent_section": "§CM.5 [Example 5]", "md_verbatim": "In this rheumatoid arthritis (RA) study, the sponsor collected medications using the category \"Prior RA Medications\", then collected information on whether the subject had received certain medication classes, represented as subcategories.", "score": 0.493, "match_basis": "verbatim_token+domain_route:CM"}, {"md_atom_id": "md_dmCM_ex_a063", "md_file": "knowledge_base/domains/CM/examples.md", "md_atom_type": "SENTENCE", "md_parent_section": "§CM.5 [Example 5]", "md_verbatim": "This example shows data for 2 subjects who received prior RA medications.", "score": 0.4911, "match_basis": "verbatim_token+domain_route:CM"}, {"md_atom_id": "md_dmCM_ex_a041", "md_file": "knowledge_base/domains/CM/examples.md", "md_atom_type": "SENTENCE", "md_parent_section": "§CM.3 [Example 3]", "md_verbatim": "The reason for the lack of a response was collected and is represented in CMREASND.", "score": 0.4868, "match_basis": "verbatim_token+domain_route:CM"}], "candidate_count": 5, "zero_candidate": false}
{"pdf_atom_id": "ig34_p0102_a027", "pdf_atom_type": "SENTENCE", "pdf_source": "SDTMIG_v3.4", "pdf_page": 102, "pdf_parent_section": "§6.1.2 [Concomitant/Prior Medications (CM)]", "pdf_verbatim": "Because hepatitis C is usually treated with a combinations of medications, CMGRPID was used to group records into regimens.", "figure_ref": null, "candidates": [{"md_atom_id": "md_dmCM_ex_a049", "md_file": "knowledge_base/domains/CM/examples.md", "md_atom_type": "SENTENCE", "md_parent_section": "§CM.4 [Example 4]", "md_verbatim": "Because hepatitis C is usually treated with a combinations of medications, CMGRPID was used to group records into regimens.", "score": 1.0, "match_basis": "verbatim_token+domain_route:CM"}, {"md_atom_id": "md_dmCM_ex_a050", "md_file": "knowledge_base/domains/CM/examples.md", "md_atom_type": "SENTENCE", "md_parent_section": "§CM.4 [Example 4]", "md_verbatim": "**Rows 1-3:** This subject's treatment consisted of the 3 medications grouped by means of CMGRPID = \"1\". The subject completed the scheduled treatment.", "score": 0.5437, "match_basis": "verbatim_token+domain_route:CM"}, {"md_atom_id": "md_dmCM_ex_a051", "md_file": "knowledge_base/domains/CM/examples.md", "md_atom_type": "SENTENCE", "md_parent_section": "§CM.4 [Example 4]", "md_verbatim": "**Rows 4-6:** Another subject received the same set of 3 medications. The medications for this subject are also grouped using CMGRPID = \"1\". Note, however, that the fact that the same CMGRPID value has been used for the same set of medications for subjects \"ABC123-765\" and \"ABC123-899\" is coincidence; CMGRPID groups records only within a subject. This subject stopped the regimen due to side effects.", "score": 0.5348, "match_basis": "verbatim_token+domain_route:CM"}, {"md_atom_id": "md_dmCM_ex_a038", "md_file": "knowledge_base/domains/CM/examples.md", "md_atom_type": "SENTENCE", "md_parent_section": "§CM.3 [Example 3]", "md_verbatim": "**Row 1:** Medication use was solicited and the medication was taken.", "score": 0.4904, "match_basis": "verbatim_token+domain_route:CM"}, {"md_atom_id": "md_dmCM_ex_a039", "md_file": "knowledge_base/domains/CM/examples.md", "md_atom_type": "SENTENCE", "md_parent_section": "§CM.3 [Example 3]", "md_verbatim": "**Row 2:** Medication use was solicited and the medication was not taken.", "score": 0.4892, "match_basis": "verbatim_token+domain_route:CM"}], "candidate_count": 5, "zero_candidate": false}
{"pdf_atom_id": "ig34_p0102_a028", "pdf_atom_type": "LIST_ITEM", "pdf_source": "SDTMIG_v3.4", "pdf_page": 102, "pdf_parent_section": "§6.1.2 [Concomitant/Prior Medications (CM)]", "pdf_verbatim": "Rows 1-3: This subject's treatment consisted of the 3 medications grouped by means of CMGRPID = \"1\". The subject completed the scheduled treatment.", "figure_ref": null, "candidates": [{"md_atom_id": "md_dmCM_ex_a050", "md_file": "knowledge_base/domains/CM/examples.md", "md_atom_type": "SENTENCE", "md_parent_section": "§CM.4 [Example 4]", "md_verbatim": "**Rows 1-3:** This subject's treatment consisted of the 3 medications grouped by means of CMGRPID = \"1\". The subject completed the scheduled treatment.", "score": 0.91, "match_basis": "verbatim_token+domain_route:CM"}, {"md_atom_id": "md_dmCM_assn_a002", "md_file": "knowledge_base/domains/CM/assumptions.md", "md_atom_type": "LIST_ITEM", "md_parent_section": "§CM [CM — Assumptions]", "md_verbatim": "1. The structure of the CM domain is 1 record per medication intervention episode, constant-dosing interval, or prespecified medication assessment per subject. It is the sponsor's responsibility to define an intervention episode. This definition may vary based on the sponsor's requirements for review and analysis. The submission dataset structure may differ from the structure used for collection. One common approach is to submit a new record when there is a change in the dosing regimen. Another approach is to collapse all records for a medication to a summary level with either a dose range or the highest dose level. Other approaches may also be reasonable as long as they meet the sponsor's evaluation requirements.", "score": 0.4615, "match_basis": "verbatim_token+domain_route:CM"}, {"md_atom_id": "md_dmCM_assn_a005", "md_file": "knowledge_base/domains/CM/assumptions.md", "md_atom_type": "LIST_ITEM", "md_parent_section": "§CM [CM — Assumptions]", "md_verbatim": "4. Variables for timing relative to a time point\n   a. CMSTRTPT, CMSTTPT, CMENRTPT, and CMENTPT may be populated as necessary to indicate when a medication was used relative to specified time points. For example, assume a subject uses birth control medication. The subject has used the same medication for many years and continues to do so. The date the subject began using the medication (or at least a partial date) would be stored in CMSTDTC. CMENDTC is null because the end date is unknown/has not yet happened. This fact can be recorded by setting CMENTPT = \"2007-04-30\" (the date the assessment was made) and CMENRTPT = \"ONGOING\".", "score": 0.4614, "match_basis": "verbatim_token+domain_route:CM"}, {"md_atom_id": "md_dmCM_ex_a063", "md_file": "knowledge_base/domains/CM/examples.md", "md_atom_type": "SENTENCE", "md_parent_section": "§CM.5 [Example 5]", "md_verbatim": "This example shows data for 2 subjects who received prior RA medications.", "score": 0.4581, "match_basis": "verbatim_token+domain_route:CM"}, {"md_atom_id": "md_dmCM_ex_a049", "md_file": "knowledge_base/domains/CM/examples.md", "md_atom_type": "SENTENCE", "md_parent_section": "§CM.4 [Example 4]", "md_verbatim": "Because hepatitis C is usually treated with a combinations of medications, CMGRPID was used to group records into regimens.", "score": 0.4537, "match_basis": "verbatim_token+domain_route:CM"}], "candidate_count": 5, "zero_candidate": false}
{"pdf_atom_id": "ig34_p0102_a029", "pdf_atom_type": "LIST_ITEM", "pdf_source": "SDTMIG_v3.4", "pdf_page": 102, "pdf_parent_section": "§6.1.2 [Concomitant/Prior Medications (CM)]", "pdf_verbatim": "Rows 4-6: Another subject received the same set of 3 medications. For this subject, as also shown using CMGRPID = \"1\", Note, however, that the fact that the same CMGRPID value has been used for the same set of medications for subjects \"ABC123-765\" and \"ABC123-899\" is coincidence; CMGRPID groups records only within a subject. This subject stopped the regimen due to side effects.", "figure_ref": null, "candidates": [{"md_atom_id": "md_dmCM_ex_a051", "md_file": "knowledge_base/domains/CM/examples.md", "md_atom_type": "SENTENCE", "md_parent_section": "§CM.4 [Example 4]", "md_verbatim": "**Rows 4-6:** Another subject received the same set of 3 medications. The medications for this subject are also grouped using CMGRPID = \"1\". Note, however, that the fact that the same CMGRPID value has been used for the same set of medications for subjects \"ABC123-765\" and \"ABC123-899\" is coincidence; CMGRPID groups records only within a subject. This subject stopped the regimen due to side effects.", "score": 0.8882, "match_basis": "verbatim_token+domain_route:CM"}, {"md_atom_id": "md_dmCM_assn_a005", "md_file": "knowledge_base/domains/CM/assumptions.md", "md_atom_type": "LIST_ITEM", "md_parent_section": "§CM [CM — Assumptions]", "md_verbatim": "4. Variables for timing relative to a time point\n   a. CMSTRTPT, CMSTTPT, CMENRTPT, and CMENTPT may be populated as necessary to indicate when a medication was used relative to specified time points. For example, assume a subject uses birth control medication. The subject has used the same medication for many years and continues to do so. The date the subject began using the medication (or at least a partial date) would be stored in CMSTDTC. CMENDTC is null because the end date is unknown/has not yet happened. This fact can be recorded by setting CMENTPT = \"2007-04-30\" (the date the assessment was made) and CMENRTPT = \"ONGOING\".", "score": 0.5029, "match_basis": "verbatim_token+domain_route:CM"}, {"md_atom_id": "md_dmCM_assn_a002", "md_file": "knowledge_base/domains/CM/assumptions.md", "md_atom_type": "LIST_ITEM", "md_parent_section": "§CM [CM — Assumptions]", "md_verbatim": "1. The structure of the CM domain is 1 record per medication intervention episode, constant-dosing interval, or prespecified medication assessment per subject. It is the sponsor's responsibility to define an intervention episode. This definition may vary based on the sponsor's requirements for review and analysis. The submission dataset structure may differ from the structure used for collection. One common approach is to submit a new record when there is a change in the dosing regimen. Another approach is to collapse all records for a medication to a summary level with either a dose range or the highest dose level. Other approaches may also be reasonable as long as they meet the sponsor's evaluation requirements.", "score": 0.5011, "match_basis": "verbatim_token+domain_route:CM"}, {"md_atom_id": "md_dmCM_assn_a004", "md_file": "knowledge_base/domains/CM/assumptions.md", "md_atom_type": "LIST_ITEM", "md_parent_section": "§CM [CM — Assumptions]", "md_verbatim": "3. Prespecified terms; presence or absence of concomitant medications\n   a. Information on concomitant medications is generally collected in 2 different ways, either by recording free text or using a prespecified list of terms. Because the solicitation of information on specific concomitant medications may affect the frequency at which they are reported, the fact that a specific medication was solicited may be of interest to reviewers. CMPRESP and CMOCCUR are used together to indicate the intervention in CMTRT was prespecified and whether it occurred, respectively.\n   b. CMOCCUR is used to indicate whether a prespecified medication was used. A value of \"Y\" indicates that the medication was used and \"N\" indicates that it was not.\n   c. If a medication was not prespecified, the value of CMOCCUR should be null. CMPRESP and CMOCCUR are permissible fields and may be omitted from the dataset if all medications were collected as free text. Values of CMOCCUR may also be null for prespecified medications if no Y/N response was collected; in such cases, CMSTAT = \"NOT DONE\", and CMREASND could be used to describe the reason the answer was missing.", "score": 0.4834, "match_basis": "verbatim_token+domain_route:CM"}, {"md_atom_id": "md_dmCM_ex_a066", "md_file": "knowledge_base/domains/CM/examples.md", "md_atom_type": "SENTENCE", "md_parent_section": "§CM.5 [Example 5]", "md_verbatim": "**Row 2:** Shows that subject 101 did not receive prior DMARDs. The values in CMTRT and CMSCAT are the same, indicating that this record represents the response to a question about a group of medications, rather than an individual medication.", "score": 0.4814, "match_basis": "verbatim_token+domain_route:CM"}], "candidate_count": 5, "zero_candidate": false}
{"pdf_atom_id": "ig34_p0102_a030", "pdf_atom_type": "TABLE_HEADER", "pdf_source": "SDTMIG_v3.4", "pdf_page": 102, "pdf_parent_section": "§6.1.2 [Concomitant/Prior Medications (CM)]", "pdf_verbatim": "Row | STUDYID | DOMAIN | USUBJID | CMSEQ | CMGRPID | CMTRT | CMCAT | CMDOSFRM | CMROUTE | CMRSDISC", "figure_ref": null, "candidates": [{"md_atom_id": "md_dmCM_ex_a053", "md_file": "knowledge_base/domains/CM/examples.md", "md_atom_type": "TABLE_HEADER", "md_parent_section": "§CM.4 [Example 4]", "md_verbatim": "| Row | STUDYID | DOMAIN | USUBJID | CMSEQ | CMGRPID | CMTRT | CMCAT | CMDOSFRM | CMROUTE | CMRSDISC |\n|-----|---------|--------|---------|-------|---------|-------|-------|----------|---------|----------|", "score": 1.0, "match_basis": "verbatim_token+domain_route:CM"}, {"md_atom_id": "md_dmCM_ex_a026", "md_file": "knowledge_base/domains/CM/examples.md", "md_atom_type": "TABLE_HEADER", "md_parent_section": "§CM.2 [Example 2]", "md_verbatim": "| Row | STUDYID | DOMAIN | USUBJID | CMSEQ | CMTRT | CMCAT |\n|-----|---------|--------|---------|-------|-------|-------|", "score": 0.72, "match_basis": "verbatim_token+domain_route:CM"}, {"md_atom_id": "md_dmCM_ex_a011", "md_file": "knowledge_base/domains/CM/examples.md", "md_atom_type": "TABLE_HEADER", "md_parent_section": "§CM.1 [Example 1]", "md_verbatim": "| Row | STUDYID | DOMAIN | USUBJID | CMSEQ | CMTRT | CMDOSE | CMDOSU | CMDOSFRQ | CMSTDTC | CMENDTC |\n|-----|---------|--------|---------|-------|-------|--------|--------|----------|---------|---------|", "score": 0.6786, "match_basis": "verbatim_token+domain_route:CM"}, {"md_atom_id": "md_dmCM_ex_a043", "md_file": "knowledge_base/domains/CM/examples.md", "md_atom_type": "TABLE_HEADER", "md_parent_section": "§CM.3 [Example 3]", "md_verbatim": "| Row | STUDYID | DOMAIN | USUBJID | CMSEQ | CMTRT | CMPRESP | CMOCCUR | CMSTAT | CMREASND |\n|-----|---------|--------|---------|-------|-------|---------|---------|--------|----------|", "score": 0.6095, "match_basis": "verbatim_token+domain_route:CM"}, {"md_atom_id": "md_dmCM_ex_a071", "md_file": "knowledge_base/domains/CM/examples.md", "md_atom_type": "TABLE_HEADER", "md_parent_section": "§CM.5 [Example 5]", "md_verbatim": "| Row | STUDYID | DOMAIN | USUBJID | CMSEQ | CMTRT | CMCAT | CMSCAT | CMPRESP | CMOCCUR | CMINDC | CMDTC | CMDY | CMENRTPT | CMENTPT |\n|-----|---------|--------|---------|-------|-------|-------|--------|---------|---------|--------|-------|------|----------|---------|", "score": 0.6083, "match_basis": "verbatim_token+domain_route:CM"}], "candidate_count": 5, "zero_candidate": false}
{"pdf_atom_id": "ig34_p0102_a031", "pdf_atom_type": "TABLE_ROW", "pdf_source": "SDTMIG_v3.4", "pdf_page": 102, "pdf_parent_section": "§6.1.2 [Concomitant/Prior Medications (CM)]", "pdf_verbatim": "1 | ABC123 | CM | ABC123-765 | 1 | 1 | PEGINTRON | HCV TREATMENT | INJECTION | SUBCUTANEOUS | COMPLETED SCHEDULED TREATMENT", "figure_ref": null, "candidates": [{"md_atom_id": "md_dmCM_ex_a054", "md_file": "knowledge_base/domains/CM/examples.md", "md_atom_type": "TABLE_ROW", "md_parent_section": "§CM.4 [Example 4]", "md_verbatim": "| 1 | ABC123 | CM | ABC123-765 | 1 | 1 | PEGINTRON | HCV TREATMENT | INJECTION | SUBCUTANEOUS | COMPLETED SCHEDULED TREATMENT |", "score": 1.0, "match_basis": "verbatim_token+domain_route:CM"}, {"md_atom_id": "md_dmCM_ex_a057", "md_file": "knowledge_base/domains/CM/examples.md", "md_atom_type": "TABLE_ROW", "md_parent_section": "§CM.4 [Example 4]", "md_verbatim": "| 4 | ABC123 | CM | ABC123-899 | 1 | 1 | PEGINTRON | HCV TREATMENT | INJECTION | SUBCUTANEOUS | TOXICITY/INTOLERANCE |", "score": 0.7273, "match_basis": "verbatim_token+domain_route:CM"}, {"md_atom_id": "md_dmCM_ex_a055", "md_file": "knowledge_base/domains/CM/examples.md", "md_atom_type": "TABLE_ROW", "md_parent_section": "§CM.4 [Example 4]", "md_verbatim": "| 2 | ABC123 | CM | ABC123-765 | 2 | 1 | RIBAVIRIN | HCV TREATMENT | TABLET | ORAL | COMPLETED SCHEDULED TREATMENT |", "score": 0.6571, "match_basis": "verbatim_token+domain_route:CM"}, {"md_atom_id": "md_dmCM_ex_a056", "md_file": "knowledge_base/domains/CM/examples.md", "md_atom_type": "TABLE_ROW", "md_parent_section": "§CM.4 [Example 4]", "md_verbatim": "| 3 | ABC123 | CM | ABC123-765 | 3 | 1 | BOCEPREVIR | HCV TREATMENT | TABLET | ORAL | COMPLETED SCHEDULED TREATMENT |", "score": 0.6531, "match_basis": "verbatim_token+domain_route:CM"}, {"md_atom_id": "md_dmCM_ex_a058", "md_file": "knowledge_base/domains/CM/examples.md", "md_atom_type": "TABLE_ROW", "md_parent_section": "§CM.4 [Example 4]", "md_verbatim": "| 5 | ABC123 | CM | ABC123-899 | 2 | 1 | RIBAVIRIN | HCV TREATMENT | TABLET | ORAL | TOXICITY/INTOLERANCE |", "score": 0.5077, "match_basis": "verbatim_token+domain_route:CM"}], "candidate_count": 5, "zero_candidate": false}
{"pdf_atom_id": "ig34_p0102_a032", "pdf_atom_type": "TABLE_ROW", "pdf_source": "SDTMIG_v3.4", "pdf_page": 102, "pdf_parent_section": "§6.1.2 [Concomitant/Prior Medications (CM)]", "pdf_verbatim": "2 | ABC123 | CM | ABC123-765 | 2 | 1 | RIBAVIRIN | HCV TREATMENT | TABLET | ORAL | COMPLETED SCHEDULED TREATMENT", "figure_ref": null, "candidates": [{"md_atom_id": "md_dmCM_ex_a055", "md_file": "knowledge_base/domains/CM/examples.md", "md_atom_type": "TABLE_ROW", "md_parent_section": "§CM.4 [Example 4]", "md_verbatim": "| 2 | ABC123 | CM | ABC123-765 | 2 | 1 | RIBAVIRIN | HCV TREATMENT | TABLET | ORAL | COMPLETED SCHEDULED TREATMENT |", "score": 1.0, "match_basis": "verbatim_token+domain_route:CM"}, {"md_atom_id": "md_dmCM_ex_a056", "md_file": "knowledge_base/domains/CM/examples.md", "md_atom_type": "TABLE_ROW", "md_parent_section": "§CM.4 [Example 4]", "md_verbatim": "| 3 | ABC123 | CM | ABC123-765 | 3 | 1 | BOCEPREVIR | HCV TREATMENT | TABLET | ORAL | COMPLETED SCHEDULED TREATMENT |", "score": 0.8304, "match_basis": "verbatim_token+domain_route:CM"}, {"md_atom_id": "md_dmCM_ex_a058", "md_file": "knowledge_base/domains/CM/examples.md", "md_atom_type": "TABLE_ROW", "md_parent_section": "§CM.4 [Example 4]", "md_verbatim": "| 5 | ABC123 | CM | ABC123-899 | 2 | 1 | RIBAVIRIN | HCV TREATMENT | TABLET | ORAL | TOXICITY/INTOLERANCE |", "score": 0.6727, "match_basis": "verbatim_token+domain_route:CM"}, {"md_atom_id": "md_dmCM_ex_a054", "md_file": "knowledge_base/domains/CM/examples.md", "md_atom_type": "TABLE_ROW", "md_parent_section": "§CM.4 [Example 4]", "md_verbatim": "| 1 | ABC123 | CM | ABC123-765 | 1 | 1 | PEGINTRON | HCV TREATMENT | INJECTION | SUBCUTANEOUS | COMPLETED SCHEDULED TREATMENT |", "score": 0.6571, "match_basis": "verbatim_token+domain_route:CM"}, {"md_atom_id": "md_dmCM_ex_a059", "md_file": "knowledge_base/domains/CM/examples.md", "md_atom_type": "TABLE_ROW", "md_parent_section": "§CM.4 [Example 4]", "md_verbatim": "| 6 | ABC123 | CM | ABC123-899 | 3 | 1 | BOCEPREVIR | HCV TREATMENT | TABLET | ORAL | TOXICITY/INTOLERANCE |", "score": 0.5839, "match_basis": "verbatim_token+domain_route:CM"}], "candidate_count": 5, "zero_candidate": false}
{"pdf_atom_id": "ig34_p0102_a033", "pdf_atom_type": "TABLE_ROW", "pdf_source": "SDTMIG_v3.4", "pdf_page": 102, "pdf_parent_section": "§6.1.2 [Concomitant/Prior Medications (CM)]", "pdf_verbatim": "3 | ABC123 | CM | ABC123-765 | 3 | 1 | BOCEPREVIR | HCV TREATMENT | TABLET | ORAL | COMPLETED SCHEDULED TREATMENT", "figure_ref": null, "candidates": [{"md_atom_id": "md_dmCM_ex_a056", "md_file": "knowledge_base/domains/CM/examples.md", "md_atom_type": "TABLE_ROW", "md_parent_section": "§CM.4 [Example 4]", "md_verbatim": "| 3 | ABC123 | CM | ABC123-765 | 3 | 1 | BOCEPREVIR | HCV TREATMENT | TABLET | ORAL | COMPLETED SCHEDULED TREATMENT |", "score": 1.0, "match_basis": "verbatim_token+domain_route:CM"}, {"md_atom_id": "md_dmCM_ex_a055", "md_file": "knowledge_base/domains/CM/examples.md", "md_atom_type": "TABLE_ROW", "md_parent_section": "§CM.4 [Example 4]", "md_verbatim": "| 2 | ABC123 | CM | ABC123-765 | 2 | 1 | RIBAVIRIN | HCV TREATMENT | TABLET | ORAL | COMPLETED SCHEDULED TREATMENT |", "score": 0.8304, "match_basis": "verbatim_token+domain_route:CM"}, {"md_atom_id": "md_dmCM_ex_a059", "md_file": "knowledge_base/domains/CM/examples.md", "md_atom_type": "TABLE_ROW", "md_parent_section": "§CM.4 [Example 4]", "md_verbatim": "| 6 | ABC123 | CM | ABC123-899 | 3 | 1 | BOCEPREVIR | HCV TREATMENT | TABLET | ORAL | TOXICITY/INTOLERANCE |", "score": 0.6786, "match_basis": "verbatim_token+domain_route:CM"}, {"md_atom_id": "md_dmCM_ex_a054", "md_file": "knowledge_base/domains/CM/examples.md", "md_atom_type": "TABLE_ROW", "md_parent_section": "§CM.4 [Example 4]", "md_verbatim": "| 1 | ABC123 | CM | ABC123-765 | 1 | 1 | PEGINTRON | HCV TREATMENT | INJECTION | SUBCUTANEOUS | COMPLETED SCHEDULED TREATMENT |", "score": 0.6531, "match_basis": "verbatim_token+domain_route:CM"}, {"md_atom_id": "md_dmCM_ex_a058", "md_file": "knowledge_base/domains/CM/examples.md", "md_atom_type": "TABLE_ROW", "md_parent_section": "§CM.4 [Example 4]", "md_verbatim": "| 5 | ABC123 | CM | ABC123-899 | 2 | 1 | RIBAVIRIN | HCV TREATMENT | TABLET | ORAL | TOXICITY/INTOLERANCE |", "score": 0.5839, "match_basis": "verbatim_token+domain_route:CM"}], "candidate_count": 5, "zero_candidate": false}
{"pdf_atom_id": "ig34_p0102_a034", "pdf_atom_type": "TABLE_ROW", "pdf_source": "SDTMIG_v3.4", "pdf_page": 102, "pdf_parent_section": "§6.1.2 [Concomitant/Prior Medications (CM)]", "pdf_verbatim": "4 | ABC123 | CM | ABC123-899 | 1 | 1 | PEGINTRON | HCV TREATMENT | INJECTION | SUBCUTANEOUS | TOXICITY/INTOLERANCE", "figure_ref": null, "candidates": [{"md_atom_id": "md_dmCM_ex_a057", "md_file": "knowledge_base/domains/CM/examples.md", "md_atom_type": "TABLE_ROW", "md_parent_section": "§CM.4 [Example 4]", "md_verbatim": "| 4 | ABC123 | CM | ABC123-899 | 1 | 1 | PEGINTRON | HCV TREATMENT | INJECTION | SUBCUTANEOUS | TOXICITY/INTOLERANCE |", "score": 1.0, "match_basis": "verbatim_token+domain_route:CM"}, {"md_atom_id": "md_dmCM_ex_a054", "md_file": "knowledge_base/domains/CM/examples.md", "md_atom_type": "TABLE_ROW", "md_parent_section": "§CM.4 [Example 4]", "md_verbatim": "| 1 | ABC123 | CM | ABC123-765 | 1 | 1 | PEGINTRON | HCV TREATMENT | INJECTION | SUBCUTANEOUS | COMPLETED SCHEDULED TREATMENT |", "score": 0.7273, "match_basis": "verbatim_token+domain_route:CM"}, {"md_atom_id": "md_dmCM_ex_a058", "md_file": "knowledge_base/domains/CM/examples.md", "md_atom_type": "TABLE_ROW", "md_parent_section": "§CM.4 [Example 4]", "md_verbatim": "| 5 | ABC123 | CM | ABC123-899 | 2 | 1 | RIBAVIRIN | HCV TREATMENT | TABLET | ORAL | TOXICITY/INTOLERANCE |", "score": 0.6625, "match_basis": "verbatim_token+domain_route:CM"}, {"md_atom_id": "md_dmCM_ex_a059", "md_file": "knowledge_base/domains/CM/examples.md", "md_atom_type": "TABLE_ROW", "md_parent_section": "§CM.4 [Example 4]", "md_verbatim": "| 6 | ABC123 | CM | ABC123-899 | 3 | 1 | BOCEPREVIR | HCV TREATMENT | TABLET | ORAL | TOXICITY/INTOLERANCE |", "score": 0.6585, "match_basis": "verbatim_token+domain_route:CM"}, {"md_atom_id": "md_dmCM_ex_a055", "md_file": "knowledge_base/domains/CM/examples.md", "md_atom_type": "TABLE_ROW", "md_parent_section": "§CM.4 [Example 4]", "md_verbatim": "| 2 | ABC123 | CM | ABC123-765 | 2 | 1 | RIBAVIRIN | HCV TREATMENT | TABLET | ORAL | COMPLETED SCHEDULED TREATMENT |", "score": 0.4923, "match_basis": "verbatim_token+domain_route:CM"}], "candidate_count": 5, "zero_candidate": false}
{"pdf_atom_id": "ig34_p0102_a035", "pdf_atom_type": "TABLE_ROW", "pdf_source": "SDTMIG_v3.4", "pdf_page": 102, "pdf_parent_section": "§6.1.2 [Concomitant/Prior Medications (CM)]", "pdf_verbatim": "5 | ABC123 | CM | ABC123-899 | 2 | 1 | RIBAVIRIN | HCV TREATMENT | TABLET | ORAL | TOXICITY/INTOLERANCE", "figure_ref": null, "candidates": [{"md_atom_id": "md_dmCM_ex_a058", "md_file": "knowledge_base/domains/CM/examples.md", "md_atom_type": "TABLE_ROW", "md_parent_section": "§CM.4 [Example 4]", "md_verbatim": "| 5 | ABC123 | CM | ABC123-899 | 2 | 1 | RIBAVIRIN | HCV TREATMENT | TABLET | ORAL | TOXICITY/INTOLERANCE |", "score": 1.0, "match_basis": "verbatim_token+domain_route:CM"}, {"md_atom_id": "md_dmCM_ex_a059", "md_file": "knowledge_base/domains/CM/examples.md", "md_atom_type": "TABLE_ROW", "md_parent_section": "§CM.4 [Example 4]", "md_verbatim": "| 6 | ABC123 | CM | ABC123-899 | 3 | 1 | BOCEPREVIR | HCV TREATMENT | TABLET | ORAL | TOXICITY/INTOLERANCE |", "score": 0.8375, "match_basis": "verbatim_token+domain_route:CM"}, {"md_atom_id": "md_dmCM_ex_a055", "md_file": "knowledge_base/domains/CM/examples.md", "md_atom_type": "TABLE_ROW", "md_parent_section": "§CM.4 [Example 4]", "md_verbatim": "| 2 | ABC123 | CM | ABC123-765 | 2 | 1 | RIBAVIRIN | HCV TREATMENT | TABLET | ORAL | COMPLETED SCHEDULED TREATMENT |", "score": 0.6727, "match_basis": "verbatim_token+domain_route:CM"}, {"md_atom_id": "md_dmCM_ex_a057", "md_file": "knowledge_base/domains/CM/examples.md", "md_atom_type": "TABLE_ROW", "md_parent_section": "§CM.4 [Example 4]", "md_verbatim": "| 4 | ABC123 | CM | ABC123-899 | 1 | 1 | PEGINTRON | HCV TREATMENT | INJECTION | SUBCUTANEOUS | TOXICITY/INTOLERANCE |", "score": 0.6625, "match_basis": "verbatim_token+domain_route:CM"}, {"md_atom_id": "md_dmCM_ex_a056", "md_file": "knowledge_base/domains/CM/examples.md", "md_atom_type": "TABLE_ROW", "md_parent_section": "§CM.4 [Example 4]", "md_verbatim": "| 3 | ABC123 | CM | ABC123-765 | 3 | 1 | BOCEPREVIR | HCV TREATMENT | TABLET | ORAL | COMPLETED SCHEDULED TREATMENT |", "score": 0.5839, "match_basis": "verbatim_token+domain_route:CM"}], "candidate_count": 5, "zero_candidate": false}
{"pdf_atom_id": "ig34_p0102_a036", "pdf_atom_type": "TABLE_ROW", "pdf_source": "SDTMIG_v3.4", "pdf_page": 102, "pdf_parent_section": "§6.1.2 [Concomitant/Prior Medications (CM)]", "pdf_verbatim": "6 | ABC123 | CM | ABC123-899 | 3 | 1 | BOCEPREVIR | HCV TREATMENT | TABLET | ORAL | TOXICITY/INTOLERANCE", "figure_ref": null, "candidates": [{"md_atom_id": "md_dmCM_ex_a059", "md_file": "knowledge_base/domains/CM/examples.md", "md_atom_type": "TABLE_ROW", "md_parent_section": "§CM.4 [Example 4]", "md_verbatim": "| 6 | ABC123 | CM | ABC123-899 | 3 | 1 | BOCEPREVIR | HCV TREATMENT | TABLET | ORAL | TOXICITY/INTOLERANCE |", "score": 1.0, "match_basis": "verbatim_token+domain_route:CM"}, {"md_atom_id": "md_dmCM_ex_a058", "md_file": "knowledge_base/domains/CM/examples.md", "md_atom_type": "TABLE_ROW", "md_parent_section": "§CM.4 [Example 4]", "md_verbatim": "| 5 | ABC123 | CM | ABC123-899 | 2 | 1 | RIBAVIRIN | HCV TREATMENT | TABLET | ORAL | TOXICITY/INTOLERANCE |", "score": 0.8375, "match_basis": "verbatim_token+domain_route:CM"}, {"md_atom_id": "md_dmCM_ex_a056", "md_file": "knowledge_base/domains/CM/examples.md", "md_atom_type": "TABLE_ROW", "md_parent_section": "§CM.4 [Example 4]", "md_verbatim": "| 3 | ABC123 | CM | ABC123-765 | 3 | 1 | BOCEPREVIR | HCV TREATMENT | TABLET | ORAL | COMPLETED SCHEDULED TREATMENT |", "score": 0.6786, "match_basis": "verbatim_token+domain_route:CM"}, {"md_atom_id": "md_dmCM_ex_a057", "md_file": "knowledge_base/domains/CM/examples.md", "md_atom_type": "TABLE_ROW", "md_parent_section": "§CM.4 [Example 4]", "md_verbatim": "| 4 | ABC123 | CM | ABC123-899 | 1 | 1 | PEGINTRON | HCV TREATMENT | INJECTION | SUBCUTANEOUS | TOXICITY/INTOLERANCE |", "score": 0.6585, "match_basis": "verbatim_token+domain_route:CM"}, {"md_atom_id": "md_dmCM_ex_a055", "md_file": "knowledge_base/domains/CM/examples.md", "md_atom_type": "TABLE_ROW", "md_parent_section": "§CM.4 [Example 4]", "md_verbatim": "| 2 | ABC123 | CM | ABC123-765 | 2 | 1 | RIBAVIRIN | HCV TREATMENT | TABLET | ORAL | COMPLETED SCHEDULED TREATMENT |", "score": 0.5839, "match_basis": "verbatim_token+domain_route:CM"}], "candidate_count": 5, "zero_candidate": false}
{"pdf_atom_id": "ig34_p0103_a001", "pdf_atom_type": "TABLE_HEADER", "pdf_source": "SDTMIG_v3.4", "pdf_page": 103, "pdf_parent_section": "§6.1.2 [Concomitant/Prior Medications (CM)]", "pdf_verbatim": "| Row | STUDYID | DOMAIN | USUBJID | CMSEQ | CMGRPID | CMTRT | CMCAT | CMDOSFRM | CMROUTE | CMRSDISC |", "figure_ref": null, "candidates": [{"md_atom_id": "md_dmCM_ex_a053", "md_file": "knowledge_base/domains/CM/examples.md", "md_atom_type": "TABLE_HEADER", "md_parent_section": "§CM.4 [Example 4]", "md_verbatim": "| Row | STUDYID | DOMAIN | USUBJID | CMSEQ | CMGRPID | CMTRT | CMCAT | CMDOSFRM | CMROUTE | CMRSDISC |\n|-----|---------|--------|---------|-------|---------|-------|-------|----------|---------|----------|", "score": 1.0, "match_basis": "verbatim_token+domain_route:CM"}, {"md_atom_id": "md_dmCM_ex_a026", "md_file": "knowledge_base/domains/CM/examples.md", "md_atom_type": "TABLE_HEADER", "md_parent_section": "§CM.2 [Example 2]", "md_verbatim": "| Row | STUDYID | DOMAIN | USUBJID | CMSEQ | CMTRT | CMCAT |\n|-----|---------|--------|---------|-------|-------|-------|", "score": 0.72, "match_basis": "verbatim_token+domain_route:CM"}, {"md_atom_id": "md_dmCM_ex_a011", "md_file": "knowledge_base/domains/CM/examples.md", "md_atom_type": "TABLE_HEADER", "md_parent_section": "§CM.1 [Example 1]", "md_verbatim": "| Row | STUDYID | DOMAIN | USUBJID | CMSEQ | CMTRT | CMDOSE | CMDOSU | CMDOSFRQ | CMSTDTC | CMENDTC |\n|-----|---------|--------|---------|-------|-------|--------|--------|----------|---------|---------|", "score": 0.6786, "match_basis": "verbatim_token+domain_route:CM"}, {"md_atom_id": "md_dmCM_ex_a043", "md_file": "knowledge_base/domains/CM/examples.md", "md_atom_type": "TABLE_HEADER", "md_parent_section": "§CM.3 [Example 3]", "md_verbatim": "| Row | STUDYID | DOMAIN | USUBJID | CMSEQ | CMTRT | CMPRESP | CMOCCUR | CMSTAT | CMREASND |\n|-----|---------|--------|---------|-------|-------|---------|---------|--------|----------|", "score": 0.6095, "match_basis": "verbatim_token+domain_route:CM"}, {"md_atom_id": "md_dmCM_ex_a071", "md_file": "knowledge_base/domains/CM/examples.md", "md_atom_type": "TABLE_HEADER", "md_parent_section": "§CM.5 [Example 5]", "md_verbatim": "| Row | STUDYID | DOMAIN | USUBJID | CMSEQ | CMTRT | CMCAT | CMSCAT | CMPRESP | CMOCCUR | CMINDC | CMDTC | CMDY | CMENRTPT | CMENTPT |\n|-----|---------|--------|---------|-------|-------|-------|--------|---------|---------|--------|-------|------|----------|---------|", "score": 0.6083, "match_basis": "verbatim_token+domain_route:CM"}], "candidate_count": 5, "zero_candidate": false}
{"pdf_atom_id": "ig34_p0103_a002", "pdf_atom_type": "TABLE_ROW", "pdf_source": "SDTMIG_v3.4", "pdf_page": 103, "pdf_parent_section": "§6.1.2 [Concomitant/Prior Medications (CM)]", "pdf_verbatim": "| 4 | ABC123 | CM | ABC123-899 | 1 | 1 | PEGINTRON | HCV TREATMENT | INJECTION | SUBCUTANEOUS | TOXICITY/INTOLERANCE |", "figure_ref": null, "candidates": [{"md_atom_id": "md_dmCM_ex_a057", "md_file": "knowledge_base/domains/CM/examples.md", "md_atom_type": "TABLE_ROW", "md_parent_section": "§CM.4 [Example 4]", "md_verbatim": "| 4 | ABC123 | CM | ABC123-899 | 1 | 1 | PEGINTRON | HCV TREATMENT | INJECTION | SUBCUTANEOUS | TOXICITY/INTOLERANCE |", "score": 1.0, "match_basis": "verbatim_token+domain_route:CM"}, {"md_atom_id": "md_dmCM_ex_a054", "md_file": "knowledge_base/domains/CM/examples.md", "md_atom_type": "TABLE_ROW", "md_parent_section": "§CM.4 [Example 4]", "md_verbatim": "| 1 | ABC123 | CM | ABC123-765 | 1 | 1 | PEGINTRON | HCV TREATMENT | INJECTION | SUBCUTANEOUS | COMPLETED SCHEDULED TREATMENT |", "score": 0.7273, "match_basis": "verbatim_token+domain_route:CM"}, {"md_atom_id": "md_dmCM_ex_a058", "md_file": "knowledge_base/domains/CM/examples.md", "md_atom_type": "TABLE_ROW", "md_parent_section": "§CM.4 [Example 4]", "md_verbatim": "| 5 | ABC123 | CM | ABC123-899 | 2 | 1 | RIBAVIRIN | HCV TREATMENT | TABLET | ORAL | TOXICITY/INTOLERANCE |", "score": 0.6625, "match_basis": "verbatim_token+domain_route:CM"}, {"md_atom_id": "md_dmCM_ex_a059", "md_file": "knowledge_base/domains/CM/examples.md", "md_atom_type": "TABLE_ROW", "md_parent_section": "§CM.4 [Example 4]", "md_verbatim": "| 6 | ABC123 | CM | ABC123-899 | 3 | 1 | BOCEPREVIR | HCV TREATMENT | TABLET | ORAL | TOXICITY/INTOLERANCE |", "score": 0.6585, "match_basis": "verbatim_token+domain_route:CM"}, {"md_atom_id": "md_dmCM_ex_a055", "md_file": "knowledge_base/domains/CM/examples.md", "md_atom_type": "TABLE_ROW", "md_parent_section": "§CM.4 [Example 4]", "md_verbatim": "| 2 | ABC123 | CM | ABC123-765 | 2 | 1 | RIBAVIRIN | HCV TREATMENT | TABLET | ORAL | COMPLETED SCHEDULED TREATMENT |", "score": 0.4923, "match_basis": "verbatim_token+domain_route:CM"}], "candidate_count": 5, "zero_candidate": false}
{"pdf_atom_id": "ig34_p0103_a003", "pdf_atom_type": "TABLE_ROW", "pdf_source": "SDTMIG_v3.4", "pdf_page": 103, "pdf_parent_section": "§6.1.2 [Concomitant/Prior Medications (CM)]", "pdf_verbatim": "| 5 | ABC123 | CM | ABC123-899 | 2 | 1 | RIBAVIRIN | HCV TREATMENT | TABLET | ORAL | TOXICITY/INTOLERANCE |", "figure_ref": null, "candidates": [{"md_atom_id": "md_dmCM_ex_a058", "md_file": "knowledge_base/domains/CM/examples.md", "md_atom_type": "TABLE_ROW", "md_parent_section": "§CM.4 [Example 4]", "md_verbatim": "| 5 | ABC123 | CM | ABC123-899 | 2 | 1 | RIBAVIRIN | HCV TREATMENT | TABLET | ORAL | TOXICITY/INTOLERANCE |", "score": 1.0, "match_basis": "verbatim_token+domain_route:CM"}, {"md_atom_id": "md_dmCM_ex_a059", "md_file": "knowledge_base/domains/CM/examples.md", "md_atom_type": "TABLE_ROW", "md_parent_section": "§CM.4 [Example 4]", "md_verbatim": "| 6 | ABC123 | CM | ABC123-899 | 3 | 1 | BOCEPREVIR | HCV TREATMENT | TABLET | ORAL | TOXICITY/INTOLERANCE |", "score": 0.8375, "match_basis": "verbatim_token+domain_route:CM"}, {"md_atom_id": "md_dmCM_ex_a055", "md_file": "knowledge_base/domains/CM/examples.md", "md_atom_type": "TABLE_ROW", "md_parent_section": "§CM.4 [Example 4]", "md_verbatim": "| 2 | ABC123 | CM | ABC123-765 | 2 | 1 | RIBAVIRIN | HCV TREATMENT | TABLET | ORAL | COMPLETED SCHEDULED TREATMENT |", "score": 0.6727, "match_basis": "verbatim_token+domain_route:CM"}, {"md_atom_id": "md_dmCM_ex_a057", "md_file": "knowledge_base/domains/CM/examples.md", "md_atom_type": "TABLE_ROW", "md_parent_section": "§CM.4 [Example 4]", "md_verbatim": "| 4 | ABC123 | CM | ABC123-899 | 1 | 1 | PEGINTRON | HCV TREATMENT | INJECTION | SUBCUTANEOUS | TOXICITY/INTOLERANCE |", "score": 0.6625, "match_basis": "verbatim_token+domain_route:CM"}, {"md_atom_id": "md_dmCM_ex_a056", "md_file": "knowledge_base/domains/CM/examples.md", "md_atom_type": "TABLE_ROW", "md_parent_section": "§CM.4 [Example 4]", "md_verbatim": "| 3 | ABC123 | CM | ABC123-765 | 3 | 1 | BOCEPREVIR | HCV TREATMENT | TABLET | ORAL | COMPLETED SCHEDULED TREATMENT |", "score": 0.5839, "match_basis": "verbatim_token+domain_route:CM"}], "candidate_count": 5, "zero_candidate": false}
{"pdf_atom_id": "ig34_p0103_a004", "pdf_atom_type": "TABLE_ROW", "pdf_source": "SDTMIG_v3.4", "pdf_page": 103, "pdf_parent_section": "§6.1.2 [Concomitant/Prior Medications (CM)]", "pdf_verbatim": "| 6 | ABC123 | CM | ABC123-899 | 3 | 1 | BOCEPREVIR | HCV TREATMENT | TABLET | ORAL | TOXICITY/INTOLERANCE |", "figure_ref": null, "candidates": [{"md_atom_id": "md_dmCM_ex_a059", "md_file": "knowledge_base/domains/CM/examples.md", "md_atom_type": "TABLE_ROW", "md_parent_section": "§CM.4 [Example 4]", "md_verbatim": "| 6 | ABC123 | CM | ABC123-899 | 3 | 1 | BOCEPREVIR | HCV TREATMENT | TABLET | ORAL | TOXICITY/INTOLERANCE |", "score": 1.0, "match_basis": "verbatim_token+domain_route:CM"}, {"md_atom_id": "md_dmCM_ex_a058", "md_file": "knowledge_base/domains/CM/examples.md", "md_atom_type": "TABLE_ROW", "md_parent_section": "§CM.4 [Example 4]", "md_verbatim": "| 5 | ABC123 | CM | ABC123-899 | 2 | 1 | RIBAVIRIN | HCV TREATMENT | TABLET | ORAL | TOXICITY/INTOLERANCE |", "score": 0.8375, "match_basis": "verbatim_token+domain_route:CM"}, {"md_atom_id": "md_dmCM_ex_a056", "md_file": "knowledge_base/domains/CM/examples.md", "md_atom_type": "TABLE_ROW", "md_parent_section": "§CM.4 [Example 4]", "md_verbatim": "| 3 | ABC123 | CM | ABC123-765 | 3 | 1 | BOCEPREVIR | HCV TREATMENT | TABLET | ORAL | COMPLETED SCHEDULED TREATMENT |", "score": 0.6786, "match_basis": "verbatim_token+domain_route:CM"}, {"md_atom_id": "md_dmCM_ex_a057", "md_file": "knowledge_base/domains/CM/examples.md", "md_atom_type": "TABLE_ROW", "md_parent_section": "§CM.4 [Example 4]", "md_verbatim": "| 4 | ABC123 | CM | ABC123-899 | 1 | 1 | PEGINTRON | HCV TREATMENT | INJECTION | SUBCUTANEOUS | TOXICITY/INTOLERANCE |", "score": 0.6585, "match_basis": "verbatim_token+domain_route:CM"}, {"md_atom_id": "md_dmCM_ex_a055", "md_file": "knowledge_base/domains/CM/examples.md", "md_atom_type": "TABLE_ROW", "md_parent_section": "§CM.4 [Example 4]", "md_verbatim": "| 2 | ABC123 | CM | ABC123-765 | 2 | 1 | RIBAVIRIN | HCV TREATMENT | TABLET | ORAL | COMPLETED SCHEDULED TREATMENT |", "score": 0.5839, "match_basis": "verbatim_token+domain_route:CM"}], "candidate_count": 5, "zero_candidate": false}
{"pdf_atom_id": "ig34_p0103_a005", "pdf_atom_type": "HEADING", "pdf_source": "SDTMIG_v3.4", "pdf_page": 103, "pdf_parent_section": "§6.1.2 [Concomitant/Prior Medications (CM)]", "pdf_verbatim": "Example 5", "figure_ref": null, "candidates": [{"md_atom_id": "md_dmCM_ex_a002", "md_file": "knowledge_base/domains/CM/examples.md", "md_atom_type": "HEADING", "md_parent_section": "§CM.1 [Example 1]", "md_verbatim": "## Example 1", "score": 1.0, "match_basis": "verbatim_token+domain_route:CM"}, {"md_atom_id": "md_dmCM_ex_a022", "md_file": "knowledge_base/domains/CM/examples.md", "md_atom_type": "HEADING", "md_parent_section": "§CM.2 [Example 2]", "md_verbatim": "## Example 2", "score": 1.0, "match_basis": "verbatim_token+domain_route:CM"}, {"md_atom_id": "md_dmCM_ex_a029", "md_file": "knowledge_base/domains/CM/examples.md", "md_atom_type": "HEADING", "md_parent_section": "§CM.3 [Example 3]", "md_verbatim": "## Example 3", "score": 1.0, "match_basis": "verbatim_token+domain_route:CM"}, {"md_atom_id": "md_dmCM_ex_a047", "md_file": "knowledge_base/domains/CM/examples.md", "md_atom_type": "HEADING", "md_parent_section": "§CM.4 [Example 4]", "md_verbatim": "## Example 4", "score": 1.0, "match_basis": "verbatim_token+domain_route:CM"}, {"md_atom_id": "md_dmCM_ex_a060", "md_file": "knowledge_base/domains/CM/examples.md", "md_atom_type": "HEADING", "md_parent_section": "§CM.5 [Example 5]", "md_verbatim": "## Example 5", "score": 1.0, "match_basis": "verbatim_token+domain_route:CM"}, {"md_atom_id": "md_dmCM_ex_a001", "md_file": "knowledge_base/domains/CM/examples.md", "md_atom_type": "HEADING", "md_parent_section": "§CM [CM — Examples]", "md_verbatim": "# CM — Examples", "score": 0.9, "match_basis": "verbatim_token+domain_route:CM"}, {"md_atom_id": "md_dmCM_assn_a001", "md_file": "knowledge_base/domains/CM/assumptions.md", "md_atom_type": "HEADING", "md_parent_section": "§CM [CM — Assumptions]", "md_verbatim": "# CM — Assumptions", "score": 0.4, "match_basis": "verbatim_token+domain_route:CM"}], "candidate_count": 7, "zero_candidate": false}
{"pdf_atom_id": "ig34_p0103_a006", "pdf_atom_type": "SENTENCE", "pdf_source": "SDTMIG_v3.4", "pdf_page": 103, "pdf_parent_section": "§6.1.2 [Concomitant/Prior Medications (CM)]", "pdf_verbatim": "In this rheumatoid arthritis (RA) study, the sponsor collected medications using the category \"Prior RA Medications\", then collected information on whether the subject had received certain medication classes, represented as subcategories. If a subject did receive medications in a subcategory, information about those medications was collected. This example shows data for 2 subjects who received prior RA medications. It includes data only about their prior disease-modifying antirheumatic drugs (DMARDs); information about other kinds of prior RA medications is not included.", "figure_ref": null, "candidates": [{"md_atom_id": "md_dmCM_ex_a061", "md_file": "knowledge_base/domains/CM/examples.md", "md_atom_type": "SENTENCE", "md_parent_section": "§CM.5 [Example 5]", "md_verbatim": "In this rheumatoid arthritis (RA) study, the sponsor collected medications using the category \"Prior RA Medications\", then collected information on whether the subject had received certain medication classes, represented as subcategories.", "score": 0.7716, "match_basis": "verbatim_token+domain_route:CM"}, {"md_atom_id": "md_dmCM_ex_a064", "md_file": "knowledge_base/domains/CM/examples.md", "md_atom_type": "SENTENCE", "md_parent_section": "§CM.5 [Example 5]", "md_verbatim": "It includes data only about their prior disease-modifying antirheumatic drugs (DMARDs); information about other kinds of prior RA medications is not included.", "score": 0.6671, "match_basis": "verbatim_token+domain_route:CM"}, {"md_atom_id": "md_dmCM_ex_a062", "md_file": "knowledge_base/domains/CM/examples.md", "md_atom_type": "SENTENCE", "md_parent_section": "§CM.5 [Example 5]", "md_verbatim": "If a subject did receive medications in a subcategory, information about those medications was collected.", "score": 0.5781, "match_basis": "verbatim_token+domain_route:CM"}, {"md_atom_id": "md_dmCM_ex_a065", "md_file": "knowledge_base/domains/CM/examples.md", "md_atom_type": "SENTENCE", "md_parent_section": "§CM.5 [Example 5]", "md_verbatim": "**Row 1:** Shows that subject 101 received prior RA medications. The values of CMTRT and CMCAT are the same, indicating that this record represents the response to a question about a category of medications, rather than an individual medication.", "score": 0.5531, "match_basis": "verbatim_token+domain_route:CM"}, {"md_atom_id": "md_dmCM_ex_a066", "md_file": "knowledge_base/domains/CM/examples.md", "md_atom_type": "SENTENCE", "md_parent_section": "§CM.5 [Example 5]", "md_verbatim": "**Row 2:** Shows that subject 101 did not receive prior DMARDs. The values in CMTRT and CMSCAT are the same, indicating that this record represents the response to a question about a group of medications, rather than an individual medication.", "score": 0.55, "match_basis": "verbatim_token+domain_route:CM"}], "candidate_count": 5, "zero_candidate": false}
{"pdf_atom_id": "ig34_p0103_a007", "pdf_atom_type": "LIST_ITEM", "pdf_source": "SDTMIG_v3.4", "pdf_page": 103, "pdf_parent_section": "§6.1.2 [Concomitant/Prior Medications (CM)]", "pdf_verbatim": "Row 1: Shows that subject 101 received prior RA medications. The values of CMTRT and CMCAT are the same, indicating that this record represents the response to a question about a category of medications, rather than an individual medication.", "figure_ref": null, "candidates": [{"md_atom_id": "md_dmCM_ex_a065", "md_file": "knowledge_base/domains/CM/examples.md", "md_atom_type": "SENTENCE", "md_parent_section": "§CM.5 [Example 5]", "md_verbatim": "**Row 1:** Shows that subject 101 received prior RA medications. The values of CMTRT and CMCAT are the same, indicating that this record represents the response to a question about a category of medications, rather than an individual medication.", "score": 0.91, "match_basis": "verbatim_token+domain_route:CM"}, {"md_atom_id": "md_dmCM_ex_a066", "md_file": "knowledge_base/domains/CM/examples.md", "md_atom_type": "SENTENCE", "md_parent_section": "§CM.5 [Example 5]", "md_verbatim": "**Row 2:** Shows that subject 101 did not receive prior DMARDs. The values in CMTRT and CMSCAT are the same, indicating that this record represents the response to a question about a group of medications, rather than an individual medication.", "score": 0.7876, "match_basis": "verbatim_token+domain_route:CM"}, {"md_atom_id": "md_dmCM_ex_a067", "md_file": "knowledge_base/domains/CM/examples.md", "md_atom_type": "SENTENCE", "md_parent_section": "§CM.5 [Example 5]", "md_verbatim": "**Row 3:** Shows that subject 102 received prior RA medications.", "score": 0.51, "match_basis": "verbatim_token+domain_route:CM"}, {"md_atom_id": "md_dmCM_assn_a004", "md_file": "knowledge_base/domains/CM/assumptions.md", "md_atom_type": "LIST_ITEM", "md_parent_section": "§CM [CM — Assumptions]", "md_verbatim": "3. Prespecified terms; presence or absence of concomitant medications\n   a. Information on concomitant medications is generally collected in 2 different ways, either by recording free text or using a prespecified list of terms. Because the solicitation of information on specific concomitant medications may affect the frequency at which they are reported, the fact that a specific medication was solicited may be of interest to reviewers. CMPRESP and CMOCCUR are used together to indicate the intervention in CMTRT was prespecified and whether it occurred, respectively.\n   b. CMOCCUR is used to indicate whether a prespecified medication was used. A value of \"Y\" indicates that the medication was used and \"N\" indicates that it was not.\n   c. If a medication was not prespecified, the value of CMOCCUR should be null. CMPRESP and CMOCCUR are permissible fields and may be omitted from the dataset if all medications were collected as free text. Values of CMOCCUR may also be null for prespecified medications if no Y/N response was collected; in such cases, CMSTAT = \"NOT DONE\", and CMREASND could be used to describe the reason the answer was missing.", "score": 0.5004, "match_basis": "verbatim_token+domain_route:CM"}, {"md_atom_id": "md_dmCM_ex_a069", "md_file": "knowledge_base/domains/CM/examples.md", "md_atom_type": "SENTENCE", "md_parent_section": "§CM.5 [Example 5]", "md_verbatim": "**Rows 5-6:** Show 2 prior DMARDS received by subject 102, one ending before the date of data collection, and the other ongoing at that time. These medications were not prespecified, so CMPRESP is null.", "score": 0.4943, "match_basis": "verbatim_token+domain_route:CM"}], "candidate_count": 5, "zero_candidate": false}
{"pdf_atom_id": "ig34_p0103_a008", "pdf_atom_type": "LIST_ITEM", "pdf_source": "SDTMIG_v3.4", "pdf_page": 103, "pdf_parent_section": "§6.1.2 [Concomitant/Prior Medications (CM)]", "pdf_verbatim": "Row 2: Shows that subject 101 did not receive prior DMARDs. The values in CMTRT and CMSCAT are the same, indicating that this record represents the response to a question about a group of medications, rather than an individual medication.", "figure_ref": null, "candidates": [{"md_atom_id": "md_dmCM_ex_a066", "md_file": "knowledge_base/domains/CM/examples.md", "md_atom_type": "SENTENCE", "md_parent_section": "§CM.5 [Example 5]", "md_verbatim": "**Row 2:** Shows that subject 101 did not receive prior DMARDs. The values in CMTRT and CMSCAT are the same, indicating that this record represents the response to a question about a group of medications, rather than an individual medication.", "score": 0.91, "match_basis": "verbatim_token+domain_route:CM"}, {"md_atom_id": "md_dmCM_ex_a065", "md_file": "knowledge_base/domains/CM/examples.md", "md_atom_type": "SENTENCE", "md_parent_section": "§CM.5 [Example 5]", "md_verbatim": "**Row 1:** Shows that subject 101 received prior RA medications. The values of CMTRT and CMCAT are the same, indicating that this record represents the response to a question about a category of medications, rather than an individual medication.", "score": 0.7876, "match_basis": "verbatim_token+domain_route:CM"}, {"md_atom_id": "md_dmCM_ex_a069", "md_file": "knowledge_base/domains/CM/examples.md", "md_atom_type": "SENTENCE", "md_parent_section": "§CM.5 [Example 5]", "md_verbatim": "**Rows 5-6:** Show 2 prior DMARDS received by subject 102, one ending before the date of data collection, and the other ongoing at that time. These medications were not prespecified, so CMPRESP is null.", "score": 0.5069, "match_basis": "verbatim_token+domain_route:CM"}, {"md_atom_id": "md_dmCM_assn_a004", "md_file": "knowledge_base/domains/CM/assumptions.md", "md_atom_type": "LIST_ITEM", "md_parent_section": "§CM [CM — Assumptions]", "md_verbatim": "3. Prespecified terms; presence or absence of concomitant medications\n   a. Information on concomitant medications is generally collected in 2 different ways, either by recording free text or using a prespecified list of terms. Because the solicitation of information on specific concomitant medications may affect the frequency at which they are reported, the fact that a specific medication was solicited may be of interest to reviewers. CMPRESP and CMOCCUR are used together to indicate the intervention in CMTRT was prespecified and whether it occurred, respectively.\n   b. CMOCCUR is used to indicate whether a prespecified medication was used. A value of \"Y\" indicates that the medication was used and \"N\" indicates that it was not.\n   c. If a medication was not prespecified, the value of CMOCCUR should be null. CMPRESP and CMOCCUR are permissible fields and may be omitted from the dataset if all medications were collected as free text. Values of CMOCCUR may also be null for prespecified medications if no Y/N response was collected; in such cases, CMSTAT = \"NOT DONE\", and CMREASND could be used to describe the reason the answer was missing.", "score": 0.5015, "match_basis": "verbatim_token+domain_route:CM"}, {"md_atom_id": "md_dmCM_ex_a067", "md_file": "knowledge_base/domains/CM/examples.md", "md_atom_type": "SENTENCE", "md_parent_section": "§CM.5 [Example 5]", "md_verbatim": "**Row 3:** Shows that subject 102 received prior RA medications.", "score": 0.4926, "match_basis": "verbatim_token+domain_route:CM"}], "candidate_count": 5, "zero_candidate": false}
{"pdf_atom_id": "ig34_p0103_a009", "pdf_atom_type": "LIST_ITEM", "pdf_source": "SDTMIG_v3.4", "pdf_page": 103, "pdf_parent_section": "§6.1.2 [Concomitant/Prior Medications (CM)]", "pdf_verbatim": "Row 3: Shows that subject 102 received prior RA medications.", "figure_ref": null, "candidates": [{"md_atom_id": "md_dmCM_ex_a067", "md_file": "knowledge_base/domains/CM/examples.md", "md_atom_type": "SENTENCE", "md_parent_section": "§CM.5 [Example 5]", "md_verbatim": "**Row 3:** Shows that subject 102 received prior RA medications.", "score": 0.91, "match_basis": "verbatim_token+domain_route:CM"}, {"md_atom_id": "md_dmCM_ex_a063", "md_file": "knowledge_base/domains/CM/examples.md", "md_atom_type": "SENTENCE", "md_parent_section": "§CM.5 [Example 5]", "md_verbatim": "This example shows data for 2 subjects who received prior RA medications.", "score": 0.6814, "match_basis": "verbatim_token+domain_route:CM"}, {"md_atom_id": "md_dmCM_ex_a068", "md_file": "knowledge_base/domains/CM/examples.md", "md_atom_type": "SENTENCE", "md_parent_section": "§CM.5 [Example 5]", "md_verbatim": "**Row 4:** Shows that subject 102 received prior DMARDs.", "score": 0.6806, "match_basis": "verbatim_token+domain_route:CM"}, {"md_atom_id": "md_dmCM_ex_a069", "md_file": "knowledge_base/domains/CM/examples.md", "md_atom_type": "SENTENCE", "md_parent_section": "§CM.5 [Example 5]", "md_verbatim": "**Rows 5-6:** Show 2 prior DMARDS received by subject 102, one ending before the date of data collection, and the other ongoing at that time. These medications were not prespecified, so CMPRESP is null.", "score": 0.535, "match_basis": "verbatim_token+domain_route:CM"}, {"md_atom_id": "md_dmCM_ex_a006", "md_file": "knowledge_base/domains/CM/examples.md", "md_atom_type": "SENTENCE", "md_parent_section": "§CM.1 [Example 1]", "md_verbatim": "The example below shows 3 subjects who took the same medication on the same day.", "score": 0.5187, "match_basis": "verbatim_token+domain_route:CM"}], "candidate_count": 5, "zero_candidate": false}
{"pdf_atom_id": "ig34_p0103_a010", "pdf_atom_type": "LIST_ITEM", "pdf_source": "SDTMIG_v3.4", "pdf_page": 103, "pdf_parent_section": "§6.1.2 [Concomitant/Prior Medications (CM)]", "pdf_verbatim": "Row 4: Shows that subject 102 received prior DMARDs.", "figure_ref": null, "candidates": [{"md_atom_id": "md_dmCM_ex_a068", "md_file": "knowledge_base/domains/CM/examples.md", "md_atom_type": "SENTENCE", "md_parent_section": "§CM.5 [Example 5]", "md_verbatim": "**Row 4:** Shows that subject 102 received prior DMARDs.", "score": 0.91, "match_basis": "verbatim_token+domain_route:CM"}, {"md_atom_id": "md_dmCM_ex_a067", "md_file": "knowledge_base/domains/CM/examples.md", "md_atom_type": "SENTENCE", "md_parent_section": "§CM.5 [Example 5]", "md_verbatim": "**Row 3:** Shows that subject 102 received prior RA medications.", "score": 0.6806, "match_basis": "verbatim_token+domain_route:CM"}, {"md_atom_id": "md_dmCM_ex_a063", "md_file": "knowledge_base/domains/CM/examples.md", "md_atom_type": "SENTENCE", "md_parent_section": "§CM.5 [Example 5]", "md_verbatim": "This example shows data for 2 subjects who received prior RA medications.", "score": 0.5317, "match_basis": "verbatim_token+domain_route:CM"}, {"md_atom_id": "md_dmCM_ex_a069", "md_file": "knowledge_base/domains/CM/examples.md", "md_atom_type": "SENTENCE", "md_parent_section": "§CM.5 [Example 5]", "md_verbatim": "**Rows 5-6:** Show 2 prior DMARDS received by subject 102, one ending before the date of data collection, and the other ongoing at that time. These medications were not prespecified, so CMPRESP is null.", "score": 0.4975, "match_basis": "verbatim_token+domain_route:CM"}, {"md_atom_id": "md_dmCM_ex_a066", "md_file": "knowledge_base/domains/CM/examples.md", "md_atom_type": "SENTENCE", "md_parent_section": "§CM.5 [Example 5]", "md_verbatim": "**Row 2:** Shows that subject 101 did not receive prior DMARDs. The values in CMTRT and CMSCAT are the same, indicating that this record represents the response to a question about a group of medications, rather than an individual medication.", "score": 0.46, "match_basis": "verbatim_token+domain_route:CM"}], "candidate_count": 5, "zero_candidate": false}
{"pdf_atom_id": "ig34_p0103_a011", "pdf_atom_type": "LIST_ITEM", "pdf_source": "SDTMIG_v3.4", "pdf_page": 103, "pdf_parent_section": "§6.1.2 [Concomitant/Prior Medications (CM)]", "pdf_verbatim": "Rows 5-6: Show 2 prior DMARDS received by subject 102, one ending before the date of data collection, and the other ongoing at that time. These medications were not prespecified, so CMPRESP is null.", "figure_ref": null, "candidates": [{"md_atom_id": "md_dmCM_ex_a069", "md_file": "knowledge_base/domains/CM/examples.md", "md_atom_type": "SENTENCE", "md_parent_section": "§CM.5 [Example 5]", "md_verbatim": "**Rows 5-6:** Show 2 prior DMARDS received by subject 102, one ending before the date of data collection, and the other ongoing at that time. These medications were not prespecified, so CMPRESP is null.", "score": 0.91, "match_basis": "verbatim_token+domain_route:CM"}, {"md_atom_id": "md_dmCM_ex_a067", "md_file": "knowledge_base/domains/CM/examples.md", "md_atom_type": "SENTENCE", "md_parent_section": "§CM.5 [Example 5]", "md_verbatim": "**Row 3:** Shows that subject 102 received prior RA medications.", "score": 0.535, "match_basis": "verbatim_token+domain_route:CM"}, {"md_atom_id": "md_dmCM_assn_a004", "md_file": "knowledge_base/domains/CM/assumptions.md", "md_atom_type": "LIST_ITEM", "md_parent_section": "§CM [CM — Assumptions]", "md_verbatim": "3. Prespecified terms; presence or absence of concomitant medications\n   a. Information on concomitant medications is generally collected in 2 different ways, either by recording free text or using a prespecified list of terms. Because the solicitation of information on specific concomitant medications may affect the frequency at which they are reported, the fact that a specific medication was solicited may be of interest to reviewers. CMPRESP and CMOCCUR are used together to indicate the intervention in CMTRT was prespecified and whether it occurred, respectively.\n   b. CMOCCUR is used to indicate whether a prespecified medication was used. A value of \"Y\" indicates that the medication was used and \"N\" indicates that it was not.\n   c. If a medication was not prespecified, the value of CMOCCUR should be null. CMPRESP and CMOCCUR are permissible fields and may be omitted from the dataset if all medications were collected as free text. Values of CMOCCUR may also be null for prespecified medications if no Y/N response was collected; in such cases, CMSTAT = \"NOT DONE\", and CMREASND could be used to describe the reason the answer was missing.", "score": 0.5135, "match_basis": "verbatim_token+domain_route:CM"}, {"md_atom_id": "md_dmCM_assn_a005", "md_file": "knowledge_base/domains/CM/assumptions.md", "md_atom_type": "LIST_ITEM", "md_parent_section": "§CM [CM — Assumptions]", "md_verbatim": "4. Variables for timing relative to a time point\n   a. CMSTRTPT, CMSTTPT, CMENRTPT, and CMENTPT may be populated as necessary to indicate when a medication was used relative to specified time points. For example, assume a subject uses birth control medication. The subject has used the same medication for many years and continues to do so. The date the subject began using the medication (or at least a partial date) would be stored in CMSTDTC. CMENDTC is null because the end date is unknown/has not yet happened. This fact can be recorded by setting CMENTPT = \"2007-04-30\" (the date the assessment was made) and CMENRTPT = \"ONGOING\".", "score": 0.5128, "match_basis": "verbatim_token+domain_route:CM"}, {"md_atom_id": "md_dmCM_assn_a002", "md_file": "knowledge_base/domains/CM/assumptions.md", "md_atom_type": "LIST_ITEM", "md_parent_section": "§CM [CM — Assumptions]", "md_verbatim": "1. The structure of the CM domain is 1 record per medication intervention episode, constant-dosing interval, or prespecified medication assessment per subject. It is the sponsor's responsibility to define an intervention episode. This definition may vary based on the sponsor's requirements for review and analysis. The submission dataset structure may differ from the structure used for collection. One common approach is to submit a new record when there is a change in the dosing regimen. Another approach is to collapse all records for a medication to a summary level with either a dose range or the highest dose level. Other approaches may also be reasonable as long as they meet the sponsor's evaluation requirements.", "score": 0.5127, "match_basis": "verbatim_token+domain_route:CM"}], "candidate_count": 5, "zero_candidate": false}
{"pdf_atom_id": "ig34_p0103_a012", "pdf_atom_type": "CODE_LITERAL", "pdf_source": "SDTMIG_v3.4", "pdf_page": 103, "pdf_parent_section": "§6.1.2 [Concomitant/Prior Medications (CM)]", "pdf_verbatim": "cm.xpt", "figure_ref": null, "candidates": [{"md_atom_id": "md_dmCM_ex_a010", "md_file": "knowledge_base/domains/CM/examples.md", "md_atom_type": "NOTE", "md_parent_section": "§CM.1 [Example 1]", "md_verbatim": "**cm.xpt**", "score": 0.79, "match_basis": "verbatim_token+domain_route:CM"}, {"md_atom_id": "md_dmCM_ex_a025", "md_file": "knowledge_base/domains/CM/examples.md", "md_atom_type": "NOTE", "md_parent_section": "§CM.2 [Example 2]", "md_verbatim": "**cm.xpt**", "score": 0.79, "match_basis": "verbatim_token+domain_route:CM"}, {"md_atom_id": "md_dmCM_ex_a042", "md_file": "knowledge_base/domains/CM/examples.md", "md_atom_type": "NOTE", "md_parent_section": "§CM.3 [Example 3]", "md_verbatim": "**cm.xpt**", "score": 0.79, "match_basis": "verbatim_token+domain_route:CM"}, {"md_atom_id": "md_dmCM_ex_a052", "md_file": "knowledge_base/domains/CM/examples.md", "md_atom_type": "NOTE", "md_parent_section": "§CM.4 [Example 4]", "md_verbatim": "**cm.xpt**", "score": 0.79, "match_basis": "verbatim_token+domain_route:CM"}, {"md_atom_id": "md_dmCM_ex_a070", "md_file": "knowledge_base/domains/CM/examples.md", "md_atom_type": "NOTE", "md_parent_section": "§CM.5 [Example 5]", "md_verbatim": "**cm.xpt**", "score": 0.79, "match_basis": "verbatim_token+domain_route:CM"}, {"md_atom_id": "md_dmCM_assn_a001", "md_file": "knowledge_base/domains/CM/assumptions.md", "md_atom_type": "HEADING", "md_parent_section": "§CM [CM — Assumptions]", "md_verbatim": "# CM — Assumptions", "score": 0.19, "match_basis": "verbatim_token+domain_route:CM"}, {"md_atom_id": "md_dmCM_assn_a002", "md_file": "knowledge_base/domains/CM/assumptions.md", "md_atom_type": "LIST_ITEM", "md_parent_section": "§CM [CM — Assumptions]", "md_verbatim": "1. The structure of the CM domain is 1 record per medication intervention episode, constant-dosing interval, or prespecified medication assessment per subject. It is the sponsor's responsibility to define an intervention episode. This definition may vary based on the sponsor's requirements for review and analysis. The submission dataset structure may differ from the structure used for collection. One common approach is to submit a new record when there is a change in the dosing regimen. Another approach is to collapse all records for a medication to a summary level with either a dose range or the highest dose level. Other approaches may also be reasonable as long as they meet the sponsor's evaluation requirements.", "score": 0.19, "match_basis": "verbatim_token+domain_route:CM"}, {"md_atom_id": "md_dmCM_assn_a003", "md_file": "knowledge_base/domains/CM/assumptions.md", "md_atom_type": "LIST_ITEM", "md_parent_section": "§CM [CM — Assumptions]", "md_verbatim": "2. CM description and coding\n   a. CMTRT is the topic variable and captures the name of the concomitant medication/therapy or the prespecified term used to collect information about the occurrence of any of a group of medications and/or therapies. It is a required variable and must have a value. CMTRT only includes the medication/therapy name and does not include dosage, formulation, or other qualifying information. For example, \"ASPIRIN 100MG TABLET\" is not a valid value for CMTRT. This example should be expressed as CMTRT= \"ASPIRIN\", CMDOSE= \"100\", CMDOSU= \"MG\", and CMDOSFRM= \"TABLET\". When referring to a prespecified group of medications/therapies, CMTRT contains the description of the group used to solicit the occurrence response.\n   b. CMMODIFY should be included if the sponsor's procedure permits modification of a verbatim term for coding.\n   c. CMDECOD is the standardized medication/therapy term derived by the sponsor from the coding dictionary. It is expected that the reported term (CMTRT) or the modified term (CMMODIFY) will be coded using a standard dictionary. The sponsor is expected to provide the dictionary name and version used to map the terms utilizing the external codelist element in the Define-XML document. If an intervention term does not have a decode value in the dictionary, then CMDECOD will be left blank.\n   d. When CMDECOD values from the WHODrug Dictionary are longer than 200 characters, split the values at semicolons rather than spaces when implementing guidance in Section 4.5.3.2, Text Strings Greater than 200 Characters.", "score": 0.19, "match_basis": "verbatim_token+domain_route:CM"}, {"md_atom_id": "md_dmCM_assn_a004", "md_file": "knowledge_base/domains/CM/assumptions.md", "md_atom_type": "LIST_ITEM", "md_parent_section": "§CM [CM — Assumptions]", "md_verbatim": "3. Prespecified terms; presence or absence of concomitant medications\n   a. Information on concomitant medications is generally collected in 2 different ways, either by recording free text or using a prespecified list of terms. Because the solicitation of information on specific concomitant medications may affect the frequency at which they are reported, the fact that a specific medication was solicited may be of interest to reviewers. CMPRESP and CMOCCUR are used together to indicate the intervention in CMTRT was prespecified and whether it occurred, respectively.\n   b. CMOCCUR is used to indicate whether a prespecified medication was used. A value of \"Y\" indicates that the medication was used and \"N\" indicates that it was not.\n   c. If a medication was not prespecified, the value of CMOCCUR should be null. CMPRESP and CMOCCUR are permissible fields and may be omitted from the dataset if all medications were collected as free text. Values of CMOCCUR may also be null for prespecified medications if no Y/N response was collected; in such cases, CMSTAT = \"NOT DONE\", and CMREASND could be used to describe the reason the answer was missing.", "score": 0.19, "match_basis": "verbatim_token+domain_route:CM"}, {"md_atom_id": "md_dmCM_assn_a005", "md_file": "knowledge_base/domains/CM/assumptions.md", "md_atom_type": "LIST_ITEM", "md_parent_section": "§CM [CM — Assumptions]", "md_verbatim": "4. Variables for timing relative to a time point\n   a. CMSTRTPT, CMSTTPT, CMENRTPT, and CMENTPT may be populated as necessary to indicate when a medication was used relative to specified time points. For example, assume a subject uses birth control medication. The subject has used the same medication for many years and continues to do so. The date the subject began using the medication (or at least a partial date) would be stored in CMSTDTC. CMENDTC is null because the end date is unknown/has not yet happened. This fact can be recorded by setting CMENTPT = \"2007-04-30\" (the date the assessment was made) and CMENRTPT = \"ONGOING\".", "score": 0.19, "match_basis": "verbatim_token+domain_route:CM"}], "candidate_count": 10, "zero_candidate": false}
{"pdf_atom_id": "ig34_p0103_a013", "pdf_atom_type": "TABLE_HEADER", "pdf_source": "SDTMIG_v3.4", "pdf_page": 103, "pdf_parent_section": "§6.1.2 [Concomitant/Prior Medications (CM)]", "pdf_verbatim": "| Row | STUDYID | DOMAIN | USUBJID | CMSEQ | CMTRT | CMCAT | CMSCAT | CMPRESP | CMOCCUR | CMINDC | CMDTC | CMDY | CMENRTPT | CMENTPT |", "figure_ref": null, "candidates": [{"md_atom_id": "md_dmCM_ex_a071", "md_file": "knowledge_base/domains/CM/examples.md", "md_atom_type": "TABLE_HEADER", "md_parent_section": "§CM.5 [Example 5]", "md_verbatim": "| Row | STUDYID | DOMAIN | USUBJID | CMSEQ | CMTRT | CMCAT | CMSCAT | CMPRESP | CMOCCUR | CMINDC | CMDTC | CMDY | CMENRTPT | CMENTPT |\n|-----|---------|--------|---------|-------|-------|-------|--------|---------|---------|--------|-------|------|----------|---------|", "score": 1.0, "match_basis": "verbatim_token+domain_route:CM"}, {"md_atom_id": "md_dmCM_ex_a043", "md_file": "knowledge_base/domains/CM/examples.md", "md_atom_type": "TABLE_HEADER", "md_parent_section": "§CM.3 [Example 3]", "md_verbatim": "| Row | STUDYID | DOMAIN | USUBJID | CMSEQ | CMTRT | CMPRESP | CMOCCUR | CMSTAT | CMREASND |\n|-----|---------|--------|---------|-------|-------|---------|---------|--------|----------|", "score": 0.7049, "match_basis": "verbatim_token+domain_route:CM"}, {"md_atom_id": "md_dmCM_ex_a026", "md_file": "knowledge_base/domains/CM/examples.md", "md_atom_type": "TABLE_HEADER", "md_parent_section": "§CM.2 [Example 2]", "md_verbatim": "| Row | STUDYID | DOMAIN | USUBJID | CMSEQ | CMTRT | CMCAT |\n|-----|---------|--------|---------|-------|-------|-------|", "score": 0.6769, "match_basis": "verbatim_token+domain_route:CM"}, {"md_atom_id": "md_dmCM_ex_a011", "md_file": "knowledge_base/domains/CM/examples.md", "md_atom_type": "TABLE_HEADER", "md_parent_section": "§CM.1 [Example 1]", "md_verbatim": "| Row | STUDYID | DOMAIN | USUBJID | CMSEQ | CMTRT | CMDOSE | CMDOSU | CMDOSFRQ | CMSTDTC | CMENDTC |\n|-----|---------|--------|---------|-------|-------|--------|--------|----------|---------|---------|", "score": 0.6344, "match_basis": "verbatim_token+domain_route:CM"}, {"md_atom_id": "md_dmCM_ex_a053", "md_file": "knowledge_base/domains/CM/examples.md", "md_atom_type": "TABLE_HEADER", "md_parent_section": "§CM.4 [Example 4]", "md_verbatim": "| Row | STUDYID | DOMAIN | USUBJID | CMSEQ | CMGRPID | CMTRT | CMCAT | CMDOSFRM | CMROUTE | CMRSDISC |\n|-----|---------|--------|---------|-------|---------|-------|-------|----------|---------|----------|", "score": 0.6083, "match_basis": "verbatim_token+domain_route:CM"}], "candidate_count": 5, "zero_candidate": false}
{"pdf_atom_id": "ig34_p0103_a014", "pdf_atom_type": "TABLE_ROW", "pdf_source": "SDTMIG_v3.4", "pdf_page": 103, "pdf_parent_section": "§6.1.2 [Concomitant/Prior Medications (CM)]", "pdf_verbatim": "| 1 | ABC123 | CM | 101 | 1 | PRIOR RA MEDICATIONS | PRIOR RA MEDICATIONS | | Y | Y | RHEUMATOID ARTHRITIS | 2020-02-02 | -1 | | |", "figure_ref": null, "candidates": [{"md_atom_id": "md_dmCM_ex_a072", "md_file": "knowledge_base/domains/CM/examples.md", "md_atom_type": "TABLE_ROW", "md_parent_section": "§CM.5 [Example 5]", "md_verbatim": "| 1 | ABC123 | CM | 101 | 1 | PRIOR RA MEDICATIONS | PRIOR RA MEDICATIONS | | Y | Y | RHEUMATOID ARTHRITIS | 2020-02-02 | -1 | | |", "score": 1.0, "match_basis": "verbatim_token+domain_route:CM"}, {"md_atom_id": "md_dmCM_ex_a074", "md_file": "knowledge_base/domains/CM/examples.md", "md_atom_type": "TABLE_ROW", "md_parent_section": "§CM.5 [Example 5]", "md_verbatim": "| 3 | ABC123 | CM | 102 | 1 | PRIOR RA MEDICATIONS | PRIOR RA MEDICATIONS | | Y | Y | RHEUMATOID ARTHRITIS | 2020-01-25 | -3 | | |", "score": 0.9657, "match_basis": "verbatim_token+domain_route:CM"}, {"md_atom_id": "md_dmCM_ex_a073", "md_file": "knowledge_base/domains/CM/examples.md", "md_atom_type": "TABLE_ROW", "md_parent_section": "§CM.5 [Example 5]", "md_verbatim": "| 2 | ABC123 | CM | 101 | 2 | PRIOR DMARDS | PRIOR RA MEDICATIONS | PRIOR DMARDS | Y | N | RHEUMATOID ARTHRITIS | 2020-02-02 | -1 | | |", "score": 0.9368, "match_basis": "verbatim_token+domain_route:CM"}, {"md_atom_id": "md_dmCM_ex_a075", "md_file": "knowledge_base/domains/CM/examples.md", "md_atom_type": "TABLE_ROW", "md_parent_section": "§CM.5 [Example 5]", "md_verbatim": "| 4 | ABC123 | CM | 102 | 2 | PRIOR DMARDS | PRIOR RA MEDICATIONS | PRIOR DMARDS | Y | Y | RHEUMATOID ARTHRITIS | 2020-01-25 | -3 | | |", "score": 0.9077, "match_basis": "verbatim_token+domain_route:CM"}, {"md_atom_id": "md_dmCM_ex_a076", "md_file": "knowledge_base/domains/CM/examples.md", "md_atom_type": "TABLE_ROW", "md_parent_section": "§CM.5 [Example 5]", "md_verbatim": "| 5 | ABC123 | CM | 102 | 3 | SULFASALAZINE | PRIOR RA MEDICATIONS | PRIOR DMARDS | | | RHEUMATOID ARTHRITIS | 2020-01-25 | -3 | BEFORE | 2020-01-25 |", "score": 0.7667, "match_basis": "verbatim_token+domain_route:CM"}], "candidate_count": 5, "zero_candidate": false}
{"pdf_atom_id": "ig34_p0103_a015", "pdf_atom_type": "TABLE_ROW", "pdf_source": "SDTMIG_v3.4", "pdf_page": 103, "pdf_parent_section": "§6.1.2 [Concomitant/Prior Medications (CM)]", "pdf_verbatim": "| 2 | ABC123 | CM | 101 | 2 | PRIOR DMARDS | PRIOR RA MEDICATIONS | PRIOR DMARDS | Y | N | RHEUMATOID ARTHRITIS | 2020-02-02 | -1 | | |", "figure_ref": null, "candidates": [{"md_atom_id": "md_dmCM_ex_a073", "md_file": "knowledge_base/domains/CM/examples.md", "md_atom_type": "TABLE_ROW", "md_parent_section": "§CM.5 [Example 5]", "md_verbatim": "| 2 | ABC123 | CM | 101 | 2 | PRIOR DMARDS | PRIOR RA MEDICATIONS | PRIOR DMARDS | Y | N | RHEUMATOID ARTHRITIS | 2020-02-02 | -1 | | |", "score": 1.0, "match_basis": "verbatim_token+domain_route:CM"}, {"md_atom_id": "md_dmCM_ex_a075", "md_file": "knowledge_base/domains/CM/examples.md", "md_atom_type": "TABLE_ROW", "md_parent_section": "§CM.5 [Example 5]", "md_verbatim": "| 4 | ABC123 | CM | 102 | 2 | PRIOR DMARDS | PRIOR RA MEDICATIONS | PRIOR DMARDS | Y | Y | RHEUMATOID ARTHRITIS | 2020-01-25 | -3 | | |", "score": 0.9692, "match_basis": "verbatim_token+domain_route:CM"}, {"md_atom_id": "md_dmCM_ex_a072", "md_file": "knowledge_base/domains/CM/examples.md", "md_atom_type": "TABLE_ROW", "md_parent_section": "§CM.5 [Example 5]", "md_verbatim": "| 1 | ABC123 | CM | 101 | 1 | PRIOR RA MEDICATIONS | PRIOR RA MEDICATIONS | | Y | Y | RHEUMATOID ARTHRITIS | 2020-02-02 | -1 | | |", "score": 0.9368, "match_basis": "verbatim_token+domain_route:CM"}, {"md_atom_id": "md_dmCM_ex_a074", "md_file": "knowledge_base/domains/CM/examples.md", "md_atom_type": "TABLE_ROW", "md_parent_section": "§CM.5 [Example 5]", "md_verbatim": "| 3 | ABC123 | CM | 102 | 1 | PRIOR RA MEDICATIONS | PRIOR RA MEDICATIONS | | Y | Y | RHEUMATOID ARTHRITIS | 2020-01-25 | -3 | | |", "score": 0.9077, "match_basis": "verbatim_token+domain_route:CM"}, {"md_atom_id": "md_dmCM_ex_a076", "md_file": "knowledge_base/domains/CM/examples.md", "md_atom_type": "TABLE_ROW", "md_parent_section": "§CM.5 [Example 5]", "md_verbatim": "| 5 | ABC123 | CM | 102 | 3 | SULFASALAZINE | PRIOR RA MEDICATIONS | PRIOR DMARDS | | | RHEUMATOID ARTHRITIS | 2020-01-25 | -3 | BEFORE | 2020-01-25 |", "score": 0.8111, "match_basis": "verbatim_token+domain_route:CM"}], "candidate_count": 5, "zero_candidate": false}
{"pdf_atom_id": "ig34_p0103_a016", "pdf_atom_type": "TABLE_ROW", "pdf_source": "SDTMIG_v3.4", "pdf_page": 103, "pdf_parent_section": "§6.1.2 [Concomitant/Prior Medications (CM)]", "pdf_verbatim": "| 3 | ABC123 | CM | 102 | 1 | PRIOR RA MEDICATIONS | PRIOR RA MEDICATIONS | | Y | Y | RHEUMATOID ARTHRITIS | 2020-01-25 | -3 | | |", "figure_ref": null, "candidates": [{"md_atom_id": "md_dmCM_ex_a074", "md_file": "knowledge_base/domains/CM/examples.md", "md_atom_type": "TABLE_ROW", "md_parent_section": "§CM.5 [Example 5]", "md_verbatim": "| 3 | ABC123 | CM | 102 | 1 | PRIOR RA MEDICATIONS | PRIOR RA MEDICATIONS | | Y | Y | RHEUMATOID ARTHRITIS | 2020-01-25 | -3 | | |", "score": 1.0, "match_basis": "verbatim_token+domain_route:CM"}, {"md_atom_id": "md_dmCM_ex_a072", "md_file": "knowledge_base/domains/CM/examples.md", "md_atom_type": "TABLE_ROW", "md_parent_section": "§CM.5 [Example 5]", "md_verbatim": "| 1 | ABC123 | CM | 101 | 1 | PRIOR RA MEDICATIONS | PRIOR RA MEDICATIONS | | Y | Y | RHEUMATOID ARTHRITIS | 2020-02-02 | -1 | | |", "score": 0.9657, "match_basis": "verbatim_token+domain_route:CM"}, {"md_atom_id": "md_dmCM_ex_a075", "md_file": "knowledge_base/domains/CM/examples.md", "md_atom_type": "TABLE_ROW", "md_parent_section": "§CM.5 [Example 5]", "md_verbatim": "| 4 | ABC123 | CM | 102 | 2 | PRIOR DMARDS | PRIOR RA MEDICATIONS | PRIOR DMARDS | Y | Y | RHEUMATOID ARTHRITIS | 2020-01-25 | -3 | | |", "score": 0.9368, "match_basis": "verbatim_token+domain_route:CM"}, {"md_atom_id": "md_dmCM_ex_a073", "md_file": "knowledge_base/domains/CM/examples.md", "md_atom_type": "TABLE_ROW", "md_parent_section": "§CM.5 [Example 5]", "md_verbatim": "| 2 | ABC123 | CM | 101 | 2 | PRIOR DMARDS | PRIOR RA MEDICATIONS | PRIOR DMARDS | Y | N | RHEUMATOID ARTHRITIS | 2020-02-02 | -1 | | |", "score": 0.9077, "match_basis": "verbatim_token+domain_route:CM"}, {"md_atom_id": "md_dmCM_ex_a076", "md_file": "knowledge_base/domains/CM/examples.md", "md_atom_type": "TABLE_ROW", "md_parent_section": "§CM.5 [Example 5]", "md_verbatim": "| 5 | ABC123 | CM | 102 | 3 | SULFASALAZINE | PRIOR RA MEDICATIONS | PRIOR DMARDS | | | RHEUMATOID ARTHRITIS | 2020-01-25 | -3 | BEFORE | 2020-01-25 |", "score": 0.7849, "match_basis": "verbatim_token+domain_route:CM"}], "candidate_count": 5, "zero_candidate": false}
{"pdf_atom_id": "ig34_p0103_a017", "pdf_atom_type": "TABLE_ROW", "pdf_source": "SDTMIG_v3.4", "pdf_page": 103, "pdf_parent_section": "§6.1.2 [Concomitant/Prior Medications (CM)]", "pdf_verbatim": "| 4 | ABC123 | CM | 102 | 2 | PRIOR DMARDS | PRIOR RA MEDICATIONS | PRIOR DMARDS | Y | Y | RHEUMATOID ARTHRITIS | 2020-01-25 | -3 | | |", "figure_ref": null, "candidates": [{"md_atom_id": "md_dmCM_ex_a075", "md_file": "knowledge_base/domains/CM/examples.md", "md_atom_type": "TABLE_ROW", "md_parent_section": "§CM.5 [Example 5]", "md_verbatim": "| 4 | ABC123 | CM | 102 | 2 | PRIOR DMARDS | PRIOR RA MEDICATIONS | PRIOR DMARDS | Y | Y | RHEUMATOID ARTHRITIS | 2020-01-25 | -3 | | |", "score": 1.0, "match_basis": "verbatim_token+domain_route:CM"}, {"md_atom_id": "md_dmCM_ex_a073", "md_file": "knowledge_base/domains/CM/examples.md", "md_atom_type": "TABLE_ROW", "md_parent_section": "§CM.5 [Example 5]", "md_verbatim": "| 2 | ABC123 | CM | 101 | 2 | PRIOR DMARDS | PRIOR RA MEDICATIONS | PRIOR DMARDS | Y | N | RHEUMATOID ARTHRITIS | 2020-02-02 | -1 | | |", "score": 0.9692, "match_basis": "verbatim_token+domain_route:CM"}, {"md_atom_id": "md_dmCM_ex_a074", "md_file": "knowledge_base/domains/CM/examples.md", "md_atom_type": "TABLE_ROW", "md_parent_section": "§CM.5 [Example 5]", "md_verbatim": "| 3 | ABC123 | CM | 102 | 1 | PRIOR RA MEDICATIONS | PRIOR RA MEDICATIONS | | Y | Y | RHEUMATOID ARTHRITIS | 2020-01-25 | -3 | | |", "score": 0.9368, "match_basis": "verbatim_token+domain_route:CM"}, {"md_atom_id": "md_dmCM_ex_a072", "md_file": "knowledge_base/domains/CM/examples.md", "md_atom_type": "TABLE_ROW", "md_parent_section": "§CM.5 [Example 5]", "md_verbatim": "| 1 | ABC123 | CM | 101 | 1 | PRIOR RA MEDICATIONS | PRIOR RA MEDICATIONS | | Y | Y | RHEUMATOID ARTHRITIS | 2020-02-02 | -1 | | |", "score": 0.9077, "match_basis": "verbatim_token+domain_route:CM"}, {"md_atom_id": "md_dmCM_ex_a076", "md_file": "knowledge_base/domains/CM/examples.md", "md_atom_type": "TABLE_ROW", "md_parent_section": "§CM.5 [Example 5]", "md_verbatim": "| 5 | ABC123 | CM | 102 | 3 | SULFASALAZINE | PRIOR RA MEDICATIONS | PRIOR DMARDS | | | RHEUMATOID ARTHRITIS | 2020-01-25 | -3 | BEFORE | 2020-01-25 |", "score": 0.8302, "match_basis": "verbatim_token+domain_route:CM"}], "candidate_count": 5, "zero_candidate": false}
{"pdf_atom_id": "ig34_p0103_a018", "pdf_atom_type": "TABLE_ROW", "pdf_source": "SDTMIG_v3.4", "pdf_page": 103, "pdf_parent_section": "§6.1.2 [Concomitant/Prior Medications (CM)]", "pdf_verbatim": "| 5 | ABC123 | CM | 102 | 3 | SULFASALAZINE | PRIOR RA MEDICATIONS | PRIOR DMARDS | | | RHEUMATOID ARTHRITIS | 2020-01-25 | -3 | BEFORE | 2020-01-25 |", "figure_ref": null, "candidates": [{"md_atom_id": "md_dmCM_ex_a076", "md_file": "knowledge_base/domains/CM/examples.md", "md_atom_type": "TABLE_ROW", "md_parent_section": "§CM.5 [Example 5]", "md_verbatim": "| 5 | ABC123 | CM | 102 | 3 | SULFASALAZINE | PRIOR RA MEDICATIONS | PRIOR DMARDS | | | RHEUMATOID ARTHRITIS | 2020-01-25 | -3 | BEFORE | 2020-01-25 |", "score": 1.0, "match_basis": "verbatim_token+domain_route:CM"}, {"md_atom_id": "md_dmCM_ex_a075", "md_file": "knowledge_base/domains/CM/examples.md", "md_atom_type": "TABLE_ROW", "md_parent_section": "§CM.5 [Example 5]", "md_verbatim": "| 4 | ABC123 | CM | 102 | 2 | PRIOR DMARDS | PRIOR RA MEDICATIONS | PRIOR DMARDS | Y | Y | RHEUMATOID ARTHRITIS | 2020-01-25 | -3 | | |", "score": 0.8302, "match_basis": "verbatim_token+domain_route:CM"}, {"md_atom_id": "md_dmCM_ex_a073", "md_file": "knowledge_base/domains/CM/examples.md", "md_atom_type": "TABLE_ROW", "md_parent_section": "§CM.5 [Example 5]", "md_verbatim": "| 2 | ABC123 | CM | 101 | 2 | PRIOR DMARDS | PRIOR RA MEDICATIONS | PRIOR DMARDS | Y | N | RHEUMATOID ARTHRITIS | 2020-02-02 | -1 | | |", "score": 0.8111, "match_basis": "verbatim_token+domain_route:CM"}, {"md_atom_id": "md_dmCM_ex_a074", "md_file": "knowledge_base/domains/CM/examples.md", "md_atom_type": "TABLE_ROW", "md_parent_section": "§CM.5 [Example 5]", "md_verbatim": "| 3 | ABC123 | CM | 102 | 1 | PRIOR RA MEDICATIONS | PRIOR RA MEDICATIONS | | Y | Y | RHEUMATOID ARTHRITIS | 2020-01-25 | -3 | | |", "score": 0.7849, "match_basis": "verbatim_token+domain_route:CM"}, {"md_atom_id": "md_dmCM_ex_a072", "md_file": "knowledge_base/domains/CM/examples.md", "md_atom_type": "TABLE_ROW", "md_parent_section": "§CM.5 [Example 5]", "md_verbatim": "| 1 | ABC123 | CM | 101 | 1 | PRIOR RA MEDICATIONS | PRIOR RA MEDICATIONS | | Y | Y | RHEUMATOID ARTHRITIS | 2020-02-02 | -1 | | |", "score": 0.7667, "match_basis": "verbatim_token+domain_route:CM"}], "candidate_count": 5, "zero_candidate": false}
{"pdf_atom_id": "ig34_p0103_a019", "pdf_atom_type": "TABLE_ROW", "pdf_source": "SDTMIG_v3.4", "pdf_page": 103, "pdf_parent_section": "§6.1.2 [Concomitant/Prior Medications (CM)]", "pdf_verbatim": "| 6 | ABC123 | CM | 102 | 4 | METHOTREXATE | PRIOR RA MEDICATIONS | PRIOR DMARDS | | | RHEUMATOID ARTHRITIS | 2020-01-25 | -3 | ONGOING | 2020-01-25 |", "figure_ref": null, "candidates": [{"md_atom_id": "md_dmCM_ex_a077", "md_file": "knowledge_base/domains/CM/examples.md", "md_atom_type": "TABLE_ROW", "md_parent_section": "§CM.5 [Example 5]", "md_verbatim": "| 6 | ABC123 | CM | 102 | 4 | METHOTREXATE | PRIOR RA MEDICATIONS | PRIOR DMARDS | | | RHEUMATOID ARTHRITIS | 2020-01-25 | -3 | ONGOING | 2020-01-25 |", "score": 1.0, "match_basis": "verbatim_token+domain_route:CM"}, {"md_atom_id": "md_dmCM_ex_a075", "md_file": "knowledge_base/domains/CM/examples.md", "md_atom_type": "TABLE_ROW", "md_parent_section": "§CM.5 [Example 5]", "md_verbatim": "| 4 | ABC123 | CM | 102 | 2 | PRIOR DMARDS | PRIOR RA MEDICATIONS | PRIOR DMARDS | Y | Y | RHEUMATOID ARTHRITIS | 2020-01-25 | -3 | | |", "score": 0.8302, "match_basis": "verbatim_token+domain_route:CM"}, {"md_atom_id": "md_dmCM_ex_a073", "md_file": "knowledge_base/domains/CM/examples.md", "md_atom_type": "TABLE_ROW", "md_parent_section": "§CM.5 [Example 5]", "md_verbatim": "| 2 | ABC123 | CM | 101 | 2 | PRIOR DMARDS | PRIOR RA MEDICATIONS | PRIOR DMARDS | Y | N | RHEUMATOID ARTHRITIS | 2020-02-02 | -1 | | |", "score": 0.8111, "match_basis": "verbatim_token+domain_route:CM"}, {"md_atom_id": "md_dmCM_ex_a074", "md_file": "knowledge_base/domains/CM/examples.md", "md_atom_type": "TABLE_ROW", "md_parent_section": "§CM.5 [Example 5]", "md_verbatim": "| 3 | ABC123 | CM | 102 | 1 | PRIOR RA MEDICATIONS | PRIOR RA MEDICATIONS | | Y | Y | RHEUMATOID ARTHRITIS | 2020-01-25 | -3 | | |", "score": 0.7849, "match_basis": "verbatim_token+domain_route:CM"}, {"md_atom_id": "md_dmCM_ex_a072", "md_file": "knowledge_base/domains/CM/examples.md", "md_atom_type": "TABLE_ROW", "md_parent_section": "§CM.5 [Example 5]", "md_verbatim": "| 1 | ABC123 | CM | 101 | 1 | PRIOR RA MEDICATIONS | PRIOR RA MEDICATIONS | | Y | Y | RHEUMATOID ARTHRITIS | 2020-02-02 | -1 | | |", "score": 0.7667, "match_basis": "verbatim_token+domain_route:CM"}], "candidate_count": 5, "zero_candidate": false}
{"pdf_atom_id": "ig34_p0103_a020", "pdf_atom_type": "HEADING", "pdf_source": "SDTMIG_v3.4", "pdf_page": 103, "pdf_parent_section": "§6.1 [Models for Interventions Domains]", "pdf_verbatim": "6.1.3 Exposure Domains", "figure_ref": null, "candidates": [{"md_atom_id": "md_index_a023", "md_file": "knowledge_base/INDEX.md", "md_atom_type": "HEADING", "md_parent_section": "§ SDTM Knowledge Base — Index", "md_verbatim": "## Domains (63 domains)", "score": 0.5727, "match_basis": "verbatim_token+global_search"}, {"md_atom_id": "md_index_a044", "md_file": "knowledge_base/INDEX.md", "md_atom_type": "HEADING", "md_parent_section": "§ Domains (63 domains)", "md_verbatim": "### Events Domains", "score": 0.5, "match_basis": "verbatim_token+global_search"}, {"md_atom_id": "md_index_a028", "md_file": "knowledge_base/INDEX.md", "md_atom_type": "HEADING", "md_parent_section": "§ Domains (63 domains)", "md_verbatim": "### Special-purpose Domains", "score": 0.48, "match_basis": "verbatim_token+global_search"}, {"md_atom_id": "md_ch10_a152", "md_file": "knowledge_base/chapters/ch10_appendices.md", "md_atom_type": "HEADING", "md_parent_section": "§10.E [Revision History]", "md_verbatim": "### New Domains for SDTMIG v3.4", "score": 0.4765, "match_basis": "verbatim_token+global_search"}, {"md_atom_id": "md_index_a053", "md_file": "knowledge_base/INDEX.md", "md_atom_type": "HEADING", "md_parent_section": "§ Domains (63 domains)", "md_verbatim": "### Findings Domains", "score": 0.4765, "match_basis": "verbatim_token+global_search"}], "candidate_count": 5, "zero_candidate": false}
