{"pdf_atom_id": "ig34_p0128_a021", "pdf_atom_type": "CODE_LITERAL", "pdf_source": "SDTMIG v3.4 (no header footer).pdf", "pdf_page": 128, "pdf_parent_section": "§6.1.5 [Procedures (PR)]", "pdf_verbatim": "relrec.xpt", "figure_ref": null, "candidates": [{"md_atom_id": "md_dmPR_ex_a024", "md_file": "knowledge_base/domains/PR/examples.md", "md_atom_type": "SENTENCE", "md_parent_section": "§PR.2 [Example 2]", "md_verbatim": "**relrec.xpt**", "score": 0.79, "match_basis": "verbatim_token+domain_route:PR"}, {"md_atom_id": "md_dmPR_ex_a004", "md_file": "knowledge_base/domains/PR/examples.md", "md_atom_type": "SENTENCE", "md_parent_section": "§PR.1 [Example 1]", "md_verbatim": "**pr.xpt**", "score": 0.31, "match_basis": "verbatim_token+domain_route:PR"}, {"md_atom_id": "md_dmPR_ex_a014", "md_file": "knowledge_base/domains/PR/examples.md", "md_atom_type": "SENTENCE", "md_parent_section": "§PR.2 [Example 2]", "md_verbatim": "**pr.xpt**", "score": 0.31, "match_basis": "verbatim_token+domain_route:PR"}, {"md_atom_id": "md_dmPR_ex_a018", "md_file": "knowledge_base/domains/PR/examples.md", "md_atom_type": "SENTENCE", "md_parent_section": "§PR.2 [Example 2]", "md_verbatim": "**eg.xpt**", "score": 0.31, "match_basis": "verbatim_token+domain_route:PR"}, {"md_atom_id": "md_dmPR_ex_a030", "md_file": "knowledge_base/domains/PR/examples.md", "md_atom_type": "SENTENCE", "md_parent_section": "§PR.3 [Example 3]", "md_verbatim": "**pr.xpt**", "score": 0.31, "match_basis": "verbatim_token+domain_route:PR"}, {"md_atom_id": "md_dmPR_ex_a023", "md_file": "knowledge_base/domains/PR/examples.md", "md_atom_type": "SENTENCE", "md_parent_section": "§PR.2 [Example 2]", "md_verbatim": "The relrec.xpt reflects a one-to-many dataset-level relationship between PR and EG using --LNKID.", "score": 0.2582, "match_basis": "verbatim_token+domain_route:PR"}, {"md_atom_id": "md_dmPR_ex_a025", "md_file": "knowledge_base/domains/PR/examples.md", "md_atom_type": "TABLE_HEADER", "md_parent_section": "§PR.2 [Example 2]", "md_verbatim": "| Row | STUDYID | RDOMAIN | USUBJID | IDVAR | IDVARVAL | RELTYPE | RELID |\n|-----|---------|---------|---------|-------|----------|---------|-------|", "score": 0.2082, "match_basis": "verbatim_token+domain_route:PR"}, {"md_atom_id": "md_dmPR_ex_a016", "md_file": "knowledge_base/domains/PR/examples.md", "md_atom_type": "TABLE_ROW", "md_parent_section": "§PR.2 [Example 2]", "md_verbatim": "| 1 | ABC123 | PR | ABC123-001 | 1 | 20110101_20110102 | 24-HOUR HOLTER MONITOR | HOLTER CONTINUOUS ECG RECORDING | Y | Y | 2011-01-01T08:00 | 2011-01-02T09:45 |", "score": 0.2025, "match_basis": "verbatim_token+domain_route:PR"}, {"md_atom_id": "md_dmPR_ex_a022", "md_file": "knowledge_base/domains/PR/examples.md", "md_atom_type": "TABLE_ROW", "md_parent_section": "§PR.2 [Example 2]", "md_verbatim": "| 3 | ABC123 | EG | ABC123-001 | 3 | 20110101_20110102 | EGHRMEAN | ECG Mean Heart Rate | 75 | beats/min | HOLTER CONTINUOUS ECG RECORDING | 2011-01-01T08:00 | 2011-01-02T09:45 |", "score": 0.2007, "match_basis": "verbatim_token+domain_route:PR"}, {"md_atom_id": "md_dmPR_ex_a020", "md_file": "knowledge_base/domains/PR/examples.md", "md_atom_type": "TABLE_ROW", "md_parent_section": "§PR.2 [Example 2]", "md_verbatim": "| 1 | ABC123 | EG | ABC123-001 | 1 | 20110101_20110102 | EGHRMIN | ECG Minimum Heart Rate | 70 | beats/min | HOLTER CONTINUOUS ECG RECORDING | 2011-01-01T08:00 | 2011-01-02T09:45 |", "score": 0.2003, "match_basis": "verbatim_token+domain_route:PR"}], "candidate_count": 10, "zero_candidate": false}
{"pdf_atom_id": "ig34_p0128_a022", "pdf_atom_type": "TABLE_HEADER", "pdf_source": "SDTMIG v3.4 (no header footer).pdf", "pdf_page": 128, "pdf_parent_section": "§6.1.5 [Procedures (PR)]", "pdf_verbatim": "| Row | STUDYID | RDOMAIN | USUBJID | IDVAR | IDVARVAL | RELTYPE | RELID |", "figure_ref": null, "candidates": [{"md_atom_id": "md_dmPR_ex_a025", "md_file": "knowledge_base/domains/PR/examples.md", "md_atom_type": "TABLE_HEADER", "md_parent_section": "§PR.2 [Example 2]", "md_verbatim": "| Row | STUDYID | RDOMAIN | USUBJID | IDVAR | IDVARVAL | RELTYPE | RELID |\n|-----|---------|---------|---------|-------|----------|---------|-------|", "score": 1.0, "match_basis": "verbatim_token+domain_route:PR"}, {"md_atom_id": "md_dmPR_ex_a005", "md_file": "knowledge_base/domains/PR/examples.md", "md_atom_type": "TABLE_HEADER", "md_parent_section": "§PR.1 [Example 1]", "md_verbatim": "| Row | STUDYID | DOMAIN | USUBJID | PRSEQ | PRTRT | PRSTDTC | PRENDTC |\n|-----|---------|--------|---------|-------|-------|---------|---------|", "score": 0.6093, "match_basis": "verbatim_token+domain_route:PR"}, {"md_atom_id": "md_dmPR_ex_a031", "md_file": "knowledge_base/domains/PR/examples.md", "md_atom_type": "TABLE_HEADER", "md_parent_section": "§PR.3 [Example 3]", "md_verbatim": "| Row | STUDYID | DOMAIN | USUBJID | PRSEQ | PRTRT | PRDOSE | PRDOSU | PRLOC | PRLAT | PRSTDTC | PRENDTC |\n|-----|---------|--------|---------|-------|-------|--------|--------|-------|-------|---------|---------|", "score": 0.5846, "match_basis": "verbatim_token+domain_route:PR"}, {"md_atom_id": "md_dmPR_ex_a015", "md_file": "knowledge_base/domains/PR/examples.md", "md_atom_type": "TABLE_HEADER", "md_parent_section": "§PR.2 [Example 2]", "md_verbatim": "| Row | STUDYID | DOMAIN | USUBJID | PRSEQ | PRLNKID | PRTRT | PRDECOD | PRPRESP | PROCCUR | PRSTDTC | PRENDTC |\n|-----|---------|--------|---------|-------|---------|-------|---------|---------|---------|---------|---------|", "score": 0.5452, "match_basis": "verbatim_token+domain_route:PR"}, {"md_atom_id": "md_dmPR_ex_a019", "md_file": "knowledge_base/domains/PR/examples.md", "md_atom_type": "TABLE_HEADER", "md_parent_section": "§PR.2 [Example 2]", "md_verbatim": "| Row | STUDYID | DOMAIN | USUBJID | EGSEQ | EGLNKID | EGTESTCD | EGTEST | EGORRES | EGORRESU | EGMETHOD | EGDTC | EGENDTC |\n|-----|---------|--------|---------|-------|---------|----------|--------|---------|----------|----------|-------|---------|", "score": 0.5452, "match_basis": "verbatim_token+domain_route:PR"}], "candidate_count": 5, "zero_candidate": false}
{"pdf_atom_id": "ig34_p0128_a023", "pdf_atom_type": "TABLE_ROW", "pdf_source": "SDTMIG v3.4 (no header footer).pdf", "pdf_page": 128, "pdf_parent_section": "§6.1.5 [Procedures (PR)]", "pdf_verbatim": "| 1 | ABC123 | PR | | PRLNKID | | ONE | 1 |", "figure_ref": null, "candidates": [{"md_atom_id": "md_dmPR_ex_a026", "md_file": "knowledge_base/domains/PR/examples.md", "md_atom_type": "TABLE_ROW", "md_parent_section": "§PR.2 [Example 2]", "md_verbatim": "| 1 | ABC123 | PR | | PRLNKID | | ONE | 1 |", "score": 1.0, "match_basis": "verbatim_token+domain_route:PR"}, {"md_atom_id": "md_dmPR_ex_a027", "md_file": "knowledge_base/domains/PR/examples.md", "md_atom_type": "TABLE_ROW", "md_parent_section": "§PR.2 [Example 2]", "md_verbatim": "| 2 | ABC123 | EG | | EGLNKID | | MANY | 1 |", "score": 0.7, "match_basis": "verbatim_token+domain_route:PR"}, {"md_atom_id": "md_dmPR_ex_a034", "md_file": "knowledge_base/domains/PR/examples.md", "md_atom_type": "TABLE_ROW", "md_parent_section": "§PR.3 [Example 3]", "md_verbatim": "| 3 | ABC123 | PR | ABC123-3003 | 1 | Radiotherapy | 300 | cGy | BONE | | 2011-08-19 | 2011-08-22 |", "score": 0.5154, "match_basis": "verbatim_token+domain_route:PR"}, {"md_atom_id": "md_dmPR_ex_a033", "md_file": "knowledge_base/domains/PR/examples.md", "md_atom_type": "TABLE_ROW", "md_parent_section": "§PR.3 [Example 3]", "md_verbatim": "| 2 | ABC123 | PR | ABC123-2002 | 1 | Brachytherapy | 25 | Gy | PROSTATE | | 2011-07-15 | 2011-07-15 |", "score": 0.4774, "match_basis": "verbatim_token+domain_route:PR"}, {"md_atom_id": "md_dmPR_ex_a032", "md_file": "knowledge_base/domains/PR/examples.md", "md_atom_type": "TABLE_ROW", "md_parent_section": "§PR.3 [Example 3]", "md_verbatim": "| 1 | ABC123 | PR | ABC123-1001 | 1 | External beam radiation therapy | 70 | Gy | BREAST | RIGHT | 2011-06-01 | 2011-06-25 |", "score": 0.4585, "match_basis": "verbatim_token+domain_route:PR"}], "candidate_count": 5, "zero_candidate": false}
{"pdf_atom_id": "ig34_p0128_a024", "pdf_atom_type": "TABLE_ROW", "pdf_source": "SDTMIG v3.4 (no header footer).pdf", "pdf_page": 128, "pdf_parent_section": "§6.1.5 [Procedures (PR)]", "pdf_verbatim": "| 2 | ABC123 | EG | | EGLNKID | | MANY | 1 |", "figure_ref": null, "candidates": [{"md_atom_id": "md_dmPR_ex_a027", "md_file": "knowledge_base/domains/PR/examples.md", "md_atom_type": "TABLE_ROW", "md_parent_section": "§PR.2 [Example 2]", "md_verbatim": "| 2 | ABC123 | EG | | EGLNKID | | MANY | 1 |", "score": 1.0, "match_basis": "verbatim_token+domain_route:PR"}, {"md_atom_id": "md_dmPR_ex_a026", "md_file": "knowledge_base/domains/PR/examples.md", "md_atom_type": "TABLE_ROW", "md_parent_section": "§PR.2 [Example 2]", "md_verbatim": "| 1 | ABC123 | PR | | PRLNKID | | ONE | 1 |", "score": 0.7, "match_basis": "verbatim_token+domain_route:PR"}, {"md_atom_id": "md_dmPR_ex_a034", "md_file": "knowledge_base/domains/PR/examples.md", "md_atom_type": "TABLE_ROW", "md_parent_section": "§PR.3 [Example 3]", "md_verbatim": "| 3 | ABC123 | PR | ABC123-3003 | 1 | Radiotherapy | 300 | cGy | BONE | | 2011-08-19 | 2011-08-22 |", "score": 0.4857, "match_basis": "verbatim_token+domain_route:PR"}, {"md_atom_id": "md_dmPR_ex_a033", "md_file": "knowledge_base/domains/PR/examples.md", "md_atom_type": "TABLE_ROW", "md_parent_section": "§PR.3 [Example 3]", "md_verbatim": "| 2 | ABC123 | PR | ABC123-2002 | 1 | Brachytherapy | 25 | Gy | PROSTATE | | 2011-07-15 | 2011-07-15 |", "score": 0.475, "match_basis": "verbatim_token+domain_route:PR"}, {"md_atom_id": "md_dmPR_ex_a032", "md_file": "knowledge_base/domains/PR/examples.md", "md_atom_type": "TABLE_ROW", "md_parent_section": "§PR.3 [Example 3]", "md_verbatim": "| 1 | ABC123 | PR | ABC123-1001 | 1 | External beam radiation therapy | 70 | Gy | BREAST | RIGHT | 2011-06-01 | 2011-06-25 |", "score": 0.4571, "match_basis": "verbatim_token+domain_route:PR"}], "candidate_count": 5, "zero_candidate": false}
{"pdf_atom_id": "ig34_p0128_a025", "pdf_atom_type": "HEADING", "pdf_source": "SDTMIG v3.4 (no header footer).pdf", "pdf_page": 128, "pdf_parent_section": "§6.1.5 [Procedures (PR)]", "pdf_verbatim": "Example 3", "figure_ref": null, "candidates": [{"md_atom_id": "md_dmPR_ex_a002", "md_file": "knowledge_base/domains/PR/examples.md", "md_atom_type": "HEADING", "md_parent_section": "§PR [PR — Examples]", "md_verbatim": "## Example 1", "score": 1.0, "match_basis": "verbatim_token+domain_route:PR"}, {"md_atom_id": "md_dmPR_ex_a011", "md_file": "knowledge_base/domains/PR/examples.md", "md_atom_type": "HEADING", "md_parent_section": "§PR [PR — Examples]", "md_verbatim": "## Example 2", "score": 1.0, "match_basis": "verbatim_token+domain_route:PR"}, {"md_atom_id": "md_dmPR_ex_a028", "md_file": "knowledge_base/domains/PR/examples.md", "md_atom_type": "HEADING", "md_parent_section": "§PR [PR — Examples]", "md_verbatim": "## Example 3", "score": 1.0, "match_basis": "verbatim_token+domain_route:PR"}, {"md_atom_id": "md_dmPR_ex_a001", "md_file": "knowledge_base/domains/PR/examples.md", "md_atom_type": "HEADING", "md_parent_section": "§PR [PR — Examples]", "md_verbatim": "# PR — Examples", "score": 0.9, "match_basis": "verbatim_token+domain_route:PR"}, {"md_atom_id": "md_dmPR_assn_a001", "md_file": "knowledge_base/domains/PR/assumptions.md", "md_atom_type": "HEADING", "md_parent_section": "§PR [PR — Assumptions]", "md_verbatim": "# PR — Assumptions", "score": 0.4, "match_basis": "verbatim_token+domain_route:PR"}], "candidate_count": 5, "zero_candidate": false}
{"pdf_atom_id": "ig34_p0128_a026", "pdf_atom_type": "SENTENCE", "pdf_source": "SDTMIG v3.4 (no header footer).pdf", "pdf_page": 128, "pdf_parent_section": "§6.1.5 [Procedures (PR)]", "pdf_verbatim": "This example shows data for 3 subjects who had on-study radiotherapy. Dose, dose unit, location, and timing are represented. In this study, the sponsor chose to consider verbatim text in PRTRT as long text represented in mixed case. See Section 4.2.4, Text Case in Submitted Data.", "figure_ref": null, "candidates": [{"md_atom_id": "md_dmPR_ex_a029", "md_file": "knowledge_base/domains/PR/examples.md", "md_atom_type": "SENTENCE", "md_parent_section": "§PR.3 [Example 3]", "md_verbatim": "This example shows data for 3 subjects who had on-study radiotherapy. Dose, dose unit, location, and timing are represented. In this study, the sponsor chose to consider verbatim text in PRTRT as long text represented in mixed case. See Section 4.2.4, Text Case in Submitted Data.", "score": 1.0, "match_basis": "verbatim_token+domain_route:PR"}, {"md_atom_id": "md_dmPR_ex_a003", "md_file": "knowledge_base/domains/PR/examples.md", "md_atom_type": "SENTENCE", "md_parent_section": "§PR.1 [Example 1]", "md_verbatim": "A procedures log CRF may collect verbatim values (procedure names) and dates performed. This example shows a subject who had 5 procedures collected and represented in the PR domain. In this study, the sponsor chose to consider verbatim text in PRTRT as long text represented in mixed case. See Section 4.2.4, Text Case in Submitted Data.", "score": 0.7488, "match_basis": "verbatim_token+domain_route:PR"}, {"md_atom_id": "md_dmPR_ex_a012", "md_file": "knowledge_base/domains/PR/examples.md", "md_atom_type": "SENTENCE", "md_parent_section": "§PR.2 [Example 2]", "md_verbatim": "This example shows data from a 24-hour Holter monitor, an ambulatory electrocardiography device that records a continuous electrocardiographic rhythm pattern.", "score": 0.474, "match_basis": "verbatim_token+domain_route:PR"}, {"md_atom_id": "md_dmPR_ex_a013", "md_file": "knowledge_base/domains/PR/examples.md", "md_atom_type": "SENTENCE", "md_parent_section": "§PR.2 [Example 2]", "md_verbatim": "The start and end of the Holter monitoring procedure are represented in the PR domain.", "score": 0.47, "match_basis": "verbatim_token+domain_route:PR"}, {"md_atom_id": "md_dmPR_ex_a017", "md_file": "knowledge_base/domains/PR/examples.md", "md_atom_type": "SENTENCE", "md_parent_section": "§PR.2 [Example 2]", "md_verbatim": "The heart rate findings from the procedure are represented in the ECG Test Results (EG) domain.", "score": 0.4576, "match_basis": "verbatim_token+domain_route:PR"}], "candidate_count": 5, "zero_candidate": false}
{"pdf_atom_id": "ig34_p0128_a027", "pdf_atom_type": "CODE_LITERAL", "pdf_source": "SDTMIG v3.4 (no header footer).pdf", "pdf_page": 128, "pdf_parent_section": "§6.1.5 [Procedures (PR)]", "pdf_verbatim": "pr.xpt", "figure_ref": null, "candidates": [{"md_atom_id": "md_dmPR_ex_a004", "md_file": "knowledge_base/domains/PR/examples.md", "md_atom_type": "SENTENCE", "md_parent_section": "§PR.1 [Example 1]", "md_verbatim": "**pr.xpt**", "score": 0.79, "match_basis": "verbatim_token+domain_route:PR"}, {"md_atom_id": "md_dmPR_ex_a014", "md_file": "knowledge_base/domains/PR/examples.md", "md_atom_type": "SENTENCE", "md_parent_section": "§PR.2 [Example 2]", "md_verbatim": "**pr.xpt**", "score": 0.79, "match_basis": "verbatim_token+domain_route:PR"}, {"md_atom_id": "md_dmPR_ex_a018", "md_file": "knowledge_base/domains/PR/examples.md", "md_atom_type": "SENTENCE", "md_parent_section": "§PR.2 [Example 2]", "md_verbatim": "**eg.xpt**", "score": 0.79, "match_basis": "verbatim_token+domain_route:PR"}, {"md_atom_id": "md_dmPR_ex_a030", "md_file": "knowledge_base/domains/PR/examples.md", "md_atom_type": "SENTENCE", "md_parent_section": "§PR.3 [Example 3]", "md_verbatim": "**pr.xpt**", "score": 0.79, "match_basis": "verbatim_token+domain_route:PR"}, {"md_atom_id": "md_dmPR_ex_a024", "md_file": "knowledge_base/domains/PR/examples.md", "md_atom_type": "SENTENCE", "md_parent_section": "§PR.2 [Example 2]", "md_verbatim": "**relrec.xpt**", "score": 0.31, "match_basis": "verbatim_token+domain_route:PR"}, {"md_atom_id": "md_dmPR_ex_a023", "md_file": "knowledge_base/domains/PR/examples.md", "md_atom_type": "SENTENCE", "md_parent_section": "§PR.2 [Example 2]", "md_verbatim": "The relrec.xpt reflects a one-to-many dataset-level relationship between PR and EG using --LNKID.", "score": 0.2036, "match_basis": "verbatim_token+domain_route:PR"}, {"md_atom_id": "md_dmPR_assn_a001", "md_file": "knowledge_base/domains/PR/assumptions.md", "md_atom_type": "HEADING", "md_parent_section": "§PR [PR — Assumptions]", "md_verbatim": "# PR — Assumptions", "score": 0.19, "match_basis": "verbatim_token+domain_route:PR"}, {"md_atom_id": "md_dmPR_assn_a002", "md_file": "knowledge_base/domains/PR/assumptions.md", "md_atom_type": "LIST_ITEM", "md_parent_section": "§PR [PR — Assumptions]", "md_verbatim": "1. Some examples of procedures, by type, include the following:\n   a. Disease screening (e.g., mammogram, pap smear)\n   b. Endoscopic examinations (e.g., arthroscopy, diagnostic colonoscopy, therapeutic colonoscopy, diagnostic laparoscopy, therapeutic laparoscopy)\n   c. Diagnostic tests (e.g., amniocentesis, biopsy, catheterization, cutaneous oximetry, finger stick, fluorophotometry, imaging techniques (e.g., DXA scan, CT scan, MRI), phlebotomy, pulmonary function test, skin test, stress test, tympanometry)\n   d. Therapeutic procedures (e.g., ablation therapy, catheterization, cryotherapy, mechanical ventilation, phototherapy, radiation therapy/radiotherapy, thermotherapy)\n   e. Surgical procedures (e.g., curative surgery, diagnostic surgery, palliative surgery, therapeutic surgery, prophylactic surgery, resection, stenting, hysterectomy, tubal ligation, implantation)\n\n   The Procedures domain is based on the Interventions observation class. The extent of physiological effect may range from observable to microscopic. Regardless of the extent of effect or whether it is collected in the study, all collected procedures are represented in this domain. The protocol design should specify whether procedure information will be collected. Measurements obtained from procedures are to be represented in their respective Findings domain(s). For example, a biopsy may be performed to obtain a tissue sample that is then evaluated histopathologically. In this case, details of the biopsy procedure can be represented in the PR domain and the histopathology findings in the Microscopic Findings (MI) domain. Describing the relationship between PR and MI records (in RELREC) in this example is dependent on whether the relationship is collected, either explicitly or implicitly.", "score": 0.19, "match_basis": "verbatim_token+domain_route:PR"}, {"md_atom_id": "md_dmPR_assn_a003", "md_file": "knowledge_base/domains/PR/assumptions.md", "md_atom_type": "LIST_ITEM", "md_parent_section": "§PR [PR — Assumptions]", "md_verbatim": "2. In the Findings Observation Class, the test method is represented in the --METHOD variable (e.g., electrophoresis, gram stain, polymerase chain reaction). At times, the test method overlaps with diagnostic/therapeutic procedures (e.g., ultrasound, MRI, x-ray) in-scope for the PR domain. The following is recommended: If timing (start, end or duration) or an indicator populating PROCCUR, PRSTAT, or PRREASND is collected, then a PR record should be created. If only the findings from a procedure are collected, then --METHOD in the Findings domain(s) may be sufficient to reflect the procedure and a related PR record is optional. It is at the sponsor's discretion whether to represent the procedure as both a test method (--METHOD) and related PR record.", "score": 0.19, "match_basis": "verbatim_token+domain_route:PR"}, {"md_atom_id": "md_dmPR_assn_a004", "md_file": "knowledge_base/domains/PR/assumptions.md", "md_atom_type": "LIST_ITEM", "md_parent_section": "§PR [PR — Assumptions]", "md_verbatim": "3. PRINDC is used to represent a medical indication, a medical condition which makes a treatment advisable. The reason for a procedure may be something other than a medical indication. For example, an x-ray might be taken to determine whether a fracture was present. Reasons other than medical indications should be represented using the supplemental qualifier PRREAS (see Appendix C1, Supplemental Qualifiers Name Codes).", "score": 0.19, "match_basis": "verbatim_token+domain_route:PR"}], "candidate_count": 10, "zero_candidate": false}
{"pdf_atom_id": "ig34_p0128_a028", "pdf_atom_type": "TABLE_HEADER", "pdf_source": "SDTMIG v3.4 (no header footer).pdf", "pdf_page": 128, "pdf_parent_section": "§6.1.5 [Procedures (PR)]", "pdf_verbatim": "| Row | STUDYID | DOMAIN | USUBJID | PRSEQ | PRTRT | PRDOSE | PRDOSU | PRLOC | PRLAT | PRSTDTC | PRENDTC |", "figure_ref": null, "candidates": [{"md_atom_id": "md_dmPR_ex_a031", "md_file": "knowledge_base/domains/PR/examples.md", "md_atom_type": "TABLE_HEADER", "md_parent_section": "§PR.3 [Example 3]", "md_verbatim": "| Row | STUDYID | DOMAIN | USUBJID | PRSEQ | PRTRT | PRDOSE | PRDOSU | PRLOC | PRLAT | PRSTDTC | PRENDTC |\n|-----|---------|--------|---------|-------|-------|--------|--------|-------|-------|---------|---------|", "score": 1.0, "match_basis": "verbatim_token+domain_route:PR"}, {"md_atom_id": "md_dmPR_ex_a005", "md_file": "knowledge_base/domains/PR/examples.md", "md_atom_type": "TABLE_HEADER", "md_parent_section": "§PR.1 [Example 1]", "md_verbatim": "| Row | STUDYID | DOMAIN | USUBJID | PRSEQ | PRTRT | PRSTDTC | PRENDTC |\n|-----|---------|--------|---------|-------|-------|---------|---------|", "score": 0.8462, "match_basis": "verbatim_token+domain_route:PR"}, {"md_atom_id": "md_dmPR_ex_a015", "md_file": "knowledge_base/domains/PR/examples.md", "md_atom_type": "TABLE_HEADER", "md_parent_section": "§PR.2 [Example 2]", "md_verbatim": "| Row | STUDYID | DOMAIN | USUBJID | PRSEQ | PRLNKID | PRTRT | PRDECOD | PRPRESP | PROCCUR | PRSTDTC | PRENDTC |\n|-----|---------|--------|---------|-------|---------|-------|---------|---------|---------|---------|---------|", "score": 0.7321, "match_basis": "verbatim_token+domain_route:PR"}, {"md_atom_id": "md_dmPR_ex_a025", "md_file": "knowledge_base/domains/PR/examples.md", "md_atom_type": "TABLE_HEADER", "md_parent_section": "§PR.2 [Example 2]", "md_verbatim": "| Row | STUDYID | RDOMAIN | USUBJID | IDVAR | IDVARVAL | RELTYPE | RELID |\n|-----|---------|---------|---------|-------|----------|---------|-------|", "score": 0.5846, "match_basis": "verbatim_token+domain_route:PR"}, {"md_atom_id": "md_dmPR_ex_a019", "md_file": "knowledge_base/domains/PR/examples.md", "md_atom_type": "TABLE_HEADER", "md_parent_section": "§PR.2 [Example 2]", "md_verbatim": "| Row | STUDYID | DOMAIN | USUBJID | EGSEQ | EGLNKID | EGTESTCD | EGTEST | EGORRES | EGORRESU | EGMETHOD | EGDTC | EGENDTC |\n|-----|---------|--------|---------|-------|---------|----------|--------|---------|----------|----------|-------|---------|", "score": 0.5676, "match_basis": "verbatim_token+domain_route:PR"}], "candidate_count": 5, "zero_candidate": false}
{"pdf_atom_id": "ig34_p0128_a029", "pdf_atom_type": "TABLE_ROW", "pdf_source": "SDTMIG v3.4 (no header footer).pdf", "pdf_page": 128, "pdf_parent_section": "§6.1.5 [Procedures (PR)]", "pdf_verbatim": "| 1 | ABC123 | PR | ABC123-1001 | 1 | External beam radiation therapy | 70 | Gy | BREAST | RIGHT | 2011-06-01 | 2011-06-25 |", "figure_ref": null, "candidates": [{"md_atom_id": "md_dmPR_ex_a032", "md_file": "knowledge_base/domains/PR/examples.md", "md_atom_type": "TABLE_ROW", "md_parent_section": "§PR.3 [Example 3]", "md_verbatim": "| 1 | ABC123 | PR | ABC123-1001 | 1 | External beam radiation therapy | 70 | Gy | BREAST | RIGHT | 2011-06-01 | 2011-06-25 |", "score": 1.0, "match_basis": "verbatim_token+domain_route:PR"}, {"md_atom_id": "md_dmPR_ex_a034", "md_file": "knowledge_base/domains/PR/examples.md", "md_atom_type": "TABLE_ROW", "md_parent_section": "§PR.3 [Example 3]", "md_verbatim": "| 3 | ABC123 | PR | ABC123-3003 | 1 | Radiotherapy | 300 | cGy | BONE | | 2011-08-19 | 2011-08-22 |", "score": 0.5814, "match_basis": "verbatim_token+domain_route:PR"}, {"md_atom_id": "md_dmPR_ex_a033", "md_file": "knowledge_base/domains/PR/examples.md", "md_atom_type": "TABLE_ROW", "md_parent_section": "§PR.3 [Example 3]", "md_verbatim": "| 2 | ABC123 | PR | ABC123-2002 | 1 | Brachytherapy | 25 | Gy | PROSTATE | | 2011-07-15 | 2011-07-15 |", "score": 0.5347, "match_basis": "verbatim_token+domain_route:PR"}, {"md_atom_id": "md_dmPR_ex_a021", "md_file": "knowledge_base/domains/PR/examples.md", "md_atom_type": "TABLE_ROW", "md_parent_section": "§PR.2 [Example 2]", "md_verbatim": "| 2 | ABC123 | EG | ABC123-001 | 2 | 20110101_20110102 | EGHRMAX | ECG Maximum Heart Rate | 100 | beats/min | HOLTER CONTINUOUS ECG RECORDING | 2011-01-01T08:00 | 2011-01-02T09:45 |", "score": 0.4741, "match_basis": "verbatim_token+domain_route:PR"}, {"md_atom_id": "md_dmPR_ex_a022", "md_file": "knowledge_base/domains/PR/examples.md", "md_atom_type": "TABLE_ROW", "md_parent_section": "§PR.2 [Example 2]", "md_verbatim": "| 3 | ABC123 | EG | ABC123-001 | 3 | 20110101_20110102 | EGHRMEAN | ECG Mean Heart Rate | 75 | beats/min | HOLTER CONTINUOUS ECG RECORDING | 2011-01-01T08:00 | 2011-01-02T09:45 |", "score": 0.4692, "match_basis": "verbatim_token+domain_route:PR"}], "candidate_count": 5, "zero_candidate": false}
{"pdf_atom_id": "ig34_p0128_a030", "pdf_atom_type": "TABLE_ROW", "pdf_source": "SDTMIG v3.4 (no header footer).pdf", "pdf_page": 128, "pdf_parent_section": "§6.1.5 [Procedures (PR)]", "pdf_verbatim": "| 2 | ABC123 | PR | ABC123-2002 | 1 | Brachytherapy | 25 | Gy | PROSTATE | | 2011-07-15 | 2011-07-15 |", "figure_ref": null, "candidates": [{"md_atom_id": "md_dmPR_ex_a033", "md_file": "knowledge_base/domains/PR/examples.md", "md_atom_type": "TABLE_ROW", "md_parent_section": "§PR.3 [Example 3]", "md_verbatim": "| 2 | ABC123 | PR | ABC123-2002 | 1 | Brachytherapy | 25 | Gy | PROSTATE | | 2011-07-15 | 2011-07-15 |", "score": 1.0, "match_basis": "verbatim_token+domain_route:PR"}, {"md_atom_id": "md_dmPR_ex_a034", "md_file": "knowledge_base/domains/PR/examples.md", "md_atom_type": "TABLE_ROW", "md_parent_section": "§PR.3 [Example 3]", "md_verbatim": "| 3 | ABC123 | PR | ABC123-3003 | 1 | Radiotherapy | 300 | cGy | BONE | | 2011-08-19 | 2011-08-22 |", "score": 0.5886, "match_basis": "verbatim_token+domain_route:PR"}, {"md_atom_id": "md_dmPR_ex_a032", "md_file": "knowledge_base/domains/PR/examples.md", "md_atom_type": "TABLE_ROW", "md_parent_section": "§PR.3 [Example 3]", "md_verbatim": "| 1 | ABC123 | PR | ABC123-1001 | 1 | External beam radiation therapy | 70 | Gy | BREAST | RIGHT | 2011-06-01 | 2011-06-25 |", "score": 0.5347, "match_basis": "verbatim_token+domain_route:PR"}, {"md_atom_id": "md_dmPR_ex_a008", "md_file": "knowledge_base/domains/PR/examples.md", "md_atom_type": "TABLE_ROW", "md_parent_section": "§PR.1 [Example 1]", "md_verbatim": "| 3 | XYZ | PR | XYZ789-002 | 3 | Prostate Examination | 2010-12-12 | 2010-12-12 |", "score": 0.5231, "match_basis": "verbatim_token+domain_route:PR"}, {"md_atom_id": "md_dmPR_ex_a026", "md_file": "knowledge_base/domains/PR/examples.md", "md_atom_type": "TABLE_ROW", "md_parent_section": "§PR.2 [Example 2]", "md_verbatim": "| 1 | ABC123 | PR | | PRLNKID | | ONE | 1 |", "score": 0.4774, "match_basis": "verbatim_token+domain_route:PR"}], "candidate_count": 5, "zero_candidate": false}
{"pdf_atom_id": "ig34_p0128_a031", "pdf_atom_type": "TABLE_ROW", "pdf_source": "SDTMIG v3.4 (no header footer).pdf", "pdf_page": 128, "pdf_parent_section": "§6.1.5 [Procedures (PR)]", "pdf_verbatim": "| 3 | ABC123 | PR | ABC123-3003 | 1 | Radiotherapy | 300 | cGy | BONE | | 2011-08-19 | 2011-08-22 |", "figure_ref": null, "candidates": [{"md_atom_id": "md_dmPR_ex_a034", "md_file": "knowledge_base/domains/PR/examples.md", "md_atom_type": "TABLE_ROW", "md_parent_section": "§PR.3 [Example 3]", "md_verbatim": "| 3 | ABC123 | PR | ABC123-3003 | 1 | Radiotherapy | 300 | cGy | BONE | | 2011-08-19 | 2011-08-22 |", "score": 1.0, "match_basis": "verbatim_token+domain_route:PR"}, {"md_atom_id": "md_dmPR_ex_a033", "md_file": "knowledge_base/domains/PR/examples.md", "md_atom_type": "TABLE_ROW", "md_parent_section": "§PR.3 [Example 3]", "md_verbatim": "| 2 | ABC123 | PR | ABC123-2002 | 1 | Brachytherapy | 25 | Gy | PROSTATE | | 2011-07-15 | 2011-07-15 |", "score": 0.5886, "match_basis": "verbatim_token+domain_route:PR"}, {"md_atom_id": "md_dmPR_ex_a032", "md_file": "knowledge_base/domains/PR/examples.md", "md_atom_type": "TABLE_ROW", "md_parent_section": "§PR.3 [Example 3]", "md_verbatim": "| 1 | ABC123 | PR | ABC123-1001 | 1 | External beam radiation therapy | 70 | Gy | BREAST | RIGHT | 2011-06-01 | 2011-06-25 |", "score": 0.5814, "match_basis": "verbatim_token+domain_route:PR"}, {"md_atom_id": "md_dmPR_ex_a026", "md_file": "knowledge_base/domains/PR/examples.md", "md_atom_type": "TABLE_ROW", "md_parent_section": "§PR.2 [Example 2]", "md_verbatim": "| 1 | ABC123 | PR | | PRLNKID | | ONE | 1 |", "score": 0.5154, "match_basis": "verbatim_token+domain_route:PR"}, {"md_atom_id": "md_dmPR_ex_a027", "md_file": "knowledge_base/domains/PR/examples.md", "md_atom_type": "TABLE_ROW", "md_parent_section": "§PR.2 [Example 2]", "md_verbatim": "| 2 | ABC123 | EG | | EGLNKID | | MANY | 1 |", "score": 0.4857, "match_basis": "verbatim_token+domain_route:PR"}], "candidate_count": 5, "zero_candidate": false}
{"pdf_atom_id": "ig34_p0129_a001", "pdf_atom_type": "HEADING", "pdf_source": "SDTMIG v3.4 (no header footer).pdf", "pdf_page": 129, "pdf_parent_section": "§6.1 [Models for Interventions Domains]", "pdf_verbatim": "6.1.6 Substance Use (SU)", "figure_ref": null, "candidates": [{"md_atom_id": "md_varindex_a1448", "md_file": "knowledge_base/VARIABLE_INDEX.md", "md_atom_type": "HEADING", "md_parent_section": "§ 二、领域专属变量（仅 1 个域，共 1499 个），按域分组", "md_verbatim": "### SU — Substance Use (Interventions)", "score": 0.5526, "match_basis": "verbatim_token+global_search"}, {"md_atom_id": "md_ch03_a109", "md_file": "knowledge_base/chapters/ch03_submitting_data.md", "md_atom_type": "HEADING", "md_parent_section": "§3.2 [Using the CDISC Domain Models in Regulatory Submissions — Dataset Metadata]", "md_verbatim": "## 3.2.2 Conformance", "score": 0.38, "match_basis": "verbatim_token+global_search"}, {"md_atom_id": "md_ch04_a201", "md_file": "knowledge_base/chapters/ch04_general_assumptions.md", "md_atom_type": "HEADING", "md_parent_section": "§4.2 [General Variable Assumptions]", "md_verbatim": "### 4.2.3 Use of \"Subject\" and USUBJID", "score": 0.375, "match_basis": "verbatim_token+global_search"}, {"md_atom_id": "md_model03_a105", "md_file": "knowledge_base/model/03_special_purpose_domains.md", "md_atom_type": "HEADING", "md_parent_section": "§ Subject Repro Stages", "md_verbatim": "## Subject Repro Stages", "score": 0.3667, "match_basis": "verbatim_token+global_search"}, {"md_atom_id": "md_ch04_a016", "md_file": "knowledge_base/chapters/ch04_general_assumptions.md", "md_atom_type": "HEADING", "md_parent_section": "§4.1.3 [Additional Timing Variables]", "md_verbatim": "#### 4.1.3.1 EPOCH Variable Guidance", "score": 0.3571, "match_basis": "verbatim_token+global_search"}], "candidate_count": 5, "zero_candidate": false}
{"pdf_atom_id": "ig34_p0129_a002", "pdf_atom_type": "HEADING", "pdf_source": "SDTMIG v3.4 (no header footer).pdf", "pdf_page": 129, "pdf_parent_section": "§6.1.6 [Substance Use (SU)]", "pdf_verbatim": "SU – Description/Overview", "figure_ref": null, "candidates": [{"md_atom_id": "md_dmSU_assn_a001", "md_file": "knowledge_base/domains/SU/assumptions.md", "md_atom_type": "HEADING", "md_parent_section": "§SU [SU — Assumptions]", "md_verbatim": "# SU — Assumptions", "score": 0.4857, "match_basis": "verbatim_token+domain_route:SU"}, {"md_atom_id": "md_dmSU_ex_a001", "md_file": "knowledge_base/domains/SU/examples.md", "md_atom_type": "HEADING", "md_parent_section": "§SU [SU — Examples]", "md_verbatim": "# SU — Examples", "score": 0.4, "match_basis": "verbatim_token+domain_route:SU"}, {"md_atom_id": "md_dmSU_ex_a002", "md_file": "knowledge_base/domains/SU/examples.md", "md_atom_type": "HEADING", "md_parent_section": "§SU [SU — Examples]", "md_verbatim": "## Example 1", "score": 0.4, "match_basis": "verbatim_token+domain_route:SU"}], "candidate_count": 3, "zero_candidate": false}
{"pdf_atom_id": "ig34_p0129_a003", "pdf_atom_type": "SENTENCE", "pdf_source": "SDTMIG v3.4 (no header footer).pdf", "pdf_page": 129, "pdf_parent_section": "§6.1.6 [Substance Use (SU)]", "pdf_verbatim": "An interventions domain that contains substance use information that may be used to assess the efficacy and/or safety of therapies that look to mitigate the effects of chronic substance use.", "figure_ref": null, "candidates": [{"md_atom_id": "md_dmSU_ex_a013", "md_file": "knowledge_base/domains/SU/examples.md", "md_atom_type": "SENTENCE", "md_parent_section": "§SU.1 [Example 1]", "md_verbatim": "**Row 1:** Subject 1234005 is a 2-pack/day current smoker. \"Current\" implies that smoking started sometime before the time the question was asked (SUSTTPT = \"2006-01-01\", SUSTRTPT = \"BEFORE\") and had not ended as of that date (SUENTPT = \"2006-01-01\", SUENRTPT = \"ONGOING\"). See Section 4.4.7, Use of Relative Timing Variables for the use of these variables. Both the beginning and ending reference time points for this question are the date of the assessment.", "score": 0.4653, "match_basis": "verbatim_token+domain_route:SU"}, {"md_atom_id": "md_dmSU_ex_a012", "md_file": "knowledge_base/domains/SU/examples.md", "md_atom_type": "SENTENCE", "md_parent_section": "§SU.1 [Example 1]", "md_verbatim": "**Not shown:** A subject who never smoked does not have a tobacco record. Alternatively, a row for the subject could have been included with SUOCCUR = \"N\" and null dosing and timing fields; the interpretation would be the same. A subject who did not drink any caffeinated drinks on the day of the assessment does not have any caffeine records. A subject who never smoked and did not drink caffeinated drinks on the day of the assessment does not appear in the dataset.", "score": 0.459, "match_basis": "verbatim_token+domain_route:SU"}, {"md_atom_id": "md_dmSU_ex_a017", "md_file": "knowledge_base/domains/SU/examples.md", "md_atom_type": "SENTENCE", "md_parent_section": "§SU.1 [Example 1]", "md_verbatim": "**Row 5:** Subject 1234006 drank coffee on the day of the assessment.", "score": 0.4557, "match_basis": "verbatim_token+domain_route:SU"}, {"md_atom_id": "md_dmSU_ex_a014", "md_file": "knowledge_base/domains/SU/examples.md", "md_atom_type": "SENTENCE", "md_parent_section": "§SU.1 [Example 1]", "md_verbatim": "**Row 2:** Subject 1234005 drank 3 cups of coffee on the day of the assessment.", "score": 0.4545, "match_basis": "verbatim_token+domain_route:SU"}, {"md_atom_id": "md_dmSU_ex_a016", "md_file": "knowledge_base/domains/SU/examples.md", "md_atom_type": "SENTENCE", "md_parent_section": "§SU.1 [Example 1]", "md_verbatim": "**Row 4:** Subject 1234006 drank tea on the day of the assessment.", "score": 0.4505, "match_basis": "verbatim_token+domain_route:SU"}], "candidate_count": 5, "zero_candidate": false}
{"pdf_atom_id": "ig34_p0129_a004", "pdf_atom_type": "HEADING", "pdf_source": "SDTMIG v3.4 (no header footer).pdf", "pdf_page": 129, "pdf_parent_section": "§6.1.6 [Substance Use (SU)]", "pdf_verbatim": "SU – Specification", "figure_ref": null, "candidates": [{"md_atom_id": "md_dmSU_assn_a001", "md_file": "knowledge_base/domains/SU/assumptions.md", "md_atom_type": "HEADING", "md_parent_section": "§SU [SU — Assumptions]", "md_verbatim": "# SU — Assumptions", "score": 0.4667, "match_basis": "verbatim_token+domain_route:SU"}, {"md_atom_id": "md_dmSU_ex_a001", "md_file": "knowledge_base/domains/SU/examples.md", "md_atom_type": "HEADING", "md_parent_section": "§SU [SU — Examples]", "md_verbatim": "# SU — Examples", "score": 0.4, "match_basis": "verbatim_token+domain_route:SU"}, {"md_atom_id": "md_dmSU_ex_a002", "md_file": "knowledge_base/domains/SU/examples.md", "md_atom_type": "HEADING", "md_parent_section": "§SU [SU — Examples]", "md_verbatim": "## Example 1", "score": 0.4, "match_basis": "verbatim_token+domain_route:SU"}], "candidate_count": 3, "zero_candidate": false}
{"pdf_atom_id": "ig34_p0129_a005", "pdf_atom_type": "SENTENCE", "pdf_source": "SDTMIG v3.4 (no header footer).pdf", "pdf_page": 129, "pdf_parent_section": "§6.1.6 [Substance Use (SU)]", "pdf_verbatim": "su.xpt, Substance Use — Interventions. One record per substance type per reported occurrence per subject, Tabulation.", "figure_ref": null, "candidates": [{"md_atom_id": "md_dmSU_ex_a012", "md_file": "knowledge_base/domains/SU/examples.md", "md_atom_type": "SENTENCE", "md_parent_section": "§SU.1 [Example 1]", "md_verbatim": "**Not shown:** A subject who never smoked does not have a tobacco record. Alternatively, a row for the subject could have been included with SUOCCUR = \"N\" and null dosing and timing fields; the interpretation would be the same. A subject who did not drink any caffeinated drinks on the day of the assessment does not have any caffeine records. A subject who never smoked and did not drink caffeinated drinks on the day of the assessment does not appear in the dataset.", "score": 0.4779, "match_basis": "verbatim_token+domain_route:SU"}, {"md_atom_id": "md_dmSU_ex_a013", "md_file": "knowledge_base/domains/SU/examples.md", "md_atom_type": "SENTENCE", "md_parent_section": "§SU.1 [Example 1]", "md_verbatim": "**Row 1:** Subject 1234005 is a 2-pack/day current smoker. \"Current\" implies that smoking started sometime before the time the question was asked (SUSTTPT = \"2006-01-01\", SUSTRTPT = \"BEFORE\") and had not ended as of that date (SUENTPT = \"2006-01-01\", SUENRTPT = \"ONGOING\"). See Section 4.4.7, Use of Relative Timing Variables for the use of these variables. Both the beginning and ending reference time points for this question are the date of the assessment.", "score": 0.4759, "match_basis": "verbatim_token+domain_route:SU"}, {"md_atom_id": "md_dmSU_ex_a018", "md_file": "knowledge_base/domains/SU/examples.md", "md_atom_type": "SENTENCE", "md_parent_section": "§SU.1 [Example 1]", "md_verbatim": "**Row 6:** Subject 1234007 had missing data for the smoking questions; this is indicated by SUSTAT = \"NOT DONE\". The reason is in SUREASND.", "score": 0.4688, "match_basis": "verbatim_token+domain_route:SU"}, {"md_atom_id": "md_dmSU_ex_a019", "md_file": "knowledge_base/domains/SU/examples.md", "md_atom_type": "SENTENCE", "md_parent_section": "§SU.1 [Example 1]", "md_verbatim": "**Row 7:** Subject 1234007 also had missing data for all of the caffeine questions.", "score": 0.46, "match_basis": "verbatim_token+domain_route:SU"}, {"md_atom_id": "md_dmSU_ex_a016", "md_file": "knowledge_base/domains/SU/examples.md", "md_atom_type": "SENTENCE", "md_parent_section": "§SU.1 [Example 1]", "md_verbatim": "**Row 4:** Subject 1234006 drank tea on the day of the assessment.", "score": 0.4514, "match_basis": "verbatim_token+domain_route:SU"}], "candidate_count": 5, "zero_candidate": false}
{"pdf_atom_id": "ig34_p0129_a006", "pdf_atom_type": "TABLE_HEADER", "pdf_source": "SDTMIG v3.4 (no header footer).pdf", "pdf_page": 129, "pdf_parent_section": "§6.1.6 [Substance Use (SU)]", "pdf_verbatim": "| Variable Name | Variable Label | Type | Controlled Terms, Codelist or Format¹ | Role | CDISC Notes | Core |", "figure_ref": null, "candidates": [{"md_atom_id": "md_dmSU_ex_a021", "md_file": "knowledge_base/domains/SU/examples.md", "md_atom_type": "TABLE_HEADER", "md_parent_section": "§SU.1 [Example 1]", "md_verbatim": "| Row | STUDYID | DOMAIN | USUBJID | SUSEQ | SUTRT | SUCAT | SUSTAT | SUREASND | SUDOSE | SUDOSU | SUDOSFRQ | SUSTDTC | SUENDTC | SUSTTPT | SUSTRTPT | SUENTPT | SUENRTPT |", "score": 0.4, "match_basis": "verbatim_token+domain_route:SU"}, {"md_atom_id": "md_dmSU_ex_a027", "md_file": "knowledge_base/domains/SU/examples.md", "md_atom_type": "TABLE_ROW", "md_parent_section": "§SU.1 [Example 1]", "md_verbatim": "| 6 | 1234 | SU | 1234007 | 1 | CIGARETTES | TOBACCO | NOT DONE | Subject left office before CRF was completed | | | | | | | | | |", "score": 0.3686, "match_basis": "verbatim_token+domain_route:SU"}, {"md_atom_id": "md_dmSU_ex_a024", "md_file": "knowledge_base/domains/SU/examples.md", "md_atom_type": "TABLE_ROW", "md_parent_section": "§SU.1 [Example 1]", "md_verbatim": "| 3 | 1234 | SU | 1234006 | 1 | CIGARETTES | TOBACCO | | | 1 | PACK | QD | | 2003 | 2006-03-15 | BEFORE | | |", "score": 0.3673, "match_basis": "verbatim_token+domain_route:SU"}, {"md_atom_id": "md_dmSU_ex_a022", "md_file": "knowledge_base/domains/SU/examples.md", "md_atom_type": "TABLE_ROW", "md_parent_section": "§SU.1 [Example 1]", "md_verbatim": "| 1 | 1234 | SU | 1234005 | 1 | CIGARETTES | TOBACCO | | | 2 | PACK | QD | | | 2006-01-01 | BEFORE | 2006-01-01 | ONGOING |", "score": 0.3654, "match_basis": "verbatim_token+domain_route:SU"}, {"md_atom_id": "md_dmSU_ex_a028", "md_file": "knowledge_base/domains/SU/examples.md", "md_atom_type": "TABLE_ROW", "md_parent_section": "§SU.1 [Example 1]", "md_verbatim": "| 7 | 1234 | SU | 1234007 | 2 | CAFFEINE | CAFFEINE | NOT DONE | Subject left office before CRF was completed | | | | | | | | | |", "score": 0.3631, "match_basis": "verbatim_token+domain_route:SU"}], "candidate_count": 5, "zero_candidate": false}
{"pdf_atom_id": "ig34_p0129_a007", "pdf_atom_type": "TABLE_ROW", "pdf_source": "SDTMIG v3.4 (no header footer).pdf", "pdf_page": 129, "pdf_parent_section": "§6.1.6 [Substance Use (SU)]", "pdf_verbatim": "| STUDYID | Study Identifier | Char | | Identifier | Unique identifier for a study. | Req |", "figure_ref": null, "candidates": [{"md_atom_id": "md_dmSU_ex_a024", "md_file": "knowledge_base/domains/SU/examples.md", "md_atom_type": "TABLE_ROW", "md_parent_section": "§SU.1 [Example 1]", "md_verbatim": "| 3 | 1234 | SU | 1234006 | 1 | CIGARETTES | TOBACCO | | | 1 | PACK | QD | | 2003 | 2006-03-15 | BEFORE | | |", "score": 0.413, "match_basis": "verbatim_token+domain_route:SU"}, {"md_atom_id": "md_dmSU_ex_a022", "md_file": "knowledge_base/domains/SU/examples.md", "md_atom_type": "TABLE_ROW", "md_parent_section": "§SU.1 [Example 1]", "md_verbatim": "| 1 | 1234 | SU | 1234005 | 1 | CIGARETTES | TOBACCO | | | 2 | PACK | QD | | | 2006-01-01 | BEFORE | 2006-01-01 | ONGOING |", "score": 0.4118, "match_basis": "verbatim_token+domain_route:SU"}, {"md_atom_id": "md_dmSU_ex_a028", "md_file": "knowledge_base/domains/SU/examples.md", "md_atom_type": "TABLE_ROW", "md_parent_section": "§SU.1 [Example 1]", "md_verbatim": "| 7 | 1234 | SU | 1234007 | 2 | CAFFEINE | CAFFEINE | NOT DONE | Subject left office before CRF was completed | | | | | | | | | |", "score": 0.4103, "match_basis": "verbatim_token+domain_route:SU"}, {"md_atom_id": "md_dmSU_ex_a027", "md_file": "knowledge_base/domains/SU/examples.md", "md_atom_type": "TABLE_ROW", "md_parent_section": "§SU.1 [Example 1]", "md_verbatim": "| 6 | 1234 | SU | 1234007 | 1 | CIGARETTES | TOBACCO | NOT DONE | Subject left office before CRF was completed | | | | | | | | | |", "score": 0.4092, "match_basis": "verbatim_token+domain_route:SU"}, {"md_atom_id": "md_dmSU_ex_a023", "md_file": "knowledge_base/domains/SU/examples.md", "md_atom_type": "TABLE_ROW", "md_parent_section": "§SU.1 [Example 1]", "md_verbatim": "| 2 | 1234 | SU | 1234005 | 2 | COFFEE | CAFFEINE | | | 3 | CUP | QD | 2006-01-01 | 2006-01-01 | | | | |", "score": 0.4, "match_basis": "verbatim_token+domain_route:SU"}], "candidate_count": 5, "zero_candidate": false}
{"pdf_atom_id": "ig34_p0129_a008", "pdf_atom_type": "TABLE_ROW", "pdf_source": "SDTMIG v3.4 (no header footer).pdf", "pdf_page": 129, "pdf_parent_section": "§6.1.6 [Substance Use (SU)]", "pdf_verbatim": "| DOMAIN | Domain Abbreviation | Char | SU | Identifier | Two-character abbreviation for the domain. | Req |", "figure_ref": null, "candidates": [{"md_atom_id": "md_dmSU_ex_a024", "md_file": "knowledge_base/domains/SU/examples.md", "md_atom_type": "TABLE_ROW", "md_parent_section": "§SU.1 [Example 1]", "md_verbatim": "| 3 | 1234 | SU | 1234006 | 1 | CIGARETTES | TOBACCO | | | 1 | PACK | QD | | 2003 | 2006-03-15 | BEFORE | | |", "score": 0.4103, "match_basis": "verbatim_token+domain_route:SU"}, {"md_atom_id": "md_dmSU_ex_a022", "md_file": "knowledge_base/domains/SU/examples.md", "md_atom_type": "TABLE_ROW", "md_parent_section": "§SU.1 [Example 1]", "md_verbatim": "| 1 | 1234 | SU | 1234005 | 1 | CIGARETTES | TOBACCO | | | 2 | PACK | QD | | | 2006-01-01 | BEFORE | 2006-01-01 | ONGOING |", "score": 0.4095, "match_basis": "verbatim_token+domain_route:SU"}, {"md_atom_id": "md_dmSU_ex_a028", "md_file": "knowledge_base/domains/SU/examples.md", "md_atom_type": "TABLE_ROW", "md_parent_section": "§SU.1 [Example 1]", "md_verbatim": "| 7 | 1234 | SU | 1234007 | 2 | CAFFEINE | CAFFEINE | NOT DONE | Subject left office before CRF was completed | | | | | | | | | |", "score": 0.4086, "match_basis": "verbatim_token+domain_route:SU"}, {"md_atom_id": "md_dmSU_ex_a027", "md_file": "knowledge_base/domains/SU/examples.md", "md_atom_type": "TABLE_ROW", "md_parent_section": "§SU.1 [Example 1]", "md_verbatim": "| 6 | 1234 | SU | 1234007 | 1 | CIGARETTES | TOBACCO | NOT DONE | Subject left office before CRF was completed | | | | | | | | | |", "score": 0.4078, "match_basis": "verbatim_token+domain_route:SU"}, {"md_atom_id": "md_dmSU_ex_a023", "md_file": "knowledge_base/domains/SU/examples.md", "md_atom_type": "TABLE_ROW", "md_parent_section": "§SU.1 [Example 1]", "md_verbatim": "| 2 | 1234 | SU | 1234005 | 2 | COFFEE | CAFFEINE | | | 3 | CUP | QD | 2006-01-01 | 2006-01-01 | | | | |", "score": 0.4, "match_basis": "verbatim_token+domain_route:SU"}], "candidate_count": 5, "zero_candidate": false}
{"pdf_atom_id": "ig34_p0129_a009", "pdf_atom_type": "TABLE_ROW", "pdf_source": "SDTMIG v3.4 (no header footer).pdf", "pdf_page": 129, "pdf_parent_section": "§6.1.6 [Substance Use (SU)]", "pdf_verbatim": "| USUBJID | Unique Subject Identifier | Char | | Identifier | Identifier used to uniquely identify a subject across all studies for all applications or submissions involving the product. | Req |", "figure_ref": null, "candidates": [{"md_atom_id": "md_dmSU_ex_a028", "md_file": "knowledge_base/domains/SU/examples.md", "md_atom_type": "TABLE_ROW", "md_parent_section": "§SU.1 [Example 1]", "md_verbatim": "| 7 | 1234 | SU | 1234007 | 2 | CAFFEINE | CAFFEINE | NOT DONE | Subject left office before CRF was completed | | | | | | | | | |", "score": 0.436, "match_basis": "verbatim_token+domain_route:SU"}, {"md_atom_id": "md_dmSU_ex_a027", "md_file": "knowledge_base/domains/SU/examples.md", "md_atom_type": "TABLE_ROW", "md_parent_section": "§SU.1 [Example 1]", "md_verbatim": "| 6 | 1234 | SU | 1234007 | 1 | CIGARETTES | TOBACCO | NOT DONE | Subject left office before CRF was completed | | | | | | | | | |", "score": 0.4336, "match_basis": "verbatim_token+domain_route:SU"}, {"md_atom_id": "md_dmSU_ex_a022", "md_file": "knowledge_base/domains/SU/examples.md", "md_atom_type": "TABLE_ROW", "md_parent_section": "§SU.1 [Example 1]", "md_verbatim": "| 1 | 1234 | SU | 1234005 | 1 | CIGARETTES | TOBACCO | | | 2 | PACK | QD | | | 2006-01-01 | BEFORE | 2006-01-01 | ONGOING |", "score": 0.4124, "match_basis": "verbatim_token+domain_route:SU"}, {"md_atom_id": "md_dmSU_ex_a024", "md_file": "knowledge_base/domains/SU/examples.md", "md_atom_type": "TABLE_ROW", "md_parent_section": "§SU.1 [Example 1]", "md_verbatim": "| 3 | 1234 | SU | 1234006 | 1 | CIGARETTES | TOBACCO | | | 1 | PACK | QD | | 2003 | 2006-03-15 | BEFORE | | |", "score": 0.4065, "match_basis": "verbatim_token+domain_route:SU"}, {"md_atom_id": "md_dmSU_ex_a023", "md_file": "knowledge_base/domains/SU/examples.md", "md_atom_type": "TABLE_ROW", "md_parent_section": "§SU.1 [Example 1]", "md_verbatim": "| 2 | 1234 | SU | 1234005 | 2 | COFFEE | CAFFEINE | | | 3 | CUP | QD | 2006-01-01 | 2006-01-01 | | | | |", "score": 0.4, "match_basis": "verbatim_token+domain_route:SU"}], "candidate_count": 5, "zero_candidate": false}
{"pdf_atom_id": "ig34_p0129_a010", "pdf_atom_type": "TABLE_ROW", "pdf_source": "SDTMIG v3.4 (no header footer).pdf", "pdf_page": 129, "pdf_parent_section": "§6.1.6 [Substance Use (SU)]", "pdf_verbatim": "| SUSEO | Sequence Number | Num | | Identifier | Sequence number given to ensure uniqueness of subject records within a domain. May be any valid number. | Req |", "figure_ref": null, "candidates": [{"md_atom_id": "md_dmSU_ex_a028", "md_file": "knowledge_base/domains/SU/examples.md", "md_atom_type": "TABLE_ROW", "md_parent_section": "§SU.1 [Example 1]", "md_verbatim": "| 7 | 1234 | SU | 1234007 | 2 | CAFFEINE | CAFFEINE | NOT DONE | Subject left office before CRF was completed | | | | | | | | | |", "score": 0.433, "match_basis": "verbatim_token+domain_route:SU"}, {"md_atom_id": "md_dmSU_ex_a027", "md_file": "knowledge_base/domains/SU/examples.md", "md_atom_type": "TABLE_ROW", "md_parent_section": "§SU.1 [Example 1]", "md_verbatim": "| 6 | 1234 | SU | 1234007 | 1 | CIGARETTES | TOBACCO | NOT DONE | Subject left office before CRF was completed | | | | | | | | | |", "score": 0.4306, "match_basis": "verbatim_token+domain_route:SU"}, {"md_atom_id": "md_dmSU_ex_a021", "md_file": "knowledge_base/domains/SU/examples.md", "md_atom_type": "TABLE_HEADER", "md_parent_section": "§SU.1 [Example 1]", "md_verbatim": "| Row | STUDYID | DOMAIN | USUBJID | SUSEQ | SUTRT | SUCAT | SUSTAT | SUREASND | SUDOSE | SUDOSU | SUDOSFRQ | SUSTDTC | SUENDTC | SUSTTPT | SUSTRTPT | SUENTPT | SUENRTPT |", "score": 0.4165, "match_basis": "verbatim_token+domain_route:SU"}, {"md_atom_id": "md_dmSU_ex_a022", "md_file": "knowledge_base/domains/SU/examples.md", "md_atom_type": "TABLE_ROW", "md_parent_section": "§SU.1 [Example 1]", "md_verbatim": "| 1 | 1234 | SU | 1234005 | 1 | CIGARETTES | TOBACCO | | | 2 | PACK | QD | | | 2006-01-01 | BEFORE | 2006-01-01 | ONGOING |", "score": 0.4, "match_basis": "verbatim_token+domain_route:SU"}, {"md_atom_id": "md_dmSU_ex_a023", "md_file": "knowledge_base/domains/SU/examples.md", "md_atom_type": "TABLE_ROW", "md_parent_section": "§SU.1 [Example 1]", "md_verbatim": "| 2 | 1234 | SU | 1234005 | 2 | COFFEE | CAFFEINE | | | 3 | CUP | QD | 2006-01-01 | 2006-01-01 | | | | |", "score": 0.4, "match_basis": "verbatim_token+domain_route:SU"}], "candidate_count": 5, "zero_candidate": false}
{"pdf_atom_id": "ig34_p0129_a011", "pdf_atom_type": "TABLE_ROW", "pdf_source": "SDTMIG v3.4 (no header footer).pdf", "pdf_page": 129, "pdf_parent_section": "§6.1.6 [Substance Use (SU)]", "pdf_verbatim": "| SUGRPID | Group ID | Char | | Identifier | Used to tie together a block of related records in a single domain for a subject. | Perm |", "figure_ref": null, "candidates": [{"md_atom_id": "md_dmSU_ex_a028", "md_file": "knowledge_base/domains/SU/examples.md", "md_atom_type": "TABLE_ROW", "md_parent_section": "§SU.1 [Example 1]", "md_verbatim": "| 7 | 1234 | SU | 1234007 | 2 | CAFFEINE | CAFFEINE | NOT DONE | Subject left office before CRF was completed | | | | | | | | | |", "score": 0.4483, "match_basis": "verbatim_token+domain_route:SU"}, {"md_atom_id": "md_dmSU_ex_a027", "md_file": "knowledge_base/domains/SU/examples.md", "md_atom_type": "TABLE_ROW", "md_parent_section": "§SU.1 [Example 1]", "md_verbatim": "| 6 | 1234 | SU | 1234007 | 1 | CIGARETTES | TOBACCO | NOT DONE | Subject left office before CRF was completed | | | | | | | | | |", "score": 0.4447, "match_basis": "verbatim_token+domain_route:SU"}, {"md_atom_id": "md_dmSU_ex_a022", "md_file": "knowledge_base/domains/SU/examples.md", "md_atom_type": "TABLE_ROW", "md_parent_section": "§SU.1 [Example 1]", "md_verbatim": "| 1 | 1234 | SU | 1234005 | 1 | CIGARETTES | TOBACCO | | | 2 | PACK | QD | | | 2006-01-01 | BEFORE | 2006-01-01 | ONGOING |", "score": 0.4141, "match_basis": "verbatim_token+domain_route:SU"}, {"md_atom_id": "md_dmSU_assn_a011", "md_file": "knowledge_base/domains/SU/assumptions.md", "md_atom_type": "LIST_ITEM", "md_parent_section": "§SU [SU — Assumptions]", "md_verbatim": "   b. SUGRPID may be used to link (or associate) different records together to form a block of related records within SU at the subject level (see Section 4.2.6, Grouping Variables and Categorization). It should not be used in place of SUCAT or SUSCAT.", "score": 0.4114, "match_basis": "verbatim_token+domain_route:SU"}, {"md_atom_id": "md_dmSU_ex_a024", "md_file": "knowledge_base/domains/SU/examples.md", "md_atom_type": "TABLE_ROW", "md_parent_section": "§SU.1 [Example 1]", "md_verbatim": "| 3 | 1234 | SU | 1234006 | 1 | CIGARETTES | TOBACCO | | | 1 | PACK | QD | | 2003 | 2006-03-15 | BEFORE | | |", "score": 0.4074, "match_basis": "verbatim_token+domain_route:SU"}], "candidate_count": 5, "zero_candidate": false}
{"pdf_atom_id": "ig34_p0129_a012", "pdf_atom_type": "TABLE_ROW", "pdf_source": "SDTMIG v3.4 (no header footer).pdf", "pdf_page": 129, "pdf_parent_section": "§6.1.6 [Substance Use (SU)]", "pdf_verbatim": "| SUSPID | Sponsor-Defined Identifier | Char | | Identifier | Sponsor-defined reference number. May be preprinted on the CRF as an explicit line identifier or defined in the sponsor's operational database. Example: Line number on a Tobacco & Alcohol Use CRF page. | Perm |", "figure_ref": null, "candidates": [{"md_atom_id": "md_dmSU_ex_a027", "md_file": "knowledge_base/domains/SU/examples.md", "md_atom_type": "TABLE_ROW", "md_parent_section": "§SU.1 [Example 1]", "md_verbatim": "| 6 | 1234 | SU | 1234007 | 1 | CIGARETTES | TOBACCO | NOT DONE | Subject left office before CRF was completed | | | | | | | | | |", "score": 0.4439, "match_basis": "verbatim_token+domain_route:SU"}, {"md_atom_id": "md_dmSU_ex_a024", "md_file": "knowledge_base/domains/SU/examples.md", "md_atom_type": "TABLE_ROW", "md_parent_section": "§SU.1 [Example 1]", "md_verbatim": "| 3 | 1234 | SU | 1234006 | 1 | CIGARETTES | TOBACCO | | | 1 | PACK | QD | | 2003 | 2006-03-15 | BEFORE | | |", "score": 0.4278, "match_basis": "verbatim_token+domain_route:SU"}, {"md_atom_id": "md_dmSU_ex_a022", "md_file": "knowledge_base/domains/SU/examples.md", "md_atom_type": "TABLE_ROW", "md_parent_section": "§SU.1 [Example 1]", "md_verbatim": "| 1 | 1234 | SU | 1234005 | 1 | CIGARETTES | TOBACCO | | | 2 | PACK | QD | | | 2006-01-01 | BEFORE | 2006-01-01 | ONGOING |", "score": 0.4265, "match_basis": "verbatim_token+domain_route:SU"}, {"md_atom_id": "md_dmSU_ex_a028", "md_file": "knowledge_base/domains/SU/examples.md", "md_atom_type": "TABLE_ROW", "md_parent_section": "§SU.1 [Example 1]", "md_verbatim": "| 7 | 1234 | SU | 1234007 | 2 | CAFFEINE | CAFFEINE | NOT DONE | Subject left office before CRF was completed | | | | | | | | | |", "score": 0.425, "match_basis": "verbatim_token+domain_route:SU"}, {"md_atom_id": "md_dmSU_ex_a025", "md_file": "knowledge_base/domains/SU/examples.md", "md_atom_type": "TABLE_ROW", "md_parent_section": "§SU.1 [Example 1]", "md_verbatim": "| 4 | 1234 | SU | 1234006 | 2 | TEA | CAFFEINE | | | 1 | CUP | QD | 2006-03-15 | 2006-03-15 | | | | |", "score": 0.406, "match_basis": "verbatim_token+domain_route:SU"}], "candidate_count": 5, "zero_candidate": false}
{"pdf_atom_id": "ig34_p0129_a013", "pdf_atom_type": "TABLE_ROW", "pdf_source": "SDTMIG v3.4 (no header footer).pdf", "pdf_page": 129, "pdf_parent_section": "§6.1.6 [Substance Use (SU)]", "pdf_verbatim": "| SUTRT | Reported Name of Substance | Char | | Topic | Substance name. Examples: \"CIGARETTES\", \"COFFEE\". | Req |", "figure_ref": null, "candidates": [{"md_atom_id": "md_dmSU_ex_a027", "md_file": "knowledge_base/domains/SU/examples.md", "md_atom_type": "TABLE_ROW", "md_parent_section": "§SU.1 [Example 1]", "md_verbatim": "| 6 | 1234 | SU | 1234007 | 1 | CIGARETTES | TOBACCO | NOT DONE | Subject left office before CRF was completed | | | | | | | | | |", "score": 0.5054, "match_basis": "verbatim_token+domain_route:SU"}, {"md_atom_id": "md_dmSU_ex_a024", "md_file": "knowledge_base/domains/SU/examples.md", "md_atom_type": "TABLE_ROW", "md_parent_section": "§SU.1 [Example 1]", "md_verbatim": "| 3 | 1234 | SU | 1234006 | 1 | CIGARETTES | TOBACCO | | | 1 | PACK | QD | | 2003 | 2006-03-15 | BEFORE | | |", "score": 0.48, "match_basis": "verbatim_token+domain_route:SU"}, {"md_atom_id": "md_dmSU_ex_a022", "md_file": "knowledge_base/domains/SU/examples.md", "md_atom_type": "TABLE_ROW", "md_parent_section": "§SU.1 [Example 1]", "md_verbatim": "| 1 | 1234 | SU | 1234005 | 1 | CIGARETTES | TOBACCO | | | 2 | PACK | QD | | | 2006-01-01 | BEFORE | 2006-01-01 | ONGOING |", "score": 0.4738, "match_basis": "verbatim_token+domain_route:SU"}, {"md_atom_id": "md_dmSU_ex_a028", "md_file": "knowledge_base/domains/SU/examples.md", "md_atom_type": "TABLE_ROW", "md_parent_section": "§SU.1 [Example 1]", "md_verbatim": "| 7 | 1234 | SU | 1234007 | 2 | CAFFEINE | CAFFEINE | NOT DONE | Subject left office before CRF was completed | | | | | | | | | |", "score": 0.4486, "match_basis": "verbatim_token+domain_route:SU"}, {"md_atom_id": "md_dmSU_ex_a026", "md_file": "knowledge_base/domains/SU/examples.md", "md_atom_type": "TABLE_ROW", "md_parent_section": "§SU.1 [Example 1]", "md_verbatim": "| 5 | 1234 | SU | 1234006 | 3 | COFFEE | CAFFEINE | | | 2 | CUP | QD | 2006-03-15 | 2006-03-15 | | | | |", "score": 0.4444, "match_basis": "verbatim_token+domain_route:SU"}], "candidate_count": 5, "zero_candidate": false}
{"pdf_atom_id": "ig34_p0129_a014", "pdf_atom_type": "TABLE_ROW", "pdf_source": "SDTMIG v3.4 (no header footer).pdf", "pdf_page": 129, "pdf_parent_section": "§6.1.6 [Substance Use (SU)]", "pdf_verbatim": "| SUMODIFY | Modified Substance Name | Char | | Synonym Qualifier | If SUTRT is modified, then the modified text is placed here. | Perm |", "figure_ref": null, "candidates": [{"md_atom_id": "md_dmSU_ex_a028", "md_file": "knowledge_base/domains/SU/examples.md", "md_atom_type": "TABLE_ROW", "md_parent_section": "§SU.1 [Example 1]", "md_verbatim": "| 7 | 1234 | SU | 1234007 | 2 | CAFFEINE | CAFFEINE | NOT DONE | Subject left office before CRF was completed | | | | | | | | | |", "score": 0.4073, "match_basis": "verbatim_token+domain_route:SU"}, {"md_atom_id": "md_dmSU_ex_a027", "md_file": "knowledge_base/domains/SU/examples.md", "md_atom_type": "TABLE_ROW", "md_parent_section": "§SU.1 [Example 1]", "md_verbatim": "| 6 | 1234 | SU | 1234007 | 1 | CIGARETTES | TOBACCO | NOT DONE | Subject left office before CRF was completed | | | | | | | | | |", "score": 0.4067, "match_basis": "verbatim_token+domain_route:SU"}, {"md_atom_id": "md_dmSU_ex_a022", "md_file": "knowledge_base/domains/SU/examples.md", "md_atom_type": "TABLE_ROW", "md_parent_section": "§SU.1 [Example 1]", "md_verbatim": "| 1 | 1234 | SU | 1234005 | 1 | CIGARETTES | TOBACCO | | | 2 | PACK | QD | | | 2006-01-01 | BEFORE | 2006-01-01 | ONGOING |", "score": 0.4, "match_basis": "verbatim_token+domain_route:SU"}, {"md_atom_id": "md_dmSU_ex_a023", "md_file": "knowledge_base/domains/SU/examples.md", "md_atom_type": "TABLE_ROW", "md_parent_section": "§SU.1 [Example 1]", "md_verbatim": "| 2 | 1234 | SU | 1234005 | 2 | COFFEE | CAFFEINE | | | 3 | CUP | QD | 2006-01-01 | 2006-01-01 | | | | |", "score": 0.4, "match_basis": "verbatim_token+domain_route:SU"}, {"md_atom_id": "md_dmSU_ex_a024", "md_file": "knowledge_base/domains/SU/examples.md", "md_atom_type": "TABLE_ROW", "md_parent_section": "§SU.1 [Example 1]", "md_verbatim": "| 3 | 1234 | SU | 1234006 | 1 | CIGARETTES | TOBACCO | | | 1 | PACK | QD | | 2003 | 2006-03-15 | BEFORE | | |", "score": 0.4, "match_basis": "verbatim_token+domain_route:SU"}], "candidate_count": 5, "zero_candidate": false}
{"pdf_atom_id": "ig34_p0129_a015", "pdf_atom_type": "TABLE_ROW", "pdf_source": "SDTMIG v3.4 (no header footer).pdf", "pdf_page": 129, "pdf_parent_section": "§6.1.6 [Substance Use (SU)]", "pdf_verbatim": "| SUDECOD | Standardized Substance Name | Char | * | Synonym Qualifier | Standardized or dictionary-derived text description of SUTRT or SUMODIFY if the sponsor chooses to code the substance use. The sponsor is expected to provide the dictionary name and version used to map the terms utilizing the external codelist element in the Define-XML document. | Perm |", "figure_ref": null, "candidates": [{"md_atom_id": "md_dmSU_assn_a008", "md_file": "knowledge_base/domains/SU/assumptions.md", "md_atom_type": "LIST_ITEM", "md_parent_section": "§SU [SU — Assumptions]", "md_verbatim": "   c. SUDECOD is the preferred term derived by the sponsor from the coding dictionary if coding is performed. It is a permissible variable. Where deemed necessary by the sponsor, the verbatim term (SUTRT) should be coded using a standard dictionary such as WHO Drug. The sponsor is expected to provide the dictionary name and version used to map the terms utilizing the external codelist element in the Define-XML document.", "score": 0.5071, "match_basis": "verbatim_token+domain_route:SU"}, {"md_atom_id": "md_dmSU_ex_a028", "md_file": "knowledge_base/domains/SU/examples.md", "md_atom_type": "TABLE_ROW", "md_parent_section": "§SU.1 [Example 1]", "md_verbatim": "| 7 | 1234 | SU | 1234007 | 2 | CAFFEINE | CAFFEINE | NOT DONE | Subject left office before CRF was completed | | | | | | | | | |", "score": 0.4146, "match_basis": "verbatim_token+domain_route:SU"}, {"md_atom_id": "md_dmSU_ex_a027", "md_file": "knowledge_base/domains/SU/examples.md", "md_atom_type": "TABLE_ROW", "md_parent_section": "§SU.1 [Example 1]", "md_verbatim": "| 6 | 1234 | SU | 1234007 | 1 | CIGARETTES | TOBACCO | NOT DONE | Subject left office before CRF was completed | | | | | | | | | |", "score": 0.4105, "match_basis": "verbatim_token+domain_route:SU"}, {"md_atom_id": "md_dmSU_ex_a025", "md_file": "knowledge_base/domains/SU/examples.md", "md_atom_type": "TABLE_ROW", "md_parent_section": "§SU.1 [Example 1]", "md_verbatim": "| 4 | 1234 | SU | 1234006 | 2 | TEA | CAFFEINE | | | 1 | CUP | QD | 2006-03-15 | 2006-03-15 | | | | |", "score": 0.4042, "match_basis": "verbatim_token+domain_route:SU"}, {"md_atom_id": "md_dmSU_ex_a026", "md_file": "knowledge_base/domains/SU/examples.md", "md_atom_type": "TABLE_ROW", "md_parent_section": "§SU.1 [Example 1]", "md_verbatim": "| 5 | 1234 | SU | 1234006 | 3 | COFFEE | CAFFEINE | | | 2 | CUP | QD | 2006-03-15 | 2006-03-15 | | | | |", "score": 0.4041, "match_basis": "verbatim_token+domain_route:SU"}], "candidate_count": 5, "zero_candidate": false}
{"pdf_atom_id": "ig34_p0129_a016", "pdf_atom_type": "TABLE_ROW", "pdf_source": "SDTMIG v3.4 (no header footer).pdf", "pdf_page": 129, "pdf_parent_section": "§6.1.6 [Substance Use (SU)]", "pdf_verbatim": "| SUCAT | Category for Substance Use | Char | * | Grouping Qualifier | Used to define a category of related records. Examples: \"TOBACCO\", \"ALCOHOL\", or \"CAFFEINE\". | Perm |", "figure_ref": null, "candidates": [{"md_atom_id": "md_dmSU_ex_a028", "md_file": "knowledge_base/domains/SU/examples.md", "md_atom_type": "TABLE_ROW", "md_parent_section": "§SU.1 [Example 1]", "md_verbatim": "| 7 | 1234 | SU | 1234007 | 2 | CAFFEINE | CAFFEINE | NOT DONE | Subject left office before CRF was completed | | | | | | | | | |", "score": 0.4688, "match_basis": "verbatim_token+domain_route:SU"}, {"md_atom_id": "md_dmSU_ex_a027", "md_file": "knowledge_base/domains/SU/examples.md", "md_atom_type": "TABLE_ROW", "md_parent_section": "§SU.1 [Example 1]", "md_verbatim": "| 6 | 1234 | SU | 1234007 | 1 | CIGARETTES | TOBACCO | NOT DONE | Subject left office before CRF was completed | | | | | | | | | |", "score": 0.4577, "match_basis": "verbatim_token+domain_route:SU"}, {"md_atom_id": "md_dmSU_ex_a025", "md_file": "knowledge_base/domains/SU/examples.md", "md_atom_type": "TABLE_ROW", "md_parent_section": "§SU.1 [Example 1]", "md_verbatim": "| 4 | 1234 | SU | 1234006 | 2 | TEA | CAFFEINE | | | 1 | CUP | QD | 2006-03-15 | 2006-03-15 | | | | |", "score": 0.4468, "match_basis": "verbatim_token+domain_route:SU"}, {"md_atom_id": "md_dmSU_ex_a026", "md_file": "knowledge_base/domains/SU/examples.md", "md_atom_type": "TABLE_ROW", "md_parent_section": "§SU.1 [Example 1]", "md_verbatim": "| 5 | 1234 | SU | 1234006 | 3 | COFFEE | CAFFEINE | | | 2 | CUP | QD | 2006-03-15 | 2006-03-15 | | | | |", "score": 0.4456, "match_basis": "verbatim_token+domain_route:SU"}, {"md_atom_id": "md_dmSU_ex_a022", "md_file": "knowledge_base/domains/SU/examples.md", "md_atom_type": "TABLE_ROW", "md_parent_section": "§SU.1 [Example 1]", "md_verbatim": "| 1 | 1234 | SU | 1234005 | 1 | CIGARETTES | TOBACCO | | | 2 | PACK | QD | | | 2006-01-01 | BEFORE | 2006-01-01 | ONGOING |", "score": 0.4452, "match_basis": "verbatim_token+domain_route:SU"}], "candidate_count": 5, "zero_candidate": false}
{"pdf_atom_id": "ig34_p0129_a017", "pdf_atom_type": "TABLE_ROW", "pdf_source": "SDTMIG v3.4 (no header footer).pdf", "pdf_page": 129, "pdf_parent_section": "§6.1.6 [Substance Use (SU)]", "pdf_verbatim": "| SUSCAT | Subcategory for Substance Use | Char | * | Grouping Qualifier | A further categorization of substance use. Examples: \"CIGARS\", \"CIGARETTES\", \"BEER\", \"WINE\". | Perm |", "figure_ref": null, "candidates": [{"md_atom_id": "md_dmSU_ex_a027", "md_file": "knowledge_base/domains/SU/examples.md", "md_atom_type": "TABLE_ROW", "md_parent_section": "§SU.1 [Example 1]", "md_verbatim": "| 6 | 1234 | SU | 1234007 | 1 | CIGARETTES | TOBACCO | NOT DONE | Subject left office before CRF was completed | | | | | | | | | |", "score": 0.4713, "match_basis": "verbatim_token+domain_route:SU"}, {"md_atom_id": "md_dmSU_ex_a022", "md_file": "knowledge_base/domains/SU/examples.md", "md_atom_type": "TABLE_ROW", "md_parent_section": "§SU.1 [Example 1]", "md_verbatim": "| 1 | 1234 | SU | 1234005 | 1 | CIGARETTES | TOBACCO | | | 2 | PACK | QD | | | 2006-01-01 | BEFORE | 2006-01-01 | ONGOING |", "score": 0.4674, "match_basis": "verbatim_token+domain_route:SU"}, {"md_atom_id": "md_dmSU_ex_a024", "md_file": "knowledge_base/domains/SU/examples.md", "md_atom_type": "TABLE_ROW", "md_parent_section": "§SU.1 [Example 1]", "md_verbatim": "| 3 | 1234 | SU | 1234006 | 1 | CIGARETTES | TOBACCO | | | 1 | PACK | QD | | 2003 | 2006-03-15 | BEFORE | | |", "score": 0.4635, "match_basis": "verbatim_token+domain_route:SU"}, {"md_atom_id": "md_dmSU_ex_a028", "md_file": "knowledge_base/domains/SU/examples.md", "md_atom_type": "TABLE_ROW", "md_parent_section": "§SU.1 [Example 1]", "md_verbatim": "| 7 | 1234 | SU | 1234007 | 2 | CAFFEINE | CAFFEINE | NOT DONE | Subject left office before CRF was completed | | | | | | | | | |", "score": 0.4297, "match_basis": "verbatim_token+domain_route:SU"}, {"md_atom_id": "md_dmSU_ex_a025", "md_file": "knowledge_base/domains/SU/examples.md", "md_atom_type": "TABLE_ROW", "md_parent_section": "§SU.1 [Example 1]", "md_verbatim": "| 4 | 1234 | SU | 1234006 | 2 | TEA | CAFFEINE | | | 1 | CUP | QD | 2006-03-15 | 2006-03-15 | | | | |", "score": 0.4074, "match_basis": "verbatim_token+domain_route:SU"}], "candidate_count": 5, "zero_candidate": false}
{"pdf_atom_id": "ig34_p0129_a018", "pdf_atom_type": "TABLE_ROW", "pdf_source": "SDTMIG v3.4 (no header footer).pdf", "pdf_page": 129, "pdf_parent_section": "§6.1.6 [Substance Use (SU)]", "pdf_verbatim": "| SUPRESP | SU Pre-Specified | Char | (NY) | Variable Qualifier | Used to indicate whether (\"Y\"/null) information about the use of a specific substance was solicited on the CRF. | Perm |", "figure_ref": null, "candidates": [{"md_atom_id": "md_dmSU_ex_a028", "md_file": "knowledge_base/domains/SU/examples.md", "md_atom_type": "TABLE_ROW", "md_parent_section": "§SU.1 [Example 1]", "md_verbatim": "| 7 | 1234 | SU | 1234007 | 2 | CAFFEINE | CAFFEINE | NOT DONE | Subject left office before CRF was completed | | | | | | | | | |", "score": 0.435, "match_basis": "verbatim_token+domain_route:SU"}, {"md_atom_id": "md_dmSU_ex_a027", "md_file": "knowledge_base/domains/SU/examples.md", "md_atom_type": "TABLE_ROW", "md_parent_section": "§SU.1 [Example 1]", "md_verbatim": "| 6 | 1234 | SU | 1234007 | 1 | CIGARETTES | TOBACCO | NOT DONE | Subject left office before CRF was completed | | | | | | | | | |", "score": 0.4327, "match_basis": "verbatim_token+domain_route:SU"}, {"md_atom_id": "md_dmSU_ex_a024", "md_file": "knowledge_base/domains/SU/examples.md", "md_atom_type": "TABLE_ROW", "md_parent_section": "§SU.1 [Example 1]", "md_verbatim": "| 3 | 1234 | SU | 1234006 | 1 | CIGARETTES | TOBACCO | | | 1 | PACK | QD | | 2003 | 2006-03-15 | BEFORE | | |", "score": 0.4062, "match_basis": "verbatim_token+domain_route:SU"}, {"md_atom_id": "md_dmSU_ex_a022", "md_file": "knowledge_base/domains/SU/examples.md", "md_atom_type": "TABLE_ROW", "md_parent_section": "§SU.1 [Example 1]", "md_verbatim": "| 1 | 1234 | SU | 1234005 | 1 | CIGARETTES | TOBACCO | | | 2 | PACK | QD | | | 2006-01-01 | BEFORE | 2006-01-01 | ONGOING |", "score": 0.4059, "match_basis": "verbatim_token+domain_route:SU"}, {"md_atom_id": "md_dmSU_ex_a023", "md_file": "knowledge_base/domains/SU/examples.md", "md_atom_type": "TABLE_ROW", "md_parent_section": "§SU.1 [Example 1]", "md_verbatim": "| 2 | 1234 | SU | 1234005 | 2 | COFFEE | CAFFEINE | | | 3 | CUP | QD | 2006-01-01 | 2006-01-01 | | | | |", "score": 0.4, "match_basis": "verbatim_token+domain_route:SU"}], "candidate_count": 5, "zero_candidate": false}
{"pdf_atom_id": "ig34_p0129_a019", "pdf_atom_type": "TABLE_ROW", "pdf_source": "SDTMIG v3.4 (no header footer).pdf", "pdf_page": 129, "pdf_parent_section": "§6.1.6 [Substance Use (SU)]", "pdf_verbatim": "| SUOCCUR | SU Occurrence | Char | (NY) | Record Qualifier | When the use of specific substances is solicited, SUOCCUR is used to indicate whether (\"Y\"/\"N\") a particular prespecified substance was used. Values are null for substances not specifically solicited. | Perm |", "figure_ref": null, "candidates": [{"md_atom_id": "md_dmSU_ex_a027", "md_file": "knowledge_base/domains/SU/examples.md", "md_atom_type": "TABLE_ROW", "md_parent_section": "§SU.1 [Example 1]", "md_verbatim": "| 6 | 1234 | SU | 1234007 | 1 | CIGARETTES | TOBACCO | NOT DONE | Subject left office before CRF was completed | | | | | | | | | |", "score": 0.4347, "match_basis": "verbatim_token+domain_route:SU"}, {"md_atom_id": "md_dmSU_ex_a028", "md_file": "knowledge_base/domains/SU/examples.md", "md_atom_type": "TABLE_ROW", "md_parent_section": "§SU.1 [Example 1]", "md_verbatim": "| 7 | 1234 | SU | 1234007 | 2 | CAFFEINE | CAFFEINE | NOT DONE | Subject left office before CRF was completed | | | | | | | | | |", "score": 0.4313, "match_basis": "verbatim_token+domain_route:SU"}, {"md_atom_id": "md_dmSU_ex_a024", "md_file": "knowledge_base/domains/SU/examples.md", "md_atom_type": "TABLE_ROW", "md_parent_section": "§SU.1 [Example 1]", "md_verbatim": "| 3 | 1234 | SU | 1234006 | 1 | CIGARETTES | TOBACCO | | | 1 | PACK | QD | | 2003 | 2006-03-15 | BEFORE | | |", "score": 0.4112, "match_basis": "verbatim_token+domain_route:SU"}, {"md_atom_id": "md_dmSU_ex_a022", "md_file": "knowledge_base/domains/SU/examples.md", "md_atom_type": "TABLE_ROW", "md_parent_section": "§SU.1 [Example 1]", "md_verbatim": "| 1 | 1234 | SU | 1234005 | 1 | CIGARETTES | TOBACCO | | | 2 | PACK | QD | | | 2006-01-01 | BEFORE | 2006-01-01 | ONGOING |", "score": 0.4107, "match_basis": "verbatim_token+domain_route:SU"}, {"md_atom_id": "md_dmSU_ex_a023", "md_file": "knowledge_base/domains/SU/examples.md", "md_atom_type": "TABLE_ROW", "md_parent_section": "§SU.1 [Example 1]", "md_verbatim": "| 2 | 1234 | SU | 1234005 | 2 | COFFEE | CAFFEINE | | | 3 | CUP | QD | 2006-01-01 | 2006-01-01 | | | | |", "score": 0.4, "match_basis": "verbatim_token+domain_route:SU"}], "candidate_count": 5, "zero_candidate": false}
{"pdf_atom_id": "ig34_p0129_a020", "pdf_atom_type": "TABLE_ROW", "pdf_source": "SDTMIG v3.4 (no header footer).pdf", "pdf_page": 129, "pdf_parent_section": "§6.1.6 [Substance Use (SU)]", "pdf_verbatim": "| SUSTAT | Completion Status | Char | (ND) | Record Qualifier | When the use of prespecified substances is solicited, the completion status indicates that there was no response to the question about the prespecified substance. When there is no prespecified list on the CRF, then the completion status indicates that substance use was not assessed for the subject. | Perm |", "figure_ref": null, "candidates": [{"md_atom_id": "md_dmSU_ex_a027", "md_file": "knowledge_base/domains/SU/examples.md", "md_atom_type": "TABLE_ROW", "md_parent_section": "§SU.1 [Example 1]", "md_verbatim": "| 6 | 1234 | SU | 1234007 | 1 | CIGARETTES | TOBACCO | NOT DONE | Subject left office before CRF was completed | | | | | | | | | |", "score": 0.4793, "match_basis": "verbatim_token+domain_route:SU"}, {"md_atom_id": "md_dmSU_ex_a028", "md_file": "knowledge_base/domains/SU/examples.md", "md_atom_type": "TABLE_ROW", "md_parent_section": "§SU.1 [Example 1]", "md_verbatim": "| 7 | 1234 | SU | 1234007 | 2 | CAFFEINE | CAFFEINE | NOT DONE | Subject left office before CRF was completed | | | | | | | | | |", "score": 0.4783, "match_basis": "verbatim_token+domain_route:SU"}, {"md_atom_id": "md_dmSU_assn_a004", "md_file": "knowledge_base/domains/SU/assumptions.md", "md_atom_type": "LIST_ITEM", "md_parent_section": "§SU [SU — Assumptions]", "md_verbatim": "   b. SU may contain responses to questions about use of prespecified substances as well as records of substance use collected as free text.", "score": 0.4327, "match_basis": "verbatim_token+domain_route:SU"}, {"md_atom_id": "md_dmSU_ex_a024", "md_file": "knowledge_base/domains/SU/examples.md", "md_atom_type": "TABLE_ROW", "md_parent_section": "§SU.1 [Example 1]", "md_verbatim": "| 3 | 1234 | SU | 1234006 | 1 | CIGARETTES | TOBACCO | | | 1 | PACK | QD | | 2003 | 2006-03-15 | BEFORE | | |", "score": 0.4103, "match_basis": "verbatim_token+domain_route:SU"}, {"md_atom_id": "md_dmSU_ex_a022", "md_file": "knowledge_base/domains/SU/examples.md", "md_atom_type": "TABLE_ROW", "md_parent_section": "§SU.1 [Example 1]", "md_verbatim": "| 1 | 1234 | SU | 1234005 | 1 | CIGARETTES | TOBACCO | | | 2 | PACK | QD | | | 2006-01-01 | BEFORE | 2006-01-01 | ONGOING |", "score": 0.4099, "match_basis": "verbatim_token+domain_route:SU"}], "candidate_count": 5, "zero_candidate": false}
{"pdf_atom_id": "ig34_p0129_a021", "pdf_atom_type": "TABLE_ROW", "pdf_source": "SDTMIG v3.4 (no header footer).pdf", "pdf_page": 129, "pdf_parent_section": "§6.1.6 [Substance Use (SU)]", "pdf_verbatim": "| SUREASND | Reason Substance Use Not Collected | Char | | Record Qualifier | Describes the reason substance use was not collected. Used in conjunction with SUSTAT when value of SUSTAT is \"NOT DONE\". | Perm |", "figure_ref": null, "candidates": [{"md_atom_id": "md_dmSU_ex_a028", "md_file": "knowledge_base/domains/SU/examples.md", "md_atom_type": "TABLE_ROW", "md_parent_section": "§SU.1 [Example 1]", "md_verbatim": "| 7 | 1234 | SU | 1234007 | 2 | CAFFEINE | CAFFEINE | NOT DONE | Subject left office before CRF was completed | | | | | | | | | |", "score": 0.4416, "match_basis": "verbatim_token+domain_route:SU"}, {"md_atom_id": "md_dmSU_ex_a027", "md_file": "knowledge_base/domains/SU/examples.md", "md_atom_type": "TABLE_ROW", "md_parent_section": "§SU.1 [Example 1]", "md_verbatim": "| 6 | 1234 | SU | 1234007 | 1 | CIGARETTES | TOBACCO | NOT DONE | Subject left office before CRF was completed | | | | | | | | | |", "score": 0.4389, "match_basis": "verbatim_token+domain_route:SU"}, {"md_atom_id": "md_dmSU_ex_a021", "md_file": "knowledge_base/domains/SU/examples.md", "md_atom_type": "TABLE_HEADER", "md_parent_section": "§SU.1 [Example 1]", "md_verbatim": "| Row | STUDYID | DOMAIN | USUBJID | SUSEQ | SUTRT | SUCAT | SUSTAT | SUREASND | SUDOSE | SUDOSU | SUDOSFRQ | SUSTDTC | SUENDTC | SUSTTPT | SUSTRTPT | SUENTPT | SUENRTPT |", "score": 0.4026, "match_basis": "verbatim_token+domain_route:SU"}, {"md_atom_id": "md_dmSU_ex_a022", "md_file": "knowledge_base/domains/SU/examples.md", "md_atom_type": "TABLE_ROW", "md_parent_section": "§SU.1 [Example 1]", "md_verbatim": "| 1 | 1234 | SU | 1234005 | 1 | CIGARETTES | TOBACCO | | | 2 | PACK | QD | | | 2006-01-01 | BEFORE | 2006-01-01 | ONGOING |", "score": 0.4, "match_basis": "verbatim_token+domain_route:SU"}, {"md_atom_id": "md_dmSU_ex_a023", "md_file": "knowledge_base/domains/SU/examples.md", "md_atom_type": "TABLE_ROW", "md_parent_section": "§SU.1 [Example 1]", "md_verbatim": "| 2 | 1234 | SU | 1234005 | 2 | COFFEE | CAFFEINE | | | 3 | CUP | QD | 2006-01-01 | 2006-01-01 | | | | |", "score": 0.4, "match_basis": "verbatim_token+domain_route:SU"}], "candidate_count": 5, "zero_candidate": false}
{"pdf_atom_id": "ig34_p0129_a022", "pdf_atom_type": "TABLE_ROW", "pdf_source": "SDTMIG v3.4 (no header footer).pdf", "pdf_page": 129, "pdf_parent_section": "§6.1.6 [Substance Use (SU)]", "pdf_verbatim": "| SUCLAS | Substance Use Class | Char | * | Variable Qualifier | Substance use class. May be obtained from coding. When coding to a single class, populate with class value. If using a dictionary and coding to multiple classes, then follow Section 4.2.8.3, Multiple Values for a Non-result Qualifier Variable, or omit SUCLAS. | Perm |", "figure_ref": null, "candidates": [{"md_atom_id": "md_dmSU_ex_a028", "md_file": "knowledge_base/domains/SU/examples.md", "md_atom_type": "TABLE_ROW", "md_parent_section": "§SU.1 [Example 1]", "md_verbatim": "| 7 | 1234 | SU | 1234007 | 2 | CAFFEINE | CAFFEINE | NOT DONE | Subject left office before CRF was completed | | | | | | | | | |", "score": 0.424, "match_basis": "verbatim_token+domain_route:SU"}, {"md_atom_id": "md_dmSU_ex_a027", "md_file": "knowledge_base/domains/SU/examples.md", "md_atom_type": "TABLE_ROW", "md_parent_section": "§SU.1 [Example 1]", "md_verbatim": "| 6 | 1234 | SU | 1234007 | 1 | CIGARETTES | TOBACCO | NOT DONE | Subject left office before CRF was completed | | | | | | | | | |", "score": 0.418, "match_basis": "verbatim_token+domain_route:SU"}, {"md_atom_id": "md_dmSU_ex_a022", "md_file": "knowledge_base/domains/SU/examples.md", "md_atom_type": "TABLE_ROW", "md_parent_section": "§SU.1 [Example 1]", "md_verbatim": "| 1 | 1234 | SU | 1234005 | 1 | CIGARETTES | TOBACCO | | | 2 | PACK | QD | | | 2006-01-01 | BEFORE | 2006-01-01 | ONGOING |", "score": 0.4099, "match_basis": "verbatim_token+domain_route:SU"}, {"md_atom_id": "md_dmSU_ex_a025", "md_file": "knowledge_base/domains/SU/examples.md", "md_atom_type": "TABLE_ROW", "md_parent_section": "§SU.1 [Example 1]", "md_verbatim": "| 4 | 1234 | SU | 1234006 | 2 | TEA | CAFFEINE | | | 1 | CUP | QD | 2006-03-15 | 2006-03-15 | | | | |", "score": 0.4057, "match_basis": "verbatim_token+domain_route:SU"}, {"md_atom_id": "md_dmSU_ex_a026", "md_file": "knowledge_base/domains/SU/examples.md", "md_atom_type": "TABLE_ROW", "md_parent_section": "§SU.1 [Example 1]", "md_verbatim": "| 5 | 1234 | SU | 1234006 | 3 | COFFEE | CAFFEINE | | | 2 | CUP | QD | 2006-03-15 | 2006-03-15 | | | | |", "score": 0.4056, "match_basis": "verbatim_token+domain_route:SU"}], "candidate_count": 5, "zero_candidate": false}
{"pdf_atom_id": "ig34_p0129_a023", "pdf_atom_type": "TABLE_ROW", "pdf_source": "SDTMIG v3.4 (no header footer).pdf", "pdf_page": 129, "pdf_parent_section": "§6.1.6 [Substance Use (SU)]", "pdf_verbatim": "| SUCLASCD | Substance Use Class Code | Char | * | Variable Qualifier | Code corresponding to SUCLAS. May be obtained from coding. | Perm |", "figure_ref": null, "candidates": [{"md_atom_id": "md_dmSU_ex_a028", "md_file": "knowledge_base/domains/SU/examples.md", "md_atom_type": "TABLE_ROW", "md_parent_section": "§SU.1 [Example 1]", "md_verbatim": "| 7 | 1234 | SU | 1234007 | 2 | CAFFEINE | CAFFEINE | NOT DONE | Subject left office before CRF was completed | | | | | | | | | |", "score": 0.4132, "match_basis": "verbatim_token+domain_route:SU"}, {"md_atom_id": "md_dmSU_ex_a025", "md_file": "knowledge_base/domains/SU/examples.md", "md_atom_type": "TABLE_ROW", "md_parent_section": "§SU.1 [Example 1]", "md_verbatim": "| 4 | 1234 | SU | 1234006 | 2 | TEA | CAFFEINE | | | 1 | CUP | QD | 2006-03-15 | 2006-03-15 | | | | |", "score": 0.4088, "match_basis": "verbatim_token+domain_route:SU"}, {"md_atom_id": "md_dmSU_ex_a026", "md_file": "knowledge_base/domains/SU/examples.md", "md_atom_type": "TABLE_ROW", "md_parent_section": "§SU.1 [Example 1]", "md_verbatim": "| 5 | 1234 | SU | 1234006 | 3 | COFFEE | CAFFEINE | | | 2 | CUP | QD | 2006-03-15 | 2006-03-15 | | | | |", "score": 0.4086, "match_basis": "verbatim_token+domain_route:SU"}, {"md_atom_id": "md_dmSU_ex_a023", "md_file": "knowledge_base/domains/SU/examples.md", "md_atom_type": "TABLE_ROW", "md_parent_section": "§SU.1 [Example 1]", "md_verbatim": "| 2 | 1234 | SU | 1234005 | 2 | COFFEE | CAFFEINE | | | 3 | CUP | QD | 2006-01-01 | 2006-01-01 | | | | |", "score": 0.4085, "match_basis": "verbatim_token+domain_route:SU"}, {"md_atom_id": "md_dmSU_ex_a022", "md_file": "knowledge_base/domains/SU/examples.md", "md_atom_type": "TABLE_ROW", "md_parent_section": "§SU.1 [Example 1]", "md_verbatim": "| 1 | 1234 | SU | 1234005 | 1 | CIGARETTES | TOBACCO | | | 2 | PACK | QD | | | 2006-01-01 | BEFORE | 2006-01-01 | ONGOING |", "score": 0.4071, "match_basis": "verbatim_token+domain_route:SU"}], "candidate_count": 5, "zero_candidate": false}
{"pdf_atom_id": "ig34_p0129_a024", "pdf_atom_type": "TABLE_ROW", "pdf_source": "SDTMIG v3.4 (no header footer).pdf", "pdf_page": 129, "pdf_parent_section": "§6.1.6 [Substance Use (SU)]", "pdf_verbatim": "| SUDOSE | Substance Use Consumption | Num | | Record Qualifier | Amount of SUTRT consumed. Not populated if SUDOSTXT is populated. | Perm |", "figure_ref": null, "candidates": [{"md_atom_id": "md_dmSU_ex_a028", "md_file": "knowledge_base/domains/SU/examples.md", "md_atom_type": "TABLE_ROW", "md_parent_section": "§SU.1 [Example 1]", "md_verbatim": "| 7 | 1234 | SU | 1234007 | 2 | CAFFEINE | CAFFEINE | NOT DONE | Subject left office before CRF was completed | | | | | | | | | |", "score": 0.42, "match_basis": "verbatim_token+domain_route:SU"}, {"md_atom_id": "md_dmSU_ex_a027", "md_file": "knowledge_base/domains/SU/examples.md", "md_atom_type": "TABLE_ROW", "md_parent_section": "§SU.1 [Example 1]", "md_verbatim": "| 6 | 1234 | SU | 1234007 | 1 | CIGARETTES | TOBACCO | NOT DONE | Subject left office before CRF was completed | | | | | | | | | |", "score": 0.4186, "match_basis": "verbatim_token+domain_route:SU"}, {"md_atom_id": "md_dmSU_ex_a022", "md_file": "knowledge_base/domains/SU/examples.md", "md_atom_type": "TABLE_ROW", "md_parent_section": "§SU.1 [Example 1]", "md_verbatim": "| 1 | 1234 | SU | 1234005 | 1 | CIGARETTES | TOBACCO | | | 2 | PACK | QD | | | 2006-01-01 | BEFORE | 2006-01-01 | ONGOING |", "score": 0.4, "match_basis": "verbatim_token+domain_route:SU"}, {"md_atom_id": "md_dmSU_ex_a023", "md_file": "knowledge_base/domains/SU/examples.md", "md_atom_type": "TABLE_ROW", "md_parent_section": "§SU.1 [Example 1]", "md_verbatim": "| 2 | 1234 | SU | 1234005 | 2 | COFFEE | CAFFEINE | | | 3 | CUP | QD | 2006-01-01 | 2006-01-01 | | | | |", "score": 0.4, "match_basis": "verbatim_token+domain_route:SU"}, {"md_atom_id": "md_dmSU_ex_a024", "md_file": "knowledge_base/domains/SU/examples.md", "md_atom_type": "TABLE_ROW", "md_parent_section": "§SU.1 [Example 1]", "md_verbatim": "| 3 | 1234 | SU | 1234006 | 1 | CIGARETTES | TOBACCO | | | 1 | PACK | QD | | 2003 | 2006-03-15 | BEFORE | | |", "score": 0.4, "match_basis": "verbatim_token+domain_route:SU"}], "candidate_count": 5, "zero_candidate": false}
{"pdf_atom_id": "ig34_p0130_a001", "pdf_atom_type": "TABLE_ROW", "pdf_source": "SDTMIG v3.4 (no header footer).pdf", "pdf_page": 130, "pdf_parent_section": "§6.1.6 [Substance Use (SU)]", "pdf_verbatim": "| SUDOSTXT | Substance Use Consumption Text | Char | | Record Qualifier | Substance use consumption amounts or a range of consumption information collected in text form. Not populated if SUDOSE is populated. | Perm |", "figure_ref": null, "candidates": [{"md_atom_id": "md_dmSU_ex_a028", "md_file": "knowledge_base/domains/SU/examples.md", "md_atom_type": "TABLE_ROW", "md_parent_section": "§SU.1 [Example 1]", "md_verbatim": "| 7 | 1234 | SU | 1234007 | 2 | CAFFEINE | CAFFEINE | NOT DONE | Subject left office before CRF was completed | | | | | | | | | |", "score": 0.4291, "match_basis": "verbatim_token+domain_route:SU"}, {"md_atom_id": "md_dmSU_ex_a027", "md_file": "knowledge_base/domains/SU/examples.md", "md_atom_type": "TABLE_ROW", "md_parent_section": "§SU.1 [Example 1]", "md_verbatim": "| 6 | 1234 | SU | 1234007 | 1 | CIGARETTES | TOBACCO | NOT DONE | Subject left office before CRF was completed | | | | | | | | | |", "score": 0.4273, "match_basis": "verbatim_token+domain_route:SU"}, {"md_atom_id": "md_dmSU_ex_a024", "md_file": "knowledge_base/domains/SU/examples.md", "md_atom_type": "TABLE_ROW", "md_parent_section": "§SU.1 [Example 1]", "md_verbatim": "| 3 | 1234 | SU | 1234006 | 1 | CIGARETTES | TOBACCO | | | 1 | PACK | QD | | 2003 | 2006-03-15 | BEFORE | | |", "score": 0.4063, "match_basis": "verbatim_token+domain_route:SU"}, {"md_atom_id": "md_dmSU_ex_a022", "md_file": "knowledge_base/domains/SU/examples.md", "md_atom_type": "TABLE_ROW", "md_parent_section": "§SU.1 [Example 1]", "md_verbatim": "| 1 | 1234 | SU | 1234005 | 1 | CIGARETTES | TOBACCO | | | 2 | PACK | QD | | | 2006-01-01 | BEFORE | 2006-01-01 | ONGOING |", "score": 0.406, "match_basis": "verbatim_token+domain_route:SU"}, {"md_atom_id": "md_dmSU_ex_a023", "md_file": "knowledge_base/domains/SU/examples.md", "md_atom_type": "TABLE_ROW", "md_parent_section": "§SU.1 [Example 1]", "md_verbatim": "| 2 | 1234 | SU | 1234005 | 2 | COFFEE | CAFFEINE | | | 3 | CUP | QD | 2006-01-01 | 2006-01-01 | | | | |", "score": 0.4, "match_basis": "verbatim_token+domain_route:SU"}], "candidate_count": 5, "zero_candidate": false}
{"pdf_atom_id": "ig34_p0130_a002", "pdf_atom_type": "TABLE_ROW", "pdf_source": "SDTMIG v3.4 (no header footer).pdf", "pdf_page": 130, "pdf_parent_section": "§6.1.6 [Substance Use (SU)]", "pdf_verbatim": "| SUDOSU | Consumption Units | Char | (UNIT) | Variable Qualifier | Units for SUDOSE, SUDOSTOT, or SUDOSTXT. Examples: \"oz\", \"CIGARETTE\", \"PACK\", \"g\". | Perm |", "figure_ref": null, "candidates": [{"md_atom_id": "md_dmSU_ex_a024", "md_file": "knowledge_base/domains/SU/examples.md", "md_atom_type": "TABLE_ROW", "md_parent_section": "§SU.1 [Example 1]", "md_verbatim": "| 3 | 1234 | SU | 1234006 | 1 | CIGARETTES | TOBACCO | | | 1 | PACK | QD | | 2003 | 2006-03-15 | BEFORE | | |", "score": 0.4845, "match_basis": "verbatim_token+domain_route:SU"}, {"md_atom_id": "md_dmSU_ex_a022", "md_file": "knowledge_base/domains/SU/examples.md", "md_atom_type": "TABLE_ROW", "md_parent_section": "§SU.1 [Example 1]", "md_verbatim": "| 1 | 1234 | SU | 1234005 | 1 | CIGARETTES | TOBACCO | | | 2 | PACK | QD | | | 2006-01-01 | BEFORE | 2006-01-01 | ONGOING |", "score": 0.4789, "match_basis": "verbatim_token+domain_route:SU"}, {"md_atom_id": "md_dmSU_ex_a027", "md_file": "knowledge_base/domains/SU/examples.md", "md_atom_type": "TABLE_ROW", "md_parent_section": "§SU.1 [Example 1]", "md_verbatim": "| 6 | 1234 | SU | 1234007 | 1 | CIGARETTES | TOBACCO | NOT DONE | Subject left office before CRF was completed | | | | | | | | | |", "score": 0.4667, "match_basis": "verbatim_token+domain_route:SU"}, {"md_atom_id": "md_dmSU_ex_a028", "md_file": "knowledge_base/domains/SU/examples.md", "md_atom_type": "TABLE_ROW", "md_parent_section": "§SU.1 [Example 1]", "md_verbatim": "| 7 | 1234 | SU | 1234007 | 2 | CAFFEINE | CAFFEINE | NOT DONE | Subject left office before CRF was completed | | | | | | | | | |", "score": 0.42, "match_basis": "verbatim_token+domain_route:SU"}, {"md_atom_id": "md_dmSU_ex_a023", "md_file": "knowledge_base/domains/SU/examples.md", "md_atom_type": "TABLE_ROW", "md_parent_section": "§SU.1 [Example 1]", "md_verbatim": "| 2 | 1234 | SU | 1234005 | 2 | COFFEE | CAFFEINE | | | 3 | CUP | QD | 2006-01-01 | 2006-01-01 | | | | |", "score": 0.4, "match_basis": "verbatim_token+domain_route:SU"}], "candidate_count": 5, "zero_candidate": false}
{"pdf_atom_id": "ig34_p0130_a003", "pdf_atom_type": "TABLE_ROW", "pdf_source": "SDTMIG v3.4 (no header footer).pdf", "pdf_page": 130, "pdf_parent_section": "§6.1.6 [Substance Use (SU)]", "pdf_verbatim": "| SUDOSFRM | Dose Form | Char | (FRM) | Variable Qualifier | Dose form for SUTRT. Examples: \"INJECTABLE\", \"LIQUID\", \"POWDER\". | Perm |", "figure_ref": null, "candidates": [{"md_atom_id": "md_dmSU_ex_a028", "md_file": "knowledge_base/domains/SU/examples.md", "md_atom_type": "TABLE_ROW", "md_parent_section": "§SU.1 [Example 1]", "md_verbatim": "| 7 | 1234 | SU | 1234007 | 2 | CAFFEINE | CAFFEINE | NOT DONE | Subject left office before CRF was completed | | | | | | | | | |", "score": 0.4366, "match_basis": "verbatim_token+domain_route:SU"}, {"md_atom_id": "md_dmSU_ex_a027", "md_file": "knowledge_base/domains/SU/examples.md", "md_atom_type": "TABLE_ROW", "md_parent_section": "§SU.1 [Example 1]", "md_verbatim": "| 6 | 1234 | SU | 1234007 | 1 | CIGARETTES | TOBACCO | NOT DONE | Subject left office before CRF was completed | | | | | | | | | |", "score": 0.4337, "match_basis": "verbatim_token+domain_route:SU"}, {"md_atom_id": "md_dmSU_ex_a024", "md_file": "knowledge_base/domains/SU/examples.md", "md_atom_type": "TABLE_ROW", "md_parent_section": "§SU.1 [Example 1]", "md_verbatim": "| 3 | 1234 | SU | 1234006 | 1 | CIGARETTES | TOBACCO | | | 1 | PACK | QD | | 2003 | 2006-03-15 | BEFORE | | |", "score": 0.4081, "match_basis": "verbatim_token+domain_route:SU"}, {"md_atom_id": "md_dmSU_ex_a022", "md_file": "knowledge_base/domains/SU/examples.md", "md_atom_type": "TABLE_ROW", "md_parent_section": "§SU.1 [Example 1]", "md_verbatim": "| 1 | 1234 | SU | 1234005 | 1 | CIGARETTES | TOBACCO | | | 2 | PACK | QD | | | 2006-01-01 | BEFORE | 2006-01-01 | ONGOING |", "score": 0.4076, "match_basis": "verbatim_token+domain_route:SU"}, {"md_atom_id": "md_dmSU_ex_a023", "md_file": "knowledge_base/domains/SU/examples.md", "md_atom_type": "TABLE_ROW", "md_parent_section": "§SU.1 [Example 1]", "md_verbatim": "| 2 | 1234 | SU | 1234005 | 2 | COFFEE | CAFFEINE | | | 3 | CUP | QD | 2006-01-01 | 2006-01-01 | | | | |", "score": 0.4, "match_basis": "verbatim_token+domain_route:SU"}], "candidate_count": 5, "zero_candidate": false}
{"pdf_atom_id": "ig34_p0130_a004", "pdf_atom_type": "TABLE_ROW", "pdf_source": "SDTMIG v3.4 (no header footer).pdf", "pdf_page": 130, "pdf_parent_section": "§6.1.6 [Substance Use (SU)]", "pdf_verbatim": "| SUDOSFRQ | Use Frequency Per Interval | Char | (FREQ) | Variable Qualifier | Usually expressed as the number of repeated administrations of SUDOSE within a specific time period. Example: \"Q24H\" (every day). | Perm |", "figure_ref": null, "candidates": [{"md_atom_id": "md_dmSU_ex_a028", "md_file": "knowledge_base/domains/SU/examples.md", "md_atom_type": "TABLE_ROW", "md_parent_section": "§SU.1 [Example 1]", "md_verbatim": "| 7 | 1234 | SU | 1234007 | 2 | CAFFEINE | CAFFEINE | NOT DONE | Subject left office before CRF was completed | | | | | | | | | |", "score": 0.4182, "match_basis": "verbatim_token+domain_route:SU"}, {"md_atom_id": "md_dmSU_ex_a027", "md_file": "knowledge_base/domains/SU/examples.md", "md_atom_type": "TABLE_ROW", "md_parent_section": "§SU.1 [Example 1]", "md_verbatim": "| 6 | 1234 | SU | 1234007 | 1 | CIGARETTES | TOBACCO | NOT DONE | Subject left office before CRF was completed | | | | | | | | | |", "score": 0.4173, "match_basis": "verbatim_token+domain_route:SU"}, {"md_atom_id": "md_dmSU_ex_a022", "md_file": "knowledge_base/domains/SU/examples.md", "md_atom_type": "TABLE_ROW", "md_parent_section": "§SU.1 [Example 1]", "md_verbatim": "| 1 | 1234 | SU | 1234005 | 1 | CIGARETTES | TOBACCO | | | 2 | PACK | QD | | | 2006-01-01 | BEFORE | 2006-01-01 | ONGOING |", "score": 0.4, "match_basis": "verbatim_token+domain_route:SU"}, {"md_atom_id": "md_dmSU_ex_a023", "md_file": "knowledge_base/domains/SU/examples.md", "md_atom_type": "TABLE_ROW", "md_parent_section": "§SU.1 [Example 1]", "md_verbatim": "| 2 | 1234 | SU | 1234005 | 2 | COFFEE | CAFFEINE | | | 3 | CUP | QD | 2006-01-01 | 2006-01-01 | | | | |", "score": 0.4, "match_basis": "verbatim_token+domain_route:SU"}, {"md_atom_id": "md_dmSU_ex_a024", "md_file": "knowledge_base/domains/SU/examples.md", "md_atom_type": "TABLE_ROW", "md_parent_section": "§SU.1 [Example 1]", "md_verbatim": "| 3 | 1234 | SU | 1234006 | 1 | CIGARETTES | TOBACCO | | | 1 | PACK | QD | | 2003 | 2006-03-15 | BEFORE | | |", "score": 0.4, "match_basis": "verbatim_token+domain_route:SU"}], "candidate_count": 5, "zero_candidate": false}
{"pdf_atom_id": "ig34_p0130_a005", "pdf_atom_type": "TABLE_ROW", "pdf_source": "SDTMIG v3.4 (no header footer).pdf", "pdf_page": 130, "pdf_parent_section": "§6.1.6 [Substance Use (SU)]", "pdf_verbatim": "| SUDOSTOT | Total Daily Consumption | Num | | Record Qualifier | Total daily use of SUTRT using the units in SUDOSU. Used when dosing is collected as total daily dose. If a sponsor needs to aggregate the data over a period other than daily, then the aggregated total could be recorded in a supplemental qualifier variable. | Perm |", "figure_ref": null, "candidates": [{"md_atom_id": "md_dmSU_ex_a028", "md_file": "knowledge_base/domains/SU/examples.md", "md_atom_type": "TABLE_ROW", "md_parent_section": "§SU.1 [Example 1]", "md_verbatim": "| 7 | 1234 | SU | 1234007 | 2 | CAFFEINE | CAFFEINE | NOT DONE | Subject left office before CRF was completed | | | | | | | | | |", "score": 0.413, "match_basis": "verbatim_token+domain_route:SU"}, {"md_atom_id": "md_dmSU_ex_a027", "md_file": "knowledge_base/domains/SU/examples.md", "md_atom_type": "TABLE_ROW", "md_parent_section": "§SU.1 [Example 1]", "md_verbatim": "| 6 | 1234 | SU | 1234007 | 1 | CIGARETTES | TOBACCO | NOT DONE | Subject left office before CRF was completed | | | | | | | | | |", "score": 0.4124, "match_basis": "verbatim_token+domain_route:SU"}, {"md_atom_id": "md_dmSU_ex_a022", "md_file": "knowledge_base/domains/SU/examples.md", "md_atom_type": "TABLE_ROW", "md_parent_section": "§SU.1 [Example 1]", "md_verbatim": "| 1 | 1234 | SU | 1234005 | 1 | CIGARETTES | TOBACCO | | | 2 | PACK | QD | | | 2006-01-01 | BEFORE | 2006-01-01 | ONGOING |", "score": 0.4045, "match_basis": "verbatim_token+domain_route:SU"}, {"md_atom_id": "md_dmSU_ex_a023", "md_file": "knowledge_base/domains/SU/examples.md", "md_atom_type": "TABLE_ROW", "md_parent_section": "§SU.1 [Example 1]", "md_verbatim": "| 2 | 1234 | SU | 1234005 | 2 | COFFEE | CAFFEINE | | | 3 | CUP | QD | 2006-01-01 | 2006-01-01 | | | | |", "score": 0.4, "match_basis": "verbatim_token+domain_route:SU"}, {"md_atom_id": "md_dmSU_ex_a024", "md_file": "knowledge_base/domains/SU/examples.md", "md_atom_type": "TABLE_ROW", "md_parent_section": "§SU.1 [Example 1]", "md_verbatim": "| 3 | 1234 | SU | 1234006 | 1 | CIGARETTES | TOBACCO | | | 1 | PACK | QD | | 2003 | 2006-03-15 | BEFORE | | |", "score": 0.4, "match_basis": "verbatim_token+domain_route:SU"}], "candidate_count": 5, "zero_candidate": false}
{"pdf_atom_id": "ig34_p0130_a006", "pdf_atom_type": "TABLE_ROW", "pdf_source": "SDTMIG v3.4 (no header footer).pdf", "pdf_page": 130, "pdf_parent_section": "§6.1.6 [Substance Use (SU)]", "pdf_verbatim": "| SUROUTE | Route of Administration | Char | (ROUTE) | Variable Qualifier | Route of administration for SUTRT. Examples: \"ORAL\", \"INTRAVENOUS\". | Perm |", "figure_ref": null, "candidates": [{"md_atom_id": "md_dmSU_ex_a028", "md_file": "knowledge_base/domains/SU/examples.md", "md_atom_type": "TABLE_ROW", "md_parent_section": "§SU.1 [Example 1]", "md_verbatim": "| 7 | 1234 | SU | 1234007 | 2 | CAFFEINE | CAFFEINE | NOT DONE | Subject left office before CRF was completed | | | | | | | | | |", "score": 0.4202, "match_basis": "verbatim_token+domain_route:SU"}, {"md_atom_id": "md_dmSU_ex_a027", "md_file": "knowledge_base/domains/SU/examples.md", "md_atom_type": "TABLE_ROW", "md_parent_section": "§SU.1 [Example 1]", "md_verbatim": "| 6 | 1234 | SU | 1234007 | 1 | CIGARETTES | TOBACCO | NOT DONE | Subject left office before CRF was completed | | | | | | | | | |", "score": 0.4187, "match_basis": "verbatim_token+domain_route:SU"}, {"md_atom_id": "md_dmSU_ex_a024", "md_file": "knowledge_base/domains/SU/examples.md", "md_atom_type": "TABLE_ROW", "md_parent_section": "§SU.1 [Example 1]", "md_verbatim": "| 3 | 1234 | SU | 1234006 | 1 | CIGARETTES | TOBACCO | | | 1 | PACK | QD | | 2003 | 2006-03-15 | BEFORE | | |", "score": 0.4076, "match_basis": "verbatim_token+domain_route:SU"}, {"md_atom_id": "md_dmSU_ex_a022", "md_file": "knowledge_base/domains/SU/examples.md", "md_atom_type": "TABLE_ROW", "md_parent_section": "§SU.1 [Example 1]", "md_verbatim": "| 1 | 1234 | SU | 1234005 | 1 | CIGARETTES | TOBACCO | | | 2 | PACK | QD | | | 2006-01-01 | BEFORE | 2006-01-01 | ONGOING |", "score": 0.4071, "match_basis": "verbatim_token+domain_route:SU"}, {"md_atom_id": "md_dmSU_ex_a023", "md_file": "knowledge_base/domains/SU/examples.md", "md_atom_type": "TABLE_ROW", "md_parent_section": "§SU.1 [Example 1]", "md_verbatim": "| 2 | 1234 | SU | 1234005 | 2 | COFFEE | CAFFEINE | | | 3 | CUP | QD | 2006-01-01 | 2006-01-01 | | | | |", "score": 0.4, "match_basis": "verbatim_token+domain_route:SU"}], "candidate_count": 5, "zero_candidate": false}
{"pdf_atom_id": "ig34_p0130_a007", "pdf_atom_type": "TABLE_ROW", "pdf_source": "SDTMIG v3.4 (no header footer).pdf", "pdf_page": 130, "pdf_parent_section": "§6.1.6 [Substance Use (SU)]", "pdf_verbatim": "| TAETORD | Planned Order of Element within Arm | Num | | Timing | Number that gives the planned order of the element within the arm for the element in which the substance use started. Null for substances that started before study participation. | Perm |", "figure_ref": null, "candidates": [{"md_atom_id": "md_dmSU_ex_a028", "md_file": "knowledge_base/domains/SU/examples.md", "md_atom_type": "TABLE_ROW", "md_parent_section": "§SU.1 [Example 1]", "md_verbatim": "| 7 | 1234 | SU | 1234007 | 2 | CAFFEINE | CAFFEINE | NOT DONE | Subject left office before CRF was completed | | | | | | | | | |", "score": 0.4343, "match_basis": "verbatim_token+domain_route:SU"}, {"md_atom_id": "md_dmSU_ex_a027", "md_file": "knowledge_base/domains/SU/examples.md", "md_atom_type": "TABLE_ROW", "md_parent_section": "§SU.1 [Example 1]", "md_verbatim": "| 6 | 1234 | SU | 1234007 | 1 | CIGARETTES | TOBACCO | NOT DONE | Subject left office before CRF was completed | | | | | | | | | |", "score": 0.4321, "match_basis": "verbatim_token+domain_route:SU"}, {"md_atom_id": "md_dmSU_ex_a022", "md_file": "knowledge_base/domains/SU/examples.md", "md_atom_type": "TABLE_ROW", "md_parent_section": "§SU.1 [Example 1]", "md_verbatim": "| 1 | 1234 | SU | 1234005 | 1 | CIGARETTES | TOBACCO | | | 2 | PACK | QD | | | 2006-01-01 | BEFORE | 2006-01-01 | ONGOING |", "score": 0.4303, "match_basis": "verbatim_token+domain_route:SU"}, {"md_atom_id": "md_dmSU_ex_a024", "md_file": "knowledge_base/domains/SU/examples.md", "md_atom_type": "TABLE_ROW", "md_parent_section": "§SU.1 [Example 1]", "md_verbatim": "| 3 | 1234 | SU | 1234006 | 1 | CIGARETTES | TOBACCO | | | 1 | PACK | QD | | 2003 | 2006-03-15 | BEFORE | | |", "score": 0.4253, "match_basis": "verbatim_token+domain_route:SU"}, {"md_atom_id": "md_dmSU_ex_a023", "md_file": "knowledge_base/domains/SU/examples.md", "md_atom_type": "TABLE_ROW", "md_parent_section": "§SU.1 [Example 1]", "md_verbatim": "| 2 | 1234 | SU | 1234005 | 2 | COFFEE | CAFFEINE | | | 3 | CUP | QD | 2006-01-01 | 2006-01-01 | | | | |", "score": 0.4, "match_basis": "verbatim_token+domain_route:SU"}], "candidate_count": 5, "zero_candidate": false}
{"pdf_atom_id": "ig34_p0130_a008", "pdf_atom_type": "TABLE_ROW", "pdf_source": "SDTMIG v3.4 (no header footer).pdf", "pdf_page": 130, "pdf_parent_section": "§6.1.6 [Substance Use (SU)]", "pdf_verbatim": "| EPOCH | Epoch | Char | (EPOCH) | Timing | Epoch associated with the start date/time of the substance use. Null for substances that started before study participation. | Perm |", "figure_ref": null, "candidates": [{"md_atom_id": "md_dmSU_ex_a028", "md_file": "knowledge_base/domains/SU/examples.md", "md_atom_type": "TABLE_ROW", "md_parent_section": "§SU.1 [Example 1]", "md_verbatim": "| 7 | 1234 | SU | 1234007 | 2 | CAFFEINE | CAFFEINE | NOT DONE | Subject left office before CRF was completed | | | | | | | | | |", "score": 0.4404, "match_basis": "verbatim_token+domain_route:SU"}, {"md_atom_id": "md_dmSU_ex_a027", "md_file": "knowledge_base/domains/SU/examples.md", "md_atom_type": "TABLE_ROW", "md_parent_section": "§SU.1 [Example 1]", "md_verbatim": "| 6 | 1234 | SU | 1234007 | 1 | CIGARETTES | TOBACCO | NOT DONE | Subject left office before CRF was completed | | | | | | | | | |", "score": 0.4375, "match_basis": "verbatim_token+domain_route:SU"}, {"md_atom_id": "md_dmSU_ex_a022", "md_file": "knowledge_base/domains/SU/examples.md", "md_atom_type": "TABLE_ROW", "md_parent_section": "§SU.1 [Example 1]", "md_verbatim": "| 1 | 1234 | SU | 1234005 | 1 | CIGARETTES | TOBACCO | | | 2 | PACK | QD | | | 2006-01-01 | BEFORE | 2006-01-01 | ONGOING |", "score": 0.4361, "match_basis": "verbatim_token+domain_route:SU"}, {"md_atom_id": "md_dmSU_ex_a024", "md_file": "knowledge_base/domains/SU/examples.md", "md_atom_type": "TABLE_ROW", "md_parent_section": "§SU.1 [Example 1]", "md_verbatim": "| 3 | 1234 | SU | 1234006 | 1 | CIGARETTES | TOBACCO | | | 1 | PACK | QD | | 2003 | 2006-03-15 | BEFORE | | |", "score": 0.4304, "match_basis": "verbatim_token+domain_route:SU"}, {"md_atom_id": "md_dmSU_ex_a023", "md_file": "knowledge_base/domains/SU/examples.md", "md_atom_type": "TABLE_ROW", "md_parent_section": "§SU.1 [Example 1]", "md_verbatim": "| 2 | 1234 | SU | 1234005 | 2 | COFFEE | CAFFEINE | | | 3 | CUP | QD | 2006-01-01 | 2006-01-01 | | | | |", "score": 0.4, "match_basis": "verbatim_token+domain_route:SU"}], "candidate_count": 5, "zero_candidate": false}
{"pdf_atom_id": "ig34_p0130_a009", "pdf_atom_type": "TABLE_ROW", "pdf_source": "SDTMIG v3.4 (no header footer).pdf", "pdf_page": 130, "pdf_parent_section": "§6.1.6 [Substance Use (SU)]", "pdf_verbatim": "| SUSTDTC | Start Date/Time of Substance Use | Char | ISO 8601 datetime or interval | Timing | Start date/time of the substance use represented in ISO 8601 character format. | Perm |", "figure_ref": null, "candidates": [{"md_atom_id": "md_dmSU_ex_a028", "md_file": "knowledge_base/domains/SU/examples.md", "md_atom_type": "TABLE_ROW", "md_parent_section": "§SU.1 [Example 1]", "md_verbatim": "| 7 | 1234 | SU | 1234007 | 2 | CAFFEINE | CAFFEINE | NOT DONE | Subject left office before CRF was completed | | | | | | | | | |", "score": 0.4202, "match_basis": "verbatim_token+domain_route:SU"}, {"md_atom_id": "md_dmSU_ex_a027", "md_file": "knowledge_base/domains/SU/examples.md", "md_atom_type": "TABLE_ROW", "md_parent_section": "§SU.1 [Example 1]", "md_verbatim": "| 6 | 1234 | SU | 1234007 | 1 | CIGARETTES | TOBACCO | NOT DONE | Subject left office before CRF was completed | | | | | | | | | |", "score": 0.4187, "match_basis": "verbatim_token+domain_route:SU"}, {"md_atom_id": "md_dmSU_ex_a022", "md_file": "knowledge_base/domains/SU/examples.md", "md_atom_type": "TABLE_ROW", "md_parent_section": "§SU.1 [Example 1]", "md_verbatim": "| 1 | 1234 | SU | 1234005 | 1 | CIGARETTES | TOBACCO | | | 2 | PACK | QD | | | 2006-01-01 | BEFORE | 2006-01-01 | ONGOING |", "score": 0.4145, "match_basis": "verbatim_token+domain_route:SU"}, {"md_atom_id": "md_dmSU_ex_a024", "md_file": "knowledge_base/domains/SU/examples.md", "md_atom_type": "TABLE_ROW", "md_parent_section": "§SU.1 [Example 1]", "md_verbatim": "| 3 | 1234 | SU | 1234006 | 1 | CIGARETTES | TOBACCO | | | 1 | PACK | QD | | 2003 | 2006-03-15 | BEFORE | | |", "score": 0.4076, "match_basis": "verbatim_token+domain_route:SU"}, {"md_atom_id": "md_dmSU_ex_a023", "md_file": "knowledge_base/domains/SU/examples.md", "md_atom_type": "TABLE_ROW", "md_parent_section": "§SU.1 [Example 1]", "md_verbatim": "| 2 | 1234 | SU | 1234005 | 2 | COFFEE | CAFFEINE | | | 3 | CUP | QD | 2006-01-01 | 2006-01-01 | | | | |", "score": 0.4, "match_basis": "verbatim_token+domain_route:SU"}], "candidate_count": 5, "zero_candidate": false}
{"pdf_atom_id": "ig34_p0130_a010", "pdf_atom_type": "TABLE_ROW", "pdf_source": "SDTMIG v3.4 (no header footer).pdf", "pdf_page": 130, "pdf_parent_section": "§6.1.6 [Substance Use (SU)]", "pdf_verbatim": "| SUENDTC | End Date/Time of Substance Use | Char | ISO 8601 datetime or interval | Timing | End date/time of the substance use represented in ISO 8601 character format. | Perm |", "figure_ref": null, "candidates": [{"md_atom_id": "md_dmSU_ex_a028", "md_file": "knowledge_base/domains/SU/examples.md", "md_atom_type": "TABLE_ROW", "md_parent_section": "§SU.1 [Example 1]", "md_verbatim": "| 7 | 1234 | SU | 1234007 | 2 | CAFFEINE | CAFFEINE | NOT DONE | Subject left office before CRF was completed | | | | | | | | | |", "score": 0.4207, "match_basis": "verbatim_token+domain_route:SU"}, {"md_atom_id": "md_dmSU_ex_a027", "md_file": "knowledge_base/domains/SU/examples.md", "md_atom_type": "TABLE_ROW", "md_parent_section": "§SU.1 [Example 1]", "md_verbatim": "| 6 | 1234 | SU | 1234007 | 1 | CIGARETTES | TOBACCO | NOT DONE | Subject left office before CRF was completed | | | | | | | | | |", "score": 0.4191, "match_basis": "verbatim_token+domain_route:SU"}, {"md_atom_id": "md_dmSU_ex_a022", "md_file": "knowledge_base/domains/SU/examples.md", "md_atom_type": "TABLE_ROW", "md_parent_section": "§SU.1 [Example 1]", "md_verbatim": "| 1 | 1234 | SU | 1234005 | 1 | CIGARETTES | TOBACCO | | | 2 | PACK | QD | | | 2006-01-01 | BEFORE | 2006-01-01 | ONGOING |", "score": 0.4148, "match_basis": "verbatim_token+domain_route:SU"}, {"md_atom_id": "md_dmSU_ex_a024", "md_file": "knowledge_base/domains/SU/examples.md", "md_atom_type": "TABLE_ROW", "md_parent_section": "§SU.1 [Example 1]", "md_verbatim": "| 3 | 1234 | SU | 1234006 | 1 | CIGARETTES | TOBACCO | | | 1 | PACK | QD | | 2003 | 2006-03-15 | BEFORE | | |", "score": 0.4078, "match_basis": "verbatim_token+domain_route:SU"}, {"md_atom_id": "md_dmSU_ex_a023", "md_file": "knowledge_base/domains/SU/examples.md", "md_atom_type": "TABLE_ROW", "md_parent_section": "§SU.1 [Example 1]", "md_verbatim": "| 2 | 1234 | SU | 1234005 | 2 | COFFEE | CAFFEINE | | | 3 | CUP | QD | 2006-01-01 | 2006-01-01 | | | | |", "score": 0.4, "match_basis": "verbatim_token+domain_route:SU"}], "candidate_count": 5, "zero_candidate": false}
{"pdf_atom_id": "ig34_p0130_a011", "pdf_atom_type": "TABLE_ROW", "pdf_source": "SDTMIG v3.4 (no header footer).pdf", "pdf_page": 130, "pdf_parent_section": "§6.1.6 [Substance Use (SU)]", "pdf_verbatim": "| SUSTDY | Study Day of Start of Substance Use | Num | | Timing | Study day of start of substance use relative to the sponsor-defined RFSTDTC. | Perm |", "figure_ref": null, "candidates": [{"md_atom_id": "md_dmSU_ex_a028", "md_file": "knowledge_base/domains/SU/examples.md", "md_atom_type": "TABLE_ROW", "md_parent_section": "§SU.1 [Example 1]", "md_verbatim": "| 7 | 1234 | SU | 1234007 | 2 | CAFFEINE | CAFFEINE | NOT DONE | Subject left office before CRF was completed | | | | | | | | | |", "score": 0.4146, "match_basis": "verbatim_token+domain_route:SU"}, {"md_atom_id": "md_dmSU_ex_a021", "md_file": "knowledge_base/domains/SU/examples.md", "md_atom_type": "TABLE_HEADER", "md_parent_section": "§SU.1 [Example 1]", "md_verbatim": "| Row | STUDYID | DOMAIN | USUBJID | SUSEQ | SUTRT | SUCAT | SUSTAT | SUREASND | SUDOSE | SUDOSU | SUDOSFRQ | SUSTDTC | SUENDTC | SUSTTPT | SUSTRTPT | SUENTPT | SUENRTPT |", "score": 0.4117, "match_basis": "verbatim_token+domain_route:SU"}, {"md_atom_id": "md_dmSU_ex_a025", "md_file": "knowledge_base/domains/SU/examples.md", "md_atom_type": "TABLE_ROW", "md_parent_section": "§SU.1 [Example 1]", "md_verbatim": "| 4 | 1234 | SU | 1234006 | 2 | TEA | CAFFEINE | | | 1 | CUP | QD | 2006-03-15 | 2006-03-15 | | | | |", "score": 0.4102, "match_basis": "verbatim_token+domain_route:SU"}, {"md_atom_id": "md_dmSU_ex_a026", "md_file": "knowledge_base/domains/SU/examples.md", "md_atom_type": "TABLE_ROW", "md_parent_section": "§SU.1 [Example 1]", "md_verbatim": "| 5 | 1234 | SU | 1234006 | 3 | COFFEE | CAFFEINE | | | 2 | CUP | QD | 2006-03-15 | 2006-03-15 | | | | |", "score": 0.4098, "match_basis": "verbatim_token+domain_route:SU"}, {"md_atom_id": "md_dmSU_ex_a023", "md_file": "knowledge_base/domains/SU/examples.md", "md_atom_type": "TABLE_ROW", "md_parent_section": "§SU.1 [Example 1]", "md_verbatim": "| 2 | 1234 | SU | 1234005 | 2 | COFFEE | CAFFEINE | | | 3 | CUP | QD | 2006-01-01 | 2006-01-01 | | | | |", "score": 0.4097, "match_basis": "verbatim_token+domain_route:SU"}], "candidate_count": 5, "zero_candidate": false}
{"pdf_atom_id": "ig34_p0130_a012", "pdf_atom_type": "TABLE_ROW", "pdf_source": "SDTMIG v3.4 (no header footer).pdf", "pdf_page": 130, "pdf_parent_section": "§6.1.6 [Substance Use (SU)]", "pdf_verbatim": "| SUENDY | Study Day of End of Substance Use | Num | | Timing | Study day of end of substance use relative to the sponsor-defined RFSTDTC. | Perm |", "figure_ref": null, "candidates": [{"md_atom_id": "md_dmSU_ex_a021", "md_file": "knowledge_base/domains/SU/examples.md", "md_atom_type": "TABLE_HEADER", "md_parent_section": "§SU.1 [Example 1]", "md_verbatim": "| Row | STUDYID | DOMAIN | USUBJID | SUSEQ | SUTRT | SUCAT | SUSTAT | SUREASND | SUDOSE | SUDOSU | SUDOSFRQ | SUSTDTC | SUENDTC | SUSTTPT | SUSTRTPT | SUENTPT | SUENRTPT |", "score": 0.42, "match_basis": "verbatim_token+domain_route:SU"}, {"md_atom_id": "md_dmSU_ex_a028", "md_file": "knowledge_base/domains/SU/examples.md", "md_atom_type": "TABLE_ROW", "md_parent_section": "§SU.1 [Example 1]", "md_verbatim": "| 7 | 1234 | SU | 1234007 | 2 | CAFFEINE | CAFFEINE | NOT DONE | Subject left office before CRF was completed | | | | | | | | | |", "score": 0.4148, "match_basis": "verbatim_token+domain_route:SU"}, {"md_atom_id": "md_dmSU_ex_a025", "md_file": "knowledge_base/domains/SU/examples.md", "md_atom_type": "TABLE_ROW", "md_parent_section": "§SU.1 [Example 1]", "md_verbatim": "| 4 | 1234 | SU | 1234006 | 2 | TEA | CAFFEINE | | | 1 | CUP | QD | 2006-03-15 | 2006-03-15 | | | | |", "score": 0.4103, "match_basis": "verbatim_token+domain_route:SU"}, {"md_atom_id": "md_dmSU_ex_a026", "md_file": "knowledge_base/domains/SU/examples.md", "md_atom_type": "TABLE_ROW", "md_parent_section": "§SU.1 [Example 1]", "md_verbatim": "| 5 | 1234 | SU | 1234006 | 3 | COFFEE | CAFFEINE | | | 2 | CUP | QD | 2006-03-15 | 2006-03-15 | | | | |", "score": 0.41, "match_basis": "verbatim_token+domain_route:SU"}, {"md_atom_id": "md_dmSU_ex_a023", "md_file": "knowledge_base/domains/SU/examples.md", "md_atom_type": "TABLE_ROW", "md_parent_section": "§SU.1 [Example 1]", "md_verbatim": "| 2 | 1234 | SU | 1234005 | 2 | COFFEE | CAFFEINE | | | 3 | CUP | QD | 2006-01-01 | 2006-01-01 | | | | |", "score": 0.4098, "match_basis": "verbatim_token+domain_route:SU"}], "candidate_count": 5, "zero_candidate": false}
{"pdf_atom_id": "ig34_p0130_a013", "pdf_atom_type": "TABLE_ROW", "pdf_source": "SDTMIG v3.4 (no header footer).pdf", "pdf_page": 130, "pdf_parent_section": "§6.1.6 [Substance Use (SU)]", "pdf_verbatim": "| SUDUR | Duration of Substance Use | Char | ISO 8601 duration | Timing | Collected duration of substance use in ISO 8601 format. Used only if collected on the CRF and not derived from start and end date/times. | Perm |", "figure_ref": null, "candidates": [{"md_atom_id": "md_dmSU_ex_a028", "md_file": "knowledge_base/domains/SU/examples.md", "md_atom_type": "TABLE_ROW", "md_parent_section": "§SU.1 [Example 1]", "md_verbatim": "| 7 | 1234 | SU | 1234007 | 2 | CAFFEINE | CAFFEINE | NOT DONE | Subject left office before CRF was completed | | | | | | | | | |", "score": 0.4396, "match_basis": "verbatim_token+domain_route:SU"}, {"md_atom_id": "md_dmSU_ex_a027", "md_file": "knowledge_base/domains/SU/examples.md", "md_atom_type": "TABLE_ROW", "md_parent_section": "§SU.1 [Example 1]", "md_verbatim": "| 6 | 1234 | SU | 1234007 | 1 | CIGARETTES | TOBACCO | NOT DONE | Subject left office before CRF was completed | | | | | | | | | |", "score": 0.4367, "match_basis": "verbatim_token+domain_route:SU"}, {"md_atom_id": "md_dmSU_ex_a022", "md_file": "knowledge_base/domains/SU/examples.md", "md_atom_type": "TABLE_ROW", "md_parent_section": "§SU.1 [Example 1]", "md_verbatim": "| 1 | 1234 | SU | 1234005 | 1 | CIGARETTES | TOBACCO | | | 2 | PACK | QD | | | 2006-01-01 | BEFORE | 2006-01-01 | ONGOING |", "score": 0.4136, "match_basis": "verbatim_token+domain_route:SU"}, {"md_atom_id": "md_dmSU_ex_a024", "md_file": "knowledge_base/domains/SU/examples.md", "md_atom_type": "TABLE_ROW", "md_parent_section": "§SU.1 [Example 1]", "md_verbatim": "| 3 | 1234 | SU | 1234006 | 1 | CIGARETTES | TOBACCO | | | 1 | PACK | QD | | 2003 | 2006-03-15 | BEFORE | | |", "score": 0.4071, "match_basis": "verbatim_token+domain_route:SU"}, {"md_atom_id": "md_dmSU_ex_a023", "md_file": "knowledge_base/domains/SU/examples.md", "md_atom_type": "TABLE_ROW", "md_parent_section": "§SU.1 [Example 1]", "md_verbatim": "| 2 | 1234 | SU | 1234005 | 2 | COFFEE | CAFFEINE | | | 3 | CUP | QD | 2006-01-01 | 2006-01-01 | | | | |", "score": 0.4, "match_basis": "verbatim_token+domain_route:SU"}], "candidate_count": 5, "zero_candidate": false}
{"pdf_atom_id": "ig34_p0130_a014", "pdf_atom_type": "TABLE_ROW", "pdf_source": "SDTMIG v3.4 (no header footer).pdf", "pdf_page": 130, "pdf_parent_section": "§6.1.6 [Substance Use (SU)]", "pdf_verbatim": "| SUSTRF | Start Relative to Reference Period | Char | (STENRF) | Timing | Describes the start of the substance use relative to the sponsor-defined reference period. The sponsor-defined reference period is a continuous period of time defined by a discrete starting point and a discrete ending point (represented by RFSTDTC and RFENDTC in Demographics). If information such as \"PRIOR\" was collected, this information may be translated into SUSTRF. Not all values of the codelist are allowable for this variable. See Section 4.4.7, Use of Relative Timing Variables. | Perm |", "figure_ref": null, "candidates": [{"md_atom_id": "md_dmSU_ex_a027", "md_file": "knowledge_base/domains/SU/examples.md", "md_atom_type": "TABLE_ROW", "md_parent_section": "§SU.1 [Example 1]", "md_verbatim": "| 6 | 1234 | SU | 1234007 | 1 | CIGARETTES | TOBACCO | NOT DONE | Subject left office before CRF was completed | | | | | | | | | |", "score": 0.427, "match_basis": "verbatim_token+domain_route:SU"}, {"md_atom_id": "md_dmSU_ex_a028", "md_file": "knowledge_base/domains/SU/examples.md", "md_atom_type": "TABLE_ROW", "md_parent_section": "§SU.1 [Example 1]", "md_verbatim": "| 7 | 1234 | SU | 1234007 | 2 | CAFFEINE | CAFFEINE | NOT DONE | Subject left office before CRF was completed | | | | | | | | | |", "score": 0.4247, "match_basis": "verbatim_token+domain_route:SU"}, {"md_atom_id": "md_dmSU_ex_a022", "md_file": "knowledge_base/domains/SU/examples.md", "md_atom_type": "TABLE_ROW", "md_parent_section": "§SU.1 [Example 1]", "md_verbatim": "| 1 | 1234 | SU | 1234005 | 1 | CIGARETTES | TOBACCO | | | 2 | PACK | QD | | | 2006-01-01 | BEFORE | 2006-01-01 | ONGOING |", "score": 0.4158, "match_basis": "verbatim_token+domain_route:SU"}, {"md_atom_id": "md_dmSU_ex_a024", "md_file": "knowledge_base/domains/SU/examples.md", "md_atom_type": "TABLE_ROW", "md_parent_section": "§SU.1 [Example 1]", "md_verbatim": "| 3 | 1234 | SU | 1234006 | 1 | CIGARETTES | TOBACCO | | | 1 | PACK | QD | | 2003 | 2006-03-15 | BEFORE | | |", "score": 0.4096, "match_basis": "verbatim_token+domain_route:SU"}, {"md_atom_id": "md_dmSU_ex_a025", "md_file": "knowledge_base/domains/SU/examples.md", "md_atom_type": "TABLE_ROW", "md_parent_section": "§SU.1 [Example 1]", "md_verbatim": "| 4 | 1234 | SU | 1234006 | 2 | TEA | CAFFEINE | | | 1 | CUP | QD | 2006-03-15 | 2006-03-15 | | | | |", "score": 0.4034, "match_basis": "verbatim_token+domain_route:SU"}], "candidate_count": 5, "zero_candidate": false}
{"pdf_atom_id": "ig34_p0130_a015", "pdf_atom_type": "TABLE_ROW", "pdf_source": "SDTMIG v3.4 (no header footer).pdf", "pdf_page": 130, "pdf_parent_section": "§6.1.6 [Substance Use (SU)]", "pdf_verbatim": "| SUENRF | End Relative to Reference Period | Char | (STENRF) | Timing | Describes the end of the substance use relative to the sponsor-defined reference period. The sponsor-defined reference period is a continuous period of time defined by a discrete starting point and a discrete ending point (represented by RFSTDTC and RFENDTC in Demographics). If information such as \"PRIOR\", \"ONGOING\", or \"CONTINUING\" was collected, this information may be translated into SUENRF. Not all values of the codelist are allowable for this variable. See Section 4.4.7, Use of Relative Timing Variables. | Perm |", "figure_ref": null, "candidates": [{"md_atom_id": "md_dmSU_ex_a027", "md_file": "knowledge_base/domains/SU/examples.md", "md_atom_type": "TABLE_ROW", "md_parent_section": "§SU.1 [Example 1]", "md_verbatim": "| 6 | 1234 | SU | 1234007 | 1 | CIGARETTES | TOBACCO | NOT DONE | Subject left office before CRF was completed | | | | | | | | | |", "score": 0.4266, "match_basis": "verbatim_token+domain_route:SU"}, {"md_atom_id": "md_dmSU_ex_a022", "md_file": "knowledge_base/domains/SU/examples.md", "md_atom_type": "TABLE_ROW", "md_parent_section": "§SU.1 [Example 1]", "md_verbatim": "| 1 | 1234 | SU | 1234005 | 1 | CIGARETTES | TOBACCO | | | 2 | PACK | QD | | | 2006-01-01 | BEFORE | 2006-01-01 | ONGOING |", "score": 0.4253, "match_basis": "verbatim_token+domain_route:SU"}, {"md_atom_id": "md_dmSU_ex_a028", "md_file": "knowledge_base/domains/SU/examples.md", "md_atom_type": "TABLE_ROW", "md_parent_section": "§SU.1 [Example 1]", "md_verbatim": "| 7 | 1234 | SU | 1234007 | 2 | CAFFEINE | CAFFEINE | NOT DONE | Subject left office before CRF was completed | | | | | | | | | |", "score": 0.4244, "match_basis": "verbatim_token+domain_route:SU"}, {"md_atom_id": "md_dmSU_ex_a024", "md_file": "knowledge_base/domains/SU/examples.md", "md_atom_type": "TABLE_ROW", "md_parent_section": "§SU.1 [Example 1]", "md_verbatim": "| 3 | 1234 | SU | 1234006 | 1 | CIGARETTES | TOBACCO | | | 1 | PACK | QD | | 2003 | 2006-03-15 | BEFORE | | |", "score": 0.4095, "match_basis": "verbatim_token+domain_route:SU"}, {"md_atom_id": "md_dmSU_ex_a025", "md_file": "knowledge_base/domains/SU/examples.md", "md_atom_type": "TABLE_ROW", "md_parent_section": "§SU.1 [Example 1]", "md_verbatim": "| 4 | 1234 | SU | 1234006 | 2 | TEA | CAFFEINE | | | 1 | CUP | QD | 2006-03-15 | 2006-03-15 | | | | |", "score": 0.4033, "match_basis": "verbatim_token+domain_route:SU"}], "candidate_count": 5, "zero_candidate": false}
{"pdf_atom_id": "ig34_p0130_a016", "pdf_atom_type": "TABLE_ROW", "pdf_source": "SDTMIG v3.4 (no header footer).pdf", "pdf_page": 130, "pdf_parent_section": "§6.1.6 [Substance Use (SU)]", "pdf_verbatim": "| SUSTRTPT | Start Relative to Reference Time Point | Char | (STENRF) | Timing | Identifies the start of the substance as being before or after the reference time point defined by variable SUSTTPT. Not all values of the codelist are allowable for this variable. See Section 4.4.7 , Use of Relative Timing Variables. | Perm |", "figure_ref": null, "candidates": [{"md_atom_id": "md_dmSU_ex_a028", "md_file": "knowledge_base/domains/SU/examples.md", "md_atom_type": "TABLE_ROW", "md_parent_section": "§SU.1 [Example 1]", "md_verbatim": "| 7 | 1234 | SU | 1234007 | 2 | CAFFEINE | CAFFEINE | NOT DONE | Subject left office before CRF was completed | | | | | | | | | |", "score": 0.4415, "match_basis": "verbatim_token+domain_route:SU"}, {"md_atom_id": "md_dmSU_ex_a027", "md_file": "knowledge_base/domains/SU/examples.md", "md_atom_type": "TABLE_ROW", "md_parent_section": "§SU.1 [Example 1]", "md_verbatim": "| 6 | 1234 | SU | 1234007 | 1 | CIGARETTES | TOBACCO | NOT DONE | Subject left office before CRF was completed | | | | | | | | | |", "score": 0.4348, "match_basis": "verbatim_token+domain_route:SU"}, {"md_atom_id": "md_dmSU_ex_a022", "md_file": "knowledge_base/domains/SU/examples.md", "md_atom_type": "TABLE_ROW", "md_parent_section": "§SU.1 [Example 1]", "md_verbatim": "| 1 | 1234 | SU | 1234005 | 1 | CIGARETTES | TOBACCO | | | 2 | PACK | QD | | | 2006-01-01 | BEFORE | 2006-01-01 | ONGOING |", "score": 0.4336, "match_basis": "verbatim_token+domain_route:SU"}, {"md_atom_id": "md_dmSU_ex_a024", "md_file": "knowledge_base/domains/SU/examples.md", "md_atom_type": "TABLE_ROW", "md_parent_section": "§SU.1 [Example 1]", "md_verbatim": "| 3 | 1234 | SU | 1234006 | 1 | CIGARETTES | TOBACCO | | | 1 | PACK | QD | | 2003 | 2006-03-15 | BEFORE | | |", "score": 0.4246, "match_basis": "verbatim_token+domain_route:SU"}, {"md_atom_id": "md_dmSU_ex_a013", "md_file": "knowledge_base/domains/SU/examples.md", "md_atom_type": "SENTENCE", "md_parent_section": "§SU.1 [Example 1]", "md_verbatim": "**Row 1:** Subject 1234005 is a 2-pack/day current smoker. \"Current\" implies that smoking started sometime before the time the question was asked (SUSTTPT = \"2006-01-01\", SUSTRTPT = \"BEFORE\") and had not ended as of that date (SUENTPT = \"2006-01-01\", SUENRTPT = \"ONGOING\"). See Section 4.4.7, Use of Relative Timing Variables for the use of these variables. Both the beginning and ending reference time points for this question are the date of the assessment.", "score": 0.4234, "match_basis": "verbatim_token+domain_route:SU"}], "candidate_count": 5, "zero_candidate": false}
{"pdf_atom_id": "ig34_p0130_a017", "pdf_atom_type": "TABLE_ROW", "pdf_source": "SDTMIG v3.4 (no header footer).pdf", "pdf_page": 130, "pdf_parent_section": "§6.1.6 [Substance Use (SU)]", "pdf_verbatim": "| SUSTTPT | Start Reference Time Point | Char | | Timing | Description or date/time in ISO 8601 character format of the reference point referred to by SUSTRTPT. Examples: \"2003-12-15\", \"VISIT 1\". | Perm |", "figure_ref": null, "candidates": [{"md_atom_id": "md_dmSU_ex_a022", "md_file": "knowledge_base/domains/SU/examples.md", "md_atom_type": "TABLE_ROW", "md_parent_section": "§SU.1 [Example 1]", "md_verbatim": "| 1 | 1234 | SU | 1234005 | 1 | CIGARETTES | TOBACCO | | | 2 | PACK | QD | | | 2006-01-01 | BEFORE | 2006-01-01 | ONGOING |", "score": 0.4253, "match_basis": "verbatim_token+domain_route:SU"}, {"md_atom_id": "md_dmSU_ex_a024", "md_file": "knowledge_base/domains/SU/examples.md", "md_atom_type": "TABLE_ROW", "md_parent_section": "§SU.1 [Example 1]", "md_verbatim": "| 3 | 1234 | SU | 1234006 | 1 | CIGARETTES | TOBACCO | | | 1 | PACK | QD | | 2003 | 2006-03-15 | BEFORE | | |", "score": 0.4198, "match_basis": "verbatim_token+domain_route:SU"}, {"md_atom_id": "md_dmSU_ex_a028", "md_file": "knowledge_base/domains/SU/examples.md", "md_atom_type": "TABLE_ROW", "md_parent_section": "§SU.1 [Example 1]", "md_verbatim": "| 7 | 1234 | SU | 1234007 | 2 | CAFFEINE | CAFFEINE | NOT DONE | Subject left office before CRF was completed | | | | | | | | | |", "score": 0.4175, "match_basis": "verbatim_token+domain_route:SU"}, {"md_atom_id": "md_dmSU_ex_a027", "md_file": "knowledge_base/domains/SU/examples.md", "md_atom_type": "TABLE_ROW", "md_parent_section": "§SU.1 [Example 1]", "md_verbatim": "| 6 | 1234 | SU | 1234007 | 1 | CIGARETTES | TOBACCO | NOT DONE | Subject left office before CRF was completed | | | | | | | | | |", "score": 0.4164, "match_basis": "verbatim_token+domain_route:SU"}, {"md_atom_id": "md_dmSU_ex_a025", "md_file": "knowledge_base/domains/SU/examples.md", "md_atom_type": "TABLE_ROW", "md_parent_section": "§SU.1 [Example 1]", "md_verbatim": "| 4 | 1234 | SU | 1234006 | 2 | TEA | CAFFEINE | | | 1 | CUP | QD | 2006-03-15 | 2006-03-15 | | | | |", "score": 0.4074, "match_basis": "verbatim_token+domain_route:SU"}], "candidate_count": 5, "zero_candidate": false}
{"pdf_atom_id": "ig34_p0130_a018", "pdf_atom_type": "TABLE_ROW", "pdf_source": "SDTMIG v3.4 (no header footer).pdf", "pdf_page": 130, "pdf_parent_section": "§6.1.6 [Substance Use (SU)]", "pdf_verbatim": "| SUENRTPT | End Relative to Reference Time Point | Char | (STENRF) | Timing | Identifies the end of the substance as being before or after the reference time point defined by variable SUENTPT. | Perm |", "figure_ref": null, "candidates": [{"md_atom_id": "md_dmSU_ex_a028", "md_file": "knowledge_base/domains/SU/examples.md", "md_atom_type": "TABLE_ROW", "md_parent_section": "§SU.1 [Example 1]", "md_verbatim": "| 7 | 1234 | SU | 1234007 | 2 | CAFFEINE | CAFFEINE | NOT DONE | Subject left office before CRF was completed | | | | | | | | | |", "score": 0.4412, "match_basis": "verbatim_token+domain_route:SU"}, {"md_atom_id": "md_dmSU_ex_a022", "md_file": "knowledge_base/domains/SU/examples.md", "md_atom_type": "TABLE_ROW", "md_parent_section": "§SU.1 [Example 1]", "md_verbatim": "| 1 | 1234 | SU | 1234005 | 1 | CIGARETTES | TOBACCO | | | 2 | PACK | QD | | | 2006-01-01 | BEFORE | 2006-01-01 | ONGOING |", "score": 0.4375, "match_basis": "verbatim_token+domain_route:SU"}, {"md_atom_id": "md_dmSU_ex_a027", "md_file": "knowledge_base/domains/SU/examples.md", "md_atom_type": "TABLE_ROW", "md_parent_section": "§SU.1 [Example 1]", "md_verbatim": "| 6 | 1234 | SU | 1234007 | 1 | CIGARETTES | TOBACCO | NOT DONE | Subject left office before CRF was completed | | | | | | | | | |", "score": 0.427, "match_basis": "verbatim_token+domain_route:SU"}, {"md_atom_id": "md_dmSU_ex_a024", "md_file": "knowledge_base/domains/SU/examples.md", "md_atom_type": "TABLE_ROW", "md_parent_section": "§SU.1 [Example 1]", "md_verbatim": "| 3 | 1234 | SU | 1234006 | 1 | CIGARETTES | TOBACCO | | | 1 | PACK | QD | | 2003 | 2006-03-15 | BEFORE | | |", "score": 0.4258, "match_basis": "verbatim_token+domain_route:SU"}, {"md_atom_id": "md_dmSU_ex_a025", "md_file": "knowledge_base/domains/SU/examples.md", "md_atom_type": "TABLE_ROW", "md_parent_section": "§SU.1 [Example 1]", "md_verbatim": "| 4 | 1234 | SU | 1234006 | 2 | TEA | CAFFEINE | | | 1 | CUP | QD | 2006-03-15 | 2006-03-15 | | | | |", "score": 0.4145, "match_basis": "verbatim_token+domain_route:SU"}], "candidate_count": 5, "zero_candidate": false}
{"pdf_atom_id": "ig34_p0131_a001", "pdf_atom_type": "TABLE_ROW", "pdf_source": "SDTMIG_v3.4", "pdf_page": 131, "pdf_parent_section": "§6.1.6 [Substance Use (SU)]", "pdf_verbatim": "| | | | | | Not all values of the codelist are allowable for this variable. See Section 4.4.7 , Use of Relative Timing Variables. | |", "figure_ref": null, "candidates": [{"md_atom_id": "md_dmSU_ex_a027", "md_file": "knowledge_base/domains/SU/examples.md", "md_atom_type": "TABLE_ROW", "md_parent_section": "§SU.1 [Example 1]", "md_verbatim": "| 6 | 1234 | SU | 1234007 | 1 | CIGARETTES | TOBACCO | NOT DONE | Subject left office before CRF was completed | | | | | | | | | |", "score": 0.4279, "match_basis": "verbatim_token+domain_route:SU"}, {"md_atom_id": "md_dmSU_ex_a022", "md_file": "knowledge_base/domains/SU/examples.md", "md_atom_type": "TABLE_ROW", "md_parent_section": "§SU.1 [Example 1]", "md_verbatim": "| 1 | 1234 | SU | 1234005 | 1 | CIGARETTES | TOBACCO | | | 2 | PACK | QD | | | 2006-01-01 | BEFORE | 2006-01-01 | ONGOING |", "score": 0.4247, "match_basis": "verbatim_token+domain_route:SU"}, {"md_atom_id": "md_dmSU_ex_a028", "md_file": "knowledge_base/domains/SU/examples.md", "md_atom_type": "TABLE_ROW", "md_parent_section": "§SU.1 [Example 1]", "md_verbatim": "| 7 | 1234 | SU | 1234007 | 2 | CAFFEINE | CAFFEINE | NOT DONE | Subject left office before CRF was completed | | | | | | | | | |", "score": 0.4225, "match_basis": "verbatim_token+domain_route:SU"}, {"md_atom_id": "md_dmSU_ex_a024", "md_file": "knowledge_base/domains/SU/examples.md", "md_atom_type": "TABLE_ROW", "md_parent_section": "§SU.1 [Example 1]", "md_verbatim": "| 3 | 1234 | SU | 1234006 | 1 | CIGARETTES | TOBACCO | | | 1 | PACK | QD | | 2003 | 2006-03-15 | BEFORE | | |", "score": 0.4174, "match_basis": "verbatim_token+domain_route:SU"}, {"md_atom_id": "md_dmSU_ex_a023", "md_file": "knowledge_base/domains/SU/examples.md", "md_atom_type": "TABLE_ROW", "md_parent_section": "§SU.1 [Example 1]", "md_verbatim": "| 2 | 1234 | SU | 1234005 | 2 | COFFEE | CAFFEINE | | | 3 | CUP | QD | 2006-01-01 | 2006-01-01 | | | | |", "score": 0.4, "match_basis": "verbatim_token+domain_route:SU"}], "candidate_count": 5, "zero_candidate": false}
{"pdf_atom_id": "ig34_p0131_a002", "pdf_atom_type": "TABLE_ROW", "pdf_source": "SDTMIG_v3.4", "pdf_page": 131, "pdf_parent_section": "§6.1.6 [Substance Use (SU)]", "pdf_verbatim": "| SUENTPT | End Reference Time Point | Char | | Timing | Description or date/time in ISO 8601 character format of the reference point referred to by SUENRTPT. Examples: \"2003-12-25\", \"VISIT 2\". | Perm |", "figure_ref": null, "candidates": [{"md_atom_id": "md_dmSU_ex_a022", "md_file": "knowledge_base/domains/SU/examples.md", "md_atom_type": "TABLE_ROW", "md_parent_section": "§SU.1 [Example 1]", "md_verbatim": "| 1 | 1234 | SU | 1234005 | 1 | CIGARETTES | TOBACCO | | | 2 | PACK | QD | | | 2006-01-01 | BEFORE | 2006-01-01 | ONGOING |", "score": 0.4258, "match_basis": "verbatim_token+domain_route:SU"}, {"md_atom_id": "md_dmSU_ex_a024", "md_file": "knowledge_base/domains/SU/examples.md", "md_atom_type": "TABLE_ROW", "md_parent_section": "§SU.1 [Example 1]", "md_verbatim": "| 3 | 1234 | SU | 1234006 | 1 | CIGARETTES | TOBACCO | | | 1 | PACK | QD | | 2003 | 2006-03-15 | BEFORE | | |", "score": 0.4202, "match_basis": "verbatim_token+domain_route:SU"}, {"md_atom_id": "md_dmSU_ex_a028", "md_file": "knowledge_base/domains/SU/examples.md", "md_atom_type": "TABLE_ROW", "md_parent_section": "§SU.1 [Example 1]", "md_verbatim": "| 7 | 1234 | SU | 1234007 | 2 | CAFFEINE | CAFFEINE | NOT DONE | Subject left office before CRF was completed | | | | | | | | | |", "score": 0.4178, "match_basis": "verbatim_token+domain_route:SU"}, {"md_atom_id": "md_dmSU_ex_a027", "md_file": "knowledge_base/domains/SU/examples.md", "md_atom_type": "TABLE_ROW", "md_parent_section": "§SU.1 [Example 1]", "md_verbatim": "| 6 | 1234 | SU | 1234007 | 1 | CIGARETTES | TOBACCO | NOT DONE | Subject left office before CRF was completed | | | | | | | | | |", "score": 0.4167, "match_basis": "verbatim_token+domain_route:SU"}, {"md_atom_id": "md_dmSU_ex_a025", "md_file": "knowledge_base/domains/SU/examples.md", "md_atom_type": "TABLE_ROW", "md_parent_section": "§SU.1 [Example 1]", "md_verbatim": "| 4 | 1234 | SU | 1234006 | 2 | TEA | CAFFEINE | | | 1 | CUP | QD | 2006-03-15 | 2006-03-15 | | | | |", "score": 0.4076, "match_basis": "verbatim_token+domain_route:SU"}], "candidate_count": 5, "zero_candidate": false}
{"pdf_atom_id": "ig34_p0131_a003", "pdf_atom_type": "NOTE", "pdf_source": "SDTMIG_v3.4", "pdf_page": 131, "pdf_parent_section": "§6.1.6 [Substance Use (SU)]", "pdf_verbatim": "1In this column, an asterisk (*) indicates that the variable may be subject to controlled terminology. CDISC/NCI codelist values are enclosed in parentheses.", "figure_ref": null, "candidates": [{"md_atom_id": "md_dmSU_ex_a013", "md_file": "knowledge_base/domains/SU/examples.md", "md_atom_type": "SENTENCE", "md_parent_section": "§SU.1 [Example 1]", "md_verbatim": "**Row 1:** Subject 1234005 is a 2-pack/day current smoker. \"Current\" implies that smoking started sometime before the time the question was asked (SUSTTPT = \"2006-01-01\", SUSTRTPT = \"BEFORE\") and had not ended as of that date (SUENTPT = \"2006-01-01\", SUENRTPT = \"ONGOING\"). See Section 4.4.7, Use of Relative Timing Variables for the use of these variables. Both the beginning and ending reference time points for this question are the date of the assessment.", "score": 0.3962, "match_basis": "verbatim_token+domain_route:SU"}, {"md_atom_id": "md_dmSU_ex_a015", "md_file": "knowledge_base/domains/SU/examples.md", "md_atom_type": "SENTENCE", "md_parent_section": "§SU.1 [Example 1]", "md_verbatim": "**Row 3:** Subject 1234006 is a former smoker. The date this subject began smoking is unknown, but it was sometime before the assessment date; this is shown by the values of SUSTTPT and SUSTRTPT. The end date of smoking was collected, so SUENTPT and SUENRTPT are not populated. Instead, the end date is in SUENDTC.", "score": 0.3879, "match_basis": "verbatim_token+domain_route:SU"}, {"md_atom_id": "md_dmSU_ex_a018", "md_file": "knowledge_base/domains/SU/examples.md", "md_atom_type": "SENTENCE", "md_parent_section": "§SU.1 [Example 1]", "md_verbatim": "**Row 6:** Subject 1234007 had missing data for the smoking questions; this is indicated by SUSTAT = \"NOT DONE\". The reason is in SUREASND.", "score": 0.385, "match_basis": "verbatim_token+domain_route:SU"}, {"md_atom_id": "md_dmSU_ex_a003", "md_file": "knowledge_base/domains/SU/examples.md", "md_atom_type": "SENTENCE", "md_parent_section": "§SU.1 [Example 1]", "md_verbatim": "This example illustrates how typical SU data could be populated. Here, the CRF collected:", "score": 0.3636, "match_basis": "verbatim_token+domain_route:SU"}, {"md_atom_id": "md_dmSU_ex_a016", "md_file": "knowledge_base/domains/SU/examples.md", "md_atom_type": "SENTENCE", "md_parent_section": "§SU.1 [Example 1]", "md_verbatim": "**Row 4:** Subject 1234006 drank tea on the day of the assessment.", "score": 0.36, "match_basis": "verbatim_token+domain_route:SU"}], "candidate_count": 5, "zero_candidate": false}
{"pdf_atom_id": "ig34_p0131_a004", "pdf_atom_type": "HEADING", "pdf_source": "SDTMIG_v3.4", "pdf_page": 131, "pdf_parent_section": "§6.1.6 [Substance Use (SU)]", "pdf_verbatim": "SU – Assumptions", "figure_ref": null, "candidates": [{"md_atom_id": "md_dmSU_assn_a001", "md_file": "knowledge_base/domains/SU/assumptions.md", "md_atom_type": "HEADING", "md_parent_section": "§SU [SU — Assumptions]", "md_verbatim": "# SU — Assumptions", "score": 1.0, "match_basis": "verbatim_token+domain_route:SU"}, {"md_atom_id": "md_dmSU_ex_a001", "md_file": "knowledge_base/domains/SU/examples.md", "md_atom_type": "HEADING", "md_parent_section": "§SU [SU — Examples]", "md_verbatim": "# SU — Examples", "score": 0.4, "match_basis": "verbatim_token+domain_route:SU"}, {"md_atom_id": "md_dmSU_ex_a002", "md_file": "knowledge_base/domains/SU/examples.md", "md_atom_type": "HEADING", "md_parent_section": "§SU [SU — Examples]", "md_verbatim": "## Example 1", "score": 0.4, "match_basis": "verbatim_token+domain_route:SU"}], "candidate_count": 3, "zero_candidate": false}
{"pdf_atom_id": "ig34_p0131_a005", "pdf_atom_type": "LIST_ITEM", "pdf_source": "SDTMIG_v3.4", "pdf_page": 131, "pdf_parent_section": "§6.1.6 [Substance Use (SU)]", "pdf_verbatim": "1. Substance use information may be independent of planned study evaluations, or may be a key outcome (e.g., planned evaluation) of a clinical trial.", "figure_ref": null, "candidates": [{"md_atom_id": "md_dmSU_assn_a002", "md_file": "knowledge_base/domains/SU/assumptions.md", "md_atom_type": "LIST_ITEM", "md_parent_section": "§SU [SU — Assumptions]", "md_verbatim": "1. Substance use information may be independent of planned study evaluations, or may be a key outcome (e.g., planned evaluation) of a clinical trial.", "score": 1.0, "match_basis": "verbatim_token+domain_route:SU"}, {"md_atom_id": "md_dmSU_assn_a003", "md_file": "knowledge_base/domains/SU/assumptions.md", "md_atom_type": "LIST_ITEM", "md_parent_section": "§SU [SU — Assumptions]", "md_verbatim": "   a. In many clinical trials, detailed substance use information as provided for in the domain model above may not be required (e.g., the only information collected may be a response to the question \"Have you ever smoked tobacco?\"); in such cases, many of the qualifier variables would not be submitted.", "score": 0.5151, "match_basis": "verbatim_token+domain_route:SU"}, {"md_atom_id": "md_dmSU_assn_a014", "md_file": "knowledge_base/domains/SU/assumptions.md", "md_atom_type": "LIST_ITEM", "md_parent_section": "§SU [SU — Assumptions]", "md_verbatim": "   b. If substance use information is collected more than once within the CRF (indicating that the data are visit-based) then VISITNUM would be added to the domain as an additional timing variable. VISITDY and VISIT would then be permissible variables.", "score": 0.4945, "match_basis": "verbatim_token+domain_route:SU"}, {"md_atom_id": "md_dmSU_assn_a007", "md_file": "knowledge_base/domains/SU/assumptions.md", "md_atom_type": "LIST_ITEM", "md_parent_section": "§SU [SU — Assumptions]", "md_verbatim": "   b. SUMODIFY is a permissible variable and should be included if coding is performed and the sponsor's procedure permits modification of a verbatim substance use term for coding. The modified term is listed in SUMODIFY. The variable may be populated as per the sponsor's procedures.", "score": 0.4797, "match_basis": "verbatim_token+domain_route:SU"}, {"md_atom_id": "md_dmSU_assn_a004", "md_file": "knowledge_base/domains/SU/assumptions.md", "md_atom_type": "LIST_ITEM", "md_parent_section": "§SU [SU — Assumptions]", "md_verbatim": "   b. SU may contain responses to questions about use of prespecified substances as well as records of substance use collected as free text.", "score": 0.4788, "match_basis": "verbatim_token+domain_route:SU"}], "candidate_count": 5, "zero_candidate": false}
{"pdf_atom_id": "ig34_p0131_a006", "pdf_atom_type": "LIST_ITEM", "pdf_source": "SDTMIG_v3.4", "pdf_page": 131, "pdf_parent_section": "§6.1.6 [Substance Use (SU)]", "pdf_verbatim": "a. In many clinical trials, detailed substance use information as provided for in the domain model above may not be required (e.g., the only information collected may be a response to the question “Have you ever smoked tobacco?”); in such cases, many of the qualifier variables would not be submitted.", "figure_ref": null, "candidates": [{"md_atom_id": "md_dmSU_assn_a003", "md_file": "knowledge_base/domains/SU/assumptions.md", "md_atom_type": "LIST_ITEM", "md_parent_section": "§SU [SU — Assumptions]", "md_verbatim": "   a. In many clinical trials, detailed substance use information as provided for in the domain model above may not be required (e.g., the only information collected may be a response to the question \"Have you ever smoked tobacco?\"); in such cases, many of the qualifier variables would not be submitted.", "score": 1.0, "match_basis": "verbatim_token+domain_route:SU"}, {"md_atom_id": "md_dmSU_assn_a014", "md_file": "knowledge_base/domains/SU/assumptions.md", "md_atom_type": "LIST_ITEM", "md_parent_section": "§SU [SU — Assumptions]", "md_verbatim": "   b. If substance use information is collected more than once within the CRF (indicating that the data are visit-based) then VISITNUM would be added to the domain as an additional timing variable. VISITDY and VISIT would then be permissible variables.", "score": 0.5491, "match_basis": "verbatim_token+domain_route:SU"}, {"md_atom_id": "md_dmSU_assn_a006", "md_file": "knowledge_base/domains/SU/assumptions.md", "md_atom_type": "LIST_ITEM", "md_parent_section": "§SU [SU — Assumptions]", "md_verbatim": "   a. SUTRT captures the verbatim or the prespecified text collected for the substance. It is the topic variable for the SU dataset. SUTRT is a required variable and must have a value.", "score": 0.5461, "match_basis": "verbatim_token+domain_route:SU"}, {"md_atom_id": "md_dmSU_assn_a004", "md_file": "knowledge_base/domains/SU/assumptions.md", "md_atom_type": "LIST_ITEM", "md_parent_section": "§SU [SU — Assumptions]", "md_verbatim": "   b. SU may contain responses to questions about use of prespecified substances as well as records of substance use collected as free text.", "score": 0.5437, "match_basis": "verbatim_token+domain_route:SU"}, {"md_atom_id": "md_dmSU_assn_a007", "md_file": "knowledge_base/domains/SU/assumptions.md", "md_atom_type": "LIST_ITEM", "md_parent_section": "§SU [SU — Assumptions]", "md_verbatim": "   b. SUMODIFY is a permissible variable and should be included if coding is performed and the sponsor's procedure permits modification of a verbatim substance use term for coding. The modified term is listed in SUMODIFY. The variable may be populated as per the sponsor's procedures.", "score": 0.5249, "match_basis": "verbatim_token+domain_route:SU"}], "candidate_count": 5, "zero_candidate": false}
{"pdf_atom_id": "ig34_p0131_a007", "pdf_atom_type": "LIST_ITEM", "pdf_source": "SDTMIG_v3.4", "pdf_page": 131, "pdf_parent_section": "§6.1.6 [Substance Use (SU)]", "pdf_verbatim": "b. SU may contain responses to questions about use of prespecified substances as well as records of substance use collected as free text.", "figure_ref": null, "candidates": [{"md_atom_id": "md_dmSU_assn_a004", "md_file": "knowledge_base/domains/SU/assumptions.md", "md_atom_type": "LIST_ITEM", "md_parent_section": "§SU [SU — Assumptions]", "md_verbatim": "   b. SU may contain responses to questions about use of prespecified substances as well as records of substance use collected as free text.", "score": 1.0, "match_basis": "verbatim_token+domain_route:SU"}, {"md_atom_id": "md_dmSU_assn_a006", "md_file": "knowledge_base/domains/SU/assumptions.md", "md_atom_type": "LIST_ITEM", "md_parent_section": "§SU [SU — Assumptions]", "md_verbatim": "   a. SUTRT captures the verbatim or the prespecified text collected for the substance. It is the topic variable for the SU dataset. SUTRT is a required variable and must have a value.", "score": 0.5545, "match_basis": "verbatim_token+domain_route:SU"}, {"md_atom_id": "md_dmSU_assn_a003", "md_file": "knowledge_base/domains/SU/assumptions.md", "md_atom_type": "LIST_ITEM", "md_parent_section": "§SU [SU — Assumptions]", "md_verbatim": "   a. In many clinical trials, detailed substance use information as provided for in the domain model above may not be required (e.g., the only information collected may be a response to the question \"Have you ever smoked tobacco?\"); in such cases, many of the qualifier variables would not be submitted.", "score": 0.5437, "match_basis": "verbatim_token+domain_route:SU"}, {"md_atom_id": "md_dmSU_assn_a010", "md_file": "knowledge_base/domains/SU/assumptions.md", "md_atom_type": "LIST_ITEM", "md_parent_section": "§SU [SU — Assumptions]", "md_verbatim": "   a. SUCAT and SUSCAT should not be redundant with the domain code or dictionary classification provided by SUDECOD, or with SUTRT. That is, they should provide a different means of defining or classifying SU records. For example, a sponsor may be interested in identifying all substances that the investigator feels might represent opium use, and to collect such use on a separate CRF page. This categorization might differ from the categorization derived from the coding dictionary.", "score": 0.4975, "match_basis": "verbatim_token+domain_route:SU"}, {"md_atom_id": "md_dmSU_assn_a007", "md_file": "knowledge_base/domains/SU/assumptions.md", "md_atom_type": "LIST_ITEM", "md_parent_section": "§SU [SU — Assumptions]", "md_verbatim": "   b. SUMODIFY is a permissible variable and should be included if coding is performed and the sponsor's procedure permits modification of a verbatim substance use term for coding. The modified term is listed in SUMODIFY. The variable may be populated as per the sponsor's procedures.", "score": 0.4891, "match_basis": "verbatim_token+domain_route:SU"}], "candidate_count": 5, "zero_candidate": false}
{"pdf_atom_id": "ig34_p0131_a008", "pdf_atom_type": "LIST_ITEM", "pdf_source": "SDTMIG_v3.4", "pdf_page": 131, "pdf_parent_section": "§6.1.6 [Substance Use (SU)]", "pdf_verbatim": "2. SU description and coding", "figure_ref": null, "candidates": [{"md_atom_id": "md_dmSU_assn_a005", "md_file": "knowledge_base/domains/SU/assumptions.md", "md_atom_type": "LIST_ITEM", "md_parent_section": "§SU [SU — Assumptions]", "md_verbatim": "2. SU description and coding", "score": 1.0, "match_basis": "verbatim_token+domain_route:SU"}, {"md_atom_id": "md_dmSU_assn_a009", "md_file": "knowledge_base/domains/SU/assumptions.md", "md_atom_type": "LIST_ITEM", "md_parent_section": "§SU [SU — Assumptions]", "md_verbatim": "3. Additional categorization and grouping", "score": 0.4686, "match_basis": "verbatim_token+domain_route:SU"}, {"md_atom_id": "md_dmSU_assn_a007", "md_file": "knowledge_base/domains/SU/assumptions.md", "md_atom_type": "LIST_ITEM", "md_parent_section": "§SU [SU — Assumptions]", "md_verbatim": "   b. SUMODIFY is a permissible variable and should be included if coding is performed and the sponsor's procedure permits modification of a verbatim substance use term for coding. The modified term is listed in SUMODIFY. The variable may be populated as per the sponsor's procedures.", "score": 0.4433, "match_basis": "verbatim_token+domain_route:SU"}, {"md_atom_id": "md_dmSU_ex_a004", "md_file": "knowledge_base/domains/SU/examples.md", "md_atom_type": "LIST_ITEM", "md_parent_section": "§SU.1 [Example 1]", "md_verbatim": "- Smoking data", "score": 0.43, "match_basis": "verbatim_token+domain_route:SU"}, {"md_atom_id": "md_dmSU_assn_a008", "md_file": "knowledge_base/domains/SU/assumptions.md", "md_atom_type": "LIST_ITEM", "md_parent_section": "§SU [SU — Assumptions]", "md_verbatim": "   c. SUDECOD is the preferred term derived by the sponsor from the coding dictionary if coding is performed. It is a permissible variable. Where deemed necessary by the sponsor, the verbatim term (SUTRT) should be coded using a standard dictionary such as WHO Drug. The sponsor is expected to provide the dictionary name and version used to map the terms utilizing the external codelist element in the Define-XML document.", "score": 0.4276, "match_basis": "verbatim_token+domain_route:SU"}], "candidate_count": 5, "zero_candidate": false}
{"pdf_atom_id": "ig34_p0131_a009", "pdf_atom_type": "LIST_ITEM", "pdf_source": "SDTMIG_v3.4", "pdf_page": 131, "pdf_parent_section": "§6.1.6 [Substance Use (SU)]", "pdf_verbatim": "a. SUTRT captures the verbatim or the prespecified text collected for the substance. It is the topic variable for the SU dataset. SUTRT is a required variable and must have a value.", "figure_ref": null, "candidates": [{"md_atom_id": "md_dmSU_assn_a006", "md_file": "knowledge_base/domains/SU/assumptions.md", "md_atom_type": "LIST_ITEM", "md_parent_section": "§SU [SU — Assumptions]", "md_verbatim": "   a. SUTRT captures the verbatim or the prespecified text collected for the substance. It is the topic variable for the SU dataset. SUTRT is a required variable and must have a value.", "score": 1.0, "match_basis": "verbatim_token+domain_route:SU"}, {"md_atom_id": "md_dmSU_assn_a004", "md_file": "knowledge_base/domains/SU/assumptions.md", "md_atom_type": "LIST_ITEM", "md_parent_section": "§SU [SU — Assumptions]", "md_verbatim": "   b. SU may contain responses to questions about use of prespecified substances as well as records of substance use collected as free text.", "score": 0.5545, "match_basis": "verbatim_token+domain_route:SU"}, {"md_atom_id": "md_dmSU_assn_a003", "md_file": "knowledge_base/domains/SU/assumptions.md", "md_atom_type": "LIST_ITEM", "md_parent_section": "§SU [SU — Assumptions]", "md_verbatim": "   a. In many clinical trials, detailed substance use information as provided for in the domain model above may not be required (e.g., the only information collected may be a response to the question \"Have you ever smoked tobacco?\"); in such cases, many of the qualifier variables would not be submitted.", "score": 0.5461, "match_basis": "verbatim_token+domain_route:SU"}, {"md_atom_id": "md_dmSU_assn_a007", "md_file": "knowledge_base/domains/SU/assumptions.md", "md_atom_type": "LIST_ITEM", "md_parent_section": "§SU [SU — Assumptions]", "md_verbatim": "   b. SUMODIFY is a permissible variable and should be included if coding is performed and the sponsor's procedure permits modification of a verbatim substance use term for coding. The modified term is listed in SUMODIFY. The variable may be populated as per the sponsor's procedures.", "score": 0.5273, "match_basis": "verbatim_token+domain_route:SU"}, {"md_atom_id": "md_dmSU_assn_a014", "md_file": "knowledge_base/domains/SU/assumptions.md", "md_atom_type": "LIST_ITEM", "md_parent_section": "§SU [SU — Assumptions]", "md_verbatim": "   b. If substance use information is collected more than once within the CRF (indicating that the data are visit-based) then VISITNUM would be added to the domain as an additional timing variable. VISITDY and VISIT would then be permissible variables.", "score": 0.5254, "match_basis": "verbatim_token+domain_route:SU"}], "candidate_count": 5, "zero_candidate": false}
{"pdf_atom_id": "ig34_p0131_a010", "pdf_atom_type": "LIST_ITEM", "pdf_source": "SDTMIG_v3.4", "pdf_page": 131, "pdf_parent_section": "§6.1.6 [Substance Use (SU)]", "pdf_verbatim": "b. SUMODIFY is a permissible variable and should be included if coding is performed and the sponsor’s procedure permits modification of a verbatim substance use term for coding. The modified term is listed in SUMODIFY. The variable may be populated as per the sponsor’s procedures.", "figure_ref": null, "candidates": [{"md_atom_id": "md_dmSU_assn_a007", "md_file": "knowledge_base/domains/SU/assumptions.md", "md_atom_type": "LIST_ITEM", "md_parent_section": "§SU [SU — Assumptions]", "md_verbatim": "   b. SUMODIFY is a permissible variable and should be included if coding is performed and the sponsor's procedure permits modification of a verbatim substance use term for coding. The modified term is listed in SUMODIFY. The variable may be populated as per the sponsor's procedures.", "score": 1.0, "match_basis": "verbatim_token+domain_route:SU"}, {"md_atom_id": "md_dmSU_assn_a008", "md_file": "knowledge_base/domains/SU/assumptions.md", "md_atom_type": "LIST_ITEM", "md_parent_section": "§SU [SU — Assumptions]", "md_verbatim": "   c. SUDECOD is the preferred term derived by the sponsor from the coding dictionary if coding is performed. It is a permissible variable. Where deemed necessary by the sponsor, the verbatim term (SUTRT) should be coded using a standard dictionary such as WHO Drug. The sponsor is expected to provide the dictionary name and version used to map the terms utilizing the external codelist element in the Define-XML document.", "score": 0.5747, "match_basis": "verbatim_token+domain_route:SU"}, {"md_atom_id": "md_dmSU_assn_a014", "md_file": "knowledge_base/domains/SU/assumptions.md", "md_atom_type": "LIST_ITEM", "md_parent_section": "§SU [SU — Assumptions]", "md_verbatim": "   b. If substance use information is collected more than once within the CRF (indicating that the data are visit-based) then VISITNUM would be added to the domain as an additional timing variable. VISITDY and VISIT would then be permissible variables.", "score": 0.5531, "match_basis": "verbatim_token+domain_route:SU"}, {"md_atom_id": "md_dmSU_assn_a006", "md_file": "knowledge_base/domains/SU/assumptions.md", "md_atom_type": "LIST_ITEM", "md_parent_section": "§SU [SU — Assumptions]", "md_verbatim": "   a. SUTRT captures the verbatim or the prespecified text collected for the substance. It is the topic variable for the SU dataset. SUTRT is a required variable and must have a value.", "score": 0.5273, "match_basis": "verbatim_token+domain_route:SU"}, {"md_atom_id": "md_dmSU_assn_a003", "md_file": "knowledge_base/domains/SU/assumptions.md", "md_atom_type": "LIST_ITEM", "md_parent_section": "§SU [SU — Assumptions]", "md_verbatim": "   a. In many clinical trials, detailed substance use information as provided for in the domain model above may not be required (e.g., the only information collected may be a response to the question \"Have you ever smoked tobacco?\"); in such cases, many of the qualifier variables would not be submitted.", "score": 0.5249, "match_basis": "verbatim_token+domain_route:SU"}], "candidate_count": 5, "zero_candidate": false}
{"pdf_atom_id": "ig34_p0131_a011", "pdf_atom_type": "LIST_ITEM", "pdf_source": "SDTMIG_v3.4", "pdf_page": 131, "pdf_parent_section": "§6.1.6 [Substance Use (SU)]", "pdf_verbatim": "c. SUDECOD is the preferred term derived by the sponsor from the coding dictionary if coding is performed. It is a permissible variable. Where deemed necessary by the sponsor, the verbatim term (SUTRT) should be coded using a standard dictionary such as WHO Drug. The sponsor is expected to provide the dictionary name and version used to map the terms utilizing the external codelist element in the Define-XML document.", "figure_ref": null, "candidates": [{"md_atom_id": "md_dmSU_assn_a008", "md_file": "knowledge_base/domains/SU/assumptions.md", "md_atom_type": "LIST_ITEM", "md_parent_section": "§SU [SU — Assumptions]", "md_verbatim": "   c. SUDECOD is the preferred term derived by the sponsor from the coding dictionary if coding is performed. It is a permissible variable. Where deemed necessary by the sponsor, the verbatim term (SUTRT) should be coded using a standard dictionary such as WHO Drug. The sponsor is expected to provide the dictionary name and version used to map the terms utilizing the external codelist element in the Define-XML document.", "score": 1.0, "match_basis": "verbatim_token+domain_route:SU"}, {"md_atom_id": "md_dmSU_assn_a007", "md_file": "knowledge_base/domains/SU/assumptions.md", "md_atom_type": "LIST_ITEM", "md_parent_section": "§SU [SU — Assumptions]", "md_verbatim": "   b. SUMODIFY is a permissible variable and should be included if coding is performed and the sponsor's procedure permits modification of a verbatim substance use term for coding. The modified term is listed in SUMODIFY. The variable may be populated as per the sponsor's procedures.", "score": 0.5747, "match_basis": "verbatim_token+domain_route:SU"}, {"md_atom_id": "md_dmSU_assn_a010", "md_file": "knowledge_base/domains/SU/assumptions.md", "md_atom_type": "LIST_ITEM", "md_parent_section": "§SU [SU — Assumptions]", "md_verbatim": "   a. SUCAT and SUSCAT should not be redundant with the domain code or dictionary classification provided by SUDECOD, or with SUTRT. That is, they should provide a different means of defining or classifying SU records. For example, a sponsor may be interested in identifying all substances that the investigator feels might represent opium use, and to collect such use on a separate CRF page. This categorization might differ from the categorization derived from the coding dictionary.", "score": 0.5548, "match_basis": "verbatim_token+domain_route:SU"}, {"md_atom_id": "md_dmSU_assn_a014", "md_file": "knowledge_base/domains/SU/assumptions.md", "md_atom_type": "LIST_ITEM", "md_parent_section": "§SU [SU — Assumptions]", "md_verbatim": "   b. If substance use information is collected more than once within the CRF (indicating that the data are visit-based) then VISITNUM would be added to the domain as an additional timing variable. VISITDY and VISIT would then be permissible variables.", "score": 0.5075, "match_basis": "verbatim_token+domain_route:SU"}, {"md_atom_id": "md_dmSU_assn_a003", "md_file": "knowledge_base/domains/SU/assumptions.md", "md_atom_type": "LIST_ITEM", "md_parent_section": "§SU [SU — Assumptions]", "md_verbatim": "   a. In many clinical trials, detailed substance use information as provided for in the domain model above may not be required (e.g., the only information collected may be a response to the question \"Have you ever smoked tobacco?\"); in such cases, many of the qualifier variables would not be submitted.", "score": 0.4917, "match_basis": "verbatim_token+domain_route:SU"}], "candidate_count": 5, "zero_candidate": false}
{"pdf_atom_id": "ig34_p0131_a012", "pdf_atom_type": "LIST_ITEM", "pdf_source": "SDTMIG_v3.4", "pdf_page": 131, "pdf_parent_section": "§6.1.6 [Substance Use (SU)]", "pdf_verbatim": "3. Additional categorization and grouping", "figure_ref": null, "candidates": [{"md_atom_id": "md_dmSU_assn_a009", "md_file": "knowledge_base/domains/SU/assumptions.md", "md_atom_type": "LIST_ITEM", "md_parent_section": "§SU [SU — Assumptions]", "md_verbatim": "3. Additional categorization and grouping", "score": 1.0, "match_basis": "verbatim_token+domain_route:SU"}, {"md_atom_id": "md_dmSU_assn_a011", "md_file": "knowledge_base/domains/SU/assumptions.md", "md_atom_type": "LIST_ITEM", "md_parent_section": "§SU [SU — Assumptions]", "md_verbatim": "   b. SUGRPID may be used to link (or associate) different records together to form a block of related records within SU at the subject level (see Section 4.2.6, Grouping Variables and Categorization). It should not be used in place of SUCAT or SUSCAT.", "score": 0.5107, "match_basis": "verbatim_token+domain_route:SU"}, {"md_atom_id": "md_dmSU_assn_a005", "md_file": "knowledge_base/domains/SU/assumptions.md", "md_atom_type": "LIST_ITEM", "md_parent_section": "§SU [SU — Assumptions]", "md_verbatim": "2. SU description and coding", "score": 0.4686, "match_basis": "verbatim_token+domain_route:SU"}, {"md_atom_id": "md_dmSU_assn_a014", "md_file": "knowledge_base/domains/SU/assumptions.md", "md_atom_type": "LIST_ITEM", "md_parent_section": "§SU [SU — Assumptions]", "md_verbatim": "   b. If substance use information is collected more than once within the CRF (indicating that the data are visit-based) then VISITNUM would be added to the domain as an additional timing variable. VISITDY and VISIT would then be permissible variables.", "score": 0.4686, "match_basis": "verbatim_token+domain_route:SU"}, {"md_atom_id": "md_dmSU_assn_a015", "md_file": "knowledge_base/domains/SU/assumptions.md", "md_atom_type": "LIST_ITEM", "md_parent_section": "§SU [SU — Assumptions]", "md_verbatim": "5. Any additional qualifiers from the Interventions class may be added to the SU domain, but the following qualifiers would generally not be used: --MOOD, --LOT.", "score": 0.4684, "match_basis": "verbatim_token+domain_route:SU"}], "candidate_count": 5, "zero_candidate": false}
{"pdf_atom_id": "ig34_p0131_a013", "pdf_atom_type": "LIST_ITEM", "pdf_source": "SDTMIG_v3.4", "pdf_page": 131, "pdf_parent_section": "§6.1.6 [Substance Use (SU)]", "pdf_verbatim": "a. SUCAT and SUSCAT should not be redundant with the domain code or dictionary classification provided by SUDECOD, or with SUTRT. That is, they should provide a different means of defining or classifying SU records. For example, a sponsor may be interested in identifying all substances that the investigator feels might represent opium use, and to collect such use on a separate CRF page. This categorization might differ from the categorization derived from the coding dictionary.", "figure_ref": null, "candidates": [{"md_atom_id": "md_dmSU_assn_a010", "md_file": "knowledge_base/domains/SU/assumptions.md", "md_atom_type": "LIST_ITEM", "md_parent_section": "§SU [SU — Assumptions]", "md_verbatim": "   a. SUCAT and SUSCAT should not be redundant with the domain code or dictionary classification provided by SUDECOD, or with SUTRT. That is, they should provide a different means of defining or classifying SU records. For example, a sponsor may be interested in identifying all substances that the investigator feels might represent opium use, and to collect such use on a separate CRF page. This categorization might differ from the categorization derived from the coding dictionary.", "score": 1.0, "match_basis": "verbatim_token+domain_route:SU"}, {"md_atom_id": "md_dmSU_assn_a008", "md_file": "knowledge_base/domains/SU/assumptions.md", "md_atom_type": "LIST_ITEM", "md_parent_section": "§SU [SU — Assumptions]", "md_verbatim": "   c. SUDECOD is the preferred term derived by the sponsor from the coding dictionary if coding is performed. It is a permissible variable. Where deemed necessary by the sponsor, the verbatim term (SUTRT) should be coded using a standard dictionary such as WHO Drug. The sponsor is expected to provide the dictionary name and version used to map the terms utilizing the external codelist element in the Define-XML document.", "score": 0.5548, "match_basis": "verbatim_token+domain_route:SU"}, {"md_atom_id": "md_dmSU_assn_a011", "md_file": "knowledge_base/domains/SU/assumptions.md", "md_atom_type": "LIST_ITEM", "md_parent_section": "§SU [SU — Assumptions]", "md_verbatim": "   b. SUGRPID may be used to link (or associate) different records together to form a block of related records within SU at the subject level (see Section 4.2.6, Grouping Variables and Categorization). It should not be used in place of SUCAT or SUSCAT.", "score": 0.5303, "match_basis": "verbatim_token+domain_route:SU"}, {"md_atom_id": "md_dmSU_assn_a007", "md_file": "knowledge_base/domains/SU/assumptions.md", "md_atom_type": "LIST_ITEM", "md_parent_section": "§SU [SU — Assumptions]", "md_verbatim": "   b. SUMODIFY is a permissible variable and should be included if coding is performed and the sponsor's procedure permits modification of a verbatim substance use term for coding. The modified term is listed in SUMODIFY. The variable may be populated as per the sponsor's procedures.", "score": 0.5211, "match_basis": "verbatim_token+domain_route:SU"}, {"md_atom_id": "md_dmSU_assn_a003", "md_file": "knowledge_base/domains/SU/assumptions.md", "md_atom_type": "LIST_ITEM", "md_parent_section": "§SU [SU — Assumptions]", "md_verbatim": "   a. In many clinical trials, detailed substance use information as provided for in the domain model above may not be required (e.g., the only information collected may be a response to the question \"Have you ever smoked tobacco?\"); in such cases, many of the qualifier variables would not be submitted.", "score": 0.5127, "match_basis": "verbatim_token+domain_route:SU"}], "candidate_count": 5, "zero_candidate": false}
{"pdf_atom_id": "ig34_p0131_a014", "pdf_atom_type": "LIST_ITEM", "pdf_source": "SDTMIG_v3.4", "pdf_page": 131, "pdf_parent_section": "§6.1.6 [Substance Use (SU)]", "pdf_verbatim": "b. SUGRPID may be used to link (or associate) different records together to form a block of related records within SU at the subject level (see Section 4.2.6, Grouping Variables and Categorization). It should not be used in place of SUCAT or SUSCAT.", "figure_ref": null, "candidates": [{"md_atom_id": "md_dmSU_assn_a011", "md_file": "knowledge_base/domains/SU/assumptions.md", "md_atom_type": "LIST_ITEM", "md_parent_section": "§SU [SU — Assumptions]", "md_verbatim": "   b. SUGRPID may be used to link (or associate) different records together to form a block of related records within SU at the subject level (see Section 4.2.6, Grouping Variables and Categorization). It should not be used in place of SUCAT or SUSCAT.", "score": 1.0, "match_basis": "verbatim_token+domain_route:SU"}, {"md_atom_id": "md_dmSU_assn_a010", "md_file": "knowledge_base/domains/SU/assumptions.md", "md_atom_type": "LIST_ITEM", "md_parent_section": "§SU [SU — Assumptions]", "md_verbatim": "   a. SUCAT and SUSCAT should not be redundant with the domain code or dictionary classification provided by SUDECOD, or with SUTRT. That is, they should provide a different means of defining or classifying SU records. For example, a sponsor may be interested in identifying all substances that the investigator feels might represent opium use, and to collect such use on a separate CRF page. This categorization might differ from the categorization derived from the coding dictionary.", "score": 0.5303, "match_basis": "verbatim_token+domain_route:SU"}, {"md_atom_id": "md_dmSU_assn_a009", "md_file": "knowledge_base/domains/SU/assumptions.md", "md_atom_type": "LIST_ITEM", "md_parent_section": "§SU [SU — Assumptions]", "md_verbatim": "3. Additional categorization and grouping", "score": 0.5107, "match_basis": "verbatim_token+domain_route:SU"}, {"md_atom_id": "md_dmSU_assn_a014", "md_file": "knowledge_base/domains/SU/assumptions.md", "md_atom_type": "LIST_ITEM", "md_parent_section": "§SU [SU — Assumptions]", "md_verbatim": "   b. If substance use information is collected more than once within the CRF (indicating that the data are visit-based) then VISITNUM would be added to the domain as an additional timing variable. VISITDY and VISIT would then be permissible variables.", "score": 0.5, "match_basis": "verbatim_token+domain_route:SU"}, {"md_atom_id": "md_dmSU_assn_a007", "md_file": "knowledge_base/domains/SU/assumptions.md", "md_atom_type": "LIST_ITEM", "md_parent_section": "§SU [SU — Assumptions]", "md_verbatim": "   b. SUMODIFY is a permissible variable and should be included if coding is performed and the sponsor's procedure permits modification of a verbatim substance use term for coding. The modified term is listed in SUMODIFY. The variable may be populated as per the sponsor's procedures.", "score": 0.4969, "match_basis": "verbatim_token+domain_route:SU"}], "candidate_count": 5, "zero_candidate": false}
{"pdf_atom_id": "ig34_p0131_a015", "pdf_atom_type": "LIST_ITEM", "pdf_source": "SDTMIG_v3.4", "pdf_page": 131, "pdf_parent_section": "§6.1.6 [Substance Use (SU)]", "pdf_verbatim": "4. Timing variables", "figure_ref": null, "candidates": [{"md_atom_id": "md_dmSU_assn_a012", "md_file": "knowledge_base/domains/SU/assumptions.md", "md_atom_type": "LIST_ITEM", "md_parent_section": "§SU [SU — Assumptions]", "md_verbatim": "4. Timing variables", "score": 1.0, "match_basis": "verbatim_token+domain_route:SU"}, {"md_atom_id": "md_dmSU_assn_a014", "md_file": "knowledge_base/domains/SU/assumptions.md", "md_atom_type": "LIST_ITEM", "md_parent_section": "§SU [SU — Assumptions]", "md_verbatim": "   b. If substance use information is collected more than once within the CRF (indicating that the data are visit-based) then VISITNUM would be added to the domain as an additional timing variable. VISITDY and VISIT would then be permissible variables.", "score": 0.4717, "match_basis": "verbatim_token+domain_route:SU"}, {"md_atom_id": "md_dmSU_assn_a006", "md_file": "knowledge_base/domains/SU/assumptions.md", "md_atom_type": "LIST_ITEM", "md_parent_section": "§SU [SU — Assumptions]", "md_verbatim": "   a. SUTRT captures the verbatim or the prespecified text collected for the substance. It is the topic variable for the SU dataset. SUTRT is a required variable and must have a value.", "score": 0.4568, "match_basis": "verbatim_token+domain_route:SU"}, {"md_atom_id": "md_dmSU_assn_a007", "md_file": "knowledge_base/domains/SU/assumptions.md", "md_atom_type": "LIST_ITEM", "md_parent_section": "§SU [SU — Assumptions]", "md_verbatim": "   b. SUMODIFY is a permissible variable and should be included if coding is performed and the sponsor's procedure permits modification of a verbatim substance use term for coding. The modified term is listed in SUMODIFY. The variable may be populated as per the sponsor's procedures.", "score": 0.4516, "match_basis": "verbatim_token+domain_route:SU"}, {"md_atom_id": "md_dmSU_assn_a011", "md_file": "knowledge_base/domains/SU/assumptions.md", "md_atom_type": "LIST_ITEM", "md_parent_section": "§SU [SU — Assumptions]", "md_verbatim": "   b. SUGRPID may be used to link (or associate) different records together to form a block of related records within SU at the subject level (see Section 4.2.6, Grouping Variables and Categorization). It should not be used in place of SUCAT or SUSCAT.", "score": 0.448, "match_basis": "verbatim_token+domain_route:SU"}], "candidate_count": 5, "zero_candidate": false}
{"pdf_atom_id": "ig34_p0131_a016", "pdf_atom_type": "LIST_ITEM", "pdf_source": "SDTMIG_v3.4", "pdf_page": 131, "pdf_parent_section": "§6.1.6 [Substance Use (SU)]", "pdf_verbatim": "a. SUSTDTC and SUENDTC may be populated as required.", "figure_ref": null, "candidates": [{"md_atom_id": "md_dmSU_assn_a013", "md_file": "knowledge_base/domains/SU/assumptions.md", "md_atom_type": "LIST_ITEM", "md_parent_section": "§SU [SU — Assumptions]", "md_verbatim": "   a. SUSTDTC and SUENDTC may be populated as required.", "score": 1.0, "match_basis": "verbatim_token+domain_route:SU"}, {"md_atom_id": "md_dmSU_assn_a006", "md_file": "knowledge_base/domains/SU/assumptions.md", "md_atom_type": "LIST_ITEM", "md_parent_section": "§SU [SU — Assumptions]", "md_verbatim": "   a. SUTRT captures the verbatim or the prespecified text collected for the substance. It is the topic variable for the SU dataset. SUTRT is a required variable and must have a value.", "score": 0.4635, "match_basis": "verbatim_token+domain_route:SU"}, {"md_atom_id": "md_dmSU_assn_a007", "md_file": "knowledge_base/domains/SU/assumptions.md", "md_atom_type": "LIST_ITEM", "md_parent_section": "§SU [SU — Assumptions]", "md_verbatim": "   b. SUMODIFY is a permissible variable and should be included if coding is performed and the sponsor's procedure permits modification of a verbatim substance use term for coding. The modified term is listed in SUMODIFY. The variable may be populated as per the sponsor's procedures.", "score": 0.4514, "match_basis": "verbatim_token+domain_route:SU"}, {"md_atom_id": "md_dmSU_assn_a003", "md_file": "knowledge_base/domains/SU/assumptions.md", "md_atom_type": "LIST_ITEM", "md_parent_section": "§SU [SU — Assumptions]", "md_verbatim": "   a. In many clinical trials, detailed substance use information as provided for in the domain model above may not be required (e.g., the only information collected may be a response to the question \"Have you ever smoked tobacco?\"); in such cases, many of the qualifier variables would not be submitted.", "score": 0.4356, "match_basis": "verbatim_token+domain_route:SU"}, {"md_atom_id": "md_dmSU_assn_a011", "md_file": "knowledge_base/domains/SU/assumptions.md", "md_atom_type": "LIST_ITEM", "md_parent_section": "§SU [SU — Assumptions]", "md_verbatim": "   b. SUGRPID may be used to link (or associate) different records together to form a block of related records within SU at the subject level (see Section 4.2.6, Grouping Variables and Categorization). It should not be used in place of SUCAT or SUSCAT.", "score": 0.4313, "match_basis": "verbatim_token+domain_route:SU"}], "candidate_count": 5, "zero_candidate": false}
{"pdf_atom_id": "ig34_p0131_a017", "pdf_atom_type": "LIST_ITEM", "pdf_source": "SDTMIG_v3.4", "pdf_page": 131, "pdf_parent_section": "§6.1.6 [Substance Use (SU)]", "pdf_verbatim": "b. If substance use information is collected more than once within the CRF (indicating that the data are visit-based) then VISITNUM would be added to the domain as an additional timing variable. VISITDY and VISIT would then be permissible variables.", "figure_ref": null, "candidates": [{"md_atom_id": "md_dmSU_assn_a014", "md_file": "knowledge_base/domains/SU/assumptions.md", "md_atom_type": "LIST_ITEM", "md_parent_section": "§SU [SU — Assumptions]", "md_verbatim": "   b. If substance use information is collected more than once within the CRF (indicating that the data are visit-based) then VISITNUM would be added to the domain as an additional timing variable. VISITDY and VISIT would then be permissible variables.", "score": 1.0, "match_basis": "verbatim_token+domain_route:SU"}, {"md_atom_id": "md_dmSU_assn_a007", "md_file": "knowledge_base/domains/SU/assumptions.md", "md_atom_type": "LIST_ITEM", "md_parent_section": "§SU [SU — Assumptions]", "md_verbatim": "   b. SUMODIFY is a permissible variable and should be included if coding is performed and the sponsor's procedure permits modification of a verbatim substance use term for coding. The modified term is listed in SUMODIFY. The variable may be populated as per the sponsor's procedures.", "score": 0.5531, "match_basis": "verbatim_token+domain_route:SU"}, {"md_atom_id": "md_dmSU_assn_a003", "md_file": "knowledge_base/domains/SU/assumptions.md", "md_atom_type": "LIST_ITEM", "md_parent_section": "§SU [SU — Assumptions]", "md_verbatim": "   a. In many clinical trials, detailed substance use information as provided for in the domain model above may not be required (e.g., the only information collected may be a response to the question \"Have you ever smoked tobacco?\"); in such cases, many of the qualifier variables would not be submitted.", "score": 0.5491, "match_basis": "verbatim_token+domain_route:SU"}, {"md_atom_id": "md_dmSU_assn_a006", "md_file": "knowledge_base/domains/SU/assumptions.md", "md_atom_type": "LIST_ITEM", "md_parent_section": "§SU [SU — Assumptions]", "md_verbatim": "   a. SUTRT captures the verbatim or the prespecified text collected for the substance. It is the topic variable for the SU dataset. SUTRT is a required variable and must have a value.", "score": 0.5254, "match_basis": "verbatim_token+domain_route:SU"}, {"md_atom_id": "md_dmSU_assn_a008", "md_file": "knowledge_base/domains/SU/assumptions.md", "md_atom_type": "LIST_ITEM", "md_parent_section": "§SU [SU — Assumptions]", "md_verbatim": "   c. SUDECOD is the preferred term derived by the sponsor from the coding dictionary if coding is performed. It is a permissible variable. Where deemed necessary by the sponsor, the verbatim term (SUTRT) should be coded using a standard dictionary such as WHO Drug. The sponsor is expected to provide the dictionary name and version used to map the terms utilizing the external codelist element in the Define-XML document.", "score": 0.5075, "match_basis": "verbatim_token+domain_route:SU"}], "candidate_count": 5, "zero_candidate": false}
{"pdf_atom_id": "ig34_p0132_a001", "pdf_atom_type": "LIST_ITEM", "pdf_source": "SDTMIG_v3.4", "pdf_page": 132, "pdf_parent_section": "§6.1.6 [Substance Use (SU)]", "pdf_verbatim": "5. Any additional qualifiers from the Interventions class may be added to the SU domain, but the following qualifiers would generally not be used: --MOOD, --LOT.", "figure_ref": null, "candidates": [{"md_atom_id": "md_dmSU_assn_a015", "md_file": "knowledge_base/domains/SU/assumptions.md", "md_atom_type": "LIST_ITEM", "md_parent_section": "§SU [SU — Assumptions]", "md_verbatim": "5. Any additional qualifiers from the Interventions class may be added to the SU domain, but the following qualifiers would generally not be used: --MOOD, --LOT.", "score": 1.0, "match_basis": "verbatim_token+domain_route:SU"}, {"md_atom_id": "md_dmSU_assn_a014", "md_file": "knowledge_base/domains/SU/assumptions.md", "md_atom_type": "LIST_ITEM", "md_parent_section": "§SU [SU — Assumptions]", "md_verbatim": "   b. If substance use information is collected more than once within the CRF (indicating that the data are visit-based) then VISITNUM would be added to the domain as an additional timing variable. VISITDY and VISIT would then be permissible variables.", "score": 0.4992, "match_basis": "verbatim_token+domain_route:SU"}, {"md_atom_id": "md_dmSU_assn_a003", "md_file": "knowledge_base/domains/SU/assumptions.md", "md_atom_type": "LIST_ITEM", "md_parent_section": "§SU [SU — Assumptions]", "md_verbatim": "   a. In many clinical trials, detailed substance use information as provided for in the domain model above may not be required (e.g., the only information collected may be a response to the question \"Have you ever smoked tobacco?\"); in such cases, many of the qualifier variables would not be submitted.", "score": 0.4911, "match_basis": "verbatim_token+domain_route:SU"}, {"md_atom_id": "md_dmSU_assn_a010", "md_file": "knowledge_base/domains/SU/assumptions.md", "md_atom_type": "LIST_ITEM", "md_parent_section": "§SU [SU — Assumptions]", "md_verbatim": "   a. SUCAT and SUSCAT should not be redundant with the domain code or dictionary classification provided by SUDECOD, or with SUTRT. That is, they should provide a different means of defining or classifying SU records. For example, a sponsor may be interested in identifying all substances that the investigator feels might represent opium use, and to collect such use on a separate CRF page. This categorization might differ from the categorization derived from the coding dictionary.", "score": 0.4845, "match_basis": "verbatim_token+domain_route:SU"}, {"md_atom_id": "md_dmSU_assn_a009", "md_file": "knowledge_base/domains/SU/assumptions.md", "md_atom_type": "LIST_ITEM", "md_parent_section": "§SU [SU — Assumptions]", "md_verbatim": "3. Additional categorization and grouping", "score": 0.4684, "match_basis": "verbatim_token+domain_route:SU"}], "candidate_count": 5, "zero_candidate": false}
{"pdf_atom_id": "ig34_p0132_a002", "pdf_atom_type": "HEADING", "pdf_source": "SDTMIG_v3.4", "pdf_page": 132, "pdf_parent_section": "§6.1.6 [Substance Use (SU)]", "pdf_verbatim": "SU – Examples", "figure_ref": null, "candidates": [{"md_atom_id": "md_dmSU_ex_a001", "md_file": "knowledge_base/domains/SU/examples.md", "md_atom_type": "HEADING", "md_parent_section": "§SU [SU — Examples]", "md_verbatim": "# SU — Examples", "score": 1.0, "match_basis": "verbatim_token+domain_route:SU"}, {"md_atom_id": "md_dmSU_ex_a002", "md_file": "knowledge_base/domains/SU/examples.md", "md_atom_type": "HEADING", "md_parent_section": "§SU [SU — Examples]", "md_verbatim": "## Example 1", "score": 0.9, "match_basis": "verbatim_token+domain_route:SU"}, {"md_atom_id": "md_dmSU_assn_a001", "md_file": "knowledge_base/domains/SU/assumptions.md", "md_atom_type": "HEADING", "md_parent_section": "§SU [SU — Assumptions]", "md_verbatim": "# SU — Assumptions", "score": 0.4, "match_basis": "verbatim_token+domain_route:SU"}], "candidate_count": 3, "zero_candidate": false}
{"pdf_atom_id": "ig34_p0132_a003", "pdf_atom_type": "HEADING", "pdf_source": "SDTMIG_v3.4", "pdf_page": 132, "pdf_parent_section": "§6.1.6 [Substance Use (SU)]", "pdf_verbatim": "Example 1", "figure_ref": null, "candidates": [{"md_atom_id": "md_dmSU_ex_a002", "md_file": "knowledge_base/domains/SU/examples.md", "md_atom_type": "HEADING", "md_parent_section": "§SU [SU — Examples]", "md_verbatim": "## Example 1", "score": 1.0, "match_basis": "verbatim_token+domain_route:SU"}, {"md_atom_id": "md_dmSU_ex_a001", "md_file": "knowledge_base/domains/SU/examples.md", "md_atom_type": "HEADING", "md_parent_section": "§SU [SU — Examples]", "md_verbatim": "# SU — Examples", "score": 0.9, "match_basis": "verbatim_token+domain_route:SU"}, {"md_atom_id": "md_dmSU_assn_a001", "md_file": "knowledge_base/domains/SU/assumptions.md", "md_atom_type": "HEADING", "md_parent_section": "§SU [SU — Assumptions]", "md_verbatim": "# SU — Assumptions", "score": 0.4, "match_basis": "verbatim_token+domain_route:SU"}], "candidate_count": 3, "zero_candidate": false}
{"pdf_atom_id": "ig34_p0132_a004", "pdf_atom_type": "SENTENCE", "pdf_source": "SDTMIG_v3.4", "pdf_page": 132, "pdf_parent_section": "§6.1.6 [Substance Use (SU)]", "pdf_verbatim": "This example illustrates how typical SU data could be populated. Here, the CRF collected:", "figure_ref": null, "candidates": [{"md_atom_id": "md_dmSU_ex_a003", "md_file": "knowledge_base/domains/SU/examples.md", "md_atom_type": "SENTENCE", "md_parent_section": "§SU.1 [Example 1]", "md_verbatim": "This example illustrates how typical SU data could be populated. Here, the CRF collected:", "score": 1.0, "match_basis": "verbatim_token+domain_route:SU"}, {"md_atom_id": "md_dmSU_ex_a015", "md_file": "knowledge_base/domains/SU/examples.md", "md_atom_type": "SENTENCE", "md_parent_section": "§SU.1 [Example 1]", "md_verbatim": "**Row 3:** Subject 1234006 is a former smoker. The date this subject began smoking is unknown, but it was sometime before the assessment date; this is shown by the values of SUSTTPT and SUSTRTPT. The end date of smoking was collected, so SUENTPT and SUENRTPT are not populated. Instead, the end date is in SUENDTC.", "score": 0.5017, "match_basis": "verbatim_token+domain_route:SU"}, {"md_atom_id": "md_dmSU_ex_a018", "md_file": "knowledge_base/domains/SU/examples.md", "md_atom_type": "SENTENCE", "md_parent_section": "§SU.1 [Example 1]", "md_verbatim": "**Row 6:** Subject 1234007 had missing data for the smoking questions; this is indicated by SUSTAT = \"NOT DONE\". The reason is in SUREASND.", "score": 0.4674, "match_basis": "verbatim_token+domain_route:SU"}, {"md_atom_id": "md_dmSU_ex_a011", "md_file": "knowledge_base/domains/SU/examples.md", "md_atom_type": "SENTENCE", "md_parent_section": "§SU.1 [Example 1]", "md_verbatim": "SUCAT allows the records to be grouped into smoking-related data and caffeine-related data. In this example, the treatments are prespecified on the CRF page, so SUTRT does not require a standardized SUDECOD equivalent.", "score": 0.4667, "match_basis": "verbatim_token+domain_route:SU"}, {"md_atom_id": "md_dmSU_ex_a013", "md_file": "knowledge_base/domains/SU/examples.md", "md_atom_type": "SENTENCE", "md_parent_section": "§SU.1 [Example 1]", "md_verbatim": "**Row 1:** Subject 1234005 is a 2-pack/day current smoker. \"Current\" implies that smoking started sometime before the time the question was asked (SUSTTPT = \"2006-01-01\", SUSTRTPT = \"BEFORE\") and had not ended as of that date (SUENTPT = \"2006-01-01\", SUENRTPT = \"ONGOING\"). See Section 4.4.7, Use of Relative Timing Variables for the use of these variables. Both the beginning and ending reference time points for this question are the date of the assessment.", "score": 0.4431, "match_basis": "verbatim_token+domain_route:SU"}], "candidate_count": 5, "zero_candidate": false}
{"pdf_atom_id": "ig34_p0132_a005", "pdf_atom_type": "LIST_ITEM", "pdf_source": "SDTMIG_v3.4", "pdf_page": 132, "pdf_parent_section": "§6.1.6 [Substance Use (SU)]", "pdf_verbatim": "Smoking data", "figure_ref": null, "candidates": [{"md_atom_id": "md_dmSU_ex_a004", "md_file": "knowledge_base/domains/SU/examples.md", "md_atom_type": "LIST_ITEM", "md_parent_section": "§SU.1 [Example 1]", "md_verbatim": "- Smoking data", "score": 1.0, "match_basis": "verbatim_token+domain_route:SU"}, {"md_atom_id": "md_dmSU_ex_a005", "md_file": "knowledge_base/domains/SU/examples.md", "md_atom_type": "LIST_ITEM", "md_parent_section": "§SU.1 [Example 1]", "md_verbatim": "   - Smoking status of \"previous\", \"current\", or \"never\"", "score": 0.52, "match_basis": "verbatim_token+domain_route:SU"}, {"md_atom_id": "md_dmSU_ex_a007", "md_file": "knowledge_base/domains/SU/examples.md", "md_atom_type": "LIST_ITEM", "md_parent_section": "§SU.1 [Example 1]", "md_verbatim": "   - If a former smoker, the year the subject quit", "score": 0.4522, "match_basis": "verbatim_token+domain_route:SU"}, {"md_atom_id": "md_dmSU_ex_a006", "md_file": "knowledge_base/domains/SU/examples.md", "md_atom_type": "LIST_ITEM", "md_parent_section": "§SU.1 [Example 1]", "md_verbatim": "   - If a current or past smoker, number of packs per day", "score": 0.448, "match_basis": "verbatim_token+domain_route:SU"}, {"md_atom_id": "md_dmSU_assn_a012", "md_file": "knowledge_base/domains/SU/assumptions.md", "md_atom_type": "LIST_ITEM", "md_parent_section": "§SU [SU — Assumptions]", "md_verbatim": "4. Timing variables", "score": 0.4353, "match_basis": "verbatim_token+domain_route:SU"}], "candidate_count": 5, "zero_candidate": false}
{"pdf_atom_id": "ig34_p0132_a006", "pdf_atom_type": "LIST_ITEM", "pdf_source": "SDTMIG_v3.4", "pdf_page": 132, "pdf_parent_section": "§6.1.6 [Substance Use (SU)]", "pdf_verbatim": "Smoking status of \"previous\", \"current\", or \"never\"", "figure_ref": null, "candidates": [{"md_atom_id": "md_dmSU_ex_a005", "md_file": "knowledge_base/domains/SU/examples.md", "md_atom_type": "LIST_ITEM", "md_parent_section": "§SU.1 [Example 1]", "md_verbatim": "   - Smoking status of \"previous\", \"current\", or \"never\"", "score": 1.0, "match_basis": "verbatim_token+domain_route:SU"}, {"md_atom_id": "md_dmSU_ex_a004", "md_file": "knowledge_base/domains/SU/examples.md", "md_atom_type": "LIST_ITEM", "md_parent_section": "§SU.1 [Example 1]", "md_verbatim": "- Smoking data", "score": 0.52, "match_basis": "verbatim_token+domain_route:SU"}, {"md_atom_id": "md_dmSU_ex_a006", "md_file": "knowledge_base/domains/SU/examples.md", "md_atom_type": "LIST_ITEM", "md_parent_section": "§SU.1 [Example 1]", "md_verbatim": "   - If a current or past smoker, number of packs per day", "score": 0.5167, "match_basis": "verbatim_token+domain_route:SU"}, {"md_atom_id": "md_dmSU_ex_a008", "md_file": "knowledge_base/domains/SU/examples.md", "md_atom_type": "LIST_ITEM", "md_parent_section": "§SU.1 [Example 1]", "md_verbatim": "- Current caffeine use", "score": 0.5, "match_basis": "verbatim_token+domain_route:SU"}, {"md_atom_id": "md_dmSU_ex_a007", "md_file": "knowledge_base/domains/SU/examples.md", "md_atom_type": "LIST_ITEM", "md_parent_section": "§SU.1 [Example 1]", "md_verbatim": "   - If a former smoker, the year the subject quit", "score": 0.4308, "match_basis": "verbatim_token+domain_route:SU"}], "candidate_count": 5, "zero_candidate": false}
{"pdf_atom_id": "ig34_p0132_a007", "pdf_atom_type": "LIST_ITEM", "pdf_source": "SDTMIG_v3.4", "pdf_page": 132, "pdf_parent_section": "§6.1.6 [Substance Use (SU)]", "pdf_verbatim": "If a current or past smoker, number of packs per day", "figure_ref": null, "candidates": [{"md_atom_id": "md_dmSU_ex_a006", "md_file": "knowledge_base/domains/SU/examples.md", "md_atom_type": "LIST_ITEM", "md_parent_section": "§SU.1 [Example 1]", "md_verbatim": "   - If a current or past smoker, number of packs per day", "score": 1.0, "match_basis": "verbatim_token+domain_route:SU"}, {"md_atom_id": "md_dmSU_ex_a005", "md_file": "knowledge_base/domains/SU/examples.md", "md_atom_type": "LIST_ITEM", "md_parent_section": "§SU.1 [Example 1]", "md_verbatim": "   - Smoking status of \"previous\", \"current\", or \"never\"", "score": 0.5167, "match_basis": "verbatim_token+domain_route:SU"}, {"md_atom_id": "md_dmSU_ex_a008", "md_file": "knowledge_base/domains/SU/examples.md", "md_atom_type": "LIST_ITEM", "md_parent_section": "§SU.1 [Example 1]", "md_verbatim": "- Current caffeine use", "score": 0.5111, "match_basis": "verbatim_token+domain_route:SU"}, {"md_atom_id": "md_dmSU_ex_a007", "md_file": "knowledge_base/domains/SU/examples.md", "md_atom_type": "LIST_ITEM", "md_parent_section": "§SU.1 [Example 1]", "md_verbatim": "   - If a former smoker, the year the subject quit", "score": 0.4706, "match_basis": "verbatim_token+domain_route:SU"}, {"md_atom_id": "md_dmSU_ex_a004", "md_file": "knowledge_base/domains/SU/examples.md", "md_atom_type": "LIST_ITEM", "md_parent_section": "§SU.1 [Example 1]", "md_verbatim": "- Smoking data", "score": 0.448, "match_basis": "verbatim_token+domain_route:SU"}], "candidate_count": 5, "zero_candidate": false}
{"pdf_atom_id": "ig34_p0132_a008", "pdf_atom_type": "LIST_ITEM", "pdf_source": "SDTMIG_v3.4", "pdf_page": 132, "pdf_parent_section": "§6.1.6 [Substance Use (SU)]", "pdf_verbatim": "If a former smoker, the year the subject quit", "figure_ref": null, "candidates": [{"md_atom_id": "md_dmSU_ex_a007", "md_file": "knowledge_base/domains/SU/examples.md", "md_atom_type": "LIST_ITEM", "md_parent_section": "§SU.1 [Example 1]", "md_verbatim": "   - If a former smoker, the year the subject quit", "score": 1.0, "match_basis": "verbatim_token+domain_route:SU"}, {"md_atom_id": "md_dmSU_ex_a009", "md_file": "knowledge_base/domains/SU/examples.md", "md_atom_type": "LIST_ITEM", "md_parent_section": "§SU.1 [Example 1]", "md_verbatim": "   - What caffeine drinks subjects consumed today", "score": 0.475, "match_basis": "verbatim_token+domain_route:SU"}, {"md_atom_id": "md_dmSU_ex_a006", "md_file": "knowledge_base/domains/SU/examples.md", "md_atom_type": "LIST_ITEM", "md_parent_section": "§SU.1 [Example 1]", "md_verbatim": "   - If a current or past smoker, number of packs per day", "score": 0.4706, "match_basis": "verbatim_token+domain_route:SU"}, {"md_atom_id": "md_dmSU_ex_a004", "md_file": "knowledge_base/domains/SU/examples.md", "md_atom_type": "LIST_ITEM", "md_parent_section": "§SU.1 [Example 1]", "md_verbatim": "- Smoking data", "score": 0.4522, "match_basis": "verbatim_token+domain_route:SU"}, {"md_atom_id": "md_dmSU_assn_a011", "md_file": "knowledge_base/domains/SU/assumptions.md", "md_atom_type": "LIST_ITEM", "md_parent_section": "§SU [SU — Assumptions]", "md_verbatim": "   b. SUGRPID may be used to link (or associate) different records together to form a block of related records within SU at the subject level (see Section 4.2.6, Grouping Variables and Categorization). It should not be used in place of SUCAT or SUSCAT.", "score": 0.4449, "match_basis": "verbatim_token+domain_route:SU"}], "candidate_count": 5, "zero_candidate": false}
{"pdf_atom_id": "ig34_p0132_a009", "pdf_atom_type": "LIST_ITEM", "pdf_source": "SDTMIG_v3.4", "pdf_page": 132, "pdf_parent_section": "§6.1.6 [Substance Use (SU)]", "pdf_verbatim": "Current caffeine use", "figure_ref": null, "candidates": [{"md_atom_id": "md_dmSU_ex_a008", "md_file": "knowledge_base/domains/SU/examples.md", "md_atom_type": "LIST_ITEM", "md_parent_section": "§SU.1 [Example 1]", "md_verbatim": "- Current caffeine use", "score": 1.0, "match_basis": "verbatim_token+domain_route:SU"}, {"md_atom_id": "md_dmSU_ex_a006", "md_file": "knowledge_base/domains/SU/examples.md", "md_atom_type": "LIST_ITEM", "md_parent_section": "§SU.1 [Example 1]", "md_verbatim": "   - If a current or past smoker, number of packs per day", "score": 0.5111, "match_basis": "verbatim_token+domain_route:SU"}, {"md_atom_id": "md_dmSU_ex_a009", "md_file": "knowledge_base/domains/SU/examples.md", "md_atom_type": "LIST_ITEM", "md_parent_section": "§SU.1 [Example 1]", "md_verbatim": "   - What caffeine drinks subjects consumed today", "score": 0.5091, "match_basis": "verbatim_token+domain_route:SU"}, {"md_atom_id": "md_dmSU_ex_a005", "md_file": "knowledge_base/domains/SU/examples.md", "md_atom_type": "LIST_ITEM", "md_parent_section": "§SU.1 [Example 1]", "md_verbatim": "   - Smoking status of \"previous\", \"current\", or \"never\"", "score": 0.5, "match_basis": "verbatim_token+domain_route:SU"}, {"md_atom_id": "md_dmSU_ex_a025", "md_file": "knowledge_base/domains/SU/examples.md", "md_atom_type": "TABLE_ROW", "md_parent_section": "§SU.1 [Example 1]", "md_verbatim": "| 4 | 1234 | SU | 1234006 | 2 | TEA | CAFFEINE | | | 1 | CUP | QD | 2006-03-15 | 2006-03-15 | | | | |", "score": 0.43, "match_basis": "verbatim_token+domain_route:SU"}], "candidate_count": 5, "zero_candidate": false}
{"pdf_atom_id": "ig34_p0132_a010", "pdf_atom_type": "LIST_ITEM", "pdf_source": "SDTMIG_v3.4", "pdf_page": 132, "pdf_parent_section": "§6.1.6 [Substance Use (SU)]", "pdf_verbatim": "What caffeine drinks subjects consumed today", "figure_ref": null, "candidates": [{"md_atom_id": "md_dmSU_ex_a009", "md_file": "knowledge_base/domains/SU/examples.md", "md_atom_type": "LIST_ITEM", "md_parent_section": "§SU.1 [Example 1]", "md_verbatim": "   - What caffeine drinks subjects consumed today", "score": 1.0, "match_basis": "verbatim_token+domain_route:SU"}, {"md_atom_id": "md_dmSU_ex_a008", "md_file": "knowledge_base/domains/SU/examples.md", "md_atom_type": "LIST_ITEM", "md_parent_section": "§SU.1 [Example 1]", "md_verbatim": "- Current caffeine use", "score": 0.5091, "match_basis": "verbatim_token+domain_route:SU"}, {"md_atom_id": "md_dmSU_ex_a007", "md_file": "knowledge_base/domains/SU/examples.md", "md_atom_type": "LIST_ITEM", "md_parent_section": "§SU.1 [Example 1]", "md_verbatim": "   - If a former smoker, the year the subject quit", "score": 0.475, "match_basis": "verbatim_token+domain_route:SU"}, {"md_atom_id": "md_dmSU_ex_a010", "md_file": "knowledge_base/domains/SU/examples.md", "md_atom_type": "LIST_ITEM", "md_parent_section": "§SU.1 [Example 1]", "md_verbatim": "   - How many cups today", "score": 0.4562, "match_basis": "verbatim_token+domain_route:SU"}, {"md_atom_id": "md_dmSU_ex_a019", "md_file": "knowledge_base/domains/SU/examples.md", "md_atom_type": "SENTENCE", "md_parent_section": "§SU.1 [Example 1]", "md_verbatim": "**Row 7:** Subject 1234007 also had missing data for all of the caffeine questions.", "score": 0.4485, "match_basis": "verbatim_token+domain_route:SU"}], "candidate_count": 5, "zero_candidate": false}
{"pdf_atom_id": "ig34_p0132_a011", "pdf_atom_type": "LIST_ITEM", "pdf_source": "SDTMIG_v3.4", "pdf_page": 132, "pdf_parent_section": "§6.1.6 [Substance Use (SU)]", "pdf_verbatim": "How many cups today", "figure_ref": null, "candidates": [{"md_atom_id": "md_dmSU_ex_a010", "md_file": "knowledge_base/domains/SU/examples.md", "md_atom_type": "LIST_ITEM", "md_parent_section": "§SU.1 [Example 1]", "md_verbatim": "   - How many cups today", "score": 1.0, "match_basis": "verbatim_token+domain_route:SU"}, {"md_atom_id": "md_dmSU_ex_a009", "md_file": "knowledge_base/domains/SU/examples.md", "md_atom_type": "LIST_ITEM", "md_parent_section": "§SU.1 [Example 1]", "md_verbatim": "   - What caffeine drinks subjects consumed today", "score": 0.4562, "match_basis": "verbatim_token+domain_route:SU"}, {"md_atom_id": "md_dmSU_ex_a006", "md_file": "knowledge_base/domains/SU/examples.md", "md_atom_type": "LIST_ITEM", "md_parent_section": "§SU.1 [Example 1]", "md_verbatim": "   - If a current or past smoker, number of packs per day", "score": 0.4222, "match_basis": "verbatim_token+domain_route:SU"}, {"md_atom_id": "md_dmSU_assn_a003", "md_file": "knowledge_base/domains/SU/assumptions.md", "md_atom_type": "LIST_ITEM", "md_parent_section": "§SU [SU — Assumptions]", "md_verbatim": "   a. In many clinical trials, detailed substance use information as provided for in the domain model above may not be required (e.g., the only information collected may be a response to the question \"Have you ever smoked tobacco?\"); in such cases, many of the qualifier variables would not be submitted.", "score": 0.4096, "match_basis": "verbatim_token+domain_route:SU"}, {"md_atom_id": "md_dmSU_assn_a015", "md_file": "knowledge_base/domains/SU/assumptions.md", "md_atom_type": "LIST_ITEM", "md_parent_section": "§SU [SU — Assumptions]", "md_verbatim": "5. Any additional qualifiers from the Interventions class may be added to the SU domain, but the following qualifiers would generally not be used: --MOOD, --LOT.", "score": 0.4086, "match_basis": "verbatim_token+domain_route:SU"}], "candidate_count": 5, "zero_candidate": false}
{"pdf_atom_id": "ig34_p0132_a012", "pdf_atom_type": "SENTENCE", "pdf_source": "SDTMIG_v3.4", "pdf_page": 132, "pdf_parent_section": "§6.1.6 [Substance Use (SU)]", "pdf_verbatim": "SUCAT allows the records to be grouped into smoking-related data and caffeine-related data. In this example, the treatments are prespecified on the CRF page, so SUTRT does not require a standardized SUDECOD equivalent.", "figure_ref": null, "candidates": [{"md_atom_id": "md_dmSU_ex_a011", "md_file": "knowledge_base/domains/SU/examples.md", "md_atom_type": "SENTENCE", "md_parent_section": "§SU.1 [Example 1]", "md_verbatim": "SUCAT allows the records to be grouped into smoking-related data and caffeine-related data. In this example, the treatments are prespecified on the CRF page, so SUTRT does not require a standardized SUDECOD equivalent.", "score": 1.0, "match_basis": "verbatim_token+domain_route:SU"}, {"md_atom_id": "md_dmSU_ex_a012", "md_file": "knowledge_base/domains/SU/examples.md", "md_atom_type": "SENTENCE", "md_parent_section": "§SU.1 [Example 1]", "md_verbatim": "**Not shown:** A subject who never smoked does not have a tobacco record. Alternatively, a row for the subject could have been included with SUOCCUR = \"N\" and null dosing and timing fields; the interpretation would be the same. A subject who did not drink any caffeinated drinks on the day of the assessment does not have any caffeine records. A subject who never smoked and did not drink caffeinated drinks on the day of the assessment does not appear in the dataset.", "score": 0.4911, "match_basis": "verbatim_token+domain_route:SU"}, {"md_atom_id": "md_dmSU_ex_a018", "md_file": "knowledge_base/domains/SU/examples.md", "md_atom_type": "SENTENCE", "md_parent_section": "§SU.1 [Example 1]", "md_verbatim": "**Row 6:** Subject 1234007 had missing data for the smoking questions; this is indicated by SUSTAT = \"NOT DONE\". The reason is in SUREASND.", "score": 0.4701, "match_basis": "verbatim_token+domain_route:SU"}, {"md_atom_id": "md_dmSU_ex_a013", "md_file": "knowledge_base/domains/SU/examples.md", "md_atom_type": "SENTENCE", "md_parent_section": "§SU.1 [Example 1]", "md_verbatim": "**Row 1:** Subject 1234005 is a 2-pack/day current smoker. \"Current\" implies that smoking started sometime before the time the question was asked (SUSTTPT = \"2006-01-01\", SUSTRTPT = \"BEFORE\") and had not ended as of that date (SUENTPT = \"2006-01-01\", SUENRTPT = \"ONGOING\"). See Section 4.4.7, Use of Relative Timing Variables for the use of these variables. Both the beginning and ending reference time points for this question are the date of the assessment.", "score": 0.4689, "match_basis": "verbatim_token+domain_route:SU"}, {"md_atom_id": "md_dmSU_ex_a003", "md_file": "knowledge_base/domains/SU/examples.md", "md_atom_type": "SENTENCE", "md_parent_section": "§SU.1 [Example 1]", "md_verbatim": "This example illustrates how typical SU data could be populated. Here, the CRF collected:", "score": 0.4667, "match_basis": "verbatim_token+domain_route:SU"}], "candidate_count": 5, "zero_candidate": false}
{"pdf_atom_id": "ig34_p0132_a013", "pdf_atom_type": "SENTENCE", "pdf_source": "SDTMIG_v3.4", "pdf_page": 132, "pdf_parent_section": "§6.1.6 [Substance Use (SU)]", "pdf_verbatim": "Not shown: A subject who never smoked does not have a tobacco record. Alternatively, a row for the subject could have been included with SUOCCUR = \"N\" and null dosing and timing fields; the interpretation would be the same. A subject who did not drink any caffeinated drinks on the day of the assessment does not have any caffeine records. A subject who never smoked and did not drink caffeinated drinks on the day of the assessment does not appear in the dataset.", "figure_ref": null, "candidates": [{"md_atom_id": "md_dmSU_ex_a012", "md_file": "knowledge_base/domains/SU/examples.md", "md_atom_type": "SENTENCE", "md_parent_section": "§SU.1 [Example 1]", "md_verbatim": "**Not shown:** A subject who never smoked does not have a tobacco record. Alternatively, a row for the subject could have been included with SUOCCUR = \"N\" and null dosing and timing fields; the interpretation would be the same. A subject who did not drink any caffeinated drinks on the day of the assessment does not have any caffeine records. A subject who never smoked and did not drink caffeinated drinks on the day of the assessment does not appear in the dataset.", "score": 1.0, "match_basis": "verbatim_token+domain_route:SU"}, {"md_atom_id": "md_dmSU_ex_a013", "md_file": "knowledge_base/domains/SU/examples.md", "md_atom_type": "SENTENCE", "md_parent_section": "§SU.1 [Example 1]", "md_verbatim": "**Row 1:** Subject 1234005 is a 2-pack/day current smoker. \"Current\" implies that smoking started sometime before the time the question was asked (SUSTTPT = \"2006-01-01\", SUSTRTPT = \"BEFORE\") and had not ended as of that date (SUENTPT = \"2006-01-01\", SUENRTPT = \"ONGOING\"). See Section 4.4.7, Use of Relative Timing Variables for the use of these variables. Both the beginning and ending reference time points for this question are the date of the assessment.", "score": 0.5032, "match_basis": "verbatim_token+domain_route:SU"}, {"md_atom_id": "md_dmSU_ex_a015", "md_file": "knowledge_base/domains/SU/examples.md", "md_atom_type": "SENTENCE", "md_parent_section": "§SU.1 [Example 1]", "md_verbatim": "**Row 3:** Subject 1234006 is a former smoker. The date this subject began smoking is unknown, but it was sometime before the assessment date; this is shown by the values of SUSTTPT and SUSTRTPT. The end date of smoking was collected, so SUENTPT and SUENRTPT are not populated. Instead, the end date is in SUENDTC.", "score": 0.4921, "match_basis": "verbatim_token+domain_route:SU"}, {"md_atom_id": "md_dmSU_ex_a011", "md_file": "knowledge_base/domains/SU/examples.md", "md_atom_type": "SENTENCE", "md_parent_section": "§SU.1 [Example 1]", "md_verbatim": "SUCAT allows the records to be grouped into smoking-related data and caffeine-related data. In this example, the treatments are prespecified on the CRF page, so SUTRT does not require a standardized SUDECOD equivalent.", "score": 0.4911, "match_basis": "verbatim_token+domain_route:SU"}, {"md_atom_id": "md_dmSU_ex_a019", "md_file": "knowledge_base/domains/SU/examples.md", "md_atom_type": "SENTENCE", "md_parent_section": "§SU.1 [Example 1]", "md_verbatim": "**Row 7:** Subject 1234007 also had missing data for all of the caffeine questions.", "score": 0.4857, "match_basis": "verbatim_token+domain_route:SU"}], "candidate_count": 5, "zero_candidate": false}
