{"pdf_atom_id": "ig34_p0302_a003", "pdf_atom_type": "TABLE_ROW", "pdf_source": "SDTMIG_v3.4", "pdf_page": 302, "pdf_parent_section": "§6.3.7.5 Ophthalmic Examinations (OE)", "pdf_verbatim": "| 1 | XXX | OE | XXX-450-110 | OD | 2 | INTP | Interpretation | NORMAL | NORMAL | LENS | | | | | | 1 | SCREENING | 2012-03-20 |", "figure_ref": null, "candidates": [{"md_atom_id": "md_dmOE_ex_a008", "md_file": "knowledge_base/domains/OE/examples.md", "md_atom_type": "TABLE_ROW", "md_parent_section": "§OE.1 [Example 1]", "md_verbatim": "| 1 | XXX | OE | XXX-450-110 | OS | 1 | INTP | Interpretation | NORMAL | NORMAL | LENS | LEFT | | SLIT LAMP BIOMICROSCOPY | INVESTIGATOR | | 1 | SCREENING | 2012-03-20 |", "score": 0.7207, "match_basis": "verbatim_token+domain_route:OE"}, {"md_atom_id": "md_dmOE_ex_a009", "md_file": "knowledge_base/domains/OE/examples.md", "md_atom_type": "TABLE_ROW", "md_parent_section": "§OE.1 [Example 1]", "md_verbatim": "| 2 | XXX | OE | XXX-450-110 | OD | 2 | INTP | Interpretation | ABNORMAL | ABNORMAL | LENS | RIGHT | | SLIT LAMP BIOMICROSCOPY | INVESTIGATOR | | 1 | SCREENING | 2012-03-20 |", "score": 0.7049, "match_basis": "verbatim_token+domain_route:OE"}, {"md_atom_id": "md_dmOE_ex_a065", "md_file": "knowledge_base/domains/OE/examples.md", "md_atom_type": "TABLE_ROW", "md_parent_section": "§OE.3 [Example 3]", "md_verbatim": "| 1 | XYZ | PR | XYZ-100-001 | OS | 100 | 1 | 1 | OCT | Y | Y | | EYE | LEFT | 2012-04-25T09:30:00 | 1 | SCREENING |", "score": 0.5317, "match_basis": "verbatim_token+domain_route:OE"}, {"md_atom_id": "md_dmOE_ex_a066", "md_file": "knowledge_base/domains/OE/examples.md", "md_atom_type": "TABLE_ROW", "md_parent_section": "§OE.3 [Example 3]", "md_verbatim": "| 2 | XYZ | PR | XYZ-100-001 | OD | 100 | 2 | 2 | OCT | Y | Y | | EYE | RIGHT | 2012-04-25T10:10:00 | 1 | SCREENING |", "score": 0.5286, "match_basis": "verbatim_token+domain_route:OE"}, {"md_atom_id": "md_dmOE_ex_a029", "md_file": "knowledge_base/domains/OE/examples.md", "md_atom_type": "TABLE_ROW", "md_parent_section": "§OE.2 [Example 2]", "md_verbatim": "| 3 | XXX | OE | XXX-450-120 | OD | 3 | LENSSTAT | Lens Status | PHAKIC | | PHAKIC | | | LENS | RIGHT | SLIT LAMP BIOMICROSCOPY | INVESTIGATOR | | 1 | SCREENING | 2012-04-20 |", "score": 0.5217, "match_basis": "verbatim_token+domain_route:OE"}], "candidate_count": 5, "zero_candidate": false}
{"pdf_atom_id": "ig34_p0302_a004", "pdf_atom_type": "TABLE_ROW", "pdf_source": "SDTMIG_v3.4", "pdf_page": 302, "pdf_parent_section": "§6.3.7.5 Ophthalmic Examinations (OE)", "pdf_verbatim": "| 2 | XXX | OE | XXX-450-110 | OD | 2 | INTP | Interpretation | ABNORMAL | ABNORMAL | LENS | | | | | | 1 | SCREENING | 2012-03-20 |", "figure_ref": null, "candidates": [{"md_atom_id": "md_dmOE_ex_a009", "md_file": "knowledge_base/domains/OE/examples.md", "md_atom_type": "TABLE_ROW", "md_parent_section": "§OE.1 [Example 1]", "md_verbatim": "| 2 | XXX | OE | XXX-450-110 | OD | 2 | INTP | Interpretation | ABNORMAL | ABNORMAL | LENS | RIGHT | | SLIT LAMP BIOMICROSCOPY | INVESTIGATOR | | 1 | SCREENING | 2012-03-20 |", "score": 0.7246, "match_basis": "verbatim_token+domain_route:OE"}, {"md_atom_id": "md_dmOE_ex_a008", "md_file": "knowledge_base/domains/OE/examples.md", "md_atom_type": "TABLE_ROW", "md_parent_section": "§OE.1 [Example 1]", "md_verbatim": "| 1 | XXX | OE | XXX-450-110 | OS | 1 | INTP | Interpretation | NORMAL | NORMAL | LENS | LEFT | | SLIT LAMP BIOMICROSCOPY | INVESTIGATOR | | 1 | SCREENING | 2012-03-20 |", "score": 0.71, "match_basis": "verbatim_token+domain_route:OE"}, {"md_atom_id": "md_dmOE_ex_a065", "md_file": "knowledge_base/domains/OE/examples.md", "md_atom_type": "TABLE_ROW", "md_parent_section": "§OE.3 [Example 3]", "md_verbatim": "| 1 | XYZ | PR | XYZ-100-001 | OS | 100 | 1 | 1 | OCT | Y | Y | | EYE | LEFT | 2012-04-25T09:30:00 | 1 | SCREENING |", "score": 0.5256, "match_basis": "verbatim_token+domain_route:OE"}, {"md_atom_id": "md_dmOE_ex_a066", "md_file": "knowledge_base/domains/OE/examples.md", "md_atom_type": "TABLE_ROW", "md_parent_section": "§OE.3 [Example 3]", "md_verbatim": "| 2 | XYZ | PR | XYZ-100-001 | OD | 100 | 2 | 2 | OCT | Y | Y | | EYE | RIGHT | 2012-04-25T10:10:00 | 1 | SCREENING |", "score": 0.5227, "match_basis": "verbatim_token+domain_route:OE"}, {"md_atom_id": "md_dmOE_ex_a029", "md_file": "knowledge_base/domains/OE/examples.md", "md_atom_type": "TABLE_ROW", "md_parent_section": "§OE.2 [Example 2]", "md_verbatim": "| 3 | XXX | OE | XXX-450-120 | OD | 3 | LENSSTAT | Lens Status | PHAKIC | | PHAKIC | | | LENS | RIGHT | SLIT LAMP BIOMICROSCOPY | INVESTIGATOR | | 1 | SCREENING | 2012-04-20 |", "score": 0.5183, "match_basis": "verbatim_token+domain_route:OE"}], "candidate_count": 5, "zero_candidate": false}
{"pdf_atom_id": "ig34_p0302_a005", "pdf_atom_type": "TABLE_ROW", "pdf_source": "SDTMIG_v3.4", "pdf_page": 302, "pdf_parent_section": "§6.3.7.5 Ophthalmic Examinations (OE)", "pdf_verbatim": "| 3 | XXX | OE | XXX-450-110 | OD | 3 | OEEEXAM | Ophthalmic Examination | RED SPOT VISIBLE | RED SPOT VISIBLE | CONJUNCTIVA | RIGHT | MULTIPLE | SLIT LAMP | INVESTIGATOR | Y | 1 | SCREENING | 2012-03-20 |", "figure_ref": null, "candidates": [{"md_atom_id": "md_dmOE_ex_a010", "md_file": "knowledge_base/domains/OE/examples.md", "md_atom_type": "TABLE_ROW", "md_parent_section": "§OE.1 [Example 1]", "md_verbatim": "| 3 | XXX | OE | XXX-450-110 | OD | 3 | OEEXAM | Ophthalmic Examination | RED SPOT VISIBLE | RED SPOT VISIBLE | CONJUNCTIVA | RIGHT | MULTIPLE | SLIT LAMP BIOMICROSCOPY | INVESTIGATOR | Y | 1 | SCREENING | 2012-03-20 |", "score": 0.9195, "match_basis": "verbatim_token+domain_route:OE"}, {"md_atom_id": "md_dmOE_ex_a031", "md_file": "knowledge_base/domains/OE/examples.md", "md_atom_type": "TABLE_ROW", "md_parent_section": "§OE.2 [Example 2]", "md_verbatim": "| 5 | XXX | OE | XXX-450-120 | OD | 5 | HYPERMIA | Hyperemia | PRESENT | | PRESENT | | | CONJUNCTIVA | RIGHT | OPHTHALMOSCOPY | INVESTIGATOR | Y | 1 | SCREENING | 2012-04-20 |", "score": 0.6516, "match_basis": "verbatim_token+domain_route:OE"}, {"md_atom_id": "md_dmOE_ex_a032", "md_file": "knowledge_base/domains/OE/examples.md", "md_atom_type": "TABLE_ROW", "md_parent_section": "§OE.2 [Example 2]", "md_verbatim": "| 6 | XXX | OE | XXX-450-120 | OS | 6 | HYPERMIA | Hyperemia | ABSENT | | ABSENT | | | CONJUNCTIVA | LEFT | OPHTHALMOSCOPY | INVESTIGATOR | | 1 | SCREENING | 2012-04-20 |", "score": 0.6298, "match_basis": "verbatim_token+domain_route:OE"}, {"md_atom_id": "md_dmOE_ex_a033", "md_file": "knowledge_base/domains/OE/examples.md", "md_atom_type": "TABLE_ROW", "md_parent_section": "§OE.2 [Example 2]", "md_verbatim": "| 7 | XXX | OE | XXX-450-120 | OD | 7 | CUPDISC | Cup-to-Disc Ratio | 0.5 | RATIO | 0.5 | 0.5 | RATIO | OPTIC DISC | RIGHT | OPHTHALMOSCOPY | INVESTIGATOR | | 1 | SCREENING | 2012-04-20 |", "score": 0.6182, "match_basis": "verbatim_token+domain_route:OE"}, {"md_atom_id": "md_dmOE_ex_a009", "md_file": "knowledge_base/domains/OE/examples.md", "md_atom_type": "TABLE_ROW", "md_parent_section": "§OE.1 [Example 1]", "md_verbatim": "| 2 | XXX | OE | XXX-450-110 | OD | 2 | INTP | Interpretation | ABNORMAL | ABNORMAL | LENS | RIGHT | | SLIT LAMP BIOMICROSCOPY | INVESTIGATOR | | 1 | SCREENING | 2012-03-20 |", "score": 0.598, "match_basis": "verbatim_token+domain_route:OE"}], "candidate_count": 5, "zero_candidate": false}
{"pdf_atom_id": "ig34_p0302_a006", "pdf_atom_type": "SENTENCE", "pdf_source": "SDTMIG_v3.4", "pdf_page": 302, "pdf_parent_section": "§6.3.7.5 Ophthalmic Examinations (OE)", "pdf_verbatim": "The supplemental qualifier dataset represents the multiple directionality values, further describing the anatomical location where the abnormality was observed.", "figure_ref": null, "candidates": [{"md_atom_id": "md_dmOE_ex_a011", "md_file": "knowledge_base/domains/OE/examples.md", "md_atom_type": "SENTENCE", "md_parent_section": "§OE.1 [Example 1]", "md_verbatim": "The supplemental qualifier dataset represents the multiple directionality values, further describing the anatomical location where the abnormality was observed.", "score": 1.0, "match_basis": "verbatim_token+domain_route:OE"}, {"md_atom_id": "md_dmOE_ex_a005", "md_file": "knowledge_base/domains/OE/examples.md", "md_atom_type": "SENTENCE", "md_parent_section": "§OE.1 [Example 1]", "md_verbatim": "**Row 3:** Represents an abnormality observed during the anterior segment examination of the right eye. OEDIR=\"MULTIPLE\" and indicates multiple directionality values are applicable. OELOC, OELAT, and the multiple OEDIR values specify the location of the abnormality represented in OEORRES and OESTRESC. This observed abnormality (i.e., red spot visible) was determined to be clinically significant (OECLSIG=\"Y\").", "score": 0.592, "match_basis": "verbatim_token+domain_route:OE"}, {"md_atom_id": "md_dmOE_ex_a035", "md_file": "knowledge_base/domains/OE/examples.md", "md_atom_type": "SENTENCE", "md_parent_section": "§OE.2 [Example 2]", "md_verbatim": "The suppoe.xpt dataset represents the testing condition (i.e., dilated eyes) qualifying the cup-to-disc ratio tests.", "score": 0.5241, "match_basis": "verbatim_token+domain_route:OE"}, {"md_atom_id": "md_dmOE_ex_a056", "md_file": "knowledge_base/domains/OE/examples.md", "md_atom_type": "SENTENCE", "md_parent_section": "§OE.3 [Example 3]", "md_verbatim": "The suppoe.xpt dataset represents the date the independent assessor performed the evaluation of the OCT image.", "score": 0.5109, "match_basis": "verbatim_token+domain_route:OE"}, {"md_atom_id": "md_dmOE_ex_a097", "md_file": "knowledge_base/domains/OE/examples.md", "md_atom_type": "SENTENCE", "md_parent_section": "§OE.4 [Example 4]", "md_verbatim": "The suppoe.xpt dataset represents the scale used for the ocular comfort rating.", "score": 0.5065, "match_basis": "verbatim_token+domain_route:OE"}], "candidate_count": 5, "zero_candidate": false}
{"pdf_atom_id": "ig34_p0302_a007", "pdf_atom_type": "CODE_LITERAL", "pdf_source": "SDTMIG_v3.4", "pdf_page": 302, "pdf_parent_section": "§6.3.7.5 Ophthalmic Examinations (OE)", "pdf_verbatim": "suppoe.xpt", "figure_ref": null, "candidates": [{"md_atom_id": "md_dmOE_ex_a012", "md_file": "knowledge_base/domains/OE/examples.md", "md_atom_type": "SENTENCE", "md_parent_section": "§OE.1 [Example 1]", "md_verbatim": "**suppoe.xpt**", "score": 0.79, "match_basis": "verbatim_token+domain_route:OE"}, {"md_atom_id": "md_dmOE_ex_a036", "md_file": "knowledge_base/domains/OE/examples.md", "md_atom_type": "SENTENCE", "md_parent_section": "§OE.2 [Example 2]", "md_verbatim": "**suppoe.xpt**", "score": 0.79, "match_basis": "verbatim_token+domain_route:OE"}, {"md_atom_id": "md_dmOE_ex_a057", "md_file": "knowledge_base/domains/OE/examples.md", "md_atom_type": "SENTENCE", "md_parent_section": "§OE.3 [Example 3]", "md_verbatim": "**suppoe.xpt**", "score": 0.79, "match_basis": "verbatim_token+domain_route:OE"}, {"md_atom_id": "md_dmOE_ex_a098", "md_file": "knowledge_base/domains/OE/examples.md", "md_atom_type": "SENTENCE", "md_parent_section": "§OE.4 [Example 4]", "md_verbatim": "**suppoe.xpt**", "score": 0.79, "match_basis": "verbatim_token+domain_route:OE"}, {"md_atom_id": "md_dmOE_ex_a006", "md_file": "knowledge_base/domains/OE/examples.md", "md_atom_type": "SENTENCE", "md_parent_section": "§OE.1 [Example 1]", "md_verbatim": "**oe.xpt**", "score": 0.31, "match_basis": "verbatim_token+domain_route:OE"}, {"md_atom_id": "md_dmOE_ex_a025", "md_file": "knowledge_base/domains/OE/examples.md", "md_atom_type": "SENTENCE", "md_parent_section": "§OE.2 [Example 2]", "md_verbatim": "**oe.xpt**", "score": 0.31, "match_basis": "verbatim_token+domain_route:OE"}, {"md_atom_id": "md_dmOE_ex_a048", "md_file": "knowledge_base/domains/OE/examples.md", "md_atom_type": "SENTENCE", "md_parent_section": "§OE.3 [Example 3]", "md_verbatim": "**oe.xpt**", "score": 0.31, "match_basis": "verbatim_token+domain_route:OE"}, {"md_atom_id": "md_dmOE_ex_a063", "md_file": "knowledge_base/domains/OE/examples.md", "md_atom_type": "SENTENCE", "md_parent_section": "§OE.3 [Example 3]", "md_verbatim": "**pr.xpt**", "score": 0.31, "match_basis": "verbatim_token+domain_route:OE"}, {"md_atom_id": "md_dmOE_ex_a071", "md_file": "knowledge_base/domains/OE/examples.md", "md_atom_type": "SENTENCE", "md_parent_section": "§OE.3 [Example 3]", "md_verbatim": "**di.xpt**", "score": 0.31, "match_basis": "verbatim_token+domain_route:OE"}, {"md_atom_id": "md_dmOE_ex_a091", "md_file": "knowledge_base/domains/OE/examples.md", "md_atom_type": "SENTENCE", "md_parent_section": "§OE.4 [Example 4]", "md_verbatim": "**oe.xpt**", "score": 0.31, "match_basis": "verbatim_token+domain_route:OE"}], "candidate_count": 10, "zero_candidate": false}
{"pdf_atom_id": "ig34_p0302_a008", "pdf_atom_type": "TABLE_HEADER", "pdf_source": "SDTMIG_v3.4", "pdf_page": 302, "pdf_parent_section": "§6.3.7.5 Ophthalmic Examinations (OE)", "pdf_verbatim": "| Row | STUDYID | DOMAIN | USUBJID | IDVAR | IDVARVAL | QNAM | QLABEL | QVAL |", "figure_ref": null, "candidates": [{"md_atom_id": "md_dmOE_ex_a013", "md_file": "knowledge_base/domains/OE/examples.md", "md_atom_type": "TABLE_HEADER", "md_parent_section": "§OE.1 [Example 1]", "md_verbatim": "| Row | STUDYID | RDOMAIN | USUBJID | IDVAR | IDVARVAL | QNAM | QLABEL | QVAL |\n|-----|---------|---------|---------|-------|----------|------|--------|------|", "score": 0.9793, "match_basis": "verbatim_token+domain_route:OE"}, {"md_atom_id": "md_dmOE_ex_a037", "md_file": "knowledge_base/domains/OE/examples.md", "md_atom_type": "TABLE_HEADER", "md_parent_section": "§OE.2 [Example 2]", "md_verbatim": "| Row | STUDYID | RDOMAIN | USUBJID | IDVAR | IDVARVAL | QNAM | QLABEL | QVAL |\n|-----|---------|---------|---------|-------|----------|------|--------|------|", "score": 0.9793, "match_basis": "verbatim_token+domain_route:OE"}, {"md_atom_id": "md_dmOE_ex_a058", "md_file": "knowledge_base/domains/OE/examples.md", "md_atom_type": "TABLE_HEADER", "md_parent_section": "§OE.3 [Example 3]", "md_verbatim": "| Row | STUDYID | RDOMAIN | USUBJID | IDVAR | IDVARVAL | QNAM | QLABEL | QVAL |\n|-----|---------|---------|---------|-------|----------|------|--------|------|", "score": 0.9793, "match_basis": "verbatim_token+domain_route:OE"}, {"md_atom_id": "md_dmOE_ex_a099", "md_file": "knowledge_base/domains/OE/examples.md", "md_atom_type": "TABLE_HEADER", "md_parent_section": "§OE.4 [Example 4]", "md_verbatim": "| Row | STUDYID | RDOMAIN | USUBJID | IDVAR | IDVARVAL | QNAM | QLABEL | QVAL |\n|-----|---------|---------|---------|-------|----------|------|--------|------|", "score": 0.9793, "match_basis": "verbatim_token+domain_route:OE"}, {"md_atom_id": "md_dmOE_ex_a079", "md_file": "knowledge_base/domains/OE/examples.md", "md_atom_type": "TABLE_HEADER", "md_parent_section": "§OE.3 [Example 3]", "md_verbatim": "| Row | STUDYID | RDOMAIN | USUBJID | IDVAR | IDVARVAL | RELTYPE | RELID |\n|-----|---------|---------|---------|-------|----------|---------|-------|", "score": 0.75, "match_basis": "verbatim_token+domain_route:OE"}], "candidate_count": 5, "zero_candidate": false}
{"pdf_atom_id": "ig34_p0302_a009", "pdf_atom_type": "TABLE_ROW", "pdf_source": "SDTMIG_v3.4", "pdf_page": 302, "pdf_parent_section": "§6.3.7.5 Ophthalmic Examinations (OE)", "pdf_verbatim": "| 1 | XXX | OE | XXX-450-110 | OESEQ | 3 | OEDIR1 | Directionality 1 | SUPERIOR |", "figure_ref": null, "candidates": [{"md_atom_id": "md_dmOE_ex_a014", "md_file": "knowledge_base/domains/OE/examples.md", "md_atom_type": "TABLE_ROW", "md_parent_section": "§OE.1 [Example 1]", "md_verbatim": "| 1 | XXX | OE | XXX-450-110 | OESEQ | 3 | OEDIRT | Directionality 1 | SUPERIOR |", "score": 0.9571, "match_basis": "verbatim_token+domain_route:OE"}, {"md_atom_id": "md_dmOE_ex_a015", "md_file": "knowledge_base/domains/OE/examples.md", "md_atom_type": "TABLE_ROW", "md_parent_section": "§OE.1 [Example 1]", "md_verbatim": "| 2 | XXX | OE | XXX-450-110 | OESEQ | 3 | OEDIR2 | Directionality 2 | TEMPORAL |", "score": 0.7529, "match_basis": "verbatim_token+domain_route:OE"}, {"md_atom_id": "md_dmOE_ex_a038", "md_file": "knowledge_base/domains/OE/examples.md", "md_atom_type": "TABLE_ROW", "md_parent_section": "§OE.2 [Example 2]", "md_verbatim": "| 1 | XXX | OE | XXX-450-120 | OESEQ | 7 | OEEDILST | Eye Dilation Status | DILATED |", "score": 0.5116, "match_basis": "verbatim_token+domain_route:OE"}, {"md_atom_id": "md_dmOE_ex_a039", "md_file": "knowledge_base/domains/OE/examples.md", "md_atom_type": "TABLE_ROW", "md_parent_section": "§OE.2 [Example 2]", "md_verbatim": "| 2 | XXX | OE | XXX-450-120 | OESEQ | 8 | OEEDILST | Eye Dilation Status | DILATED |", "score": 0.5116, "match_basis": "verbatim_token+domain_route:OE"}, {"md_atom_id": "md_dmOE_ex_a008", "md_file": "knowledge_base/domains/OE/examples.md", "md_atom_type": "TABLE_ROW", "md_parent_section": "§OE.1 [Example 1]", "md_verbatim": "| 1 | XXX | OE | XXX-450-110 | OS | 1 | INTP | Interpretation | NORMAL | NORMAL | LENS | LEFT | | SLIT LAMP BIOMICROSCOPY | INVESTIGATOR | | 1 | SCREENING | 2012-03-20 |", "score": 0.4456, "match_basis": "verbatim_token+domain_route:OE"}], "candidate_count": 5, "zero_candidate": false}
{"pdf_atom_id": "ig34_p0302_a010", "pdf_atom_type": "TABLE_ROW", "pdf_source": "SDTMIG_v3.4", "pdf_page": 302, "pdf_parent_section": "§6.3.7.5 Ophthalmic Examinations (OE)", "pdf_verbatim": "| 2 | XXX | OE | XXX-450-110 | OESEQ | 3 | OEDIR2 | Directionality 2 | TEMPORAL |", "figure_ref": null, "candidates": [{"md_atom_id": "md_dmOE_ex_a015", "md_file": "knowledge_base/domains/OE/examples.md", "md_atom_type": "TABLE_ROW", "md_parent_section": "§OE.1 [Example 1]", "md_verbatim": "| 2 | XXX | OE | XXX-450-110 | OESEQ | 3 | OEDIR2 | Directionality 2 | TEMPORAL |", "score": 1.0, "match_basis": "verbatim_token+domain_route:OE"}, {"md_atom_id": "md_dmOE_ex_a014", "md_file": "knowledge_base/domains/OE/examples.md", "md_atom_type": "TABLE_ROW", "md_parent_section": "§OE.1 [Example 1]", "md_verbatim": "| 1 | XXX | OE | XXX-450-110 | OESEQ | 3 | OEDIRT | Directionality 1 | SUPERIOR |", "score": 0.7529, "match_basis": "verbatim_token+domain_route:OE"}, {"md_atom_id": "md_dmOE_ex_a038", "md_file": "knowledge_base/domains/OE/examples.md", "md_atom_type": "TABLE_ROW", "md_parent_section": "§OE.2 [Example 2]", "md_verbatim": "| 1 | XXX | OE | XXX-450-120 | OESEQ | 7 | OEEDILST | Eye Dilation Status | DILATED |", "score": 0.5116, "match_basis": "verbatim_token+domain_route:OE"}, {"md_atom_id": "md_dmOE_ex_a039", "md_file": "knowledge_base/domains/OE/examples.md", "md_atom_type": "TABLE_ROW", "md_parent_section": "§OE.2 [Example 2]", "md_verbatim": "| 2 | XXX | OE | XXX-450-120 | OESEQ | 8 | OEEDILST | Eye Dilation Status | DILATED |", "score": 0.5116, "match_basis": "verbatim_token+domain_route:OE"}, {"md_atom_id": "md_dmOE_ex_a008", "md_file": "knowledge_base/domains/OE/examples.md", "md_atom_type": "TABLE_ROW", "md_parent_section": "§OE.1 [Example 1]", "md_verbatim": "| 1 | XXX | OE | XXX-450-110 | OS | 1 | INTP | Interpretation | NORMAL | NORMAL | LENS | LEFT | | SLIT LAMP BIOMICROSCOPY | INVESTIGATOR | | 1 | SCREENING | 2012-03-20 |", "score": 0.4456, "match_basis": "verbatim_token+domain_route:OE"}], "candidate_count": 5, "zero_candidate": false}
{"pdf_atom_id": "ig34_p0302_a011", "pdf_atom_type": "HEADING", "pdf_source": "SDTMIG_v3.4", "pdf_page": 302, "pdf_parent_section": "§6.3.7.5 Ophthalmic Examinations (OE)", "pdf_verbatim": "Example 2", "figure_ref": null, "candidates": [{"md_atom_id": "md_dmOE_ex_a002", "md_file": "knowledge_base/domains/OE/examples.md", "md_atom_type": "HEADING", "md_parent_section": "§OE [OE — Examples]", "md_verbatim": "## Example 1", "score": 1.0, "match_basis": "verbatim_token+domain_route:OE"}, {"md_atom_id": "md_dmOE_ex_a016", "md_file": "knowledge_base/domains/OE/examples.md", "md_atom_type": "HEADING", "md_parent_section": "§OE [OE — Examples]", "md_verbatim": "## Example 2", "score": 1.0, "match_basis": "verbatim_token+domain_route:OE"}, {"md_atom_id": "md_dmOE_ex_a040", "md_file": "knowledge_base/domains/OE/examples.md", "md_atom_type": "HEADING", "md_parent_section": "§OE [OE — Examples]", "md_verbatim": "## Example 3", "score": 1.0, "match_basis": "verbatim_token+domain_route:OE"}, {"md_atom_id": "md_dmOE_ex_a082", "md_file": "knowledge_base/domains/OE/examples.md", "md_atom_type": "HEADING", "md_parent_section": "§OE [OE — Examples]", "md_verbatim": "## Example 4", "score": 1.0, "match_basis": "verbatim_token+domain_route:OE"}, {"md_atom_id": "md_dmOE_ex_a001", "md_file": "knowledge_base/domains/OE/examples.md", "md_atom_type": "HEADING", "md_parent_section": "§OE [OE — Examples]", "md_verbatim": "# OE — Examples", "score": 0.9, "match_basis": "verbatim_token+domain_route:OE"}, {"md_atom_id": "md_dmOE_assn_a001", "md_file": "knowledge_base/domains/OE/assumptions.md", "md_atom_type": "HEADING", "md_parent_section": "§OE [OE — Assumptions]", "md_verbatim": "# OE — Assumptions", "score": 0.4, "match_basis": "verbatim_token+domain_route:OE"}], "candidate_count": 6, "zero_candidate": false}
{"pdf_atom_id": "ig34_p0302_a012", "pdf_atom_type": "SENTENCE", "pdf_source": "SDTMIG_v3.4", "pdf_page": 302, "pdf_parent_section": "§6.3.7.5 Ophthalmic Examinations (OE)", "pdf_verbatim": "This example shows:", "figure_ref": null, "candidates": [{"md_atom_id": "md_dmOE_ex_a017", "md_file": "knowledge_base/domains/OE/examples.md", "md_atom_type": "SENTENCE", "md_parent_section": "§OE.2 [Example 2]", "md_verbatim": "This example shows:", "score": 1.0, "match_basis": "verbatim_token+domain_route:OE"}, {"md_atom_id": "md_dmOE_ex_a041", "md_file": "knowledge_base/domains/OE/examples.md", "md_atom_type": "SENTENCE", "md_parent_section": "§OE.3 [Example 3]", "md_verbatim": "This example shows:", "score": 1.0, "match_basis": "verbatim_token+domain_route:OE"}, {"md_atom_id": "md_dmOE_ex_a083", "md_file": "knowledge_base/domains/OE/examples.md", "md_atom_type": "SENTENCE", "md_parent_section": "§OE.4 [Example 4]", "md_verbatim": "This example shows:", "score": 1.0, "match_basis": "verbatim_token+domain_route:OE"}, {"md_atom_id": "md_dmOE_ex_a003", "md_file": "knowledge_base/domains/OE/examples.md", "md_atom_type": "SENTENCE", "md_parent_section": "§OE.1 [Example 1]", "md_verbatim": "This example shows a general anterior segment examination performed on each eye at 1 visit, with the purpose of evaluating general abnormalities.", "score": 0.4845, "match_basis": "verbatim_token+domain_route:OE"}, {"md_atom_id": "md_dmOE_ex_a002", "md_file": "knowledge_base/domains/OE/examples.md", "md_atom_type": "HEADING", "md_parent_section": "§OE [OE — Examples]", "md_verbatim": "## Example 1", "score": 0.46, "match_basis": "verbatim_token+domain_route:OE"}], "candidate_count": 5, "zero_candidate": false}
{"pdf_atom_id": "ig34_p0302_a013", "pdf_atom_type": "LIST_ITEM", "pdf_source": "SDTMIG_v3.4", "pdf_page": 302, "pdf_parent_section": "§6.3.7.5 Ophthalmic Examinations (OE)", "pdf_verbatim": "Different assessments, from the front to the back of the eye, for 1 subject at 1 visit", "figure_ref": null, "candidates": [{"md_atom_id": "md_dmOE_ex_a018", "md_file": "knowledge_base/domains/OE/examples.md", "md_atom_type": "LIST_ITEM", "md_parent_section": "§OE.2 [Example 2]", "md_verbatim": "- Different assessments, from the front to the back of the eye, for 1 subject at 1 visit", "score": 1.0, "match_basis": "verbatim_token+domain_route:OE"}, {"md_atom_id": "md_dmOE_ex_a042", "md_file": "knowledge_base/domains/OE/examples.md", "md_atom_type": "LIST_ITEM", "md_parent_section": "§OE.3 [Example 3]", "md_verbatim": "- Partial results of the macula examination performed by the site investigator, as well as results provided by an independent assessor, for 1 visit", "score": 0.4674, "match_basis": "verbatim_token+domain_route:OE"}, {"md_atom_id": "md_dmOE_ex_a089", "md_file": "knowledge_base/domains/OE/examples.md", "md_atom_type": "SENTENCE", "md_parent_section": "§OE.4 [Example 4]", "md_verbatim": "**Row 3:** Represents the subject's assessment of ocular comfort in the left eye, upon instillation of a lubricant eye drop for dry eye.", "score": 0.4537, "match_basis": "verbatim_token+domain_route:OE"}, {"md_atom_id": "md_dmOE_ex_a087", "md_file": "knowledge_base/domains/OE/examples.md", "md_atom_type": "SENTENCE", "md_parent_section": "§OE.4 [Example 4]", "md_verbatim": "**Row 1:** Represents the subject's assessment of ocular comfort in the right eye, upon instillation of a lubricant eye drop for dry eye.", "score": 0.4517, "match_basis": "verbatim_token+domain_route:OE"}, {"md_atom_id": "md_dmOE_ex_a086", "md_file": "knowledge_base/domains/OE/examples.md", "md_atom_type": "LIST_ITEM", "md_parent_section": "§OE.4 [Example 4]", "md_verbatim": "- A subject who experienced an adverse event on the eye. The FOCID variable is included in the AE domain to allow the grouping of all ophthalmic observations.", "score": 0.4505, "match_basis": "verbatim_token+domain_route:OE"}], "candidate_count": 5, "zero_candidate": false}
{"pdf_atom_id": "ig34_p0302_a014", "pdf_atom_type": "LIST_ITEM", "pdf_source": "SDTMIG_v3.4", "pdf_page": 302, "pdf_parent_section": "§6.3.7.5 Ophthalmic Examinations (OE)", "pdf_verbatim": "The use of the supplemental qualifier non-standard variable (NSV) OEEDILST (Eye Dilation Status)", "figure_ref": null, "candidates": [{"md_atom_id": "md_dmOE_ex_a019", "md_file": "knowledge_base/domains/OE/examples.md", "md_atom_type": "LIST_ITEM", "md_parent_section": "§OE.2 [Example 2]", "md_verbatim": "- The use of the supplemental qualifier non-standard variable (NSV) OEEDILST (Eye Dilation Status)", "score": 1.0, "match_basis": "verbatim_token+domain_route:OE"}, {"md_atom_id": "md_dmOE_assn_a004", "md_file": "knowledge_base/domains/OE/assumptions.md", "md_atom_type": "LIST_ITEM", "md_parent_section": "§OE [OE — Assumptions]", "md_verbatim": "3. Any Identifiers, Timing variables, or Findings general observation class qualifiers may be added to the OE domain, but the following qualifiers would not generally be used: --MODIFY, --NSPCES, --POS, --BODSYS, --ORREF, --STREFC, --STREFN, --CHRON, --DISTR, --ANTREG, --LEAD, --FAST, --TOX, --TOXGR, --LLOQ, --ULOQ.", "score": 0.4832, "match_basis": "verbatim_token+domain_route:OE"}, {"md_atom_id": "md_dmOE_ex_a086", "md_file": "knowledge_base/domains/OE/examples.md", "md_atom_type": "LIST_ITEM", "md_parent_section": "§OE.4 [Example 4]", "md_verbatim": "- A subject who experienced an adverse event on the eye. The FOCID variable is included in the AE domain to allow the grouping of all ophthalmic observations.", "score": 0.4673, "match_basis": "verbatim_token+domain_route:OE"}, {"md_atom_id": "md_dmOE_assn_a002", "md_file": "knowledge_base/domains/OE/assumptions.md", "md_atom_type": "LIST_ITEM", "md_parent_section": "§OE [OE — Assumptions]", "md_verbatim": "1. In ophthalmic studies, the eyes are usually sites of treatment. It is appropriate to identify sites using the variable FOCID. When FOCID is used to identify the eyes, it is recommended that the values \"OD\" (oculus dexter, right eye), \"OS\" (oculus sinister, left eye), and \"OU\" (oculus uterque, both eyes) be used in FOCID. These terms are the exclusively preferred terms used by the ophthalmology community as abbreviations for the expanded Latin terms, and are included in the nonextensible CDISC Ophthalmic Focus of Study Specific Interest (OEFOCUS) codelist.", "score": 0.4553, "match_basis": "verbatim_token+domain_route:OE"}, {"md_atom_id": "md_dmOE_ex_a045", "md_file": "knowledge_base/domains/OE/examples.md", "md_atom_type": "LIST_ITEM", "md_parent_section": "§OE.3 [Example 3]", "md_verbatim": "- The relationship between the OE and PR domains in the RELREC dataset", "score": 0.45, "match_basis": "verbatim_token+domain_route:OE"}], "candidate_count": 5, "zero_candidate": false}
{"pdf_atom_id": "ig34_p0302_a015", "pdf_atom_type": "SENTENCE", "pdf_source": "SDTMIG_v3.4", "pdf_page": 302, "pdf_parent_section": "§6.3.7.5 Ophthalmic Examinations (OE)", "pdf_verbatim": "The test for iris color is in the OE domain because in this use case, the medication is likely to change the result over the course of the study. Otherwise, iris color should be represented in the Subject Characteristics (SC) domain (see Section 6.3.10, Subject Characteristics).", "figure_ref": null, "candidates": [{"md_atom_id": "md_dmOE_ex_a020", "md_file": "knowledge_base/domains/OE/examples.md", "md_atom_type": "SENTENCE", "md_parent_section": "§OE.2 [Example 2]", "md_verbatim": "The test for iris color is in the OE domain because in this use case, the medication is likely to change the result over the course of the study. Otherwise, iris color should be represented in the Subject Characteristics (SC) domain (see Section 6.3.10, Subject Characteristics).", "score": 1.0, "match_basis": "verbatim_token+domain_route:OE"}, {"md_atom_id": "md_dmOE_ex_a062", "md_file": "knowledge_base/domains/OE/examples.md", "md_atom_type": "SENTENCE", "md_parent_section": "§OE.3 [Example 3]", "md_verbatim": "**Row 5:** Indicates that an OCT procedure was not performed at visit 2. The reason the procedure was not performed was collected and is represented in PRREASOC.", "score": 0.4927, "match_basis": "verbatim_token+domain_route:OE"}, {"md_atom_id": "md_dmOE_ex_a089", "md_file": "knowledge_base/domains/OE/examples.md", "md_atom_type": "SENTENCE", "md_parent_section": "§OE.4 [Example 4]", "md_verbatim": "**Row 3:** Represents the subject's assessment of ocular comfort in the left eye, upon instillation of a lubricant eye drop for dry eye.", "score": 0.4912, "match_basis": "verbatim_token+domain_route:OE"}, {"md_atom_id": "md_dmOE_ex_a087", "md_file": "knowledge_base/domains/OE/examples.md", "md_atom_type": "SENTENCE", "md_parent_section": "§OE.4 [Example 4]", "md_verbatim": "**Row 1:** Represents the subject's assessment of ocular comfort in the right eye, upon instillation of a lubricant eye drop for dry eye.", "score": 0.4905, "match_basis": "verbatim_token+domain_route:OE"}, {"md_atom_id": "md_dmOE_ex_a070", "md_file": "knowledge_base/domains/OE/examples.md", "md_atom_type": "SENTENCE", "md_parent_section": "§OE.3 [Example 3]", "md_verbatim": "Identifying information for the device with SPDEVID = \"100\" included in the PR domain is represented in the Device Identifiers (DI) domain.", "score": 0.4893, "match_basis": "verbatim_token+domain_route:OE"}], "candidate_count": 5, "zero_candidate": false}
{"pdf_atom_id": "ig34_p0302_a016", "pdf_atom_type": "LIST_ITEM", "pdf_source": "SDTMIG_v3.4", "pdf_page": 302, "pdf_parent_section": "§6.3.7.5 Ophthalmic Examinations (OE)", "pdf_verbatim": "Rows 1-2: Show assessments of the color of the iris (OELOC=\"IRIS\") for the right and left eyes, respectively.", "figure_ref": null, "candidates": [{"md_atom_id": "md_dmOE_ex_a021", "md_file": "knowledge_base/domains/OE/examples.md", "md_atom_type": "SENTENCE", "md_parent_section": "§OE.2 [Example 2]", "md_verbatim": "**Rows 1-2:** Show assessments of the color of the iris (OELOC=\"IRIS\") for the right and left eyes, respectively.", "score": 0.91, "match_basis": "verbatim_token+domain_route:OE"}, {"md_atom_id": "md_dmOE_ex_a024", "md_file": "knowledge_base/domains/OE/examples.md", "md_atom_type": "SENTENCE", "md_parent_section": "§OE.2 [Example 2]", "md_verbatim": "**Rows 7-8:** Show measurements of the cup-to-disc ratio for the right and left eyes, respectively.", "score": 0.61, "match_basis": "verbatim_token+domain_route:OE"}, {"md_atom_id": "md_dmOE_ex_a022", "md_file": "knowledge_base/domains/OE/examples.md", "md_atom_type": "SENTENCE", "md_parent_section": "§OE.2 [Example 2]", "md_verbatim": "**Rows 3-4:** Show assessments of the status of the lens (OELOC=\"LENS\") for the right and left eyes, respectively. This status assessment is to determine whether the lens of the eye is the natural lens (OEORRES=\"PHAKIC\") or a replacement (OEORRES=\"PSEUDOPHAKIC\").", "score": 0.5641, "match_basis": "verbatim_token+domain_route:OE"}, {"md_atom_id": "md_dmOE_ex_a018", "md_file": "knowledge_base/domains/OE/examples.md", "md_atom_type": "LIST_ITEM", "md_parent_section": "§OE.2 [Example 2]", "md_verbatim": "- Different assessments, from the front to the back of the eye, for 1 subject at 1 visit", "score": 0.53, "match_basis": "verbatim_token+domain_route:OE"}, {"md_atom_id": "md_dmOE_assn_a003", "md_file": "knowledge_base/domains/OE/assumptions.md", "md_atom_type": "LIST_ITEM", "md_parent_section": "§OE [OE — Assumptions]", "md_verbatim": "2. In any study that uses FOCID, FOCID would be included in records in any subject-level domain representing findings, interventions, or events (e.g., Adverse Events) related to the eyes. Whether or not FOCID is used in a study, --LOC and --LAT should be populated in records related to the eyes. The value in OELOC may be \"EYE\" but may also be a part of the eye (e.g., \"RETINA\", \"CORNEA\").", "score": 0.4632, "match_basis": "verbatim_token+domain_route:OE"}], "candidate_count": 5, "zero_candidate": false}
{"pdf_atom_id": "ig34_p0302_a017", "pdf_atom_type": "LIST_ITEM", "pdf_source": "SDTMIG_v3.4", "pdf_page": 302, "pdf_parent_section": "§6.3.7.5 Ophthalmic Examinations (OE)", "pdf_verbatim": "Rows 3-4: Show assessments of the status of the lens (OELOC=\"LENS\") for the right and left eyes, respectively. This status assessment is to determine whether the lens of the eye is the natural lens (OEORRES=\"PHAKIC\") or a replacement (OEORRES=\"PSEUDOPHAKIC\").", "figure_ref": null, "candidates": [{"md_atom_id": "md_dmOE_ex_a022", "md_file": "knowledge_base/domains/OE/examples.md", "md_atom_type": "SENTENCE", "md_parent_section": "§OE.2 [Example 2]", "md_verbatim": "**Rows 3-4:** Show assessments of the status of the lens (OELOC=\"LENS\") for the right and left eyes, respectively. This status assessment is to determine whether the lens of the eye is the natural lens (OEORRES=\"PHAKIC\") or a replacement (OEORRES=\"PSEUDOPHAKIC\").", "score": 0.91, "match_basis": "verbatim_token+domain_route:OE"}, {"md_atom_id": "md_dmOE_ex_a021", "md_file": "knowledge_base/domains/OE/examples.md", "md_atom_type": "SENTENCE", "md_parent_section": "§OE.2 [Example 2]", "md_verbatim": "**Rows 1-2:** Show assessments of the color of the iris (OELOC=\"IRIS\") for the right and left eyes, respectively.", "score": 0.5641, "match_basis": "verbatim_token+domain_route:OE"}, {"md_atom_id": "md_dmOE_ex_a024", "md_file": "knowledge_base/domains/OE/examples.md", "md_atom_type": "SENTENCE", "md_parent_section": "§OE.2 [Example 2]", "md_verbatim": "**Rows 7-8:** Show measurements of the cup-to-disc ratio for the right and left eyes, respectively.", "score": 0.4926, "match_basis": "verbatim_token+domain_route:OE"}, {"md_atom_id": "md_dmOE_ex_a018", "md_file": "knowledge_base/domains/OE/examples.md", "md_atom_type": "LIST_ITEM", "md_parent_section": "§OE.2 [Example 2]", "md_verbatim": "- Different assessments, from the front to the back of the eye, for 1 subject at 1 visit", "score": 0.4788, "match_basis": "verbatim_token+domain_route:OE"}, {"md_atom_id": "md_dmOE_assn_a003", "md_file": "knowledge_base/domains/OE/assumptions.md", "md_atom_type": "LIST_ITEM", "md_parent_section": "§OE [OE — Assumptions]", "md_verbatim": "2. In any study that uses FOCID, FOCID would be included in records in any subject-level domain representing findings, interventions, or events (e.g., Adverse Events) related to the eyes. Whether or not FOCID is used in a study, --LOC and --LAT should be populated in records related to the eyes. The value in OELOC may be \"EYE\" but may also be a part of the eye (e.g., \"RETINA\", \"CORNEA\").", "score": 0.4723, "match_basis": "verbatim_token+domain_route:OE"}], "candidate_count": 5, "zero_candidate": false}
{"pdf_atom_id": "ig34_p0302_a018", "pdf_atom_type": "LIST_ITEM", "pdf_source": "SDTMIG_v3.4", "pdf_page": 302, "pdf_parent_section": "§6.3.7.5 Ophthalmic Examinations (OE)", "pdf_verbatim": "Rows 5-6: Show assessments looking for the presence of hyperemia (increased blood flow). The fact that OELOC=\"CONJUNCTIVA\" even for the left eye, where hyperemia was absent, suggests that this examination was specifically an examination of the conjunctiva. Hyperemia was identified in the right eye and was judged to be clinically significant.", "figure_ref": null, "candidates": [{"md_atom_id": "md_dmOE_ex_a023", "md_file": "knowledge_base/domains/OE/examples.md", "md_atom_type": "SENTENCE", "md_parent_section": "§OE.2 [Example 2]", "md_verbatim": "**Rows 5-6:** Show assessments looking for the presence of hyperemia (increased blood flow). The fact that OELOC=\"CONJUNCTIVA\" even for the left eye, where hyperemia was absent, suggests that this examination was specifically an examination of the conjunctiva. Hyperemia was identified in the right eye and was judged to be clinically significant.", "score": 0.91, "match_basis": "verbatim_token+domain_route:OE"}, {"md_atom_id": "md_dmOE_assn_a002", "md_file": "knowledge_base/domains/OE/assumptions.md", "md_atom_type": "LIST_ITEM", "md_parent_section": "§OE [OE — Assumptions]", "md_verbatim": "1. In ophthalmic studies, the eyes are usually sites of treatment. It is appropriate to identify sites using the variable FOCID. When FOCID is used to identify the eyes, it is recommended that the values \"OD\" (oculus dexter, right eye), \"OS\" (oculus sinister, left eye), and \"OU\" (oculus uterque, both eyes) be used in FOCID. These terms are the exclusively preferred terms used by the ophthalmology community as abbreviations for the expanded Latin terms, and are included in the nonextensible CDISC Ophthalmic Focus of Study Specific Interest (OEFOCUS) codelist.", "score": 0.4903, "match_basis": "verbatim_token+domain_route:OE"}, {"md_atom_id": "md_dmOE_assn_a003", "md_file": "knowledge_base/domains/OE/assumptions.md", "md_atom_type": "LIST_ITEM", "md_parent_section": "§OE [OE — Assumptions]", "md_verbatim": "2. In any study that uses FOCID, FOCID would be included in records in any subject-level domain representing findings, interventions, or events (e.g., Adverse Events) related to the eyes. Whether or not FOCID is used in a study, --LOC and --LAT should be populated in records related to the eyes. The value in OELOC may be \"EYE\" but may also be a part of the eye (e.g., \"RETINA\", \"CORNEA\").", "score": 0.481, "match_basis": "verbatim_token+domain_route:OE"}, {"md_atom_id": "md_dmOE_ex_a042", "md_file": "knowledge_base/domains/OE/examples.md", "md_atom_type": "LIST_ITEM", "md_parent_section": "§OE.3 [Example 3]", "md_verbatim": "- Partial results of the macula examination performed by the site investigator, as well as results provided by an independent assessor, for 1 visit", "score": 0.4754, "match_basis": "verbatim_token+domain_route:OE"}, {"md_atom_id": "md_dmOE_ex_a044", "md_file": "knowledge_base/domains/OE/examples.md", "md_atom_type": "LIST_ITEM", "md_parent_section": "§OE.3 [Example 3]", "md_verbatim": "- The use of the Procedures (PR) domain to represent the optical coherence tomography (OCT) procedure details, with specific device characteristics in the DI domain", "score": 0.4663, "match_basis": "verbatim_token+domain_route:OE"}], "candidate_count": 5, "zero_candidate": false}
{"pdf_atom_id": "ig34_p0302_a019", "pdf_atom_type": "LIST_ITEM", "pdf_source": "SDTMIG_v3.4", "pdf_page": 302, "pdf_parent_section": "§6.3.7.5 Ophthalmic Examinations (OE)", "pdf_verbatim": "Rows 7-8: Show measurements of the cup-to-disc ratio for the right and left eyes, respectively.", "figure_ref": null, "candidates": [{"md_atom_id": "md_dmOE_ex_a024", "md_file": "knowledge_base/domains/OE/examples.md", "md_atom_type": "SENTENCE", "md_parent_section": "§OE.2 [Example 2]", "md_verbatim": "**Rows 7-8:** Show measurements of the cup-to-disc ratio for the right and left eyes, respectively.", "score": 0.91, "match_basis": "verbatim_token+domain_route:OE"}, {"md_atom_id": "md_dmOE_ex_a021", "md_file": "knowledge_base/domains/OE/examples.md", "md_atom_type": "SENTENCE", "md_parent_section": "§OE.2 [Example 2]", "md_verbatim": "**Rows 1-2:** Show assessments of the color of the iris (OELOC=\"IRIS\") for the right and left eyes, respectively.", "score": 0.61, "match_basis": "verbatim_token+domain_route:OE"}, {"md_atom_id": "md_dmOE_ex_a022", "md_file": "knowledge_base/domains/OE/examples.md", "md_atom_type": "SENTENCE", "md_parent_section": "§OE.2 [Example 2]", "md_verbatim": "**Rows 3-4:** Show assessments of the status of the lens (OELOC=\"LENS\") for the right and left eyes, respectively. This status assessment is to determine whether the lens of the eye is the natural lens (OEORRES=\"PHAKIC\") or a replacement (OEORRES=\"PSEUDOPHAKIC\").", "score": 0.4926, "match_basis": "verbatim_token+domain_route:OE"}, {"md_atom_id": "md_dmOE_assn_a002", "md_file": "knowledge_base/domains/OE/assumptions.md", "md_atom_type": "LIST_ITEM", "md_parent_section": "§OE [OE — Assumptions]", "md_verbatim": "1. In ophthalmic studies, the eyes are usually sites of treatment. It is appropriate to identify sites using the variable FOCID. When FOCID is used to identify the eyes, it is recommended that the values \"OD\" (oculus dexter, right eye), \"OS\" (oculus sinister, left eye), and \"OU\" (oculus uterque, both eyes) be used in FOCID. These terms are the exclusively preferred terms used by the ophthalmology community as abbreviations for the expanded Latin terms, and are included in the nonextensible CDISC Ophthalmic Focus of Study Specific Interest (OEFOCUS) codelist.", "score": 0.4677, "match_basis": "verbatim_token+domain_route:OE"}, {"md_atom_id": "md_dmOE_ex_a018", "md_file": "knowledge_base/domains/OE/examples.md", "md_atom_type": "LIST_ITEM", "md_parent_section": "§OE.2 [Example 2]", "md_verbatim": "- Different assessments, from the front to the back of the eye, for 1 subject at 1 visit", "score": 0.4646, "match_basis": "verbatim_token+domain_route:OE"}], "candidate_count": 5, "zero_candidate": false}
{"pdf_atom_id": "ig34_p0302_a020", "pdf_atom_type": "CODE_LITERAL", "pdf_source": "SDTMIG_v3.4", "pdf_page": 302, "pdf_parent_section": "§6.3.7.5 Ophthalmic Examinations (OE)", "pdf_verbatim": "oe.xpt", "figure_ref": null, "candidates": [{"md_atom_id": "md_dmOE_ex_a006", "md_file": "knowledge_base/domains/OE/examples.md", "md_atom_type": "SENTENCE", "md_parent_section": "§OE.1 [Example 1]", "md_verbatim": "**oe.xpt**", "score": 0.79, "match_basis": "verbatim_token+domain_route:OE"}, {"md_atom_id": "md_dmOE_ex_a025", "md_file": "knowledge_base/domains/OE/examples.md", "md_atom_type": "SENTENCE", "md_parent_section": "§OE.2 [Example 2]", "md_verbatim": "**oe.xpt**", "score": 0.79, "match_basis": "verbatim_token+domain_route:OE"}, {"md_atom_id": "md_dmOE_ex_a048", "md_file": "knowledge_base/domains/OE/examples.md", "md_atom_type": "SENTENCE", "md_parent_section": "§OE.3 [Example 3]", "md_verbatim": "**oe.xpt**", "score": 0.79, "match_basis": "verbatim_token+domain_route:OE"}, {"md_atom_id": "md_dmOE_ex_a063", "md_file": "knowledge_base/domains/OE/examples.md", "md_atom_type": "SENTENCE", "md_parent_section": "§OE.3 [Example 3]", "md_verbatim": "**pr.xpt**", "score": 0.79, "match_basis": "verbatim_token+domain_route:OE"}, {"md_atom_id": "md_dmOE_ex_a071", "md_file": "knowledge_base/domains/OE/examples.md", "md_atom_type": "SENTENCE", "md_parent_section": "§OE.3 [Example 3]", "md_verbatim": "**di.xpt**", "score": 0.79, "match_basis": "verbatim_token+domain_route:OE"}, {"md_atom_id": "md_dmOE_ex_a091", "md_file": "knowledge_base/domains/OE/examples.md", "md_atom_type": "SENTENCE", "md_parent_section": "§OE.4 [Example 4]", "md_verbatim": "**oe.xpt**", "score": 0.79, "match_basis": "verbatim_token+domain_route:OE"}, {"md_atom_id": "md_dmOE_ex_a012", "md_file": "knowledge_base/domains/OE/examples.md", "md_atom_type": "SENTENCE", "md_parent_section": "§OE.1 [Example 1]", "md_verbatim": "**suppoe.xpt**", "score": 0.31, "match_basis": "verbatim_token+domain_route:OE"}, {"md_atom_id": "md_dmOE_ex_a036", "md_file": "knowledge_base/domains/OE/examples.md", "md_atom_type": "SENTENCE", "md_parent_section": "§OE.2 [Example 2]", "md_verbatim": "**suppoe.xpt**", "score": 0.31, "match_basis": "verbatim_token+domain_route:OE"}, {"md_atom_id": "md_dmOE_ex_a057", "md_file": "knowledge_base/domains/OE/examples.md", "md_atom_type": "SENTENCE", "md_parent_section": "§OE.3 [Example 3]", "md_verbatim": "**suppoe.xpt**", "score": 0.31, "match_basis": "verbatim_token+domain_route:OE"}, {"md_atom_id": "md_dmOE_ex_a078", "md_file": "knowledge_base/domains/OE/examples.md", "md_atom_type": "SENTENCE", "md_parent_section": "§OE.3 [Example 3]", "md_verbatim": "**relrec.xpt**", "score": 0.31, "match_basis": "verbatim_token+domain_route:OE"}], "candidate_count": 10, "zero_candidate": false}
{"pdf_atom_id": "ig34_p0302_a021", "pdf_atom_type": "TABLE_HEADER", "pdf_source": "SDTMIG_v3.4", "pdf_page": 302, "pdf_parent_section": "§6.3.7.5 Ophthalmic Examinations (OE)", "pdf_verbatim": "| Row | STUDYID | DOMAIN | USUBJID | FOCID | OESEQ | OETESTCD | OETEST | OEORRES | OEORRESU | OESTRESC | OESTRESN | OELOC | OELAT | OEMETHOD | OEEVAL | OECLSIG | VISITNUM | VISIT | OEDTC |", "figure_ref": null, "candidates": [{"md_atom_id": "md_dmOE_ex_a026", "md_file": "knowledge_base/domains/OE/examples.md", "md_atom_type": "TABLE_HEADER", "md_parent_section": "§OE.2 [Example 2]", "md_verbatim": "| Row | STUDYID | DOMAIN | USUBJID | FOCID | OESEQ | OETESTCD | OETEST | OEORRES | OEORRESU | OESTRESC | OESTRESN | OESTRESU | OELOC | OELAT | OEMETHOD | OEEVAL | OECLSIG | VISITNUM | VISIT | OEDTC |\n|-----|---------|--------|---------|-------|-------|----------|--------|---------|----------|----------|----------|----------|-------|-------|----------|--------|---------|----------|-------|-------|", "score": 1.0, "match_basis": "verbatim_token+domain_route:OE"}, {"md_atom_id": "md_dmOE_ex_a049", "md_file": "knowledge_base/domains/OE/examples.md", "md_atom_type": "TABLE_HEADER", "md_parent_section": "§OE.3 [Example 3]", "md_verbatim": "| Row | STUDYID | DOMAIN | USUBJID | FOCID | OESEQ | OELNKID | OETESTCD | OETEST | OEORRES | OEORRESU | OESTRESC | OESTRESN | OESTRESU | OELOC | OELAT | OEMETHOD | OEEVAL | OECLSIG | VISITNUM | VISIT | OEDTC |\n|-----|---------|--------|---------|-------|-------|---------|----------|--------|---------|----------|----------|----------|----------|-------|-------|----------|--------|---------|----------|-------|-------|", "score": 0.9657, "match_basis": "verbatim_token+domain_route:OE"}, {"md_atom_id": "md_dmOE_ex_a007", "md_file": "knowledge_base/domains/OE/examples.md", "md_atom_type": "TABLE_HEADER", "md_parent_section": "§OE.1 [Example 1]", "md_verbatim": "| Row | STUDYID | DOMAIN | USUBJID | FOCID | OESEQ | OETESTCD | OETEST | OEORRES | OESTRESC | OELOC | OELAT | OEDIR | OEMETHOD | OEEVAL | OECLSIG | VISITNUM | VISIT | OEDTC |\n|-----|---------|--------|---------|-------|-------|----------|--------|---------|----------|-------|-------|-------|----------|--------|---------|----------|-------|-------|", "score": 0.9647, "match_basis": "verbatim_token+domain_route:OE"}, {"md_atom_id": "md_dmOE_ex_a092", "md_file": "knowledge_base/domains/OE/examples.md", "md_atom_type": "TABLE_HEADER", "md_parent_section": "§OE.4 [Example 4]", "md_verbatim": "| Row | STUDYID | DOMAIN | USUBJID | FOCID | OESEQ | OETESTCD | OETEST | OECAT | OEORRES | OESTRESC | OESTRESN | OELOC | OELAT | OEMETHOD | OEEVAL | VISITNUM | VISIT | OEDTC | OETPT | OETPTNUM |\n|-----|---------|--------|---------|-------|-------|----------|--------|-------|---------|----------|----------|-------|-------|----------|--------|----------|-------|-------|-------|----------|", "score": 0.9155, "match_basis": "verbatim_token+domain_route:OE"}, {"md_atom_id": "md_dmOE_ex_a064", "md_file": "knowledge_base/domains/OE/examples.md", "md_atom_type": "TABLE_HEADER", "md_parent_section": "§OE.3 [Example 3]", "md_verbatim": "| Row | STUDYID | DOMAIN | USUBJID | FOCID | SPDEVID | PRSEQ | PRLNKID | PRTRT | PRPRESP | PROCCUR | PRREASOC | PRLOC | PRLAT | PRSTDTC | VISITNUM | VISIT |\n|-----|---------|--------|---------|-------|---------|-------|---------|-------|---------|---------|----------|-------|-------|---------|----------|-------|", "score": 0.58, "match_basis": "verbatim_token+domain_route:OE"}], "candidate_count": 5, "zero_candidate": false}
{"pdf_atom_id": "ig34_p0302_a022", "pdf_atom_type": "TABLE_ROW", "pdf_source": "SDTMIG_v3.4", "pdf_page": 302, "pdf_parent_section": "§6.3.7.5 Ophthalmic Examinations (OE)", "pdf_verbatim": "| 1 | XXX | OE | XXX-450-120 | OD | 1 | COLOR | Color | BLUE | | BLUE | | IRIS | RIGHT | SLIT LAMP | | 1 | SCREENING | 2012-03-20 |", "figure_ref": null, "candidates": [{"md_atom_id": "md_dmOE_ex_a027", "md_file": "knowledge_base/domains/OE/examples.md", "md_atom_type": "TABLE_ROW", "md_parent_section": "§OE.2 [Example 2]", "md_verbatim": "| 1 | XXX | OE | XXX-450-120 | OD | 1 | COLOR | Color | BLUE | | BLUE | | | IRIS | RIGHT | SLIT LAMP BIOMICROSCOPY | INVESTIGATOR | | 1 | SCREENING | 2012-04-20 |", "score": 0.7319, "match_basis": "verbatim_token+domain_route:OE"}, {"md_atom_id": "md_dmOE_ex_a028", "md_file": "knowledge_base/domains/OE/examples.md", "md_atom_type": "TABLE_ROW", "md_parent_section": "§OE.2 [Example 2]", "md_verbatim": "| 2 | XXX | OE | XXX-450-120 | OS | 2 | COLOR | Color | BLUE | | BLUE | | | IRIS | LEFT | SLIT LAMP BIOMICROSCOPY | INVESTIGATOR | | 1 | SCREENING | 2012-04-20 |", "score": 0.6816, "match_basis": "verbatim_token+domain_route:OE"}, {"md_atom_id": "md_dmOE_ex_a066", "md_file": "knowledge_base/domains/OE/examples.md", "md_atom_type": "TABLE_ROW", "md_parent_section": "§OE.3 [Example 3]", "md_verbatim": "| 2 | XYZ | PR | XYZ-100-001 | OD | 100 | 2 | 2 | OCT | Y | Y | | EYE | RIGHT | 2012-04-25T10:10:00 | 1 | SCREENING |", "score": 0.6118, "match_basis": "verbatim_token+domain_route:OE"}, {"md_atom_id": "md_dmOE_ex_a029", "md_file": "knowledge_base/domains/OE/examples.md", "md_atom_type": "TABLE_ROW", "md_parent_section": "§OE.2 [Example 2]", "md_verbatim": "| 3 | XXX | OE | XXX-450-120 | OD | 3 | LENSSTAT | Lens Status | PHAKIC | | PHAKIC | | | LENS | RIGHT | SLIT LAMP BIOMICROSCOPY | INVESTIGATOR | | 1 | SCREENING | 2012-04-20 |", "score": 0.5932, "match_basis": "verbatim_token+domain_route:OE"}, {"md_atom_id": "md_dmOE_ex_a009", "md_file": "knowledge_base/domains/OE/examples.md", "md_atom_type": "TABLE_ROW", "md_parent_section": "§OE.1 [Example 1]", "md_verbatim": "| 2 | XXX | OE | XXX-450-110 | OD | 2 | INTP | Interpretation | ABNORMAL | ABNORMAL | LENS | RIGHT | | SLIT LAMP BIOMICROSCOPY | INVESTIGATOR | | 1 | SCREENING | 2012-03-20 |", "score": 0.5565, "match_basis": "verbatim_token+domain_route:OE"}], "candidate_count": 5, "zero_candidate": false}
{"pdf_atom_id": "ig34_p0302_a023", "pdf_atom_type": "TABLE_ROW", "pdf_source": "SDTMIG_v3.4", "pdf_page": 302, "pdf_parent_section": "§6.3.7.5 Ophthalmic Examinations (OE)", "pdf_verbatim": "| 2 | XXX | OE | XXX-450-120 | OS | 2 | COLOR | Color | BLUE | | BLUE | | IRIS | LEFT | SLIT LAMP BIOMICROSCOPY | 1 | VISIT 1 | 2012-03-20 |", "figure_ref": null, "candidates": [{"md_atom_id": "md_dmOE_ex_a028", "md_file": "knowledge_base/domains/OE/examples.md", "md_atom_type": "TABLE_ROW", "md_parent_section": "§OE.2 [Example 2]", "md_verbatim": "| 2 | XXX | OE | XXX-450-120 | OS | 2 | COLOR | Color | BLUE | | BLUE | | | IRIS | LEFT | SLIT LAMP BIOMICROSCOPY | INVESTIGATOR | | 1 | SCREENING | 2012-04-20 |", "score": 0.7551, "match_basis": "verbatim_token+domain_route:OE"}, {"md_atom_id": "md_dmOE_ex_a027", "md_file": "knowledge_base/domains/OE/examples.md", "md_atom_type": "TABLE_ROW", "md_parent_section": "§OE.2 [Example 2]", "md_verbatim": "| 1 | XXX | OE | XXX-450-120 | OD | 1 | COLOR | Color | BLUE | | BLUE | | | IRIS | RIGHT | SLIT LAMP BIOMICROSCOPY | INVESTIGATOR | | 1 | SCREENING | 2012-04-20 |", "score": 0.7115, "match_basis": "verbatim_token+domain_route:OE"}, {"md_atom_id": "md_dmOE_ex_a030", "md_file": "knowledge_base/domains/OE/examples.md", "md_atom_type": "TABLE_ROW", "md_parent_section": "§OE.2 [Example 2]", "md_verbatim": "| 4 | XXX | OE | XXX-450-120 | OS | 4 | LENSSTAT | Lens Status | PSEUDOPHAKIC | | PSEUDOPHAKIC | | | LENS | LEFT | SLIT LAMP BIOMICROSCOPY | INVESTIGATOR | | 1 | SCREENING | 2012-04-20 |", "score": 0.597, "match_basis": "verbatim_token+domain_route:OE"}, {"md_atom_id": "md_dmOE_ex_a029", "md_file": "knowledge_base/domains/OE/examples.md", "md_atom_type": "TABLE_ROW", "md_parent_section": "§OE.2 [Example 2]", "md_verbatim": "| 3 | XXX | OE | XXX-450-120 | OD | 3 | LENSSTAT | Lens Status | PHAKIC | | PHAKIC | | | LENS | RIGHT | SLIT LAMP BIOMICROSCOPY | INVESTIGATOR | | 1 | SCREENING | 2012-04-20 |", "score": 0.5875, "match_basis": "verbatim_token+domain_route:OE"}, {"md_atom_id": "md_dmOE_ex_a008", "md_file": "knowledge_base/domains/OE/examples.md", "md_atom_type": "TABLE_ROW", "md_parent_section": "§OE.1 [Example 1]", "md_verbatim": "| 1 | XXX | OE | XXX-450-110 | OS | 1 | INTP | Interpretation | NORMAL | NORMAL | LENS | LEFT | | SLIT LAMP BIOMICROSCOPY | INVESTIGATOR | | 1 | SCREENING | 2012-03-20 |", "score": 0.5826, "match_basis": "verbatim_token+domain_route:OE"}], "candidate_count": 5, "zero_candidate": false}
{"pdf_atom_id": "ig34_p0302_a024", "pdf_atom_type": "TABLE_ROW", "pdf_source": "SDTMIG_v3.4", "pdf_page": 302, "pdf_parent_section": "§6.3.7.5 Ophthalmic Examinations (OE)", "pdf_verbatim": "| 3 | XXX | OE | XXX-450-120 | OD | 3 | LENSSTAT | Lens Status | PHAKIC | | PHAKIC | | LENS | RIGHT | SLIT LAMP BIOMICROSCOPY | | 1 | VISIT 1 | 2012-03-20 |", "figure_ref": null, "candidates": [{"md_atom_id": "md_dmOE_ex_a029", "md_file": "knowledge_base/domains/OE/examples.md", "md_atom_type": "TABLE_ROW", "md_parent_section": "§OE.2 [Example 2]", "md_verbatim": "| 3 | XXX | OE | XXX-450-120 | OD | 3 | LENSSTAT | Lens Status | PHAKIC | | PHAKIC | | | LENS | RIGHT | SLIT LAMP BIOMICROSCOPY | INVESTIGATOR | | 1 | SCREENING | 2012-04-20 |", "score": 0.7818, "match_basis": "verbatim_token+domain_route:OE"}, {"md_atom_id": "md_dmOE_ex_a030", "md_file": "knowledge_base/domains/OE/examples.md", "md_atom_type": "TABLE_ROW", "md_parent_section": "§OE.2 [Example 2]", "md_verbatim": "| 4 | XXX | OE | XXX-450-120 | OS | 4 | LENSSTAT | Lens Status | PSEUDOPHAKIC | | PSEUDOPHAKIC | | | LENS | LEFT | SLIT LAMP BIOMICROSCOPY | INVESTIGATOR | | 1 | SCREENING | 2012-04-20 |", "score": 0.7048, "match_basis": "verbatim_token+domain_route:OE"}, {"md_atom_id": "md_dmOE_ex_a027", "md_file": "knowledge_base/domains/OE/examples.md", "md_atom_type": "TABLE_ROW", "md_parent_section": "§OE.2 [Example 2]", "md_verbatim": "| 1 | XXX | OE | XXX-450-120 | OD | 1 | COLOR | Color | BLUE | | BLUE | | | IRIS | RIGHT | SLIT LAMP BIOMICROSCOPY | INVESTIGATOR | | 1 | SCREENING | 2012-04-20 |", "score": 0.6226, "match_basis": "verbatim_token+domain_route:OE"}, {"md_atom_id": "md_dmOE_ex_a009", "md_file": "knowledge_base/domains/OE/examples.md", "md_atom_type": "TABLE_ROW", "md_parent_section": "§OE.1 [Example 1]", "md_verbatim": "| 2 | XXX | OE | XXX-450-110 | OD | 2 | INTP | Interpretation | ABNORMAL | ABNORMAL | LENS | RIGHT | | SLIT LAMP BIOMICROSCOPY | INVESTIGATOR | | 1 | SCREENING | 2012-03-20 |", "score": 0.6027, "match_basis": "verbatim_token+domain_route:OE"}, {"md_atom_id": "md_dmOE_ex_a028", "md_file": "knowledge_base/domains/OE/examples.md", "md_atom_type": "TABLE_ROW", "md_parent_section": "§OE.2 [Example 2]", "md_verbatim": "| 2 | XXX | OE | XXX-450-120 | OS | 2 | COLOR | Color | BLUE | | BLUE | | | IRIS | LEFT | SLIT LAMP BIOMICROSCOPY | INVESTIGATOR | | 1 | SCREENING | 2012-04-20 |", "score": 0.5875, "match_basis": "verbatim_token+domain_route:OE"}], "candidate_count": 5, "zero_candidate": false}
{"pdf_atom_id": "ig34_p0302_a025", "pdf_atom_type": "TABLE_ROW", "pdf_source": "SDTMIG_v3.4", "pdf_page": 302, "pdf_parent_section": "§6.3.7.5 Ophthalmic Examinations (OE)", "pdf_verbatim": "| 4 | XXX | OE | XXX-450-120 | OS | 4 | LENSSTAT | Lens Status | PSEUDOPHAKIC | | PSEUDOPHAKIC | | LENS | LEFT | SLIT LAMP BIOMICROSCOPY | | 1 | VISIT 1 | 2012-03-20 |", "figure_ref": null, "candidates": [{"md_atom_id": "md_dmOE_ex_a030", "md_file": "knowledge_base/domains/OE/examples.md", "md_atom_type": "TABLE_ROW", "md_parent_section": "§OE.2 [Example 2]", "md_verbatim": "| 4 | XXX | OE | XXX-450-120 | OS | 4 | LENSSTAT | Lens Status | PSEUDOPHAKIC | | PSEUDOPHAKIC | | | LENS | LEFT | SLIT LAMP BIOMICROSCOPY | INVESTIGATOR | | 1 | SCREENING | 2012-04-20 |", "score": 0.8, "match_basis": "verbatim_token+domain_route:OE"}, {"md_atom_id": "md_dmOE_ex_a029", "md_file": "knowledge_base/domains/OE/examples.md", "md_atom_type": "TABLE_ROW", "md_parent_section": "§OE.2 [Example 2]", "md_verbatim": "| 3 | XXX | OE | XXX-450-120 | OD | 3 | LENSSTAT | Lens Status | PHAKIC | | PHAKIC | | | LENS | RIGHT | SLIT LAMP BIOMICROSCOPY | INVESTIGATOR | | 1 | SCREENING | 2012-04-20 |", "score": 0.7048, "match_basis": "verbatim_token+domain_route:OE"}, {"md_atom_id": "md_dmOE_ex_a028", "md_file": "knowledge_base/domains/OE/examples.md", "md_atom_type": "TABLE_ROW", "md_parent_section": "§OE.2 [Example 2]", "md_verbatim": "| 2 | XXX | OE | XXX-450-120 | OS | 2 | COLOR | Color | BLUE | | BLUE | | | IRIS | LEFT | SLIT LAMP BIOMICROSCOPY | INVESTIGATOR | | 1 | SCREENING | 2012-04-20 |", "score": 0.597, "match_basis": "verbatim_token+domain_route:OE"}, {"md_atom_id": "md_dmOE_ex_a008", "md_file": "knowledge_base/domains/OE/examples.md", "md_atom_type": "TABLE_ROW", "md_parent_section": "§OE.1 [Example 1]", "md_verbatim": "| 1 | XXX | OE | XXX-450-110 | OS | 1 | INTP | Interpretation | NORMAL | NORMAL | LENS | LEFT | | SLIT LAMP BIOMICROSCOPY | INVESTIGATOR | | 1 | SCREENING | 2012-03-20 |", "score": 0.587, "match_basis": "verbatim_token+domain_route:OE"}, {"md_atom_id": "md_dmOE_ex_a027", "md_file": "knowledge_base/domains/OE/examples.md", "md_atom_type": "TABLE_ROW", "md_parent_section": "§OE.2 [Example 2]", "md_verbatim": "| 1 | XXX | OE | XXX-450-120 | OD | 1 | COLOR | Color | BLUE | | BLUE | | | IRIS | RIGHT | SLIT LAMP BIOMICROSCOPY | INVESTIGATOR | | 1 | SCREENING | 2012-04-20 |", "score": 0.5714, "match_basis": "verbatim_token+domain_route:OE"}], "candidate_count": 5, "zero_candidate": false}
{"pdf_atom_id": "ig34_p0302_a026", "pdf_atom_type": "TABLE_ROW", "pdf_source": "SDTMIG_v3.4", "pdf_page": 302, "pdf_parent_section": "§6.3.7.5 Ophthalmic Examinations (OE)", "pdf_verbatim": "| 5 | XXX | OE | XXX-450-120 | OD | 5 | HYPEREMIA | Hyperemia | PRESENT | | PRESENT | | CONJUNCTIVA | RIGHT | SLIT LAMP BIOMICROSCOPY | | 1 | VISIT 1 | 2012-03-20 |", "figure_ref": null, "candidates": [{"md_atom_id": "md_dmOE_ex_a031", "md_file": "knowledge_base/domains/OE/examples.md", "md_atom_type": "TABLE_ROW", "md_parent_section": "§OE.2 [Example 2]", "md_verbatim": "| 5 | XXX | OE | XXX-450-120 | OD | 5 | HYPERMIA | Hyperemia | PRESENT | | PRESENT | | | CONJUNCTIVA | RIGHT | OPHTHALMOSCOPY | INVESTIGATOR | Y | 1 | SCREENING | 2012-04-20 |", "score": 0.6676, "match_basis": "verbatim_token+domain_route:OE"}, {"md_atom_id": "md_dmOE_ex_a010", "md_file": "knowledge_base/domains/OE/examples.md", "md_atom_type": "TABLE_ROW", "md_parent_section": "§OE.1 [Example 1]", "md_verbatim": "| 3 | XXX | OE | XXX-450-110 | OD | 3 | OEEXAM | Ophthalmic Examination | RED SPOT VISIBLE | RED SPOT VISIBLE | CONJUNCTIVA | RIGHT | MULTIPLE | SLIT LAMP BIOMICROSCOPY | INVESTIGATOR | Y | 1 | SCREENING | 2012-03-20 |", "score": 0.6084, "match_basis": "verbatim_token+domain_route:OE"}, {"md_atom_id": "md_dmOE_ex_a032", "md_file": "knowledge_base/domains/OE/examples.md", "md_atom_type": "TABLE_ROW", "md_parent_section": "§OE.2 [Example 2]", "md_verbatim": "| 6 | XXX | OE | XXX-450-120 | OS | 6 | HYPERMIA | Hyperemia | ABSENT | | ABSENT | | | CONJUNCTIVA | LEFT | OPHTHALMOSCOPY | INVESTIGATOR | | 1 | SCREENING | 2012-04-20 |", "score": 0.6077, "match_basis": "verbatim_token+domain_route:OE"}, {"md_atom_id": "md_dmOE_ex_a027", "md_file": "knowledge_base/domains/OE/examples.md", "md_atom_type": "TABLE_ROW", "md_parent_section": "§OE.2 [Example 2]", "md_verbatim": "| 1 | XXX | OE | XXX-450-120 | OD | 1 | COLOR | Color | BLUE | | BLUE | | | IRIS | RIGHT | SLIT LAMP BIOMICROSCOPY | INVESTIGATOR | | 1 | SCREENING | 2012-04-20 |", "score": 0.5944, "match_basis": "verbatim_token+domain_route:OE"}, {"md_atom_id": "md_dmOE_ex_a029", "md_file": "knowledge_base/domains/OE/examples.md", "md_atom_type": "TABLE_ROW", "md_parent_section": "§OE.2 [Example 2]", "md_verbatim": "| 3 | XXX | OE | XXX-450-120 | OD | 3 | LENSSTAT | Lens Status | PHAKIC | | PHAKIC | | | LENS | RIGHT | SLIT LAMP BIOMICROSCOPY | INVESTIGATOR | | 1 | SCREENING | 2012-04-20 |", "score": 0.5816, "match_basis": "verbatim_token+domain_route:OE"}], "candidate_count": 5, "zero_candidate": false}
{"pdf_atom_id": "ig34_p0302_a027", "pdf_atom_type": "TABLE_ROW", "pdf_source": "SDTMIG_v3.4", "pdf_page": 302, "pdf_parent_section": "§6.3.7.5 Ophthalmic Examinations (OE)", "pdf_verbatim": "| 6 | XXX | OE | XXX-450-120 | OS | 6 | HYPEREMIA | Hyperemia | ABSENT | | ABSENT | | CONJUNCTIVA | LEFT | SLIT LAMP BIOMICROSCOPY | | 1 | VISIT 1 | 2012-03-20 |", "figure_ref": null, "candidates": [{"md_atom_id": "md_dmOE_ex_a032", "md_file": "knowledge_base/domains/OE/examples.md", "md_atom_type": "TABLE_ROW", "md_parent_section": "§OE.2 [Example 2]", "md_verbatim": "| 6 | XXX | OE | XXX-450-120 | OS | 6 | HYPERMIA | Hyperemia | ABSENT | | ABSENT | | | CONJUNCTIVA | LEFT | OPHTHALMOSCOPY | INVESTIGATOR | | 1 | SCREENING | 2012-04-20 |", "score": 0.6583, "match_basis": "verbatim_token+domain_route:OE"}, {"md_atom_id": "md_dmOE_ex_a031", "md_file": "knowledge_base/domains/OE/examples.md", "md_atom_type": "TABLE_ROW", "md_parent_section": "§OE.2 [Example 2]", "md_verbatim": "| 5 | XXX | OE | XXX-450-120 | OD | 5 | HYPERMIA | Hyperemia | PRESENT | | PRESENT | | | CONJUNCTIVA | RIGHT | OPHTHALMOSCOPY | INVESTIGATOR | Y | 1 | SCREENING | 2012-04-20 |", "score": 0.6077, "match_basis": "verbatim_token+domain_route:OE"}, {"md_atom_id": "md_dmOE_ex_a028", "md_file": "knowledge_base/domains/OE/examples.md", "md_atom_type": "TABLE_ROW", "md_parent_section": "§OE.2 [Example 2]", "md_verbatim": "| 2 | XXX | OE | XXX-450-120 | OS | 2 | COLOR | Color | BLUE | | BLUE | | | IRIS | LEFT | SLIT LAMP BIOMICROSCOPY | INVESTIGATOR | | 1 | SCREENING | 2012-04-20 |", "score": 0.5913, "match_basis": "verbatim_token+domain_route:OE"}, {"md_atom_id": "md_dmOE_ex_a010", "md_file": "knowledge_base/domains/OE/examples.md", "md_atom_type": "TABLE_ROW", "md_parent_section": "§OE.1 [Example 1]", "md_verbatim": "| 3 | XXX | OE | XXX-450-110 | OD | 3 | OEEXAM | Ophthalmic Examination | RED SPOT VISIBLE | RED SPOT VISIBLE | CONJUNCTIVA | RIGHT | MULTIPLE | SLIT LAMP BIOMICROSCOPY | INVESTIGATOR | Y | 1 | SCREENING | 2012-03-20 |", "score": 0.5875, "match_basis": "verbatim_token+domain_route:OE"}, {"md_atom_id": "md_dmOE_ex_a027", "md_file": "knowledge_base/domains/OE/examples.md", "md_atom_type": "TABLE_ROW", "md_parent_section": "§OE.2 [Example 2]", "md_verbatim": "| 1 | XXX | OE | XXX-450-120 | OD | 1 | COLOR | Color | BLUE | | BLUE | | | IRIS | RIGHT | SLIT LAMP BIOMICROSCOPY | INVESTIGATOR | | 1 | SCREENING | 2012-04-20 |", "score": 0.5667, "match_basis": "verbatim_token+domain_route:OE"}], "candidate_count": 5, "zero_candidate": false}
{"pdf_atom_id": "ig34_p0302_a028", "pdf_atom_type": "TABLE_ROW", "pdf_source": "SDTMIG_v3.4", "pdf_page": 302, "pdf_parent_section": "§6.3.7.5 Ophthalmic Examinations (OE)", "pdf_verbatim": "| 7 | XXX | OE | XXX-450-120 | OD | 7 | CUPDISC | Cup-to-Disc Ratio | 0.5 | | RATIO | 0.5 | | OPTIC DISC | RIGHT | OPHTHALMOSCOPY | | 1 | VISIT 1 | 2012-03-20 |", "figure_ref": null, "candidates": [{"md_atom_id": "md_dmOE_ex_a033", "md_file": "knowledge_base/domains/OE/examples.md", "md_atom_type": "TABLE_ROW", "md_parent_section": "§OE.2 [Example 2]", "md_verbatim": "| 7 | XXX | OE | XXX-450-120 | OD | 7 | CUPDISC | Cup-to-Disc Ratio | 0.5 | RATIO | 0.5 | 0.5 | RATIO | OPTIC DISC | RIGHT | OPHTHALMOSCOPY | INVESTIGATOR | | 1 | SCREENING | 2012-04-20 |", "score": 0.7647, "match_basis": "verbatim_token+domain_route:OE"}, {"md_atom_id": "md_dmOE_ex_a034", "md_file": "knowledge_base/domains/OE/examples.md", "md_atom_type": "TABLE_ROW", "md_parent_section": "§OE.2 [Example 2]", "md_verbatim": "| 8 | XXX | OE | XXX-450-120 | OS | 8 | CUPDISC | Cup-to-Disc Ratio | 0.6 | RATIO | 0.6 | 0.6 | RATIO | OPTIC DISC | LEFT | OPHTHALMOSCOPY | INVESTIGATOR | | 1 | SCREENING | 2012-04-20 |", "score": 0.717, "match_basis": "verbatim_token+domain_route:OE"}, {"md_atom_id": "md_dmOE_ex_a031", "md_file": "knowledge_base/domains/OE/examples.md", "md_atom_type": "TABLE_ROW", "md_parent_section": "§OE.2 [Example 2]", "md_verbatim": "| 5 | XXX | OE | XXX-450-120 | OD | 5 | HYPERMIA | Hyperemia | PRESENT | | PRESENT | | | CONJUNCTIVA | RIGHT | OPHTHALMOSCOPY | INVESTIGATOR | Y | 1 | SCREENING | 2012-04-20 |", "score": 0.5622, "match_basis": "verbatim_token+domain_route:OE"}, {"md_atom_id": "md_dmOE_ex_a032", "md_file": "knowledge_base/domains/OE/examples.md", "md_atom_type": "TABLE_ROW", "md_parent_section": "§OE.2 [Example 2]", "md_verbatim": "| 6 | XXX | OE | XXX-450-120 | OS | 6 | HYPERMIA | Hyperemia | ABSENT | | ABSENT | | | CONJUNCTIVA | LEFT | OPHTHALMOSCOPY | INVESTIGATOR | | 1 | SCREENING | 2012-04-20 |", "score": 0.536, "match_basis": "verbatim_token+domain_route:OE"}, {"md_atom_id": "md_dmOE_ex_a010", "md_file": "knowledge_base/domains/OE/examples.md", "md_atom_type": "TABLE_ROW", "md_parent_section": "§OE.1 [Example 1]", "md_verbatim": "| 3 | XXX | OE | XXX-450-110 | OD | 3 | OEEXAM | Ophthalmic Examination | RED SPOT VISIBLE | RED SPOT VISIBLE | CONJUNCTIVA | RIGHT | MULTIPLE | SLIT LAMP BIOMICROSCOPY | INVESTIGATOR | Y | 1 | SCREENING | 2012-03-20 |", "score": 0.534, "match_basis": "verbatim_token+domain_route:OE"}], "candidate_count": 5, "zero_candidate": false}
{"pdf_atom_id": "ig34_p0302_a029", "pdf_atom_type": "TABLE_ROW", "pdf_source": "SDTMIG_v3.4", "pdf_page": 302, "pdf_parent_section": "§6.3.7.5 Ophthalmic Examinations (OE)", "pdf_verbatim": "| 8 | XXX | OE | XXX-450-120 | OS | 8 | CUPDISC | Cup-to-Disc Ratio | 0.6 | | RATIO | 0.6 | | OPTIC DISC | LEFT | OPHTHALMOSCOPY | | 1 | VISIT 1 | 2012-03-20 |", "figure_ref": null, "candidates": [{"md_atom_id": "md_dmOE_ex_a034", "md_file": "knowledge_base/domains/OE/examples.md", "md_atom_type": "TABLE_ROW", "md_parent_section": "§OE.2 [Example 2]", "md_verbatim": "| 8 | XXX | OE | XXX-450-120 | OS | 8 | CUPDISC | Cup-to-Disc Ratio | 0.6 | RATIO | 0.6 | 0.6 | RATIO | OPTIC DISC | LEFT | OPHTHALMOSCOPY | INVESTIGATOR | | 1 | SCREENING | 2012-04-20 |", "score": 0.76, "match_basis": "verbatim_token+domain_route:OE"}, {"md_atom_id": "md_dmOE_ex_a033", "md_file": "knowledge_base/domains/OE/examples.md", "md_atom_type": "TABLE_ROW", "md_parent_section": "§OE.2 [Example 2]", "md_verbatim": "| 7 | XXX | OE | XXX-450-120 | OD | 7 | CUPDISC | Cup-to-Disc Ratio | 0.5 | RATIO | 0.5 | 0.5 | RATIO | OPTIC DISC | RIGHT | OPHTHALMOSCOPY | INVESTIGATOR | | 1 | SCREENING | 2012-04-20 |", "score": 0.717, "match_basis": "verbatim_token+domain_route:OE"}, {"md_atom_id": "md_dmOE_ex_a032", "md_file": "knowledge_base/domains/OE/examples.md", "md_atom_type": "TABLE_ROW", "md_parent_section": "§OE.2 [Example 2]", "md_verbatim": "| 6 | XXX | OE | XXX-450-120 | OS | 6 | HYPERMIA | Hyperemia | ABSENT | | ABSENT | | | CONJUNCTIVA | LEFT | OPHTHALMOSCOPY | INVESTIGATOR | | 1 | SCREENING | 2012-04-20 |", "score": 0.5583, "match_basis": "verbatim_token+domain_route:OE"}, {"md_atom_id": "md_dmOE_ex_a051", "md_file": "knowledge_base/domains/OE/examples.md", "md_atom_type": "TABLE_ROW", "md_parent_section": "§OE.3 [Example 3]", "md_verbatim": "| 2 | XYZ | OE | XYZ-100-001 | OD | 2 | | EDEMA | Edema | ABSENT | | ABSENT | | | MACULA | LEFT | OPHTHALMOSCOPY | INVESTIGATOR | | 1 | SCREENING | 2012-04-25 |", "score": 0.55, "match_basis": "verbatim_token+domain_route:OE"}, {"md_atom_id": "md_dmOE_ex_a050", "md_file": "knowledge_base/domains/OE/examples.md", "md_atom_type": "TABLE_ROW", "md_parent_section": "§OE.3 [Example 3]", "md_verbatim": "| 1 | XYZ | OE | XYZ-100-001 | OS | 1 | | EDEMA | Edema | PRESENT | | PRESENT | | | MACULA | LEFT | OPHTHALMOSCOPY | INVESTIGATOR | N | 1 | SCREENING | 2012-04-25 |", "score": 0.5477, "match_basis": "verbatim_token+domain_route:OE"}], "candidate_count": 5, "zero_candidate": false}
{"pdf_atom_id": "ig34_p0303_a001", "pdf_atom_type": "CODE_LITERAL", "pdf_source": "SDTMIG_v3.4", "pdf_page": 303, "pdf_parent_section": "§6.3.7.5 Ophthalmic Examinations (OE)", "pdf_verbatim": "suppoe.xpt", "figure_ref": null, "candidates": [{"md_atom_id": "md_dmOE_ex_a012", "md_file": "knowledge_base/domains/OE/examples.md", "md_atom_type": "SENTENCE", "md_parent_section": "§OE.1 [Example 1]", "md_verbatim": "**suppoe.xpt**", "score": 0.79, "match_basis": "verbatim_token+domain_route:OE"}, {"md_atom_id": "md_dmOE_ex_a036", "md_file": "knowledge_base/domains/OE/examples.md", "md_atom_type": "SENTENCE", "md_parent_section": "§OE.2 [Example 2]", "md_verbatim": "**suppoe.xpt**", "score": 0.79, "match_basis": "verbatim_token+domain_route:OE"}, {"md_atom_id": "md_dmOE_ex_a057", "md_file": "knowledge_base/domains/OE/examples.md", "md_atom_type": "SENTENCE", "md_parent_section": "§OE.3 [Example 3]", "md_verbatim": "**suppoe.xpt**", "score": 0.79, "match_basis": "verbatim_token+domain_route:OE"}, {"md_atom_id": "md_dmOE_ex_a098", "md_file": "knowledge_base/domains/OE/examples.md", "md_atom_type": "SENTENCE", "md_parent_section": "§OE.4 [Example 4]", "md_verbatim": "**suppoe.xpt**", "score": 0.79, "match_basis": "verbatim_token+domain_route:OE"}, {"md_atom_id": "md_dmOE_ex_a006", "md_file": "knowledge_base/domains/OE/examples.md", "md_atom_type": "SENTENCE", "md_parent_section": "§OE.1 [Example 1]", "md_verbatim": "**oe.xpt**", "score": 0.31, "match_basis": "verbatim_token+domain_route:OE"}, {"md_atom_id": "md_dmOE_ex_a025", "md_file": "knowledge_base/domains/OE/examples.md", "md_atom_type": "SENTENCE", "md_parent_section": "§OE.2 [Example 2]", "md_verbatim": "**oe.xpt**", "score": 0.31, "match_basis": "verbatim_token+domain_route:OE"}, {"md_atom_id": "md_dmOE_ex_a048", "md_file": "knowledge_base/domains/OE/examples.md", "md_atom_type": "SENTENCE", "md_parent_section": "§OE.3 [Example 3]", "md_verbatim": "**oe.xpt**", "score": 0.31, "match_basis": "verbatim_token+domain_route:OE"}, {"md_atom_id": "md_dmOE_ex_a063", "md_file": "knowledge_base/domains/OE/examples.md", "md_atom_type": "SENTENCE", "md_parent_section": "§OE.3 [Example 3]", "md_verbatim": "**pr.xpt**", "score": 0.31, "match_basis": "verbatim_token+domain_route:OE"}, {"md_atom_id": "md_dmOE_ex_a071", "md_file": "knowledge_base/domains/OE/examples.md", "md_atom_type": "SENTENCE", "md_parent_section": "§OE.3 [Example 3]", "md_verbatim": "**di.xpt**", "score": 0.31, "match_basis": "verbatim_token+domain_route:OE"}, {"md_atom_id": "md_dmOE_ex_a091", "md_file": "knowledge_base/domains/OE/examples.md", "md_atom_type": "SENTENCE", "md_parent_section": "§OE.4 [Example 4]", "md_verbatim": "**oe.xpt**", "score": 0.31, "match_basis": "verbatim_token+domain_route:OE"}], "candidate_count": 10, "zero_candidate": false}
{"pdf_atom_id": "ig34_p0303_a002", "pdf_atom_type": "TABLE_HEADER", "pdf_source": "SDTMIG_v3.4", "pdf_page": 303, "pdf_parent_section": "§6.3.7.5 Ophthalmic Examinations (OE)", "pdf_verbatim": "| Row | STUDYID | RDOMAIN | USUBJID | IDVAR | IDVARVAL | QNAM | QLABEL | QVAL |", "figure_ref": null, "candidates": [{"md_atom_id": "md_dmOE_ex_a013", "md_file": "knowledge_base/domains/OE/examples.md", "md_atom_type": "TABLE_HEADER", "md_parent_section": "§OE.1 [Example 1]", "md_verbatim": "| Row | STUDYID | RDOMAIN | USUBJID | IDVAR | IDVARVAL | QNAM | QLABEL | QVAL |\n|-----|---------|---------|---------|-------|----------|------|--------|------|", "score": 1.0, "match_basis": "verbatim_token+domain_route:OE"}, {"md_atom_id": "md_dmOE_ex_a037", "md_file": "knowledge_base/domains/OE/examples.md", "md_atom_type": "TABLE_HEADER", "md_parent_section": "§OE.2 [Example 2]", "md_verbatim": "| Row | STUDYID | RDOMAIN | USUBJID | IDVAR | IDVARVAL | QNAM | QLABEL | QVAL |\n|-----|---------|---------|---------|-------|----------|------|--------|------|", "score": 1.0, "match_basis": "verbatim_token+domain_route:OE"}, {"md_atom_id": "md_dmOE_ex_a058", "md_file": "knowledge_base/domains/OE/examples.md", "md_atom_type": "TABLE_HEADER", "md_parent_section": "§OE.3 [Example 3]", "md_verbatim": "| Row | STUDYID | RDOMAIN | USUBJID | IDVAR | IDVARVAL | QNAM | QLABEL | QVAL |\n|-----|---------|---------|---------|-------|----------|------|--------|------|", "score": 1.0, "match_basis": "verbatim_token+domain_route:OE"}, {"md_atom_id": "md_dmOE_ex_a099", "md_file": "knowledge_base/domains/OE/examples.md", "md_atom_type": "TABLE_HEADER", "md_parent_section": "§OE.4 [Example 4]", "md_verbatim": "| Row | STUDYID | RDOMAIN | USUBJID | IDVAR | IDVARVAL | QNAM | QLABEL | QVAL |\n|-----|---------|---------|---------|-------|----------|------|--------|------|", "score": 1.0, "match_basis": "verbatim_token+domain_route:OE"}, {"md_atom_id": "md_dmOE_ex_a079", "md_file": "knowledge_base/domains/OE/examples.md", "md_atom_type": "TABLE_HEADER", "md_parent_section": "§OE.3 [Example 3]", "md_verbatim": "| Row | STUDYID | RDOMAIN | USUBJID | IDVAR | IDVARVAL | RELTYPE | RELID |\n|-----|---------|---------|---------|-------|----------|---------|-------|", "score": 0.7667, "match_basis": "verbatim_token+domain_route:OE"}], "candidate_count": 5, "zero_candidate": false}
{"pdf_atom_id": "ig34_p0303_a003", "pdf_atom_type": "TABLE_ROW", "pdf_source": "SDTMIG_v3.4", "pdf_page": 303, "pdf_parent_section": "§6.3.7.5 Ophthalmic Examinations (OE)", "pdf_verbatim": "| 1 | XXX | OE | XXX-450-120 | OESEQ | 7 | OEEDILST | Eye Dilation Status | DILATED |", "figure_ref": null, "candidates": [{"md_atom_id": "md_dmOE_ex_a038", "md_file": "knowledge_base/domains/OE/examples.md", "md_atom_type": "TABLE_ROW", "md_parent_section": "§OE.2 [Example 2]", "md_verbatim": "| 1 | XXX | OE | XXX-450-120 | OESEQ | 7 | OEEDILST | Eye Dilation Status | DILATED |", "score": 1.0, "match_basis": "verbatim_token+domain_route:OE"}, {"md_atom_id": "md_dmOE_ex_a039", "md_file": "knowledge_base/domains/OE/examples.md", "md_atom_type": "TABLE_ROW", "md_parent_section": "§OE.2 [Example 2]", "md_verbatim": "| 2 | XXX | OE | XXX-450-120 | OESEQ | 8 | OEEDILST | Eye Dilation Status | DILATED |", "score": 1.0, "match_basis": "verbatim_token+domain_route:OE"}, {"md_atom_id": "md_dmOE_ex_a014", "md_file": "knowledge_base/domains/OE/examples.md", "md_atom_type": "TABLE_ROW", "md_parent_section": "§OE.1 [Example 1]", "md_verbatim": "| 1 | XXX | OE | XXX-450-110 | OESEQ | 3 | OEDIRT | Directionality 1 | SUPERIOR |", "score": 0.5116, "match_basis": "verbatim_token+domain_route:OE"}, {"md_atom_id": "md_dmOE_ex_a015", "md_file": "knowledge_base/domains/OE/examples.md", "md_atom_type": "TABLE_ROW", "md_parent_section": "§OE.1 [Example 1]", "md_verbatim": "| 2 | XXX | OE | XXX-450-110 | OESEQ | 3 | OEDIR2 | Directionality 2 | TEMPORAL |", "score": 0.5116, "match_basis": "verbatim_token+domain_route:OE"}, {"md_atom_id": "md_dmOE_ex_a059", "md_file": "knowledge_base/domains/OE/examples.md", "md_atom_type": "TABLE_ROW", "md_parent_section": "§OE.3 [Example 3]", "md_verbatim": "| 1 | XYZ | OE | XYZ-100-001 | OELNKID | 1 | OEEVLDTC | Evaluation Date | 2012-04-30 |", "score": 0.4667, "match_basis": "verbatim_token+domain_route:OE"}], "candidate_count": 5, "zero_candidate": false}
{"pdf_atom_id": "ig34_p0303_a004", "pdf_atom_type": "TABLE_ROW", "pdf_source": "SDTMIG_v3.4", "pdf_page": 303, "pdf_parent_section": "§6.3.7.5 Ophthalmic Examinations (OE)", "pdf_verbatim": "| 2 | XXX | OE | XXX-450-120 | OESEQ | 8 | OEEDILST | Eye Dilation Status | DILATED |", "figure_ref": null, "candidates": [{"md_atom_id": "md_dmOE_ex_a038", "md_file": "knowledge_base/domains/OE/examples.md", "md_atom_type": "TABLE_ROW", "md_parent_section": "§OE.2 [Example 2]", "md_verbatim": "| 1 | XXX | OE | XXX-450-120 | OESEQ | 7 | OEEDILST | Eye Dilation Status | DILATED |", "score": 1.0, "match_basis": "verbatim_token+domain_route:OE"}, {"md_atom_id": "md_dmOE_ex_a039", "md_file": "knowledge_base/domains/OE/examples.md", "md_atom_type": "TABLE_ROW", "md_parent_section": "§OE.2 [Example 2]", "md_verbatim": "| 2 | XXX | OE | XXX-450-120 | OESEQ | 8 | OEEDILST | Eye Dilation Status | DILATED |", "score": 1.0, "match_basis": "verbatim_token+domain_route:OE"}, {"md_atom_id": "md_dmOE_ex_a014", "md_file": "knowledge_base/domains/OE/examples.md", "md_atom_type": "TABLE_ROW", "md_parent_section": "§OE.1 [Example 1]", "md_verbatim": "| 1 | XXX | OE | XXX-450-110 | OESEQ | 3 | OEDIRT | Directionality 1 | SUPERIOR |", "score": 0.5116, "match_basis": "verbatim_token+domain_route:OE"}, {"md_atom_id": "md_dmOE_ex_a015", "md_file": "knowledge_base/domains/OE/examples.md", "md_atom_type": "TABLE_ROW", "md_parent_section": "§OE.1 [Example 1]", "md_verbatim": "| 2 | XXX | OE | XXX-450-110 | OESEQ | 3 | OEDIR2 | Directionality 2 | TEMPORAL |", "score": 0.5116, "match_basis": "verbatim_token+domain_route:OE"}, {"md_atom_id": "md_dmOE_ex_a059", "md_file": "knowledge_base/domains/OE/examples.md", "md_atom_type": "TABLE_ROW", "md_parent_section": "§OE.3 [Example 3]", "md_verbatim": "| 1 | XYZ | OE | XYZ-100-001 | OELNKID | 1 | OEEVLDTC | Evaluation Date | 2012-04-30 |", "score": 0.4667, "match_basis": "verbatim_token+domain_route:OE"}], "candidate_count": 5, "zero_candidate": false}
{"pdf_atom_id": "ig34_p0303_a005", "pdf_atom_type": "HEADING", "pdf_source": "SDTMIG_v3.4", "pdf_page": 303, "pdf_parent_section": "§6.3.7.5 Ophthalmic Examinations (OE)", "pdf_verbatim": "Example 3", "figure_ref": null, "candidates": [{"md_atom_id": "md_dmOE_ex_a002", "md_file": "knowledge_base/domains/OE/examples.md", "md_atom_type": "HEADING", "md_parent_section": "§OE [OE — Examples]", "md_verbatim": "## Example 1", "score": 1.0, "match_basis": "verbatim_token+domain_route:OE"}, {"md_atom_id": "md_dmOE_ex_a016", "md_file": "knowledge_base/domains/OE/examples.md", "md_atom_type": "HEADING", "md_parent_section": "§OE [OE — Examples]", "md_verbatim": "## Example 2", "score": 1.0, "match_basis": "verbatim_token+domain_route:OE"}, {"md_atom_id": "md_dmOE_ex_a040", "md_file": "knowledge_base/domains/OE/examples.md", "md_atom_type": "HEADING", "md_parent_section": "§OE [OE — Examples]", "md_verbatim": "## Example 3", "score": 1.0, "match_basis": "verbatim_token+domain_route:OE"}, {"md_atom_id": "md_dmOE_ex_a082", "md_file": "knowledge_base/domains/OE/examples.md", "md_atom_type": "HEADING", "md_parent_section": "§OE [OE — Examples]", "md_verbatim": "## Example 4", "score": 1.0, "match_basis": "verbatim_token+domain_route:OE"}, {"md_atom_id": "md_dmOE_ex_a001", "md_file": "knowledge_base/domains/OE/examples.md", "md_atom_type": "HEADING", "md_parent_section": "§OE [OE — Examples]", "md_verbatim": "# OE — Examples", "score": 0.9, "match_basis": "verbatim_token+domain_route:OE"}, {"md_atom_id": "md_dmOE_assn_a001", "md_file": "knowledge_base/domains/OE/assumptions.md", "md_atom_type": "HEADING", "md_parent_section": "§OE [OE — Assumptions]", "md_verbatim": "# OE — Assumptions", "score": 0.4, "match_basis": "verbatim_token+domain_route:OE"}], "candidate_count": 6, "zero_candidate": false}
{"pdf_atom_id": "ig34_p0303_a006", "pdf_atom_type": "SENTENCE", "pdf_source": "SDTMIG_v3.4", "pdf_page": 303, "pdf_parent_section": "§6.3.7.5 Ophthalmic Examinations (OE)", "pdf_verbatim": "This example shows:", "figure_ref": null, "candidates": [{"md_atom_id": "md_dmOE_ex_a017", "md_file": "knowledge_base/domains/OE/examples.md", "md_atom_type": "SENTENCE", "md_parent_section": "§OE.2 [Example 2]", "md_verbatim": "This example shows:", "score": 1.0, "match_basis": "verbatim_token+domain_route:OE"}, {"md_atom_id": "md_dmOE_ex_a041", "md_file": "knowledge_base/domains/OE/examples.md", "md_atom_type": "SENTENCE", "md_parent_section": "§OE.3 [Example 3]", "md_verbatim": "This example shows:", "score": 1.0, "match_basis": "verbatim_token+domain_route:OE"}, {"md_atom_id": "md_dmOE_ex_a083", "md_file": "knowledge_base/domains/OE/examples.md", "md_atom_type": "SENTENCE", "md_parent_section": "§OE.4 [Example 4]", "md_verbatim": "This example shows:", "score": 1.0, "match_basis": "verbatim_token+domain_route:OE"}, {"md_atom_id": "md_dmOE_ex_a003", "md_file": "knowledge_base/domains/OE/examples.md", "md_atom_type": "SENTENCE", "md_parent_section": "§OE.1 [Example 1]", "md_verbatim": "This example shows a general anterior segment examination performed on each eye at 1 visit, with the purpose of evaluating general abnormalities.", "score": 0.4845, "match_basis": "verbatim_token+domain_route:OE"}, {"md_atom_id": "md_dmOE_ex_a002", "md_file": "knowledge_base/domains/OE/examples.md", "md_atom_type": "HEADING", "md_parent_section": "§OE [OE — Examples]", "md_verbatim": "## Example 1", "score": 0.46, "match_basis": "verbatim_token+domain_route:OE"}], "candidate_count": 5, "zero_candidate": false}
{"pdf_atom_id": "ig34_p0303_a007", "pdf_atom_type": "LIST_ITEM", "pdf_source": "SDTMIG_v3.4", "pdf_page": 303, "pdf_parent_section": "§6.3.7.5 Ophthalmic Examinations (OE)", "pdf_verbatim": "Partial results of the macula examination performed by the site investigator, as well as results provided by an independent assessor, for 1 visit", "figure_ref": null, "candidates": [{"md_atom_id": "md_dmOE_ex_a042", "md_file": "knowledge_base/domains/OE/examples.md", "md_atom_type": "LIST_ITEM", "md_parent_section": "§OE.3 [Example 3]", "md_verbatim": "- Partial results of the macula examination performed by the site investigator, as well as results provided by an independent assessor, for 1 visit", "score": 1.0, "match_basis": "verbatim_token+domain_route:OE"}, {"md_atom_id": "md_dmOE_ex_a056", "md_file": "knowledge_base/domains/OE/examples.md", "md_atom_type": "SENTENCE", "md_parent_section": "§OE.3 [Example 3]", "md_verbatim": "The suppoe.xpt dataset represents the date the independent assessor performed the evaluation of the OCT image.", "score": 0.4777, "match_basis": "verbatim_token+domain_route:OE"}, {"md_atom_id": "md_dmOE_ex_a047", "md_file": "knowledge_base/domains/OE/examples.md", "md_atom_type": "SENTENCE", "md_parent_section": "§OE.3 [Example 3]", "md_verbatim": "**Rows 3-6:** Represent the assessments performed by an independent assessor. OEDTC represents the OCT image date.", "score": 0.4686, "match_basis": "verbatim_token+domain_route:OE"}, {"md_atom_id": "md_dmOE_ex_a018", "md_file": "knowledge_base/domains/OE/examples.md", "md_atom_type": "LIST_ITEM", "md_parent_section": "§OE.2 [Example 2]", "md_verbatim": "- Different assessments, from the front to the back of the eye, for 1 subject at 1 visit", "score": 0.4674, "match_basis": "verbatim_token+domain_route:OE"}, {"md_atom_id": "md_dmOE_ex_a046", "md_file": "knowledge_base/domains/OE/examples.md", "md_atom_type": "SENTENCE", "md_parent_section": "§OE.3 [Example 3]", "md_verbatim": "**Rows 1-2:** Represent the assessments performed by the investigator. OECLSIG represents the investigator's assessment of clinical significance. OEDTC represents the ophthalmoscopy exam date.", "score": 0.4468, "match_basis": "verbatim_token+domain_route:OE"}], "candidate_count": 5, "zero_candidate": false}
{"pdf_atom_id": "ig34_p0303_a008", "pdf_atom_type": "LIST_ITEM", "pdf_source": "SDTMIG_v3.4", "pdf_page": 303, "pdf_parent_section": "§6.3.7.5 Ophthalmic Examinations (OE)", "pdf_verbatim": "The use of the NSV EVLDTC", "figure_ref": null, "candidates": [{"md_atom_id": "md_dmOE_ex_a043", "md_file": "knowledge_base/domains/OE/examples.md", "md_atom_type": "LIST_ITEM", "md_parent_section": "§OE.3 [Example 3]", "md_verbatim": "- The use of the NSV EVLDTC", "score": 1.0, "match_basis": "verbatim_token+domain_route:OE"}, {"md_atom_id": "md_dmOE_ex_a085", "md_file": "knowledge_base/domains/OE/examples.md", "md_atom_type": "LIST_ITEM", "md_parent_section": "§OE.4 [Example 4]", "md_verbatim": "- The use of the NSV OERESCRT, to describe the numeric scale", "score": 0.472, "match_basis": "verbatim_token+domain_route:OE"}, {"md_atom_id": "md_dmOE_ex_a019", "md_file": "knowledge_base/domains/OE/examples.md", "md_atom_type": "LIST_ITEM", "md_parent_section": "§OE.2 [Example 2]", "md_verbatim": "- The use of the supplemental qualifier non-standard variable (NSV) OEEDILST (Eye Dilation Status)", "score": 0.4346, "match_basis": "verbatim_token+domain_route:OE"}, {"md_atom_id": "md_dmOE_ex_a045", "md_file": "knowledge_base/domains/OE/examples.md", "md_atom_type": "LIST_ITEM", "md_parent_section": "§OE.3 [Example 3]", "md_verbatim": "- The relationship between the OE and PR domains in the RELREC dataset", "score": 0.4167, "match_basis": "verbatim_token+domain_route:OE"}, {"md_atom_id": "md_dmOE_ex_a044", "md_file": "knowledge_base/domains/OE/examples.md", "md_atom_type": "LIST_ITEM", "md_parent_section": "§OE.3 [Example 3]", "md_verbatim": "- The use of the Procedures (PR) domain to represent the optical coherence tomography (OCT) procedure details, with specific device characteristics in the DI domain", "score": 0.416, "match_basis": "verbatim_token+domain_route:OE"}], "candidate_count": 5, "zero_candidate": false}
{"pdf_atom_id": "ig34_p0303_a009", "pdf_atom_type": "LIST_ITEM", "pdf_source": "SDTMIG_v3.4", "pdf_page": 303, "pdf_parent_section": "§6.3.7.5 Ophthalmic Examinations (OE)", "pdf_verbatim": "The use of the Procedures (PR) domain to represent the optical coherence tomography (OCT) procedure details, with specific device characteristics in the DI domain", "figure_ref": null, "candidates": [{"md_atom_id": "md_dmOE_ex_a044", "md_file": "knowledge_base/domains/OE/examples.md", "md_atom_type": "LIST_ITEM", "md_parent_section": "§OE.3 [Example 3]", "md_verbatim": "- The use of the Procedures (PR) domain to represent the optical coherence tomography (OCT) procedure details, with specific device characteristics in the DI domain", "score": 1.0, "match_basis": "verbatim_token+domain_route:OE"}, {"md_atom_id": "md_dmOE_assn_a003", "md_file": "knowledge_base/domains/OE/assumptions.md", "md_atom_type": "LIST_ITEM", "md_parent_section": "§OE [OE — Assumptions]", "md_verbatim": "2. In any study that uses FOCID, FOCID would be included in records in any subject-level domain representing findings, interventions, or events (e.g., Adverse Events) related to the eyes. Whether or not FOCID is used in a study, --LOC and --LAT should be populated in records related to the eyes. The value in OELOC may be \"EYE\" but may also be a part of the eye (e.g., \"RETINA\", \"CORNEA\").", "score": 0.4559, "match_basis": "verbatim_token+domain_route:OE"}, {"md_atom_id": "md_dmOE_ex_a086", "md_file": "knowledge_base/domains/OE/examples.md", "md_atom_type": "LIST_ITEM", "md_parent_section": "§OE.4 [Example 4]", "md_verbatim": "- A subject who experienced an adverse event on the eye. The FOCID variable is included in the AE domain to allow the grouping of all ophthalmic observations.", "score": 0.4458, "match_basis": "verbatim_token+domain_route:OE"}, {"md_atom_id": "md_dmOE_assn_a002", "md_file": "knowledge_base/domains/OE/assumptions.md", "md_atom_type": "LIST_ITEM", "md_parent_section": "§OE [OE — Assumptions]", "md_verbatim": "1. In ophthalmic studies, the eyes are usually sites of treatment. It is appropriate to identify sites using the variable FOCID. When FOCID is used to identify the eyes, it is recommended that the values \"OD\" (oculus dexter, right eye), \"OS\" (oculus sinister, left eye), and \"OU\" (oculus uterque, both eyes) be used in FOCID. These terms are the exclusively preferred terms used by the ophthalmology community as abbreviations for the expanded Latin terms, and are included in the nonextensible CDISC Ophthalmic Focus of Study Specific Interest (OEFOCUS) codelist.", "score": 0.4443, "match_basis": "verbatim_token+domain_route:OE"}, {"md_atom_id": "md_dmOE_ex_a085", "md_file": "knowledge_base/domains/OE/examples.md", "md_atom_type": "LIST_ITEM", "md_parent_section": "§OE.4 [Example 4]", "md_verbatim": "- The use of the NSV OERESCRT, to describe the numeric scale", "score": 0.4424, "match_basis": "verbatim_token+domain_route:OE"}], "candidate_count": 5, "zero_candidate": false}
{"pdf_atom_id": "ig34_p0303_a010", "pdf_atom_type": "LIST_ITEM", "pdf_source": "SDTMIG_v3.4", "pdf_page": 303, "pdf_parent_section": "§6.3.7.5 Ophthalmic Examinations (OE)", "pdf_verbatim": "The relationship between the OE and PR domains in the RELREC dataset", "figure_ref": null, "candidates": [{"md_atom_id": "md_dmOE_ex_a045", "md_file": "knowledge_base/domains/OE/examples.md", "md_atom_type": "LIST_ITEM", "md_parent_section": "§OE.3 [Example 3]", "md_verbatim": "- The relationship between the OE and PR domains in the RELREC dataset", "score": 1.0, "match_basis": "verbatim_token+domain_route:OE"}, {"md_atom_id": "md_dmOE_ex_a077", "md_file": "knowledge_base/domains/OE/examples.md", "md_atom_type": "SENTENCE", "md_parent_section": "§OE.3 [Example 3]", "md_verbatim": "The many-to-one relationship between records in the PR and OE domains is described in RELREC.", "score": 0.6509, "match_basis": "verbatim_token+domain_route:OE"}, {"md_atom_id": "md_dmOE_assn_a003", "md_file": "knowledge_base/domains/OE/assumptions.md", "md_atom_type": "LIST_ITEM", "md_parent_section": "§OE [OE — Assumptions]", "md_verbatim": "2. In any study that uses FOCID, FOCID would be included in records in any subject-level domain representing findings, interventions, or events (e.g., Adverse Events) related to the eyes. Whether or not FOCID is used in a study, --LOC and --LAT should be populated in records related to the eyes. The value in OELOC may be \"EYE\" but may also be a part of the eye (e.g., \"RETINA\", \"CORNEA\").", "score": 0.4634, "match_basis": "verbatim_token+domain_route:OE"}, {"md_atom_id": "md_dmOE_ex_a086", "md_file": "knowledge_base/domains/OE/examples.md", "md_atom_type": "LIST_ITEM", "md_parent_section": "§OE.4 [Example 4]", "md_verbatim": "- A subject who experienced an adverse event on the eye. The FOCID variable is included in the AE domain to allow the grouping of all ophthalmic observations.", "score": 0.4587, "match_basis": "verbatim_token+domain_route:OE"}, {"md_atom_id": "md_dmOE_ex_a019", "md_file": "knowledge_base/domains/OE/examples.md", "md_atom_type": "LIST_ITEM", "md_parent_section": "§OE.2 [Example 2]", "md_verbatim": "- The use of the supplemental qualifier non-standard variable (NSV) OEEDILST (Eye Dilation Status)", "score": 0.45, "match_basis": "verbatim_token+domain_route:OE"}], "candidate_count": 5, "zero_candidate": false}
{"pdf_atom_id": "ig34_p0303_a011", "pdf_atom_type": "LIST_ITEM", "pdf_source": "SDTMIG_v3.4", "pdf_page": 303, "pdf_parent_section": "§6.3.7.5 Ophthalmic Examinations (OE)", "pdf_verbatim": "Rows 1-2: Represent the assessments performed by the investigator. OECLSIG represents the investigator's assessment of clinical significance. OEDTC represents the ophthalmoscopy exam date.", "figure_ref": null, "candidates": [{"md_atom_id": "md_dmOE_ex_a046", "md_file": "knowledge_base/domains/OE/examples.md", "md_atom_type": "SENTENCE", "md_parent_section": "§OE.3 [Example 3]", "md_verbatim": "**Rows 1-2:** Represent the assessments performed by the investigator. OECLSIG represents the investigator's assessment of clinical significance. OEDTC represents the ophthalmoscopy exam date.", "score": 0.91, "match_basis": "verbatim_token+domain_route:OE"}, {"md_atom_id": "md_dmOE_ex_a042", "md_file": "knowledge_base/domains/OE/examples.md", "md_atom_type": "LIST_ITEM", "md_parent_section": "§OE.3 [Example 3]", "md_verbatim": "- Partial results of the macula examination performed by the site investigator, as well as results provided by an independent assessor, for 1 visit", "score": 0.5368, "match_basis": "verbatim_token+domain_route:OE"}, {"md_atom_id": "md_dmOE_ex_a047", "md_file": "knowledge_base/domains/OE/examples.md", "md_atom_type": "SENTENCE", "md_parent_section": "§OE.3 [Example 3]", "md_verbatim": "**Rows 3-6:** Represent the assessments performed by an independent assessor. OEDTC represents the OCT image date.", "score": 0.5193, "match_basis": "verbatim_token+domain_route:OE"}, {"md_atom_id": "md_dmOE_ex_a018", "md_file": "knowledge_base/domains/OE/examples.md", "md_atom_type": "LIST_ITEM", "md_parent_section": "§OE.2 [Example 2]", "md_verbatim": "- Different assessments, from the front to the back of the eye, for 1 subject at 1 visit", "score": 0.4702, "match_basis": "verbatim_token+domain_route:OE"}, {"md_atom_id": "md_dmOE_ex_a044", "md_file": "knowledge_base/domains/OE/examples.md", "md_atom_type": "LIST_ITEM", "md_parent_section": "§OE.3 [Example 3]", "md_verbatim": "- The use of the Procedures (PR) domain to represent the optical coherence tomography (OCT) procedure details, with specific device characteristics in the DI domain", "score": 0.4651, "match_basis": "verbatim_token+domain_route:OE"}], "candidate_count": 5, "zero_candidate": false}
{"pdf_atom_id": "ig34_p0303_a012", "pdf_atom_type": "LIST_ITEM", "pdf_source": "SDTMIG_v3.4", "pdf_page": 303, "pdf_parent_section": "§6.3.7.5 Ophthalmic Examinations (OE)", "pdf_verbatim": "Rows 3-6: Represent the assessments performed by an independent assessor. OEDTC represents the OCT image date.", "figure_ref": null, "candidates": [{"md_atom_id": "md_dmOE_ex_a047", "md_file": "knowledge_base/domains/OE/examples.md", "md_atom_type": "SENTENCE", "md_parent_section": "§OE.3 [Example 3]", "md_verbatim": "**Rows 3-6:** Represent the assessments performed by an independent assessor. OEDTC represents the OCT image date.", "score": 0.91, "match_basis": "verbatim_token+domain_route:OE"}, {"md_atom_id": "md_dmOE_ex_a056", "md_file": "knowledge_base/domains/OE/examples.md", "md_atom_type": "SENTENCE", "md_parent_section": "§OE.3 [Example 3]", "md_verbatim": "The suppoe.xpt dataset represents the date the independent assessor performed the evaluation of the OCT image.", "score": 0.66, "match_basis": "verbatim_token+domain_route:OE"}, {"md_atom_id": "md_dmOE_ex_a042", "md_file": "knowledge_base/domains/OE/examples.md", "md_atom_type": "LIST_ITEM", "md_parent_section": "§OE.3 [Example 3]", "md_verbatim": "- Partial results of the macula examination performed by the site investigator, as well as results provided by an independent assessor, for 1 visit", "score": 0.5586, "match_basis": "verbatim_token+domain_route:OE"}, {"md_atom_id": "md_dmOE_ex_a046", "md_file": "knowledge_base/domains/OE/examples.md", "md_atom_type": "SENTENCE", "md_parent_section": "§OE.3 [Example 3]", "md_verbatim": "**Rows 1-2:** Represent the assessments performed by the investigator. OECLSIG represents the investigator's assessment of clinical significance. OEDTC represents the ophthalmoscopy exam date.", "score": 0.5193, "match_basis": "verbatim_token+domain_route:OE"}, {"md_atom_id": "md_dmOE_ex_a018", "md_file": "knowledge_base/domains/OE/examples.md", "md_atom_type": "LIST_ITEM", "md_parent_section": "§OE.2 [Example 2]", "md_verbatim": "- Different assessments, from the front to the back of the eye, for 1 subject at 1 visit", "score": 0.5031, "match_basis": "verbatim_token+domain_route:OE"}], "candidate_count": 5, "zero_candidate": false}
{"pdf_atom_id": "ig34_p0303_a013", "pdf_atom_type": "CODE_LITERAL", "pdf_source": "SDTMIG_v3.4", "pdf_page": 303, "pdf_parent_section": "§6.3.7.5 Ophthalmic Examinations (OE)", "pdf_verbatim": "oe.xpt", "figure_ref": null, "candidates": [{"md_atom_id": "md_dmOE_ex_a006", "md_file": "knowledge_base/domains/OE/examples.md", "md_atom_type": "SENTENCE", "md_parent_section": "§OE.1 [Example 1]", "md_verbatim": "**oe.xpt**", "score": 0.79, "match_basis": "verbatim_token+domain_route:OE"}, {"md_atom_id": "md_dmOE_ex_a025", "md_file": "knowledge_base/domains/OE/examples.md", "md_atom_type": "SENTENCE", "md_parent_section": "§OE.2 [Example 2]", "md_verbatim": "**oe.xpt**", "score": 0.79, "match_basis": "verbatim_token+domain_route:OE"}, {"md_atom_id": "md_dmOE_ex_a048", "md_file": "knowledge_base/domains/OE/examples.md", "md_atom_type": "SENTENCE", "md_parent_section": "§OE.3 [Example 3]", "md_verbatim": "**oe.xpt**", "score": 0.79, "match_basis": "verbatim_token+domain_route:OE"}, {"md_atom_id": "md_dmOE_ex_a063", "md_file": "knowledge_base/domains/OE/examples.md", "md_atom_type": "SENTENCE", "md_parent_section": "§OE.3 [Example 3]", "md_verbatim": "**pr.xpt**", "score": 0.79, "match_basis": "verbatim_token+domain_route:OE"}, {"md_atom_id": "md_dmOE_ex_a071", "md_file": "knowledge_base/domains/OE/examples.md", "md_atom_type": "SENTENCE", "md_parent_section": "§OE.3 [Example 3]", "md_verbatim": "**di.xpt**", "score": 0.79, "match_basis": "verbatim_token+domain_route:OE"}, {"md_atom_id": "md_dmOE_ex_a091", "md_file": "knowledge_base/domains/OE/examples.md", "md_atom_type": "SENTENCE", "md_parent_section": "§OE.4 [Example 4]", "md_verbatim": "**oe.xpt**", "score": 0.79, "match_basis": "verbatim_token+domain_route:OE"}, {"md_atom_id": "md_dmOE_ex_a012", "md_file": "knowledge_base/domains/OE/examples.md", "md_atom_type": "SENTENCE", "md_parent_section": "§OE.1 [Example 1]", "md_verbatim": "**suppoe.xpt**", "score": 0.31, "match_basis": "verbatim_token+domain_route:OE"}, {"md_atom_id": "md_dmOE_ex_a036", "md_file": "knowledge_base/domains/OE/examples.md", "md_atom_type": "SENTENCE", "md_parent_section": "§OE.2 [Example 2]", "md_verbatim": "**suppoe.xpt**", "score": 0.31, "match_basis": "verbatim_token+domain_route:OE"}, {"md_atom_id": "md_dmOE_ex_a057", "md_file": "knowledge_base/domains/OE/examples.md", "md_atom_type": "SENTENCE", "md_parent_section": "§OE.3 [Example 3]", "md_verbatim": "**suppoe.xpt**", "score": 0.31, "match_basis": "verbatim_token+domain_route:OE"}, {"md_atom_id": "md_dmOE_ex_a078", "md_file": "knowledge_base/domains/OE/examples.md", "md_atom_type": "SENTENCE", "md_parent_section": "§OE.3 [Example 3]", "md_verbatim": "**relrec.xpt**", "score": 0.31, "match_basis": "verbatim_token+domain_route:OE"}], "candidate_count": 10, "zero_candidate": false}
{"pdf_atom_id": "ig34_p0303_a014", "pdf_atom_type": "TABLE_HEADER", "pdf_source": "SDTMIG_v3.4", "pdf_page": 303, "pdf_parent_section": "§6.3.7.5 Ophthalmic Examinations (OE)", "pdf_verbatim": "| Row | STUDYID | DOMAIN | USUBJID | FOCID | OESEQ | OELNKID | OETESTCD | OETEST | OEORRES | OEORRESU | OESTRESC | OESTRESN | OESTRESU | OELOC | OELAT | OEMETHOD | OEEVAL | OECLSIG | VISITNUM | VISIT | OEDTC |", "figure_ref": null, "candidates": [{"md_atom_id": "md_dmOE_ex_a049", "md_file": "knowledge_base/domains/OE/examples.md", "md_atom_type": "TABLE_HEADER", "md_parent_section": "§OE.3 [Example 3]", "md_verbatim": "| Row | STUDYID | DOMAIN | USUBJID | FOCID | OESEQ | OELNKID | OETESTCD | OETEST | OEORRES | OEORRESU | OESTRESC | OESTRESN | OESTRESU | OELOC | OELAT | OEMETHOD | OEEVAL | OECLSIG | VISITNUM | VISIT | OEDTC |\n|-----|---------|--------|---------|-------|-------|---------|----------|--------|---------|----------|----------|----------|----------|-------|-------|----------|--------|---------|----------|-------|-------|", "score": 1.0, "match_basis": "verbatim_token+domain_route:OE"}, {"md_atom_id": "md_dmOE_ex_a026", "md_file": "knowledge_base/domains/OE/examples.md", "md_atom_type": "TABLE_HEADER", "md_parent_section": "§OE.2 [Example 2]", "md_verbatim": "| Row | STUDYID | DOMAIN | USUBJID | FOCID | OESEQ | OETESTCD | OETEST | OEORRES | OEORRESU | OESTRESC | OESTRESN | OESTRESU | OELOC | OELAT | OEMETHOD | OEEVAL | OECLSIG | VISITNUM | VISIT | OEDTC |\n|-----|---------|--------|---------|-------|-------|----------|--------|---------|----------|----------|----------|----------|-------|-------|----------|--------|---------|----------|-------|-------|", "score": 0.9657, "match_basis": "verbatim_token+domain_route:OE"}, {"md_atom_id": "md_dmOE_ex_a007", "md_file": "knowledge_base/domains/OE/examples.md", "md_atom_type": "TABLE_HEADER", "md_parent_section": "§OE.1 [Example 1]", "md_verbatim": "| Row | STUDYID | DOMAIN | USUBJID | FOCID | OESEQ | OETESTCD | OETEST | OEORRES | OESTRESC | OELOC | OELAT | OEDIR | OEMETHOD | OEEVAL | OECLSIG | VISITNUM | VISIT | OEDTC |\n|-----|---------|--------|---------|-------|-------|----------|--------|---------|----------|-------|-------|-------|----------|--------|---------|----------|-------|-------|", "score": 0.9333, "match_basis": "verbatim_token+domain_route:OE"}, {"md_atom_id": "md_dmOE_ex_a092", "md_file": "knowledge_base/domains/OE/examples.md", "md_atom_type": "TABLE_HEADER", "md_parent_section": "§OE.4 [Example 4]", "md_verbatim": "| Row | STUDYID | DOMAIN | USUBJID | FOCID | OESEQ | OETESTCD | OETEST | OECAT | OEORRES | OESTRESC | OESTRESN | OELOC | OELAT | OEMETHOD | OEEVAL | VISITNUM | VISIT | OEDTC | OETPT | OETPTNUM |\n|-----|---------|--------|---------|-------|-------|----------|--------|-------|---------|----------|----------|-------|-------|----------|--------|----------|-------|-------|-------|----------|", "score": 0.888, "match_basis": "verbatim_token+domain_route:OE"}, {"md_atom_id": "md_dmOE_ex_a064", "md_file": "knowledge_base/domains/OE/examples.md", "md_atom_type": "TABLE_HEADER", "md_parent_section": "§OE.3 [Example 3]", "md_verbatim": "| Row | STUDYID | DOMAIN | USUBJID | FOCID | SPDEVID | PRSEQ | PRLNKID | PRTRT | PRPRESP | PROCCUR | PRREASOC | PRLOC | PRLAT | PRSTDTC | VISITNUM | VISIT |\n|-----|---------|--------|---------|-------|---------|-------|---------|-------|---------|---------|----------|-------|-------|---------|----------|-------|", "score": 0.596, "match_basis": "verbatim_token+domain_route:OE"}], "candidate_count": 5, "zero_candidate": false}
{"pdf_atom_id": "ig34_p0303_a015", "pdf_atom_type": "TABLE_ROW", "pdf_source": "SDTMIG_v3.4", "pdf_page": 303, "pdf_parent_section": "§6.3.7.5 Ophthalmic Examinations (OE)", "pdf_verbatim": "| 1 | XYZ | OE | XYZ-100-001 | OD | 1 | | EDEMA | Edema | PRESENT | | PRESENT | | | MACULA | LEFT | OPHTHALMOSCOPY | | 1 | SCREENING | 2012-04-25 |", "figure_ref": null, "candidates": [{"md_atom_id": "md_dmOE_ex_a050", "md_file": "knowledge_base/domains/OE/examples.md", "md_atom_type": "TABLE_ROW", "md_parent_section": "§OE.3 [Example 3]", "md_verbatim": "| 1 | XYZ | OE | XYZ-100-001 | OS | 1 | | EDEMA | Edema | PRESENT | | PRESENT | | | MACULA | LEFT | OPHTHALMOSCOPY | INVESTIGATOR | N | 1 | SCREENING | 2012-04-25 |", "score": 0.875, "match_basis": "verbatim_token+domain_route:OE"}, {"md_atom_id": "md_dmOE_ex_a051", "md_file": "knowledge_base/domains/OE/examples.md", "md_atom_type": "TABLE_ROW", "md_parent_section": "§OE.3 [Example 3]", "md_verbatim": "| 2 | XYZ | OE | XYZ-100-001 | OD | 2 | | EDEMA | Edema | ABSENT | | ABSENT | | | MACULA | LEFT | OPHTHALMOSCOPY | INVESTIGATOR | | 1 | SCREENING | 2012-04-25 |", "score": 0.82, "match_basis": "verbatim_token+domain_route:OE"}, {"md_atom_id": "md_dmOE_ex_a034", "md_file": "knowledge_base/domains/OE/examples.md", "md_atom_type": "TABLE_ROW", "md_parent_section": "§OE.2 [Example 2]", "md_verbatim": "| 8 | XXX | OE | XXX-450-120 | OS | 8 | CUPDISC | Cup-to-Disc Ratio | 0.6 | RATIO | 0.6 | 0.6 | RATIO | OPTIC DISC | LEFT | OPHTHALMOSCOPY | INVESTIGATOR | | 1 | SCREENING | 2012-04-20 |", "score": 0.6226, "match_basis": "verbatim_token+domain_route:OE"}, {"md_atom_id": "md_dmOE_ex_a052", "md_file": "knowledge_base/domains/OE/examples.md", "md_atom_type": "TABLE_ROW", "md_parent_section": "§OE.3 [Example 3]", "md_verbatim": "| 3 | XYZ | OE | XYZ-100-001 | OS | 3 | 1 | EDEMA | Edema | PRESENT | | PRESENT | | | MACULA | LEFT | OPTICAL COHERENCE TOMOGRAPHY | INDEPENDENT ASSESSOR | | 1 | SCREENING | 2012-04-25 |", "score": 0.6197, "match_basis": "verbatim_token+domain_route:OE"}, {"md_atom_id": "md_dmOE_ex_a031", "md_file": "knowledge_base/domains/OE/examples.md", "md_atom_type": "TABLE_ROW", "md_parent_section": "§OE.2 [Example 2]", "md_verbatim": "| 5 | XXX | OE | XXX-450-120 | OD | 5 | HYPERMIA | Hyperemia | PRESENT | | PRESENT | | | CONJUNCTIVA | RIGHT | OPHTHALMOSCOPY | INVESTIGATOR | Y | 1 | SCREENING | 2012-04-20 |", "score": 0.6167, "match_basis": "verbatim_token+domain_route:OE"}], "candidate_count": 5, "zero_candidate": false}
{"pdf_atom_id": "ig34_p0303_a016", "pdf_atom_type": "TABLE_ROW", "pdf_source": "SDTMIG_v3.4", "pdf_page": 303, "pdf_parent_section": "§6.3.7.5 Ophthalmic Examinations (OE)", "pdf_verbatim": "| 2 | XYZ | OE | XYZ-100-001 | OD | 2 | | EDEMA | Edema | ABSENT | | ABSENT | | | MACULA | RIGHT | OPTICAL COHERENCE TOMOGRAPHY | | N | | 1 | SCREENING | 2012-04-25 |", "figure_ref": null, "candidates": [{"md_atom_id": "md_dmOE_ex_a053", "md_file": "knowledge_base/domains/OE/examples.md", "md_atom_type": "TABLE_ROW", "md_parent_section": "§OE.3 [Example 3]", "md_verbatim": "| 4 | XYZ | OE | XYZ-100-001 | OD | 4 | 2 | EDEMA | Edema | ABSENT | | ABSENT | | | MACULA | RIGHT | OPTICAL COHERENCE TOMOGRAPHY | INDEPENDENT ASSESSOR | | 1 | SCREENING | 2012-04-25 |", "score": 0.8678, "match_basis": "verbatim_token+domain_route:OE"}, {"md_atom_id": "md_dmOE_ex_a052", "md_file": "knowledge_base/domains/OE/examples.md", "md_atom_type": "TABLE_ROW", "md_parent_section": "§OE.3 [Example 3]", "md_verbatim": "| 3 | XYZ | OE | XYZ-100-001 | OS | 3 | 1 | EDEMA | Edema | PRESENT | | PRESENT | | | MACULA | LEFT | OPTICAL COHERENCE TOMOGRAPHY | INDEPENDENT ASSESSOR | | 1 | SCREENING | 2012-04-25 |", "score": 0.7844, "match_basis": "verbatim_token+domain_route:OE"}, {"md_atom_id": "md_dmOE_ex_a055", "md_file": "knowledge_base/domains/OE/examples.md", "md_atom_type": "TABLE_ROW", "md_parent_section": "§OE.3 [Example 3]", "md_verbatim": "| 6 | XYZ | OE | XYZ-100-001 | OD | 6 | 2 | THICK | Thickness | 1005 | um | 1005 | 1005 | um | MACULA | RIGHT | OPTICAL COHERENCE TOMOGRAPHY | INDEPENDENT ASSESSOR | | 1 | SCREENING | 2012-04-25 |", "score": 0.7636, "match_basis": "verbatim_token+domain_route:OE"}, {"md_atom_id": "md_dmOE_ex_a054", "md_file": "knowledge_base/domains/OE/examples.md", "md_atom_type": "TABLE_ROW", "md_parent_section": "§OE.3 [Example 3]", "md_verbatim": "| 5 | XYZ | OE | XYZ-100-001 | OS | 5 | 1 | THICK | Thickness | 1030 | um | 1030 | 1030 | um | MACULA | LEFT | OPTICAL COHERENCE TOMOGRAPHY | INDEPENDENT ASSESSOR | | 1 | SCREENING | 2012-04-25 |", "score": 0.7217, "match_basis": "verbatim_token+domain_route:OE"}, {"md_atom_id": "md_dmOE_ex_a051", "md_file": "knowledge_base/domains/OE/examples.md", "md_atom_type": "TABLE_ROW", "md_parent_section": "§OE.3 [Example 3]", "md_verbatim": "| 2 | XYZ | OE | XYZ-100-001 | OD | 2 | | EDEMA | Edema | ABSENT | | ABSENT | | | MACULA | LEFT | OPHTHALMOSCOPY | INVESTIGATOR | | 1 | SCREENING | 2012-04-25 |", "score": 0.5971, "match_basis": "verbatim_token+domain_route:OE"}], "candidate_count": 5, "zero_candidate": false}
{"pdf_atom_id": "ig34_p0303_a017", "pdf_atom_type": "TABLE_ROW", "pdf_source": "SDTMIG_v3.4", "pdf_page": 303, "pdf_parent_section": "§6.3.7.5 Ophthalmic Examinations (OE)", "pdf_verbatim": "| 3 | XYZ | OE | XYZ-100-001 | OS | 3 | 1 | EDEMA | Edema | PRESENT | | PRESENT | | | MACULA | LEFT | OPTICAL COHERENCE TOMOGRAPHY | | 1 | SCREENING | 2012-04-25 |", "figure_ref": null, "candidates": [{"md_atom_id": "md_dmOE_ex_a052", "md_file": "knowledge_base/domains/OE/examples.md", "md_atom_type": "TABLE_ROW", "md_parent_section": "§OE.3 [Example 3]", "md_verbatim": "| 3 | XYZ | OE | XYZ-100-001 | OS | 3 | 1 | EDEMA | Edema | PRESENT | | PRESENT | | | MACULA | LEFT | OPTICAL COHERENCE TOMOGRAPHY | INDEPENDENT ASSESSOR | | 1 | SCREENING | 2012-04-25 |", "score": 0.8678, "match_basis": "verbatim_token+domain_route:OE"}, {"md_atom_id": "md_dmOE_ex_a053", "md_file": "knowledge_base/domains/OE/examples.md", "md_atom_type": "TABLE_ROW", "md_parent_section": "§OE.3 [Example 3]", "md_verbatim": "| 4 | XYZ | OE | XYZ-100-001 | OD | 4 | 2 | EDEMA | Edema | ABSENT | | ABSENT | | | MACULA | RIGHT | OPTICAL COHERENCE TOMOGRAPHY | INDEPENDENT ASSESSOR | | 1 | SCREENING | 2012-04-25 |", "score": 0.7844, "match_basis": "verbatim_token+domain_route:OE"}, {"md_atom_id": "md_dmOE_ex_a054", "md_file": "knowledge_base/domains/OE/examples.md", "md_atom_type": "TABLE_ROW", "md_parent_section": "§OE.3 [Example 3]", "md_verbatim": "| 5 | XYZ | OE | XYZ-100-001 | OS | 5 | 1 | THICK | Thickness | 1030 | um | 1030 | 1030 | um | MACULA | LEFT | OPTICAL COHERENCE TOMOGRAPHY | INDEPENDENT ASSESSOR | | 1 | SCREENING | 2012-04-25 |", "score": 0.7493, "match_basis": "verbatim_token+domain_route:OE"}, {"md_atom_id": "md_dmOE_ex_a055", "md_file": "knowledge_base/domains/OE/examples.md", "md_atom_type": "TABLE_ROW", "md_parent_section": "§OE.3 [Example 3]", "md_verbatim": "| 6 | XYZ | OE | XYZ-100-001 | OD | 6 | 2 | THICK | Thickness | 1005 | um | 1005 | 1005 | um | MACULA | RIGHT | OPTICAL COHERENCE TOMOGRAPHY | INDEPENDENT ASSESSOR | | 1 | SCREENING | 2012-04-25 |", "score": 0.7217, "match_basis": "verbatim_token+domain_route:OE"}, {"md_atom_id": "md_dmOE_ex_a050", "md_file": "knowledge_base/domains/OE/examples.md", "md_atom_type": "TABLE_ROW", "md_parent_section": "§OE.3 [Example 3]", "md_verbatim": "| 1 | XYZ | OE | XYZ-100-001 | OS | 1 | | EDEMA | Edema | PRESENT | | PRESENT | | | MACULA | LEFT | OPHTHALMOSCOPY | INVESTIGATOR | N | 1 | SCREENING | 2012-04-25 |", "score": 0.6294, "match_basis": "verbatim_token+domain_route:OE"}], "candidate_count": 5, "zero_candidate": false}
{"pdf_atom_id": "ig34_p0303_a018", "pdf_atom_type": "TABLE_ROW", "pdf_source": "SDTMIG_v3.4", "pdf_page": 303, "pdf_parent_section": "§6.3.7.5 Ophthalmic Examinations (OE)", "pdf_verbatim": "| 4 | XYZ | OE | XYZ-100-001 | OD | 4 | 2 | EDEMA | Edema | ABSENT | | ABSENT | | | MACULA | RIGHT | OPTICAL COHERENCE TOMOGRAPHY | | 1 | SCREENING | 2012-04-25 |", "figure_ref": null, "candidates": [{"md_atom_id": "md_dmOE_ex_a053", "md_file": "knowledge_base/domains/OE/examples.md", "md_atom_type": "TABLE_ROW", "md_parent_section": "§OE.3 [Example 3]", "md_verbatim": "| 4 | XYZ | OE | XYZ-100-001 | OD | 4 | 2 | EDEMA | Edema | ABSENT | | ABSENT | | | MACULA | RIGHT | OPTICAL COHERENCE TOMOGRAPHY | INDEPENDENT ASSESSOR | | 1 | SCREENING | 2012-04-25 |", "score": 0.8678, "match_basis": "verbatim_token+domain_route:OE"}, {"md_atom_id": "md_dmOE_ex_a052", "md_file": "knowledge_base/domains/OE/examples.md", "md_atom_type": "TABLE_ROW", "md_parent_section": "§OE.3 [Example 3]", "md_verbatim": "| 3 | XYZ | OE | XYZ-100-001 | OS | 3 | 1 | EDEMA | Edema | PRESENT | | PRESENT | | | MACULA | LEFT | OPTICAL COHERENCE TOMOGRAPHY | INDEPENDENT ASSESSOR | | 1 | SCREENING | 2012-04-25 |", "score": 0.7844, "match_basis": "verbatim_token+domain_route:OE"}, {"md_atom_id": "md_dmOE_ex_a055", "md_file": "knowledge_base/domains/OE/examples.md", "md_atom_type": "TABLE_ROW", "md_parent_section": "§OE.3 [Example 3]", "md_verbatim": "| 6 | XYZ | OE | XYZ-100-001 | OD | 6 | 2 | THICK | Thickness | 1005 | um | 1005 | 1005 | um | MACULA | RIGHT | OPTICAL COHERENCE TOMOGRAPHY | INDEPENDENT ASSESSOR | | 1 | SCREENING | 2012-04-25 |", "score": 0.7636, "match_basis": "verbatim_token+domain_route:OE"}, {"md_atom_id": "md_dmOE_ex_a054", "md_file": "knowledge_base/domains/OE/examples.md", "md_atom_type": "TABLE_ROW", "md_parent_section": "§OE.3 [Example 3]", "md_verbatim": "| 5 | XYZ | OE | XYZ-100-001 | OS | 5 | 1 | THICK | Thickness | 1030 | um | 1030 | 1030 | um | MACULA | LEFT | OPTICAL COHERENCE TOMOGRAPHY | INDEPENDENT ASSESSOR | | 1 | SCREENING | 2012-04-25 |", "score": 0.7217, "match_basis": "verbatim_token+domain_route:OE"}, {"md_atom_id": "md_dmOE_ex_a051", "md_file": "knowledge_base/domains/OE/examples.md", "md_atom_type": "TABLE_ROW", "md_parent_section": "§OE.3 [Example 3]", "md_verbatim": "| 2 | XYZ | OE | XYZ-100-001 | OD | 2 | | EDEMA | Edema | ABSENT | | ABSENT | | | MACULA | LEFT | OPHTHALMOSCOPY | INVESTIGATOR | | 1 | SCREENING | 2012-04-25 |", "score": 0.5971, "match_basis": "verbatim_token+domain_route:OE"}], "candidate_count": 5, "zero_candidate": false}
{"pdf_atom_id": "ig34_p0303_a019", "pdf_atom_type": "TABLE_ROW", "pdf_source": "SDTMIG_v3.4", "pdf_page": 303, "pdf_parent_section": "§6.3.7.5 Ophthalmic Examinations (OE)", "pdf_verbatim": "| 5 | XYZ | OE | XYZ-100-001 | OS | 5 | | THICK | Thickness | 1030 | um | 1030 | 1030 | um | MACULA | LEFT | OPTICAL COHERENCE TOMOGRAPHY | | 1 | SCREENING | 2012-04-25 |", "figure_ref": null, "candidates": [{"md_atom_id": "md_dmOE_ex_a054", "md_file": "knowledge_base/domains/OE/examples.md", "md_atom_type": "TABLE_ROW", "md_parent_section": "§OE.3 [Example 3]", "md_verbatim": "| 5 | XYZ | OE | XYZ-100-001 | OS | 5 | 1 | THICK | Thickness | 1030 | um | 1030 | 1030 | um | MACULA | LEFT | OPTICAL COHERENCE TOMOGRAPHY | INDEPENDENT ASSESSOR | | 1 | SCREENING | 2012-04-25 |", "score": 0.87, "match_basis": "verbatim_token+domain_route:OE"}, {"md_atom_id": "md_dmOE_ex_a055", "md_file": "knowledge_base/domains/OE/examples.md", "md_atom_type": "TABLE_ROW", "md_parent_section": "§OE.3 [Example 3]", "md_verbatim": "| 6 | XYZ | OE | XYZ-100-001 | OD | 6 | 2 | THICK | Thickness | 1005 | um | 1005 | 1005 | um | MACULA | RIGHT | OPTICAL COHERENCE TOMOGRAPHY | INDEPENDENT ASSESSOR | | 1 | SCREENING | 2012-04-25 |", "score": 0.8031, "match_basis": "verbatim_token+domain_route:OE"}, {"md_atom_id": "md_dmOE_ex_a052", "md_file": "knowledge_base/domains/OE/examples.md", "md_atom_type": "TABLE_ROW", "md_parent_section": "§OE.3 [Example 3]", "md_verbatim": "| 3 | XYZ | OE | XYZ-100-001 | OS | 3 | 1 | EDEMA | Edema | PRESENT | | PRESENT | | | MACULA | LEFT | OPTICAL COHERENCE TOMOGRAPHY | INDEPENDENT ASSESSOR | | 1 | SCREENING | 2012-04-25 |", "score": 0.7493, "match_basis": "verbatim_token+domain_route:OE"}, {"md_atom_id": "md_dmOE_ex_a053", "md_file": "knowledge_base/domains/OE/examples.md", "md_atom_type": "TABLE_ROW", "md_parent_section": "§OE.3 [Example 3]", "md_verbatim": "| 4 | XYZ | OE | XYZ-100-001 | OD | 4 | 2 | EDEMA | Edema | ABSENT | | ABSENT | | | MACULA | RIGHT | OPTICAL COHERENCE TOMOGRAPHY | INDEPENDENT ASSESSOR | | 1 | SCREENING | 2012-04-25 |", "score": 0.7217, "match_basis": "verbatim_token+domain_route:OE"}, {"md_atom_id": "md_dmOE_ex_a065", "md_file": "knowledge_base/domains/OE/examples.md", "md_atom_type": "TABLE_ROW", "md_parent_section": "§OE.3 [Example 3]", "md_verbatim": "| 1 | XYZ | PR | XYZ-100-001 | OS | 100 | 1 | 1 | OCT | Y | Y | | EYE | LEFT | 2012-04-25T09:30:00 | 1 | SCREENING |", "score": 0.5615, "match_basis": "verbatim_token+domain_route:OE"}], "candidate_count": 5, "zero_candidate": false}
{"pdf_atom_id": "ig34_p0303_a020", "pdf_atom_type": "TABLE_ROW", "pdf_source": "SDTMIG_v3.4", "pdf_page": 303, "pdf_parent_section": "§6.3.7.5 Ophthalmic Examinations (OE)", "pdf_verbatim": "| 6 | XYZ | OE | XYZ-100-001 | OD | 6 | | THICK | Thickness | 1005 | um | 1005 | 1005 | um | MACULA | RIGHT | OPTICAL COHERENCE TOMOGRAPHY | | 1 | SCREENING | 2012-04-25 |", "figure_ref": null, "candidates": [{"md_atom_id": "md_dmOE_ex_a055", "md_file": "knowledge_base/domains/OE/examples.md", "md_atom_type": "TABLE_ROW", "md_parent_section": "§OE.3 [Example 3]", "md_verbatim": "| 6 | XYZ | OE | XYZ-100-001 | OD | 6 | 2 | THICK | Thickness | 1005 | um | 1005 | 1005 | um | MACULA | RIGHT | OPTICAL COHERENCE TOMOGRAPHY | INDEPENDENT ASSESSOR | | 1 | SCREENING | 2012-04-25 |", "score": 0.87, "match_basis": "verbatim_token+domain_route:OE"}, {"md_atom_id": "md_dmOE_ex_a054", "md_file": "knowledge_base/domains/OE/examples.md", "md_atom_type": "TABLE_ROW", "md_parent_section": "§OE.3 [Example 3]", "md_verbatim": "| 5 | XYZ | OE | XYZ-100-001 | OS | 5 | 1 | THICK | Thickness | 1030 | um | 1030 | 1030 | um | MACULA | LEFT | OPTICAL COHERENCE TOMOGRAPHY | INDEPENDENT ASSESSOR | | 1 | SCREENING | 2012-04-25 |", "score": 0.8031, "match_basis": "verbatim_token+domain_route:OE"}, {"md_atom_id": "md_dmOE_ex_a053", "md_file": "knowledge_base/domains/OE/examples.md", "md_atom_type": "TABLE_ROW", "md_parent_section": "§OE.3 [Example 3]", "md_verbatim": "| 4 | XYZ | OE | XYZ-100-001 | OD | 4 | 2 | EDEMA | Edema | ABSENT | | ABSENT | | | MACULA | RIGHT | OPTICAL COHERENCE TOMOGRAPHY | INDEPENDENT ASSESSOR | | 1 | SCREENING | 2012-04-25 |", "score": 0.7636, "match_basis": "verbatim_token+domain_route:OE"}, {"md_atom_id": "md_dmOE_ex_a052", "md_file": "knowledge_base/domains/OE/examples.md", "md_atom_type": "TABLE_ROW", "md_parent_section": "§OE.3 [Example 3]", "md_verbatim": "| 3 | XYZ | OE | XYZ-100-001 | OS | 3 | 1 | EDEMA | Edema | PRESENT | | PRESENT | | | MACULA | LEFT | OPTICAL COHERENCE TOMOGRAPHY | INDEPENDENT ASSESSOR | | 1 | SCREENING | 2012-04-25 |", "score": 0.7217, "match_basis": "verbatim_token+domain_route:OE"}, {"md_atom_id": "md_dmOE_ex_a066", "md_file": "knowledge_base/domains/OE/examples.md", "md_atom_type": "TABLE_ROW", "md_parent_section": "§OE.3 [Example 3]", "md_verbatim": "| 2 | XYZ | PR | XYZ-100-001 | OD | 100 | 2 | 2 | OCT | Y | Y | | EYE | RIGHT | 2012-04-25T10:10:00 | 1 | SCREENING |", "score": 0.5731, "match_basis": "verbatim_token+domain_route:OE"}], "candidate_count": 5, "zero_candidate": false}
{"pdf_atom_id": "ig34_p0303_a021", "pdf_atom_type": "CODE_LITERAL", "pdf_source": "SDTMIG_v3.4", "pdf_page": 303, "pdf_parent_section": "§6.3.7.5 Ophthalmic Examinations (OE)", "pdf_verbatim": "suppoe.xpt", "figure_ref": null, "candidates": [{"md_atom_id": "md_dmOE_ex_a012", "md_file": "knowledge_base/domains/OE/examples.md", "md_atom_type": "SENTENCE", "md_parent_section": "§OE.1 [Example 1]", "md_verbatim": "**suppoe.xpt**", "score": 0.79, "match_basis": "verbatim_token+domain_route:OE"}, {"md_atom_id": "md_dmOE_ex_a036", "md_file": "knowledge_base/domains/OE/examples.md", "md_atom_type": "SENTENCE", "md_parent_section": "§OE.2 [Example 2]", "md_verbatim": "**suppoe.xpt**", "score": 0.79, "match_basis": "verbatim_token+domain_route:OE"}, {"md_atom_id": "md_dmOE_ex_a057", "md_file": "knowledge_base/domains/OE/examples.md", "md_atom_type": "SENTENCE", "md_parent_section": "§OE.3 [Example 3]", "md_verbatim": "**suppoe.xpt**", "score": 0.79, "match_basis": "verbatim_token+domain_route:OE"}, {"md_atom_id": "md_dmOE_ex_a098", "md_file": "knowledge_base/domains/OE/examples.md", "md_atom_type": "SENTENCE", "md_parent_section": "§OE.4 [Example 4]", "md_verbatim": "**suppoe.xpt**", "score": 0.79, "match_basis": "verbatim_token+domain_route:OE"}, {"md_atom_id": "md_dmOE_ex_a006", "md_file": "knowledge_base/domains/OE/examples.md", "md_atom_type": "SENTENCE", "md_parent_section": "§OE.1 [Example 1]", "md_verbatim": "**oe.xpt**", "score": 0.31, "match_basis": "verbatim_token+domain_route:OE"}, {"md_atom_id": "md_dmOE_ex_a025", "md_file": "knowledge_base/domains/OE/examples.md", "md_atom_type": "SENTENCE", "md_parent_section": "§OE.2 [Example 2]", "md_verbatim": "**oe.xpt**", "score": 0.31, "match_basis": "verbatim_token+domain_route:OE"}, {"md_atom_id": "md_dmOE_ex_a048", "md_file": "knowledge_base/domains/OE/examples.md", "md_atom_type": "SENTENCE", "md_parent_section": "§OE.3 [Example 3]", "md_verbatim": "**oe.xpt**", "score": 0.31, "match_basis": "verbatim_token+domain_route:OE"}, {"md_atom_id": "md_dmOE_ex_a063", "md_file": "knowledge_base/domains/OE/examples.md", "md_atom_type": "SENTENCE", "md_parent_section": "§OE.3 [Example 3]", "md_verbatim": "**pr.xpt**", "score": 0.31, "match_basis": "verbatim_token+domain_route:OE"}, {"md_atom_id": "md_dmOE_ex_a071", "md_file": "knowledge_base/domains/OE/examples.md", "md_atom_type": "SENTENCE", "md_parent_section": "§OE.3 [Example 3]", "md_verbatim": "**di.xpt**", "score": 0.31, "match_basis": "verbatim_token+domain_route:OE"}, {"md_atom_id": "md_dmOE_ex_a091", "md_file": "knowledge_base/domains/OE/examples.md", "md_atom_type": "SENTENCE", "md_parent_section": "§OE.4 [Example 4]", "md_verbatim": "**oe.xpt**", "score": 0.31, "match_basis": "verbatim_token+domain_route:OE"}], "candidate_count": 10, "zero_candidate": false}
{"pdf_atom_id": "ig34_p0303_a022", "pdf_atom_type": "TABLE_HEADER", "pdf_source": "SDTMIG_v3.4", "pdf_page": 303, "pdf_parent_section": "§6.3.7.5 Ophthalmic Examinations (OE)", "pdf_verbatim": "| Row | STUDYID | RDOMAIN | USUBJID | IDVAR | IDVARVAL | QNAM | QLABEL | QVAL |", "figure_ref": null, "candidates": [{"md_atom_id": "md_dmOE_ex_a013", "md_file": "knowledge_base/domains/OE/examples.md", "md_atom_type": "TABLE_HEADER", "md_parent_section": "§OE.1 [Example 1]", "md_verbatim": "| Row | STUDYID | RDOMAIN | USUBJID | IDVAR | IDVARVAL | QNAM | QLABEL | QVAL |\n|-----|---------|---------|---------|-------|----------|------|--------|------|", "score": 1.0, "match_basis": "verbatim_token+domain_route:OE"}, {"md_atom_id": "md_dmOE_ex_a037", "md_file": "knowledge_base/domains/OE/examples.md", "md_atom_type": "TABLE_HEADER", "md_parent_section": "§OE.2 [Example 2]", "md_verbatim": "| Row | STUDYID | RDOMAIN | USUBJID | IDVAR | IDVARVAL | QNAM | QLABEL | QVAL |\n|-----|---------|---------|---------|-------|----------|------|--------|------|", "score": 1.0, "match_basis": "verbatim_token+domain_route:OE"}, {"md_atom_id": "md_dmOE_ex_a058", "md_file": "knowledge_base/domains/OE/examples.md", "md_atom_type": "TABLE_HEADER", "md_parent_section": "§OE.3 [Example 3]", "md_verbatim": "| Row | STUDYID | RDOMAIN | USUBJID | IDVAR | IDVARVAL | QNAM | QLABEL | QVAL |\n|-----|---------|---------|---------|-------|----------|------|--------|------|", "score": 1.0, "match_basis": "verbatim_token+domain_route:OE"}, {"md_atom_id": "md_dmOE_ex_a099", "md_file": "knowledge_base/domains/OE/examples.md", "md_atom_type": "TABLE_HEADER", "md_parent_section": "§OE.4 [Example 4]", "md_verbatim": "| Row | STUDYID | RDOMAIN | USUBJID | IDVAR | IDVARVAL | QNAM | QLABEL | QVAL |\n|-----|---------|---------|---------|-------|----------|------|--------|------|", "score": 1.0, "match_basis": "verbatim_token+domain_route:OE"}, {"md_atom_id": "md_dmOE_ex_a079", "md_file": "knowledge_base/domains/OE/examples.md", "md_atom_type": "TABLE_HEADER", "md_parent_section": "§OE.3 [Example 3]", "md_verbatim": "| Row | STUDYID | RDOMAIN | USUBJID | IDVAR | IDVARVAL | RELTYPE | RELID |\n|-----|---------|---------|---------|-------|----------|---------|-------|", "score": 0.7667, "match_basis": "verbatim_token+domain_route:OE"}], "candidate_count": 5, "zero_candidate": false}
{"pdf_atom_id": "ig34_p0303_a023", "pdf_atom_type": "TABLE_ROW", "pdf_source": "SDTMIG_v3.4", "pdf_page": 303, "pdf_parent_section": "§6.3.7.5 Ophthalmic Examinations (OE)", "pdf_verbatim": "| 1 | XYZ | OE | XYZ-100-001 | OELNKID | 1 | OEEVLDTC | Evaluation Date | 2012-04-30 |", "figure_ref": null, "candidates": [{"md_atom_id": "md_dmOE_ex_a059", "md_file": "knowledge_base/domains/OE/examples.md", "md_atom_type": "TABLE_ROW", "md_parent_section": "§OE.3 [Example 3]", "md_verbatim": "| 1 | XYZ | OE | XYZ-100-001 | OELNKID | 1 | OEEVLDTC | Evaluation Date | 2012-04-30 |", "score": 1.0, "match_basis": "verbatim_token+domain_route:OE"}, {"md_atom_id": "md_dmOE_ex_a060", "md_file": "knowledge_base/domains/OE/examples.md", "md_atom_type": "TABLE_ROW", "md_parent_section": "§OE.3 [Example 3]", "md_verbatim": "| 2 | XYZ | OE | XYZ-100-001 | OELNKID | 2 | OEEVLDTC | Evaluation Date | 2012-04-30 |", "score": 1.0, "match_basis": "verbatim_token+domain_route:OE"}, {"md_atom_id": "md_dmOE_ex_a081", "md_file": "knowledge_base/domains/OE/examples.md", "md_atom_type": "TABLE_ROW", "md_parent_section": "§OE.3 [Example 3]", "md_verbatim": "| 2 | XYZ | OE | | OELNKID | | MANY | 13 |", "score": 0.5286, "match_basis": "verbatim_token+domain_route:OE"}, {"md_atom_id": "md_dmOE_ex_a067", "md_file": "knowledge_base/domains/OE/examples.md", "md_atom_type": "TABLE_ROW", "md_parent_section": "§OE.3 [Example 3]", "md_verbatim": "| 3 | XYZ | PR | XYZ-100-001 | OS | 100 | 3 | 3 | OCT | Y | Y | | EYE | LEFT | 2012-05-25T08:30:00 | 2 | VISIT 1 |", "score": 0.4833, "match_basis": "verbatim_token+domain_route:OE"}, {"md_atom_id": "md_dmOE_ex_a080", "md_file": "knowledge_base/domains/OE/examples.md", "md_atom_type": "TABLE_ROW", "md_parent_section": "§OE.3 [Example 3]", "md_verbatim": "| 1 | XYZ | PR | | PRLNKID | | ONE | 13 |", "score": 0.4828, "match_basis": "verbatim_token+domain_route:OE"}], "candidate_count": 5, "zero_candidate": false}
{"pdf_atom_id": "ig34_p0303_a024", "pdf_atom_type": "TABLE_ROW", "pdf_source": "SDTMIG_v3.4", "pdf_page": 303, "pdf_parent_section": "§6.3.7.5 Ophthalmic Examinations (OE)", "pdf_verbatim": "| 2 | XYZ | OE | XYZ-100-001 | OELNKID | 2 | OEEVLDTC | Evaluation Date | 2012-04-30 |", "figure_ref": null, "candidates": [{"md_atom_id": "md_dmOE_ex_a059", "md_file": "knowledge_base/domains/OE/examples.md", "md_atom_type": "TABLE_ROW", "md_parent_section": "§OE.3 [Example 3]", "md_verbatim": "| 1 | XYZ | OE | XYZ-100-001 | OELNKID | 1 | OEEVLDTC | Evaluation Date | 2012-04-30 |", "score": 1.0, "match_basis": "verbatim_token+domain_route:OE"}, {"md_atom_id": "md_dmOE_ex_a060", "md_file": "knowledge_base/domains/OE/examples.md", "md_atom_type": "TABLE_ROW", "md_parent_section": "§OE.3 [Example 3]", "md_verbatim": "| 2 | XYZ | OE | XYZ-100-001 | OELNKID | 2 | OEEVLDTC | Evaluation Date | 2012-04-30 |", "score": 1.0, "match_basis": "verbatim_token+domain_route:OE"}, {"md_atom_id": "md_dmOE_ex_a081", "md_file": "knowledge_base/domains/OE/examples.md", "md_atom_type": "TABLE_ROW", "md_parent_section": "§OE.3 [Example 3]", "md_verbatim": "| 2 | XYZ | OE | | OELNKID | | MANY | 13 |", "score": 0.5286, "match_basis": "verbatim_token+domain_route:OE"}, {"md_atom_id": "md_dmOE_ex_a067", "md_file": "knowledge_base/domains/OE/examples.md", "md_atom_type": "TABLE_ROW", "md_parent_section": "§OE.3 [Example 3]", "md_verbatim": "| 3 | XYZ | PR | XYZ-100-001 | OS | 100 | 3 | 3 | OCT | Y | Y | | EYE | LEFT | 2012-05-25T08:30:00 | 2 | VISIT 1 |", "score": 0.4833, "match_basis": "verbatim_token+domain_route:OE"}, {"md_atom_id": "md_dmOE_ex_a080", "md_file": "knowledge_base/domains/OE/examples.md", "md_atom_type": "TABLE_ROW", "md_parent_section": "§OE.3 [Example 3]", "md_verbatim": "| 1 | XYZ | PR | | PRLNKID | | ONE | 13 |", "score": 0.4828, "match_basis": "verbatim_token+domain_route:OE"}], "candidate_count": 5, "zero_candidate": false}
{"pdf_atom_id": "ig34_p0303_a025", "pdf_atom_type": "LIST_ITEM", "pdf_source": "SDTMIG_v3.4", "pdf_page": 303, "pdf_parent_section": "§6.3.7.5 Ophthalmic Examinations (OE)", "pdf_verbatim": "Rows 1-4: Represent OCT procedures performed at screening and visit 1 on the right and left eyes. SPDEVID identifies the device used in performing these tests.", "figure_ref": null, "candidates": [{"md_atom_id": "md_dmOE_ex_a061", "md_file": "knowledge_base/domains/OE/examples.md", "md_atom_type": "SENTENCE", "md_parent_section": "§OE.3 [Example 3]", "md_verbatim": "**Rows 1-4:** Represent OCT procedures performed at screening and visit 1 on the right and left eyes. SPDEVID identifies the device used in performing these tests.", "score": 0.91, "match_basis": "verbatim_token+domain_route:OE"}, {"md_atom_id": "md_dmOE_ex_a044", "md_file": "knowledge_base/domains/OE/examples.md", "md_atom_type": "LIST_ITEM", "md_parent_section": "§OE.3 [Example 3]", "md_verbatim": "- The use of the Procedures (PR) domain to represent the optical coherence tomography (OCT) procedure details, with specific device characteristics in the DI domain", "score": 0.5168, "match_basis": "verbatim_token+domain_route:OE"}, {"md_atom_id": "md_dmOE_ex_a062", "md_file": "knowledge_base/domains/OE/examples.md", "md_atom_type": "SENTENCE", "md_parent_section": "§OE.3 [Example 3]", "md_verbatim": "**Row 5:** Indicates that an OCT procedure was not performed at visit 2. The reason the procedure was not performed was collected and is represented in PRREASOC.", "score": 0.5033, "match_basis": "verbatim_token+domain_route:OE"}, {"md_atom_id": "md_dmOE_ex_a042", "md_file": "knowledge_base/domains/OE/examples.md", "md_atom_type": "LIST_ITEM", "md_parent_section": "§OE.3 [Example 3]", "md_verbatim": "- Partial results of the macula examination performed by the site investigator, as well as results provided by an independent assessor, for 1 visit", "score": 0.5009, "match_basis": "verbatim_token+domain_route:OE"}, {"md_atom_id": "md_dmOE_assn_a002", "md_file": "knowledge_base/domains/OE/assumptions.md", "md_atom_type": "LIST_ITEM", "md_parent_section": "§OE [OE — Assumptions]", "md_verbatim": "1. In ophthalmic studies, the eyes are usually sites of treatment. It is appropriate to identify sites using the variable FOCID. When FOCID is used to identify the eyes, it is recommended that the values \"OD\" (oculus dexter, right eye), \"OS\" (oculus sinister, left eye), and \"OU\" (oculus uterque, both eyes) be used in FOCID. These terms are the exclusively preferred terms used by the ophthalmology community as abbreviations for the expanded Latin terms, and are included in the nonextensible CDISC Ophthalmic Focus of Study Specific Interest (OEFOCUS) codelist.", "score": 0.4817, "match_basis": "verbatim_token+domain_route:OE"}], "candidate_count": 5, "zero_candidate": false}
{"pdf_atom_id": "ig34_p0303_a026", "pdf_atom_type": "LIST_ITEM", "pdf_source": "SDTMIG_v3.4", "pdf_page": 303, "pdf_parent_section": "§6.3.7.5 Ophthalmic Examinations (OE)", "pdf_verbatim": "Row 5: Indicates that an OCT procedure was not performed at visit 2. The reason the procedure was not performed was collected and is represented in PRREASOC.", "figure_ref": null, "candidates": [{"md_atom_id": "md_dmOE_ex_a062", "md_file": "knowledge_base/domains/OE/examples.md", "md_atom_type": "SENTENCE", "md_parent_section": "§OE.3 [Example 3]", "md_verbatim": "**Row 5:** Indicates that an OCT procedure was not performed at visit 2. The reason the procedure was not performed was collected and is represented in PRREASOC.", "score": 0.91, "match_basis": "verbatim_token+domain_route:OE"}, {"md_atom_id": "md_dmOE_ex_a061", "md_file": "knowledge_base/domains/OE/examples.md", "md_atom_type": "SENTENCE", "md_parent_section": "§OE.3 [Example 3]", "md_verbatim": "**Rows 1-4:** Represent OCT procedures performed at screening and visit 1 on the right and left eyes. SPDEVID identifies the device used in performing these tests.", "score": 0.5033, "match_basis": "verbatim_token+domain_route:OE"}, {"md_atom_id": "md_dmOE_ex_a044", "md_file": "knowledge_base/domains/OE/examples.md", "md_atom_type": "LIST_ITEM", "md_parent_section": "§OE.3 [Example 3]", "md_verbatim": "- The use of the Procedures (PR) domain to represent the optical coherence tomography (OCT) procedure details, with specific device characteristics in the DI domain", "score": 0.5019, "match_basis": "verbatim_token+domain_route:OE"}, {"md_atom_id": "md_dmOE_ex_a042", "md_file": "knowledge_base/domains/OE/examples.md", "md_atom_type": "LIST_ITEM", "md_parent_section": "§OE.3 [Example 3]", "md_verbatim": "- Partial results of the macula examination performed by the site investigator, as well as results provided by an independent assessor, for 1 visit", "score": 0.4849, "match_basis": "verbatim_token+domain_route:OE"}, {"md_atom_id": "md_dmOE_assn_a003", "md_file": "knowledge_base/domains/OE/assumptions.md", "md_atom_type": "LIST_ITEM", "md_parent_section": "§OE [OE — Assumptions]", "md_verbatim": "2. In any study that uses FOCID, FOCID would be included in records in any subject-level domain representing findings, interventions, or events (e.g., Adverse Events) related to the eyes. Whether or not FOCID is used in a study, --LOC and --LAT should be populated in records related to the eyes. The value in OELOC may be \"EYE\" but may also be a part of the eye (e.g., \"RETINA\", \"CORNEA\").", "score": 0.4761, "match_basis": "verbatim_token+domain_route:OE"}], "candidate_count": 5, "zero_candidate": false}
{"pdf_atom_id": "ig34_p0303_a027", "pdf_atom_type": "CODE_LITERAL", "pdf_source": "SDTMIG_v3.4", "pdf_page": 303, "pdf_parent_section": "§6.3.7.5 Ophthalmic Examinations (OE)", "pdf_verbatim": "pr.xpt", "figure_ref": null, "candidates": [{"md_atom_id": "md_dmOE_ex_a006", "md_file": "knowledge_base/domains/OE/examples.md", "md_atom_type": "SENTENCE", "md_parent_section": "§OE.1 [Example 1]", "md_verbatim": "**oe.xpt**", "score": 0.79, "match_basis": "verbatim_token+domain_route:OE"}, {"md_atom_id": "md_dmOE_ex_a025", "md_file": "knowledge_base/domains/OE/examples.md", "md_atom_type": "SENTENCE", "md_parent_section": "§OE.2 [Example 2]", "md_verbatim": "**oe.xpt**", "score": 0.79, "match_basis": "verbatim_token+domain_route:OE"}, {"md_atom_id": "md_dmOE_ex_a048", "md_file": "knowledge_base/domains/OE/examples.md", "md_atom_type": "SENTENCE", "md_parent_section": "§OE.3 [Example 3]", "md_verbatim": "**oe.xpt**", "score": 0.79, "match_basis": "verbatim_token+domain_route:OE"}, {"md_atom_id": "md_dmOE_ex_a063", "md_file": "knowledge_base/domains/OE/examples.md", "md_atom_type": "SENTENCE", "md_parent_section": "§OE.3 [Example 3]", "md_verbatim": "**pr.xpt**", "score": 0.79, "match_basis": "verbatim_token+domain_route:OE"}, {"md_atom_id": "md_dmOE_ex_a071", "md_file": "knowledge_base/domains/OE/examples.md", "md_atom_type": "SENTENCE", "md_parent_section": "§OE.3 [Example 3]", "md_verbatim": "**di.xpt**", "score": 0.79, "match_basis": "verbatim_token+domain_route:OE"}, {"md_atom_id": "md_dmOE_ex_a091", "md_file": "knowledge_base/domains/OE/examples.md", "md_atom_type": "SENTENCE", "md_parent_section": "§OE.4 [Example 4]", "md_verbatim": "**oe.xpt**", "score": 0.79, "match_basis": "verbatim_token+domain_route:OE"}, {"md_atom_id": "md_dmOE_ex_a012", "md_file": "knowledge_base/domains/OE/examples.md", "md_atom_type": "SENTENCE", "md_parent_section": "§OE.1 [Example 1]", "md_verbatim": "**suppoe.xpt**", "score": 0.31, "match_basis": "verbatim_token+domain_route:OE"}, {"md_atom_id": "md_dmOE_ex_a036", "md_file": "knowledge_base/domains/OE/examples.md", "md_atom_type": "SENTENCE", "md_parent_section": "§OE.2 [Example 2]", "md_verbatim": "**suppoe.xpt**", "score": 0.31, "match_basis": "verbatim_token+domain_route:OE"}, {"md_atom_id": "md_dmOE_ex_a057", "md_file": "knowledge_base/domains/OE/examples.md", "md_atom_type": "SENTENCE", "md_parent_section": "§OE.3 [Example 3]", "md_verbatim": "**suppoe.xpt**", "score": 0.31, "match_basis": "verbatim_token+domain_route:OE"}, {"md_atom_id": "md_dmOE_ex_a078", "md_file": "knowledge_base/domains/OE/examples.md", "md_atom_type": "SENTENCE", "md_parent_section": "§OE.3 [Example 3]", "md_verbatim": "**relrec.xpt**", "score": 0.31, "match_basis": "verbatim_token+domain_route:OE"}], "candidate_count": 10, "zero_candidate": false}
{"pdf_atom_id": "ig34_p0303_a028", "pdf_atom_type": "TABLE_HEADER", "pdf_source": "SDTMIG_v3.4", "pdf_page": 303, "pdf_parent_section": "§6.3.7.5 Ophthalmic Examinations (OE)", "pdf_verbatim": "| Row | STUDYID | DOMAIN | USUBJID | FOCID | SPDEVID | PRSEO | PRLNKID | PRTRT | PRPRESP | PROCUR | PRREASOC | | PRLOC | PRLAT | PRSTDTC | VISITNUM | VISIT |", "figure_ref": null, "candidates": [{"md_atom_id": "md_dmOE_ex_a064", "md_file": "knowledge_base/domains/OE/examples.md", "md_atom_type": "TABLE_HEADER", "md_parent_section": "§OE.3 [Example 3]", "md_verbatim": "| Row | STUDYID | DOMAIN | USUBJID | FOCID | SPDEVID | PRSEQ | PRLNKID | PRTRT | PRPRESP | PROCCUR | PRREASOC | PRLOC | PRLAT | PRSTDTC | VISITNUM | VISIT |\n|-----|---------|--------|---------|-------|---------|-------|---------|-------|---------|---------|----------|-------|-------|---------|----------|-------|", "score": 0.9545, "match_basis": "verbatim_token+domain_route:OE"}, {"md_atom_id": "md_dmOE_ex_a049", "md_file": "knowledge_base/domains/OE/examples.md", "md_atom_type": "TABLE_HEADER", "md_parent_section": "§OE.3 [Example 3]", "md_verbatim": "| Row | STUDYID | DOMAIN | USUBJID | FOCID | OESEQ | OELNKID | OETESTCD | OETEST | OEORRES | OEORRESU | OESTRESC | OESTRESN | OESTRESU | OELOC | OELAT | OEMETHOD | OEEVAL | OECLSIG | VISITNUM | VISIT | OEDTC |\n|-----|---------|--------|---------|-------|-------|---------|----------|--------|---------|----------|----------|----------|----------|-------|-------|----------|--------|---------|----------|-------|-------|", "score": 0.5901, "match_basis": "verbatim_token+domain_route:OE"}, {"md_atom_id": "md_dmOE_ex_a007", "md_file": "knowledge_base/domains/OE/examples.md", "md_atom_type": "TABLE_HEADER", "md_parent_section": "§OE.1 [Example 1]", "md_verbatim": "| Row | STUDYID | DOMAIN | USUBJID | FOCID | OESEQ | OETESTCD | OETEST | OEORRES | OESTRESC | OELOC | OELAT | OEDIR | OEMETHOD | OEEVAL | OECLSIG | VISITNUM | VISIT | OEDTC |\n|-----|---------|--------|---------|-------|-------|----------|--------|---------|----------|-------|-------|-------|----------|--------|---------|----------|-------|-------|", "score": 0.574, "match_basis": "verbatim_token+domain_route:OE"}, {"md_atom_id": "md_dmOE_ex_a026", "md_file": "knowledge_base/domains/OE/examples.md", "md_atom_type": "TABLE_HEADER", "md_parent_section": "§OE.2 [Example 2]", "md_verbatim": "| Row | STUDYID | DOMAIN | USUBJID | FOCID | OESEQ | OETESTCD | OETEST | OEORRES | OEORRESU | OESTRESC | OESTRESN | OESTRESU | OELOC | OELAT | OEMETHOD | OEEVAL | OECLSIG | VISITNUM | VISIT | OEDTC |\n|-----|---------|--------|---------|-------|-------|----------|--------|---------|----------|----------|----------|----------|-------|-------|----------|--------|---------|----------|-------|-------|", "score": 0.574, "match_basis": "verbatim_token+domain_route:OE"}, {"md_atom_id": "md_dmOE_ex_a092", "md_file": "knowledge_base/domains/OE/examples.md", "md_atom_type": "TABLE_HEADER", "md_parent_section": "§OE.4 [Example 4]", "md_verbatim": "| Row | STUDYID | DOMAIN | USUBJID | FOCID | OESEQ | OETESTCD | OETEST | OECAT | OEORRES | OESTRESC | OESTRESN | OELOC | OELAT | OEMETHOD | OEEVAL | VISITNUM | VISIT | OEDTC | OETPT | OETPTNUM |\n|-----|---------|--------|---------|-------|-------|----------|--------|-------|---------|----------|----------|-------|-------|----------|--------|----------|-------|-------|-------|----------|", "score": 0.574, "match_basis": "verbatim_token+domain_route:OE"}], "candidate_count": 5, "zero_candidate": false}
{"pdf_atom_id": "ig34_p0303_a029", "pdf_atom_type": "TABLE_ROW", "pdf_source": "SDTMIG_v3.4", "pdf_page": 303, "pdf_parent_section": "§6.3.7.5 Ophthalmic Examinations (OE)", "pdf_verbatim": "| 1 | XYZ | PR | XYZ-100-001 | OD | 100 | 1 | | OCT | Y | Y | | | EYE | RIGHT | 2012-04-25T10:00 | 1 | SCREENING |", "figure_ref": null, "candidates": [{"md_atom_id": "md_dmOE_ex_a066", "md_file": "knowledge_base/domains/OE/examples.md", "md_atom_type": "TABLE_ROW", "md_parent_section": "§OE.3 [Example 3]", "md_verbatim": "| 2 | XYZ | PR | XYZ-100-001 | OD | 100 | 2 | 2 | OCT | Y | Y | | EYE | RIGHT | 2012-04-25T10:10:00 | 1 | SCREENING |", "score": 1.0, "match_basis": "verbatim_token+domain_route:OE"}, {"md_atom_id": "md_dmOE_ex_a065", "md_file": "knowledge_base/domains/OE/examples.md", "md_atom_type": "TABLE_ROW", "md_parent_section": "§OE.3 [Example 3]", "md_verbatim": "| 1 | XYZ | PR | XYZ-100-001 | OS | 100 | 1 | 1 | OCT | Y | Y | | EYE | LEFT | 2012-04-25T09:30:00 | 1 | SCREENING |", "score": 0.775, "match_basis": "verbatim_token+domain_route:OE"}, {"md_atom_id": "md_dmOE_ex_a068", "md_file": "knowledge_base/domains/OE/examples.md", "md_atom_type": "TABLE_ROW", "md_parent_section": "§OE.3 [Example 3]", "md_verbatim": "| 4 | XYZ | PR | XYZ-100-001 | OD | 100 | 4 | 4 | OCT | Y | Y | | EYE | RIGHT | 2012-05-25T08:30:00 | 2 | VISIT 1 |", "score": 0.664, "match_basis": "verbatim_token+domain_route:OE"}, {"md_atom_id": "md_dmOE_ex_a067", "md_file": "knowledge_base/domains/OE/examples.md", "md_atom_type": "TABLE_ROW", "md_parent_section": "§OE.3 [Example 3]", "md_verbatim": "| 3 | XYZ | PR | XYZ-100-001 | OS | 100 | 3 | 3 | OCT | Y | Y | | EYE | LEFT | 2012-05-25T08:30:00 | 2 | VISIT 1 |", "score": 0.5778, "match_basis": "verbatim_token+domain_route:OE"}, {"md_atom_id": "md_dmOE_ex_a053", "md_file": "knowledge_base/domains/OE/examples.md", "md_atom_type": "TABLE_ROW", "md_parent_section": "§OE.3 [Example 3]", "md_verbatim": "| 4 | XYZ | OE | XYZ-100-001 | OD | 4 | 2 | EDEMA | Edema | ABSENT | | ABSENT | | | MACULA | RIGHT | OPTICAL COHERENCE TOMOGRAPHY | INDEPENDENT ASSESSOR | | 1 | SCREENING | 2012-04-25 |", "score": 0.5406, "match_basis": "verbatim_token+domain_route:OE"}], "candidate_count": 5, "zero_candidate": false}
{"pdf_atom_id": "ig34_p0303_a030", "pdf_atom_type": "TABLE_ROW", "pdf_source": "SDTMIG_v3.4", "pdf_page": 303, "pdf_parent_section": "§6.3.7.5 Ophthalmic Examinations (OE)", "pdf_verbatim": "| 2 | XYZ | PR | XYZ-100-001 | OS | 100 | 2 | | OCT | Y | Y | | | EYE | LEFT | 2012-04-25T10:00 | 2 | SCREENING |", "figure_ref": null, "candidates": [{"md_atom_id": "md_dmOE_ex_a065", "md_file": "knowledge_base/domains/OE/examples.md", "md_atom_type": "TABLE_ROW", "md_parent_section": "§OE.3 [Example 3]", "md_verbatim": "| 1 | XYZ | PR | XYZ-100-001 | OS | 100 | 1 | 1 | OCT | Y | Y | | EYE | LEFT | 2012-04-25T09:30:00 | 1 | SCREENING |", "score": 0.8857, "match_basis": "verbatim_token+domain_route:OE"}, {"md_atom_id": "md_dmOE_ex_a066", "md_file": "knowledge_base/domains/OE/examples.md", "md_atom_type": "TABLE_ROW", "md_parent_section": "§OE.3 [Example 3]", "md_verbatim": "| 2 | XYZ | PR | XYZ-100-001 | OD | 100 | 2 | 2 | OCT | Y | Y | | EYE | RIGHT | 2012-04-25T10:10:00 | 1 | SCREENING |", "score": 0.8636, "match_basis": "verbatim_token+domain_route:OE"}, {"md_atom_id": "md_dmOE_ex_a067", "md_file": "knowledge_base/domains/OE/examples.md", "md_atom_type": "TABLE_ROW", "md_parent_section": "§OE.3 [Example 3]", "md_verbatim": "| 3 | XYZ | PR | XYZ-100-001 | OS | 100 | 3 | 3 | OCT | Y | Y | | EYE | LEFT | 2012-05-25T08:30:00 | 2 | VISIT 1 |", "score": 0.65, "match_basis": "verbatim_token+domain_route:OE"}, {"md_atom_id": "md_dmOE_ex_a068", "md_file": "knowledge_base/domains/OE/examples.md", "md_atom_type": "TABLE_ROW", "md_parent_section": "§OE.3 [Example 3]", "md_verbatim": "| 4 | XYZ | PR | XYZ-100-001 | OD | 100 | 4 | 4 | OCT | Y | Y | | EYE | RIGHT | 2012-05-25T08:30:00 | 2 | VISIT 1 |", "score": 0.5778, "match_basis": "verbatim_token+domain_route:OE"}, {"md_atom_id": "md_dmOE_ex_a051", "md_file": "knowledge_base/domains/OE/examples.md", "md_atom_type": "TABLE_ROW", "md_parent_section": "§OE.3 [Example 3]", "md_verbatim": "| 2 | XYZ | OE | XYZ-100-001 | OD | 2 | | EDEMA | Edema | ABSENT | | ABSENT | | | MACULA | LEFT | OPHTHALMOSCOPY | INVESTIGATOR | | 1 | SCREENING | 2012-04-25 |", "score": 0.5615, "match_basis": "verbatim_token+domain_route:OE"}], "candidate_count": 5, "zero_candidate": false}
{"pdf_atom_id": "ig34_p0303_a031", "pdf_atom_type": "TABLE_ROW", "pdf_source": "SDTMIG_v3.4", "pdf_page": 303, "pdf_parent_section": "§6.3.7.5 Ophthalmic Examinations (OE)", "pdf_verbatim": "| 3 | XYZ | PR | XYZ-100-001 | OS | 100 | 3 | | DCT | Y | Y | | | EYE | LEFT | 2012-05-25T08:00 | 2 | VISIT 1 |", "figure_ref": null, "candidates": [{"md_atom_id": "md_dmOE_ex_a067", "md_file": "knowledge_base/domains/OE/examples.md", "md_atom_type": "TABLE_ROW", "md_parent_section": "§OE.3 [Example 3]", "md_verbatim": "| 3 | XYZ | PR | XYZ-100-001 | OS | 100 | 3 | 3 | OCT | Y | Y | | EYE | LEFT | 2012-05-25T08:30:00 | 2 | VISIT 1 |", "score": 0.925, "match_basis": "verbatim_token+domain_route:OE"}, {"md_atom_id": "md_dmOE_ex_a068", "md_file": "knowledge_base/domains/OE/examples.md", "md_atom_type": "TABLE_ROW", "md_parent_section": "§OE.3 [Example 3]", "md_verbatim": "| 4 | XYZ | PR | XYZ-100-001 | OD | 100 | 4 | 4 | OCT | Y | Y | | EYE | RIGHT | 2012-05-25T08:30:00 | 2 | VISIT 1 |", "score": 0.7789, "match_basis": "verbatim_token+domain_route:OE"}, {"md_atom_id": "md_dmOE_ex_a065", "md_file": "knowledge_base/domains/OE/examples.md", "md_atom_type": "TABLE_ROW", "md_parent_section": "§OE.3 [Example 3]", "md_verbatim": "| 1 | XYZ | PR | XYZ-100-001 | OS | 100 | 1 | 1 | OCT | Y | Y | | EYE | LEFT | 2012-04-25T09:30:00 | 1 | SCREENING |", "score": 0.65, "match_basis": "verbatim_token+domain_route:OE"}, {"md_atom_id": "md_dmOE_ex_a066", "md_file": "knowledge_base/domains/OE/examples.md", "md_atom_type": "TABLE_ROW", "md_parent_section": "§OE.3 [Example 3]", "md_verbatim": "| 2 | XYZ | PR | XYZ-100-001 | OD | 100 | 2 | 2 | OCT | Y | Y | | EYE | RIGHT | 2012-04-25T10:10:00 | 1 | SCREENING |", "score": 0.55, "match_basis": "verbatim_token+domain_route:OE"}, {"md_atom_id": "md_dmOE_ex_a069", "md_file": "knowledge_base/domains/OE/examples.md", "md_atom_type": "TABLE_ROW", "md_parent_section": "§OE.3 [Example 3]", "md_verbatim": "| 5 | XYZ | PR | XYZ-100-001 | OU | | 5 | | OCT | Y | N | PATIENT WAS SICK FOR SEVERAL WEEKS | | | | 3 | VISIT 2 |", "score": 0.5091, "match_basis": "verbatim_token+domain_route:OE"}], "candidate_count": 5, "zero_candidate": false}
{"pdf_atom_id": "ig34_p0304_a001", "pdf_atom_type": "TABLE_ROW", "pdf_source": "SDTMIG_v3.4", "pdf_page": 304, "pdf_parent_section": "§6.3.7.5 Ophthalmic Examinations (OE)", "pdf_verbatim": "| 4 | XYZ | PR | XYZ-100-001 | OS | 100 | 4 | | DCT | Y | Y | | | EYE | LEFT | 2012-05-25T08:00 | 2 | VISIT 1 |", "figure_ref": null, "candidates": [{"md_atom_id": "md_dmOE_ex_a067", "md_file": "knowledge_base/domains/OE/examples.md", "md_atom_type": "TABLE_ROW", "md_parent_section": "§OE.3 [Example 3]", "md_verbatim": "| 3 | XYZ | PR | XYZ-100-001 | OS | 100 | 3 | 3 | OCT | Y | Y | | EYE | LEFT | 2012-05-25T08:30:00 | 2 | VISIT 1 |", "score": 0.925, "match_basis": "verbatim_token+domain_route:OE"}, {"md_atom_id": "md_dmOE_ex_a068", "md_file": "knowledge_base/domains/OE/examples.md", "md_atom_type": "TABLE_ROW", "md_parent_section": "§OE.3 [Example 3]", "md_verbatim": "| 4 | XYZ | PR | XYZ-100-001 | OD | 100 | 4 | 4 | OCT | Y | Y | | EYE | RIGHT | 2012-05-25T08:30:00 | 2 | VISIT 1 |", "score": 0.7789, "match_basis": "verbatim_token+domain_route:OE"}, {"md_atom_id": "md_dmOE_ex_a065", "md_file": "knowledge_base/domains/OE/examples.md", "md_atom_type": "TABLE_ROW", "md_parent_section": "§OE.3 [Example 3]", "md_verbatim": "| 1 | XYZ | PR | XYZ-100-001 | OS | 100 | 1 | 1 | OCT | Y | Y | | EYE | LEFT | 2012-04-25T09:30:00 | 1 | SCREENING |", "score": 0.65, "match_basis": "verbatim_token+domain_route:OE"}, {"md_atom_id": "md_dmOE_ex_a066", "md_file": "knowledge_base/domains/OE/examples.md", "md_atom_type": "TABLE_ROW", "md_parent_section": "§OE.3 [Example 3]", "md_verbatim": "| 2 | XYZ | PR | XYZ-100-001 | OD | 100 | 2 | 2 | OCT | Y | Y | | EYE | RIGHT | 2012-04-25T10:10:00 | 1 | SCREENING |", "score": 0.55, "match_basis": "verbatim_token+domain_route:OE"}, {"md_atom_id": "md_dmOE_ex_a069", "md_file": "knowledge_base/domains/OE/examples.md", "md_atom_type": "TABLE_ROW", "md_parent_section": "§OE.3 [Example 3]", "md_verbatim": "| 5 | XYZ | PR | XYZ-100-001 | OU | | 5 | | OCT | Y | N | PATIENT WAS SICK FOR SEVERAL WEEKS | | | | 3 | VISIT 2 |", "score": 0.5091, "match_basis": "verbatim_token+domain_route:OE"}], "candidate_count": 5, "zero_candidate": false}
{"pdf_atom_id": "ig34_p0304_a002", "pdf_atom_type": "TABLE_ROW", "pdf_source": "SDTMIG_v3.4", "pdf_page": 304, "pdf_parent_section": "§6.3.7.5 Ophthalmic Examinations (OE)", "pdf_verbatim": "| 5 | XYZ | PR | XYZ-100-001 | OU | | 5 | OCT | Y | N | PATIENT WAS SICK FOR SEVERAL WEEKS | | | | | 3 | VISIT 2 |", "figure_ref": null, "candidates": [{"md_atom_id": "md_dmOE_ex_a069", "md_file": "knowledge_base/domains/OE/examples.md", "md_atom_type": "TABLE_ROW", "md_parent_section": "§OE.3 [Example 3]", "md_verbatim": "| 5 | XYZ | PR | XYZ-100-001 | OU | | 5 | | OCT | Y | N | PATIENT WAS SICK FOR SEVERAL WEEKS | | | | 3 | VISIT 2 |", "score": 1.0, "match_basis": "verbatim_token+domain_route:OE"}, {"md_atom_id": "md_dmOE_ex_a067", "md_file": "knowledge_base/domains/OE/examples.md", "md_atom_type": "TABLE_ROW", "md_parent_section": "§OE.3 [Example 3]", "md_verbatim": "| 3 | XYZ | PR | XYZ-100-001 | OS | 100 | 3 | 3 | OCT | Y | Y | | EYE | LEFT | 2012-05-25T08:30:00 | 2 | VISIT 1 |", "score": 0.5312, "match_basis": "verbatim_token+domain_route:OE"}, {"md_atom_id": "md_dmOE_ex_a068", "md_file": "knowledge_base/domains/OE/examples.md", "md_atom_type": "TABLE_ROW", "md_parent_section": "§OE.3 [Example 3]", "md_verbatim": "| 4 | XYZ | PR | XYZ-100-001 | OD | 100 | 4 | 4 | OCT | Y | Y | | EYE | RIGHT | 2012-05-25T08:30:00 | 2 | VISIT 1 |", "score": 0.5273, "match_basis": "verbatim_token+domain_route:OE"}, {"md_atom_id": "md_dmOE_ex_a065", "md_file": "knowledge_base/domains/OE/examples.md", "md_atom_type": "TABLE_ROW", "md_parent_section": "§OE.3 [Example 3]", "md_verbatim": "| 1 | XYZ | PR | XYZ-100-001 | OS | 100 | 1 | 1 | OCT | Y | Y | | EYE | LEFT | 2012-04-25T09:30:00 | 1 | SCREENING |", "score": 0.4615, "match_basis": "verbatim_token+domain_route:OE"}, {"md_atom_id": "md_dmOE_ex_a066", "md_file": "knowledge_base/domains/OE/examples.md", "md_atom_type": "TABLE_ROW", "md_parent_section": "§OE.3 [Example 3]", "md_verbatim": "| 2 | XYZ | PR | XYZ-100-001 | OD | 100 | 2 | 2 | OCT | Y | Y | | EYE | RIGHT | 2012-04-25T10:10:00 | 1 | SCREENING |", "score": 0.46, "match_basis": "verbatim_token+domain_route:OE"}], "candidate_count": 5, "zero_candidate": false}
{"pdf_atom_id": "ig34_p0304_a003", "pdf_atom_type": "SENTENCE", "pdf_source": "SDTMIG_v3.4", "pdf_page": 304, "pdf_parent_section": "§6.3.7.5 Ophthalmic Examinations (OE)", "pdf_verbatim": "Identifying information for the device with SPDEVID = \"100\" included in the PR domain is represented in the Device Identifiers (DI) domain.", "figure_ref": null, "candidates": [{"md_atom_id": "md_dmOE_ex_a070", "md_file": "knowledge_base/domains/OE/examples.md", "md_atom_type": "SENTENCE", "md_parent_section": "§OE.3 [Example 3]", "md_verbatim": "Identifying information for the device with SPDEVID = \"100\" included in the PR domain is represented in the Device Identifiers (DI) domain.", "score": 1.0, "match_basis": "verbatim_token+domain_route:OE"}, {"md_atom_id": "md_dmOE_ex_a061", "md_file": "knowledge_base/domains/OE/examples.md", "md_atom_type": "SENTENCE", "md_parent_section": "§OE.3 [Example 3]", "md_verbatim": "**Rows 1-4:** Represent OCT procedures performed at screening and visit 1 on the right and left eyes. SPDEVID identifies the device used in performing these tests.", "score": 0.5565, "match_basis": "verbatim_token+domain_route:OE"}, {"md_atom_id": "md_dmOE_ex_a035", "md_file": "knowledge_base/domains/OE/examples.md", "md_atom_type": "SENTENCE", "md_parent_section": "§OE.2 [Example 2]", "md_verbatim": "The suppoe.xpt dataset represents the testing condition (i.e., dilated eyes) qualifying the cup-to-disc ratio tests.", "score": 0.5116, "match_basis": "verbatim_token+domain_route:OE"}, {"md_atom_id": "md_dmOE_ex_a056", "md_file": "knowledge_base/domains/OE/examples.md", "md_atom_type": "SENTENCE", "md_parent_section": "§OE.3 [Example 3]", "md_verbatim": "The suppoe.xpt dataset represents the date the independent assessor performed the evaluation of the OCT image.", "score": 0.4944, "match_basis": "verbatim_token+domain_route:OE"}, {"md_atom_id": "md_dmOE_ex_a020", "md_file": "knowledge_base/domains/OE/examples.md", "md_atom_type": "SENTENCE", "md_parent_section": "§OE.2 [Example 2]", "md_verbatim": "The test for iris color is in the OE domain because in this use case, the medication is likely to change the result over the course of the study. Otherwise, iris color should be represented in the Subject Characteristics (SC) domain (see Section 6.3.10, Subject Characteristics).", "score": 0.4893, "match_basis": "verbatim_token+domain_route:OE"}], "candidate_count": 5, "zero_candidate": false}
{"pdf_atom_id": "ig34_p0304_a004", "pdf_atom_type": "CODE_LITERAL", "pdf_source": "SDTMIG_v3.4", "pdf_page": 304, "pdf_parent_section": "§6.3.7.5 Ophthalmic Examinations (OE)", "pdf_verbatim": "di.xpt", "figure_ref": null, "candidates": [{"md_atom_id": "md_dmOE_ex_a006", "md_file": "knowledge_base/domains/OE/examples.md", "md_atom_type": "SENTENCE", "md_parent_section": "§OE.1 [Example 1]", "md_verbatim": "**oe.xpt**", "score": 0.79, "match_basis": "verbatim_token+domain_route:OE"}, {"md_atom_id": "md_dmOE_ex_a025", "md_file": "knowledge_base/domains/OE/examples.md", "md_atom_type": "SENTENCE", "md_parent_section": "§OE.2 [Example 2]", "md_verbatim": "**oe.xpt**", "score": 0.79, "match_basis": "verbatim_token+domain_route:OE"}, {"md_atom_id": "md_dmOE_ex_a048", "md_file": "knowledge_base/domains/OE/examples.md", "md_atom_type": "SENTENCE", "md_parent_section": "§OE.3 [Example 3]", "md_verbatim": "**oe.xpt**", "score": 0.79, "match_basis": "verbatim_token+domain_route:OE"}, {"md_atom_id": "md_dmOE_ex_a063", "md_file": "knowledge_base/domains/OE/examples.md", "md_atom_type": "SENTENCE", "md_parent_section": "§OE.3 [Example 3]", "md_verbatim": "**pr.xpt**", "score": 0.79, "match_basis": "verbatim_token+domain_route:OE"}, {"md_atom_id": "md_dmOE_ex_a071", "md_file": "knowledge_base/domains/OE/examples.md", "md_atom_type": "SENTENCE", "md_parent_section": "§OE.3 [Example 3]", "md_verbatim": "**di.xpt**", "score": 0.79, "match_basis": "verbatim_token+domain_route:OE"}, {"md_atom_id": "md_dmOE_ex_a091", "md_file": "knowledge_base/domains/OE/examples.md", "md_atom_type": "SENTENCE", "md_parent_section": "§OE.4 [Example 4]", "md_verbatim": "**oe.xpt**", "score": 0.79, "match_basis": "verbatim_token+domain_route:OE"}, {"md_atom_id": "md_dmOE_ex_a012", "md_file": "knowledge_base/domains/OE/examples.md", "md_atom_type": "SENTENCE", "md_parent_section": "§OE.1 [Example 1]", "md_verbatim": "**suppoe.xpt**", "score": 0.31, "match_basis": "verbatim_token+domain_route:OE"}, {"md_atom_id": "md_dmOE_ex_a036", "md_file": "knowledge_base/domains/OE/examples.md", "md_atom_type": "SENTENCE", "md_parent_section": "§OE.2 [Example 2]", "md_verbatim": "**suppoe.xpt**", "score": 0.31, "match_basis": "verbatim_token+domain_route:OE"}, {"md_atom_id": "md_dmOE_ex_a057", "md_file": "knowledge_base/domains/OE/examples.md", "md_atom_type": "SENTENCE", "md_parent_section": "§OE.3 [Example 3]", "md_verbatim": "**suppoe.xpt**", "score": 0.31, "match_basis": "verbatim_token+domain_route:OE"}, {"md_atom_id": "md_dmOE_ex_a078", "md_file": "knowledge_base/domains/OE/examples.md", "md_atom_type": "SENTENCE", "md_parent_section": "§OE.3 [Example 3]", "md_verbatim": "**relrec.xpt**", "score": 0.31, "match_basis": "verbatim_token+domain_route:OE"}], "candidate_count": 10, "zero_candidate": false}
{"pdf_atom_id": "ig34_p0304_a005", "pdf_atom_type": "TABLE_HEADER", "pdf_source": "SDTMIG_v3.4", "pdf_page": 304, "pdf_parent_section": "§6.3.7.5 Ophthalmic Examinations (OE)", "pdf_verbatim": "| Row | STUDYID | DOMAIN | SPDEVID | DISEG | DIPARMCD | DIPARM | DIVAL |", "figure_ref": null, "candidates": [{"md_atom_id": "md_dmOE_ex_a072", "md_file": "knowledge_base/domains/OE/examples.md", "md_atom_type": "TABLE_HEADER", "md_parent_section": "§OE.3 [Example 3]", "md_verbatim": "| Row | STUDYID | DOMAIN | SPDEVID | DISEQ | DIPARMCD | DIPARM | DIVAL |\n|-----|---------|--------|---------|-------|----------|--------|-------|", "score": 0.9571, "match_basis": "verbatim_token+domain_route:OE"}, {"md_atom_id": "md_dmOE_ex_a013", "md_file": "knowledge_base/domains/OE/examples.md", "md_atom_type": "TABLE_HEADER", "md_parent_section": "§OE.1 [Example 1]", "md_verbatim": "| Row | STUDYID | RDOMAIN | USUBJID | IDVAR | IDVARVAL | QNAM | QLABEL | QVAL |\n|-----|---------|---------|---------|-------|----------|------|--------|------|", "score": 0.5467, "match_basis": "verbatim_token+domain_route:OE"}, {"md_atom_id": "md_dmOE_ex_a037", "md_file": "knowledge_base/domains/OE/examples.md", "md_atom_type": "TABLE_HEADER", "md_parent_section": "§OE.2 [Example 2]", "md_verbatim": "| Row | STUDYID | RDOMAIN | USUBJID | IDVAR | IDVARVAL | QNAM | QLABEL | QVAL |\n|-----|---------|---------|---------|-------|----------|------|--------|------|", "score": 0.5467, "match_basis": "verbatim_token+domain_route:OE"}, {"md_atom_id": "md_dmOE_ex_a058", "md_file": "knowledge_base/domains/OE/examples.md", "md_atom_type": "TABLE_HEADER", "md_parent_section": "§OE.3 [Example 3]", "md_verbatim": "| Row | STUDYID | RDOMAIN | USUBJID | IDVAR | IDVARVAL | QNAM | QLABEL | QVAL |\n|-----|---------|---------|---------|-------|----------|------|--------|------|", "score": 0.5467, "match_basis": "verbatim_token+domain_route:OE"}, {"md_atom_id": "md_dmOE_ex_a079", "md_file": "knowledge_base/domains/OE/examples.md", "md_atom_type": "TABLE_HEADER", "md_parent_section": "§OE.3 [Example 3]", "md_verbatim": "| Row | STUDYID | RDOMAIN | USUBJID | IDVAR | IDVARVAL | RELTYPE | RELID |\n|-----|---------|---------|---------|-------|----------|---------|-------|", "score": 0.5467, "match_basis": "verbatim_token+domain_route:OE"}], "candidate_count": 5, "zero_candidate": false}
{"pdf_atom_id": "ig34_p0304_a006", "pdf_atom_type": "TABLE_ROW", "pdf_source": "SDTMIG_v3.4", "pdf_page": 304, "pdf_parent_section": "§6.3.7.5 Ophthalmic Examinations (OE)", "pdf_verbatim": "| 1 | XYZ | DI | 100 | 1 | TYPE | Device Type | OCT |", "figure_ref": null, "candidates": [{"md_atom_id": "md_dmOE_ex_a073", "md_file": "knowledge_base/domains/OE/examples.md", "md_atom_type": "TABLE_ROW", "md_parent_section": "§OE.3 [Example 3]", "md_verbatim": "| 1 | XYZ | DI | 100 | 1 | TYPE | Device Type | OCT |", "score": 1.0, "match_basis": "verbatim_token+domain_route:OE"}, {"md_atom_id": "md_dmOE_ex_a067", "md_file": "knowledge_base/domains/OE/examples.md", "md_atom_type": "TABLE_ROW", "md_parent_section": "§OE.3 [Example 3]", "md_verbatim": "| 3 | XYZ | PR | XYZ-100-001 | OS | 100 | 3 | 3 | OCT | Y | Y | | EYE | LEFT | 2012-05-25T08:30:00 | 2 | VISIT 1 |", "score": 0.4857, "match_basis": "verbatim_token+domain_route:OE"}, {"md_atom_id": "md_dmOE_ex_a068", "md_file": "knowledge_base/domains/OE/examples.md", "md_atom_type": "TABLE_ROW", "md_parent_section": "§OE.3 [Example 3]", "md_verbatim": "| 4 | XYZ | PR | XYZ-100-001 | OD | 100 | 4 | 4 | OCT | Y | Y | | EYE | RIGHT | 2012-05-25T08:30:00 | 2 | VISIT 1 |", "score": 0.4818, "match_basis": "verbatim_token+domain_route:OE"}, {"md_atom_id": "md_dmOE_ex_a075", "md_file": "knowledge_base/domains/OE/examples.md", "md_atom_type": "TABLE_ROW", "md_parent_section": "§OE.3 [Example 3]", "md_verbatim": "| 3 | XYZ | DI | 100 | 3 | MODEL | Model | CIRRUS |", "score": 0.475, "match_basis": "verbatim_token+domain_route:OE"}, {"md_atom_id": "md_dmOE_ex_a065", "md_file": "knowledge_base/domains/OE/examples.md", "md_atom_type": "TABLE_ROW", "md_parent_section": "§OE.3 [Example 3]", "md_verbatim": "| 1 | XYZ | PR | XYZ-100-001 | OS | 100 | 1 | 1 | OCT | Y | Y | | EYE | LEFT | 2012-04-25T09:30:00 | 1 | SCREENING |", "score": 0.472, "match_basis": "verbatim_token+domain_route:OE"}], "candidate_count": 5, "zero_candidate": false}
{"pdf_atom_id": "ig34_p0304_a007", "pdf_atom_type": "TABLE_ROW", "pdf_source": "SDTMIG_v3.4", "pdf_page": 304, "pdf_parent_section": "§6.3.7.5 Ophthalmic Examinations (OE)", "pdf_verbatim": "| 2 | XYZ | DI | 100 | 2 | MANUF | Manufacturer | ZEISS |", "figure_ref": null, "candidates": [{"md_atom_id": "md_dmOE_ex_a074", "md_file": "knowledge_base/domains/OE/examples.md", "md_atom_type": "TABLE_ROW", "md_parent_section": "§OE.3 [Example 3]", "md_verbatim": "| 2 | XYZ | DI | 100 | 2 | MANUF | Manufacturer | ZEISS |", "score": 1.0, "match_basis": "verbatim_token+domain_route:OE"}, {"md_atom_id": "md_dmOE_ex_a081", "md_file": "knowledge_base/domains/OE/examples.md", "md_atom_type": "TABLE_ROW", "md_parent_section": "§OE.3 [Example 3]", "md_verbatim": "| 2 | XYZ | OE | | OELNKID | | MANY | 13 |", "score": 0.4571, "match_basis": "verbatim_token+domain_route:OE"}, {"md_atom_id": "md_dmOE_ex_a073", "md_file": "knowledge_base/domains/OE/examples.md", "md_atom_type": "TABLE_ROW", "md_parent_section": "§OE.3 [Example 3]", "md_verbatim": "| 1 | XYZ | DI | 100 | 1 | TYPE | Device Type | OCT |", "score": 0.4545, "match_basis": "verbatim_token+domain_route:OE"}, {"md_atom_id": "md_dmOE_ex_a075", "md_file": "knowledge_base/domains/OE/examples.md", "md_atom_type": "TABLE_ROW", "md_parent_section": "§OE.3 [Example 3]", "md_verbatim": "| 3 | XYZ | DI | 100 | 3 | MODEL | Model | CIRRUS |", "score": 0.4545, "match_basis": "verbatim_token+domain_route:OE"}, {"md_atom_id": "md_dmOE_ex_a076", "md_file": "knowledge_base/domains/OE/examples.md", "md_atom_type": "TABLE_ROW", "md_parent_section": "§OE.3 [Example 3]", "md_verbatim": "| 4 | XYZ | DI | 100 | 4 | SERIAL | Serial Number | yyyyyy |", "score": 0.45, "match_basis": "verbatim_token+domain_route:OE"}], "candidate_count": 5, "zero_candidate": false}
{"pdf_atom_id": "ig34_p0304_a008", "pdf_atom_type": "TABLE_ROW", "pdf_source": "SDTMIG_v3.4", "pdf_page": 304, "pdf_parent_section": "§6.3.7.5 Ophthalmic Examinations (OE)", "pdf_verbatim": "| 3 | XYZ | DI | 100 | 3 | MODEL | Model | CIRRUS |", "figure_ref": null, "candidates": [{"md_atom_id": "md_dmOE_ex_a075", "md_file": "knowledge_base/domains/OE/examples.md", "md_atom_type": "TABLE_ROW", "md_parent_section": "§OE.3 [Example 3]", "md_verbatim": "| 3 | XYZ | DI | 100 | 3 | MODEL | Model | CIRRUS |", "score": 1.0, "match_basis": "verbatim_token+domain_route:OE"}, {"md_atom_id": "md_dmOE_ex_a073", "md_file": "knowledge_base/domains/OE/examples.md", "md_atom_type": "TABLE_ROW", "md_parent_section": "§OE.3 [Example 3]", "md_verbatim": "| 1 | XYZ | DI | 100 | 1 | TYPE | Device Type | OCT |", "score": 0.475, "match_basis": "verbatim_token+domain_route:OE"}, {"md_atom_id": "md_dmOE_ex_a076", "md_file": "knowledge_base/domains/OE/examples.md", "md_atom_type": "TABLE_ROW", "md_parent_section": "§OE.3 [Example 3]", "md_verbatim": "| 4 | XYZ | DI | 100 | 4 | SERIAL | Serial Number | yyyyyy |", "score": 0.4667, "match_basis": "verbatim_token+domain_route:OE"}, {"md_atom_id": "md_dmOE_ex_a067", "md_file": "knowledge_base/domains/OE/examples.md", "md_atom_type": "TABLE_ROW", "md_parent_section": "§OE.3 [Example 3]", "md_verbatim": "| 3 | XYZ | PR | XYZ-100-001 | OS | 100 | 3 | 3 | OCT | Y | Y | | EYE | LEFT | 2012-05-25T08:30:00 | 2 | VISIT 1 |", "score": 0.4545, "match_basis": "verbatim_token+domain_route:OE"}, {"md_atom_id": "md_dmOE_ex_a074", "md_file": "knowledge_base/domains/OE/examples.md", "md_atom_type": "TABLE_ROW", "md_parent_section": "§OE.3 [Example 3]", "md_verbatim": "| 2 | XYZ | DI | 100 | 2 | MANUF | Manufacturer | ZEISS |", "score": 0.4545, "match_basis": "verbatim_token+domain_route:OE"}], "candidate_count": 5, "zero_candidate": false}
{"pdf_atom_id": "ig34_p0304_a009", "pdf_atom_type": "TABLE_ROW", "pdf_source": "SDTMIG_v3.4", "pdf_page": 304, "pdf_parent_section": "§6.3.7.5 Ophthalmic Examinations (OE)", "pdf_verbatim": "| 4 | XYZ | DI | 100 | 4 | SERIAL | Serial Number | yyyyy |", "figure_ref": null, "candidates": [{"md_atom_id": "md_dmOE_ex_a076", "md_file": "knowledge_base/domains/OE/examples.md", "md_atom_type": "TABLE_ROW", "md_parent_section": "§OE.3 [Example 3]", "md_verbatim": "| 4 | XYZ | DI | 100 | 4 | SERIAL | Serial Number | yyyyyy |", "score": 1.0, "match_basis": "verbatim_token+domain_route:OE"}, {"md_atom_id": "md_dmOE_ex_a073", "md_file": "knowledge_base/domains/OE/examples.md", "md_atom_type": "TABLE_ROW", "md_parent_section": "§OE.3 [Example 3]", "md_verbatim": "| 1 | XYZ | DI | 100 | 1 | TYPE | Device Type | OCT |", "score": 0.4667, "match_basis": "verbatim_token+domain_route:OE"}, {"md_atom_id": "md_dmOE_ex_a075", "md_file": "knowledge_base/domains/OE/examples.md", "md_atom_type": "TABLE_ROW", "md_parent_section": "§OE.3 [Example 3]", "md_verbatim": "| 3 | XYZ | DI | 100 | 3 | MODEL | Model | CIRRUS |", "score": 0.4667, "match_basis": "verbatim_token+domain_route:OE"}, {"md_atom_id": "md_dmOE_ex_a067", "md_file": "knowledge_base/domains/OE/examples.md", "md_atom_type": "TABLE_ROW", "md_parent_section": "§OE.3 [Example 3]", "md_verbatim": "| 3 | XYZ | PR | XYZ-100-001 | OS | 100 | 3 | 3 | OCT | Y | Y | | EYE | LEFT | 2012-05-25T08:30:00 | 2 | VISIT 1 |", "score": 0.45, "match_basis": "verbatim_token+domain_route:OE"}, {"md_atom_id": "md_dmOE_ex_a074", "md_file": "knowledge_base/domains/OE/examples.md", "md_atom_type": "TABLE_ROW", "md_parent_section": "§OE.3 [Example 3]", "md_verbatim": "| 2 | XYZ | DI | 100 | 2 | MANUF | Manufacturer | ZEISS |", "score": 0.45, "match_basis": "verbatim_token+domain_route:OE"}], "candidate_count": 5, "zero_candidate": false}
{"pdf_atom_id": "ig34_p0304_a010", "pdf_atom_type": "SENTENCE", "pdf_source": "SDTMIG_v3.4", "pdf_page": 304, "pdf_parent_section": "§6.3.7.5 Ophthalmic Examinations (OE)", "pdf_verbatim": "The many-to-one relationship between records in the PR and OE domains is described in RELREC.", "figure_ref": null, "candidates": [{"md_atom_id": "md_dmOE_ex_a077", "md_file": "knowledge_base/domains/OE/examples.md", "md_atom_type": "SENTENCE", "md_parent_section": "§OE.3 [Example 3]", "md_verbatim": "The many-to-one relationship between records in the PR and OE domains is described in RELREC.", "score": 1.0, "match_basis": "verbatim_token+domain_route:OE"}, {"md_atom_id": "md_dmOE_ex_a045", "md_file": "knowledge_base/domains/OE/examples.md", "md_atom_type": "LIST_ITEM", "md_parent_section": "§OE.3 [Example 3]", "md_verbatim": "- The relationship between the OE and PR domains in the RELREC dataset", "score": 0.6509, "match_basis": "verbatim_token+domain_route:OE"}, {"md_atom_id": "md_dmOE_ex_a078", "md_file": "knowledge_base/domains/OE/examples.md", "md_atom_type": "SENTENCE", "md_parent_section": "§OE.3 [Example 3]", "md_verbatim": "**relrec.xpt**", "score": 0.46, "match_basis": "verbatim_token+domain_route:OE"}, {"md_atom_id": "md_dmOE_ex_a070", "md_file": "knowledge_base/domains/OE/examples.md", "md_atom_type": "SENTENCE", "md_parent_section": "§OE.3 [Example 3]", "md_verbatim": "Identifying information for the device with SPDEVID = \"100\" included in the PR domain is represented in the Device Identifiers (DI) domain.", "score": 0.4585, "match_basis": "verbatim_token+domain_route:OE"}, {"md_atom_id": "md_dmOE_ex_a011", "md_file": "knowledge_base/domains/OE/examples.md", "md_atom_type": "SENTENCE", "md_parent_section": "§OE.1 [Example 1]", "md_verbatim": "The supplemental qualifier dataset represents the multiple directionality values, further describing the anatomical location where the abnormality was observed.", "score": 0.4508, "match_basis": "verbatim_token+domain_route:OE"}], "candidate_count": 5, "zero_candidate": false}
{"pdf_atom_id": "ig34_p0304_a011", "pdf_atom_type": "CODE_LITERAL", "pdf_source": "SDTMIG_v3.4", "pdf_page": 304, "pdf_parent_section": "§6.3.7.5 Ophthalmic Examinations (OE)", "pdf_verbatim": "relrec.xpt", "figure_ref": null, "candidates": [{"md_atom_id": "md_dmOE_ex_a078", "md_file": "knowledge_base/domains/OE/examples.md", "md_atom_type": "SENTENCE", "md_parent_section": "§OE.3 [Example 3]", "md_verbatim": "**relrec.xpt**", "score": 0.79, "match_basis": "verbatim_token+domain_route:OE"}, {"md_atom_id": "md_dmOE_ex_a006", "md_file": "knowledge_base/domains/OE/examples.md", "md_atom_type": "SENTENCE", "md_parent_section": "§OE.1 [Example 1]", "md_verbatim": "**oe.xpt**", "score": 0.31, "match_basis": "verbatim_token+domain_route:OE"}, {"md_atom_id": "md_dmOE_ex_a025", "md_file": "knowledge_base/domains/OE/examples.md", "md_atom_type": "SENTENCE", "md_parent_section": "§OE.2 [Example 2]", "md_verbatim": "**oe.xpt**", "score": 0.31, "match_basis": "verbatim_token+domain_route:OE"}, {"md_atom_id": "md_dmOE_ex_a048", "md_file": "knowledge_base/domains/OE/examples.md", "md_atom_type": "SENTENCE", "md_parent_section": "§OE.3 [Example 3]", "md_verbatim": "**oe.xpt**", "score": 0.31, "match_basis": "verbatim_token+domain_route:OE"}, {"md_atom_id": "md_dmOE_ex_a063", "md_file": "knowledge_base/domains/OE/examples.md", "md_atom_type": "SENTENCE", "md_parent_section": "§OE.3 [Example 3]", "md_verbatim": "**pr.xpt**", "score": 0.31, "match_basis": "verbatim_token+domain_route:OE"}, {"md_atom_id": "md_dmOE_ex_a071", "md_file": "knowledge_base/domains/OE/examples.md", "md_atom_type": "SENTENCE", "md_parent_section": "§OE.3 [Example 3]", "md_verbatim": "**di.xpt**", "score": 0.31, "match_basis": "verbatim_token+domain_route:OE"}, {"md_atom_id": "md_dmOE_ex_a091", "md_file": "knowledge_base/domains/OE/examples.md", "md_atom_type": "SENTENCE", "md_parent_section": "§OE.4 [Example 4]", "md_verbatim": "**oe.xpt**", "score": 0.31, "match_basis": "verbatim_token+domain_route:OE"}, {"md_atom_id": "md_dmOE_ex_a045", "md_file": "knowledge_base/domains/OE/examples.md", "md_atom_type": "LIST_ITEM", "md_parent_section": "§OE.3 [Example 3]", "md_verbatim": "- The relationship between the OE and PR domains in the RELREC dataset", "score": 0.2674, "match_basis": "verbatim_token+domain_route:OE"}, {"md_atom_id": "md_dmOE_ex_a012", "md_file": "knowledge_base/domains/OE/examples.md", "md_atom_type": "SENTENCE", "md_parent_section": "§OE.1 [Example 1]", "md_verbatim": "**suppoe.xpt**", "score": 0.2567, "match_basis": "verbatim_token+domain_route:OE"}, {"md_atom_id": "md_dmOE_ex_a036", "md_file": "knowledge_base/domains/OE/examples.md", "md_atom_type": "SENTENCE", "md_parent_section": "§OE.2 [Example 2]", "md_verbatim": "**suppoe.xpt**", "score": 0.2567, "match_basis": "verbatim_token+domain_route:OE"}], "candidate_count": 10, "zero_candidate": false}
{"pdf_atom_id": "ig34_p0304_a012", "pdf_atom_type": "TABLE_HEADER", "pdf_source": "SDTMIG_v3.4", "pdf_page": 304, "pdf_parent_section": "§6.3.7.5 Ophthalmic Examinations (OE)", "pdf_verbatim": "| Row | STUDYID | RDOMAIN | USUBJID | IDVAR | IDVARVAL | RELTYPE | RELID |", "figure_ref": null, "candidates": [{"md_atom_id": "md_dmOE_ex_a079", "md_file": "knowledge_base/domains/OE/examples.md", "md_atom_type": "TABLE_HEADER", "md_parent_section": "§OE.3 [Example 3]", "md_verbatim": "| Row | STUDYID | RDOMAIN | USUBJID | IDVAR | IDVARVAL | RELTYPE | RELID |\n|-----|---------|---------|---------|-------|----------|---------|-------|", "score": 1.0, "match_basis": "verbatim_token+domain_route:OE"}, {"md_atom_id": "md_dmOE_ex_a013", "md_file": "knowledge_base/domains/OE/examples.md", "md_atom_type": "TABLE_HEADER", "md_parent_section": "§OE.1 [Example 1]", "md_verbatim": "| Row | STUDYID | RDOMAIN | USUBJID | IDVAR | IDVARVAL | QNAM | QLABEL | QVAL |\n|-----|---------|---------|---------|-------|----------|------|--------|------|", "score": 0.7667, "match_basis": "verbatim_token+domain_route:OE"}, {"md_atom_id": "md_dmOE_ex_a037", "md_file": "knowledge_base/domains/OE/examples.md", "md_atom_type": "TABLE_HEADER", "md_parent_section": "§OE.2 [Example 2]", "md_verbatim": "| Row | STUDYID | RDOMAIN | USUBJID | IDVAR | IDVARVAL | QNAM | QLABEL | QVAL |\n|-----|---------|---------|---------|-------|----------|------|--------|------|", "score": 0.7667, "match_basis": "verbatim_token+domain_route:OE"}, {"md_atom_id": "md_dmOE_ex_a058", "md_file": "knowledge_base/domains/OE/examples.md", "md_atom_type": "TABLE_HEADER", "md_parent_section": "§OE.3 [Example 3]", "md_verbatim": "| Row | STUDYID | RDOMAIN | USUBJID | IDVAR | IDVARVAL | QNAM | QLABEL | QVAL |\n|-----|---------|---------|---------|-------|----------|------|--------|------|", "score": 0.7667, "match_basis": "verbatim_token+domain_route:OE"}, {"md_atom_id": "md_dmOE_ex_a099", "md_file": "knowledge_base/domains/OE/examples.md", "md_atom_type": "TABLE_HEADER", "md_parent_section": "§OE.4 [Example 4]", "md_verbatim": "| Row | STUDYID | RDOMAIN | USUBJID | IDVAR | IDVARVAL | QNAM | QLABEL | QVAL |\n|-----|---------|---------|---------|-------|----------|------|--------|------|", "score": 0.7667, "match_basis": "verbatim_token+domain_route:OE"}], "candidate_count": 5, "zero_candidate": false}
{"pdf_atom_id": "ig34_p0304_a013", "pdf_atom_type": "TABLE_ROW", "pdf_source": "SDTMIG_v3.4", "pdf_page": 304, "pdf_parent_section": "§6.3.7.5 Ophthalmic Examinations (OE)", "pdf_verbatim": "| 1 | XYZ | PR | XYZ-100-001 | PRLNKID | 1 | ONE | 13 |", "figure_ref": null, "candidates": [{"md_atom_id": "md_dmOE_ex_a080", "md_file": "knowledge_base/domains/OE/examples.md", "md_atom_type": "TABLE_ROW", "md_parent_section": "§OE.3 [Example 3]", "md_verbatim": "| 1 | XYZ | PR | | PRLNKID | | ONE | 13 |", "score": 0.8667, "match_basis": "verbatim_token+domain_route:OE"}, {"md_atom_id": "md_dmOE_ex_a081", "md_file": "knowledge_base/domains/OE/examples.md", "md_atom_type": "TABLE_ROW", "md_parent_section": "§OE.3 [Example 3]", "md_verbatim": "| 2 | XYZ | OE | | OELNKID | | MANY | 13 |", "score": 0.5846, "match_basis": "verbatim_token+domain_route:OE"}, {"md_atom_id": "md_dmOE_ex_a059", "md_file": "knowledge_base/domains/OE/examples.md", "md_atom_type": "TABLE_ROW", "md_parent_section": "§OE.3 [Example 3]", "md_verbatim": "| 1 | XYZ | OE | XYZ-100-001 | OELNKID | 1 | OEEVLDTC | Evaluation Date | 2012-04-30 |", "score": 0.5241, "match_basis": "verbatim_token+domain_route:OE"}, {"md_atom_id": "md_dmOE_ex_a060", "md_file": "knowledge_base/domains/OE/examples.md", "md_atom_type": "TABLE_ROW", "md_parent_section": "§OE.3 [Example 3]", "md_verbatim": "| 2 | XYZ | OE | XYZ-100-001 | OELNKID | 2 | OEEVLDTC | Evaluation Date | 2012-04-30 |", "score": 0.5241, "match_basis": "verbatim_token+domain_route:OE"}, {"md_atom_id": "md_dmOE_ex_a067", "md_file": "knowledge_base/domains/OE/examples.md", "md_atom_type": "TABLE_ROW", "md_parent_section": "§OE.3 [Example 3]", "md_verbatim": "| 3 | XYZ | PR | XYZ-100-001 | OS | 100 | 3 | 3 | OCT | Y | Y | | EYE | LEFT | 2012-05-25T08:30:00 | 2 | VISIT 1 |", "score": 0.4857, "match_basis": "verbatim_token+domain_route:OE"}], "candidate_count": 5, "zero_candidate": false}
{"pdf_atom_id": "ig34_p0304_a014", "pdf_atom_type": "TABLE_ROW", "pdf_source": "SDTMIG_v3.4", "pdf_page": 304, "pdf_parent_section": "§6.3.7.5 Ophthalmic Examinations (OE)", "pdf_verbatim": "| 2 | XYZ | OE | | OELNKID | | MANY | 13 |", "figure_ref": null, "candidates": [{"md_atom_id": "md_dmOE_ex_a081", "md_file": "knowledge_base/domains/OE/examples.md", "md_atom_type": "TABLE_ROW", "md_parent_section": "§OE.3 [Example 3]", "md_verbatim": "| 2 | XYZ | OE | | OELNKID | | MANY | 13 |", "score": 1.0, "match_basis": "verbatim_token+domain_route:OE"}, {"md_atom_id": "md_dmOE_ex_a080", "md_file": "knowledge_base/domains/OE/examples.md", "md_atom_type": "TABLE_ROW", "md_parent_section": "§OE.3 [Example 3]", "md_verbatim": "| 1 | XYZ | PR | | PRLNKID | | ONE | 13 |", "score": 0.6182, "match_basis": "verbatim_token+domain_route:OE"}, {"md_atom_id": "md_dmOE_ex_a059", "md_file": "knowledge_base/domains/OE/examples.md", "md_atom_type": "TABLE_ROW", "md_parent_section": "§OE.3 [Example 3]", "md_verbatim": "| 1 | XYZ | OE | XYZ-100-001 | OELNKID | 1 | OEEVLDTC | Evaluation Date | 2012-04-30 |", "score": 0.5286, "match_basis": "verbatim_token+domain_route:OE"}, {"md_atom_id": "md_dmOE_ex_a060", "md_file": "knowledge_base/domains/OE/examples.md", "md_atom_type": "TABLE_ROW", "md_parent_section": "§OE.3 [Example 3]", "md_verbatim": "| 2 | XYZ | OE | XYZ-100-001 | OELNKID | 2 | OEEVLDTC | Evaluation Date | 2012-04-30 |", "score": 0.5286, "match_basis": "verbatim_token+domain_route:OE"}, {"md_atom_id": "md_dmOE_ex_a074", "md_file": "knowledge_base/domains/OE/examples.md", "md_atom_type": "TABLE_ROW", "md_parent_section": "§OE.3 [Example 3]", "md_verbatim": "| 2 | XYZ | DI | 100 | 2 | MANUF | Manufacturer | ZEISS |", "score": 0.4571, "match_basis": "verbatim_token+domain_route:OE"}], "candidate_count": 5, "zero_candidate": false}
{"pdf_atom_id": "ig34_p0304_a015", "pdf_atom_type": "HEADING", "pdf_source": "SDTMIG_v3.4", "pdf_page": 304, "pdf_parent_section": "§6.3.7.5 Ophthalmic Examinations (OE)", "pdf_verbatim": "Example 4", "figure_ref": null, "candidates": [{"md_atom_id": "md_dmOE_ex_a002", "md_file": "knowledge_base/domains/OE/examples.md", "md_atom_type": "HEADING", "md_parent_section": "§OE [OE — Examples]", "md_verbatim": "## Example 1", "score": 1.0, "match_basis": "verbatim_token+domain_route:OE"}, {"md_atom_id": "md_dmOE_ex_a016", "md_file": "knowledge_base/domains/OE/examples.md", "md_atom_type": "HEADING", "md_parent_section": "§OE [OE — Examples]", "md_verbatim": "## Example 2", "score": 1.0, "match_basis": "verbatim_token+domain_route:OE"}, {"md_atom_id": "md_dmOE_ex_a040", "md_file": "knowledge_base/domains/OE/examples.md", "md_atom_type": "HEADING", "md_parent_section": "§OE [OE — Examples]", "md_verbatim": "## Example 3", "score": 1.0, "match_basis": "verbatim_token+domain_route:OE"}, {"md_atom_id": "md_dmOE_ex_a082", "md_file": "knowledge_base/domains/OE/examples.md", "md_atom_type": "HEADING", "md_parent_section": "§OE [OE — Examples]", "md_verbatim": "## Example 4", "score": 1.0, "match_basis": "verbatim_token+domain_route:OE"}, {"md_atom_id": "md_dmOE_ex_a001", "md_file": "knowledge_base/domains/OE/examples.md", "md_atom_type": "HEADING", "md_parent_section": "§OE [OE — Examples]", "md_verbatim": "# OE — Examples", "score": 0.9, "match_basis": "verbatim_token+domain_route:OE"}, {"md_atom_id": "md_dmOE_assn_a001", "md_file": "knowledge_base/domains/OE/assumptions.md", "md_atom_type": "HEADING", "md_parent_section": "§OE [OE — Assumptions]", "md_verbatim": "# OE — Assumptions", "score": 0.4, "match_basis": "verbatim_token+domain_route:OE"}], "candidate_count": 6, "zero_candidate": false}
{"pdf_atom_id": "ig34_p0304_a016", "pdf_atom_type": "SENTENCE", "pdf_source": "SDTMIG_v3.4", "pdf_page": 304, "pdf_parent_section": "§6.3.7.5 Ophthalmic Examinations (OE)", "pdf_verbatim": "This example shows:", "figure_ref": null, "candidates": [{"md_atom_id": "md_dmOE_ex_a017", "md_file": "knowledge_base/domains/OE/examples.md", "md_atom_type": "SENTENCE", "md_parent_section": "§OE.2 [Example 2]", "md_verbatim": "This example shows:", "score": 1.0, "match_basis": "verbatim_token+domain_route:OE"}, {"md_atom_id": "md_dmOE_ex_a041", "md_file": "knowledge_base/domains/OE/examples.md", "md_atom_type": "SENTENCE", "md_parent_section": "§OE.3 [Example 3]", "md_verbatim": "This example shows:", "score": 1.0, "match_basis": "verbatim_token+domain_route:OE"}, {"md_atom_id": "md_dmOE_ex_a083", "md_file": "knowledge_base/domains/OE/examples.md", "md_atom_type": "SENTENCE", "md_parent_section": "§OE.4 [Example 4]", "md_verbatim": "This example shows:", "score": 1.0, "match_basis": "verbatim_token+domain_route:OE"}, {"md_atom_id": "md_dmOE_ex_a003", "md_file": "knowledge_base/domains/OE/examples.md", "md_atom_type": "SENTENCE", "md_parent_section": "§OE.1 [Example 1]", "md_verbatim": "This example shows a general anterior segment examination performed on each eye at 1 visit, with the purpose of evaluating general abnormalities.", "score": 0.4845, "match_basis": "verbatim_token+domain_route:OE"}, {"md_atom_id": "md_dmOE_ex_a002", "md_file": "knowledge_base/domains/OE/examples.md", "md_atom_type": "HEADING", "md_parent_section": "§OE [OE — Examples]", "md_verbatim": "## Example 1", "score": 0.46, "match_basis": "verbatim_token+domain_route:OE"}], "candidate_count": 5, "zero_candidate": false}
{"pdf_atom_id": "ig34_p0304_a017", "pdf_atom_type": "LIST_ITEM", "pdf_source": "SDTMIG_v3.4", "pdf_page": 304, "pdf_parent_section": "§6.3.7.5 Ophthalmic Examinations (OE)", "pdf_verbatim": "A CRF that collects subject's comfort of a lubricant eye drop for keratoconjunctivitis sicca (dry eye) on a numeric scale (i.e., 1 to 10, with 1 meaning most comfortable and 10 meaning most uncomfortable)", "figure_ref": null, "candidates": [{"md_atom_id": "md_dmOE_ex_a084", "md_file": "knowledge_base/domains/OE/examples.md", "md_atom_type": "LIST_ITEM", "md_parent_section": "§OE.4 [Example 4]", "md_verbatim": "- A CRF that collects subject's comfort of a lubricant eye drop for keratoconjunctivitis sicca (dry eye) on a numeric scale (i.e., 1 to 10, with 1 meaning most comfortable and 10 meaning most uncomfortable)", "score": 1.0, "match_basis": "verbatim_token+domain_route:OE"}, {"md_atom_id": "md_dmOE_ex_a085", "md_file": "knowledge_base/domains/OE/examples.md", "md_atom_type": "LIST_ITEM", "md_parent_section": "§OE.4 [Example 4]", "md_verbatim": "- The use of the NSV OERESCRT, to describe the numeric scale", "score": 0.4565, "match_basis": "verbatim_token+domain_route:OE"}, {"md_atom_id": "md_dmOE_ex_a086", "md_file": "knowledge_base/domains/OE/examples.md", "md_atom_type": "LIST_ITEM", "md_parent_section": "§OE.4 [Example 4]", "md_verbatim": "- A subject who experienced an adverse event on the eye. The FOCID variable is included in the AE domain to allow the grouping of all ophthalmic observations.", "score": 0.45, "match_basis": "verbatim_token+domain_route:OE"}, {"md_atom_id": "md_dmOE_ex_a018", "md_file": "knowledge_base/domains/OE/examples.md", "md_atom_type": "LIST_ITEM", "md_parent_section": "§OE.2 [Example 2]", "md_verbatim": "- Different assessments, from the front to the back of the eye, for 1 subject at 1 visit", "score": 0.4433, "match_basis": "verbatim_token+domain_route:OE"}, {"md_atom_id": "md_dmOE_assn_a003", "md_file": "knowledge_base/domains/OE/assumptions.md", "md_atom_type": "LIST_ITEM", "md_parent_section": "§OE [OE — Assumptions]", "md_verbatim": "2. In any study that uses FOCID, FOCID would be included in records in any subject-level domain representing findings, interventions, or events (e.g., Adverse Events) related to the eyes. Whether or not FOCID is used in a study, --LOC and --LAT should be populated in records related to the eyes. The value in OELOC may be \"EYE\" but may also be a part of the eye (e.g., \"RETINA\", \"CORNEA\").", "score": 0.4357, "match_basis": "verbatim_token+domain_route:OE"}], "candidate_count": 5, "zero_candidate": false}
{"pdf_atom_id": "ig34_p0304_a018", "pdf_atom_type": "LIST_ITEM", "pdf_source": "SDTMIG_v3.4", "pdf_page": 304, "pdf_parent_section": "§6.3.7.5 Ophthalmic Examinations (OE)", "pdf_verbatim": "The use of the NSV OERESCRT, to describe the numeric scale", "figure_ref": null, "candidates": [{"md_atom_id": "md_dmOE_ex_a085", "md_file": "knowledge_base/domains/OE/examples.md", "md_atom_type": "LIST_ITEM", "md_parent_section": "§OE.4 [Example 4]", "md_verbatim": "- The use of the NSV OERESCRT, to describe the numeric scale", "score": 1.0, "match_basis": "verbatim_token+domain_route:OE"}, {"md_atom_id": "md_dmOE_ex_a043", "md_file": "knowledge_base/domains/OE/examples.md", "md_atom_type": "LIST_ITEM", "md_parent_section": "§OE.3 [Example 3]", "md_verbatim": "- The use of the NSV EVLDTC", "score": 0.472, "match_basis": "verbatim_token+domain_route:OE"}, {"md_atom_id": "md_dmOE_ex_a084", "md_file": "knowledge_base/domains/OE/examples.md", "md_atom_type": "LIST_ITEM", "md_parent_section": "§OE.4 [Example 4]", "md_verbatim": "- A CRF that collects subject's comfort of a lubricant eye drop for keratoconjunctivitis sicca (dry eye) on a numeric scale (i.e., 1 to 10, with 1 meaning most comfortable and 10 meaning most uncomfortable)", "score": 0.4565, "match_basis": "verbatim_token+domain_route:OE"}, {"md_atom_id": "md_dmOE_ex_a044", "md_file": "knowledge_base/domains/OE/examples.md", "md_atom_type": "LIST_ITEM", "md_parent_section": "§OE.3 [Example 3]", "md_verbatim": "- The use of the Procedures (PR) domain to represent the optical coherence tomography (OCT) procedure details, with specific device characteristics in the DI domain", "score": 0.4424, "match_basis": "verbatim_token+domain_route:OE"}, {"md_atom_id": "md_dmOE_ex_a019", "md_file": "knowledge_base/domains/OE/examples.md", "md_atom_type": "LIST_ITEM", "md_parent_section": "§OE.2 [Example 2]", "md_verbatim": "- The use of the supplemental qualifier non-standard variable (NSV) OEEDILST (Eye Dilation Status)", "score": 0.4273, "match_basis": "verbatim_token+domain_route:OE"}], "candidate_count": 5, "zero_candidate": false}
{"pdf_atom_id": "ig34_p0304_a019", "pdf_atom_type": "LIST_ITEM", "pdf_source": "SDTMIG_v3.4", "pdf_page": 304, "pdf_parent_section": "§6.3.7.5 Ophthalmic Examinations (OE)", "pdf_verbatim": "A subject who experienced an adverse event on the eye. The FOCID variable is included in the AE domain to allow the grouping of all ophthalmic observations.", "figure_ref": null, "candidates": [{"md_atom_id": "md_dmOE_ex_a086", "md_file": "knowledge_base/domains/OE/examples.md", "md_atom_type": "LIST_ITEM", "md_parent_section": "§OE.4 [Example 4]", "md_verbatim": "- A subject who experienced an adverse event on the eye. The FOCID variable is included in the AE domain to allow the grouping of all ophthalmic observations.", "score": 1.0, "match_basis": "verbatim_token+domain_route:OE"}, {"md_atom_id": "md_dmOE_assn_a003", "md_file": "knowledge_base/domains/OE/assumptions.md", "md_atom_type": "LIST_ITEM", "md_parent_section": "§OE [OE — Assumptions]", "md_verbatim": "2. In any study that uses FOCID, FOCID would be included in records in any subject-level domain representing findings, interventions, or events (e.g., Adverse Events) related to the eyes. Whether or not FOCID is used in a study, --LOC and --LAT should be populated in records related to the eyes. The value in OELOC may be \"EYE\" but may also be a part of the eye (e.g., \"RETINA\", \"CORNEA\").", "score": 0.5427, "match_basis": "verbatim_token+domain_route:OE"}, {"md_atom_id": "md_dmOE_assn_a004", "md_file": "knowledge_base/domains/OE/assumptions.md", "md_atom_type": "LIST_ITEM", "md_parent_section": "§OE [OE — Assumptions]", "md_verbatim": "3. Any Identifiers, Timing variables, or Findings general observation class qualifiers may be added to the OE domain, but the following qualifiers would not generally be used: --MODIFY, --NSPCES, --POS, --BODSYS, --ORREF, --STREFC, --STREFN, --CHRON, --DISTR, --ANTREG, --LEAD, --FAST, --TOX, --TOXGR, --LLOQ, --ULOQ.", "score": 0.5066, "match_basis": "verbatim_token+domain_route:OE"}, {"md_atom_id": "md_dmOE_assn_a002", "md_file": "knowledge_base/domains/OE/assumptions.md", "md_atom_type": "LIST_ITEM", "md_parent_section": "§OE [OE — Assumptions]", "md_verbatim": "1. In ophthalmic studies, the eyes are usually sites of treatment. It is appropriate to identify sites using the variable FOCID. When FOCID is used to identify the eyes, it is recommended that the values \"OD\" (oculus dexter, right eye), \"OS\" (oculus sinister, left eye), and \"OU\" (oculus uterque, both eyes) be used in FOCID. These terms are the exclusively preferred terms used by the ophthalmology community as abbreviations for the expanded Latin terms, and are included in the nonextensible CDISC Ophthalmic Focus of Study Specific Interest (OEFOCUS) codelist.", "score": 0.4921, "match_basis": "verbatim_token+domain_route:OE"}, {"md_atom_id": "md_dmOE_ex_a019", "md_file": "knowledge_base/domains/OE/examples.md", "md_atom_type": "LIST_ITEM", "md_parent_section": "§OE.2 [Example 2]", "md_verbatim": "- The use of the supplemental qualifier non-standard variable (NSV) OEEDILST (Eye Dilation Status)", "score": 0.4673, "match_basis": "verbatim_token+domain_route:OE"}], "candidate_count": 5, "zero_candidate": false}
{"pdf_atom_id": "ig34_p0304_a020", "pdf_atom_type": "LIST_ITEM", "pdf_source": "SDTMIG_v3.4", "pdf_page": 304, "pdf_parent_section": "§6.3.7.5 Ophthalmic Examinations (OE)", "pdf_verbatim": "Row 1: Represents the subject's assessment of ocular comfort in the right eye, upon installation of a lubricant eye drop for dry eye.", "figure_ref": null, "candidates": [{"md_atom_id": "md_dmOE_ex_a087", "md_file": "knowledge_base/domains/OE/examples.md", "md_atom_type": "SENTENCE", "md_parent_section": "§OE.4 [Example 4]", "md_verbatim": "**Row 1:** Represents the subject's assessment of ocular comfort in the right eye, upon instillation of a lubricant eye drop for dry eye.", "score": 0.85, "match_basis": "verbatim_token+domain_route:OE"}, {"md_atom_id": "md_dmOE_ex_a089", "md_file": "knowledge_base/domains/OE/examples.md", "md_atom_type": "SENTENCE", "md_parent_section": "§OE.4 [Example 4]", "md_verbatim": "**Row 3:** Represents the subject's assessment of ocular comfort in the left eye, upon instillation of a lubricant eye drop for dry eye.", "score": 0.8035, "match_basis": "verbatim_token+domain_route:OE"}, {"md_atom_id": "md_dmOE_ex_a088", "md_file": "knowledge_base/domains/OE/examples.md", "md_atom_type": "SENTENCE", "md_parent_section": "§OE.4 [Example 4]", "md_verbatim": "**Row 2:** Represents the subject's assessment of ocular comfort in the right eye, 1 minute post-instillation of a lubricant eye drop for dry eye.", "score": 0.7827, "match_basis": "verbatim_token+domain_route:OE"}, {"md_atom_id": "md_dmOE_ex_a090", "md_file": "knowledge_base/domains/OE/examples.md", "md_atom_type": "SENTENCE", "md_parent_section": "§OE.4 [Example 4]", "md_verbatim": "**Row 4:** Represents the subject's assessment of ocular comfort in the left eye, 1 minute post-instillation of a lubricant eye drop for dry eye.", "score": 0.7424, "match_basis": "verbatim_token+domain_route:OE"}, {"md_atom_id": "md_dmOE_ex_a018", "md_file": "knowledge_base/domains/OE/examples.md", "md_atom_type": "LIST_ITEM", "md_parent_section": "§OE.2 [Example 2]", "md_verbatim": "- Different assessments, from the front to the back of the eye, for 1 subject at 1 visit", "score": 0.5417, "match_basis": "verbatim_token+domain_route:OE"}], "candidate_count": 5, "zero_candidate": false}
{"pdf_atom_id": "ig34_p0304_a021", "pdf_atom_type": "LIST_ITEM", "pdf_source": "SDTMIG_v3.4", "pdf_page": 304, "pdf_parent_section": "§6.3.7.5 Ophthalmic Examinations (OE)", "pdf_verbatim": "Row 2: Represents the subject's assessment of ocular comfort in the right eye, 1 minute post-installation of a lubricant eye drop for dry eye.", "figure_ref": null, "candidates": [{"md_atom_id": "md_dmOE_ex_a088", "md_file": "knowledge_base/domains/OE/examples.md", "md_atom_type": "SENTENCE", "md_parent_section": "§OE.4 [Example 4]", "md_verbatim": "**Row 2:** Represents the subject's assessment of ocular comfort in the right eye, 1 minute post-instillation of a lubricant eye drop for dry eye.", "score": 0.8537, "match_basis": "verbatim_token+domain_route:OE"}, {"md_atom_id": "md_dmOE_ex_a090", "md_file": "knowledge_base/domains/OE/examples.md", "md_atom_type": "SENTENCE", "md_parent_section": "§OE.4 [Example 4]", "md_verbatim": "**Row 4:** Represents the subject's assessment of ocular comfort in the left eye, 1 minute post-instillation of a lubricant eye drop for dry eye.", "score": 0.81, "match_basis": "verbatim_token+domain_route:OE"}, {"md_atom_id": "md_dmOE_ex_a087", "md_file": "knowledge_base/domains/OE/examples.md", "md_atom_type": "SENTENCE", "md_parent_section": "§OE.4 [Example 4]", "md_verbatim": "**Row 1:** Represents the subject's assessment of ocular comfort in the right eye, upon instillation of a lubricant eye drop for dry eye.", "score": 0.7827, "match_basis": "verbatim_token+domain_route:OE"}, {"md_atom_id": "md_dmOE_ex_a089", "md_file": "knowledge_base/domains/OE/examples.md", "md_atom_type": "SENTENCE", "md_parent_section": "§OE.4 [Example 4]", "md_verbatim": "**Row 3:** Represents the subject's assessment of ocular comfort in the left eye, upon instillation of a lubricant eye drop for dry eye.", "score": 0.7424, "match_basis": "verbatim_token+domain_route:OE"}, {"md_atom_id": "md_dmOE_ex_a018", "md_file": "knowledge_base/domains/OE/examples.md", "md_atom_type": "LIST_ITEM", "md_parent_section": "§OE.2 [Example 2]", "md_verbatim": "- Different assessments, from the front to the back of the eye, for 1 subject at 1 visit", "score": 0.5342, "match_basis": "verbatim_token+domain_route:OE"}], "candidate_count": 5, "zero_candidate": false}
{"pdf_atom_id": "ig34_p0304_a022", "pdf_atom_type": "LIST_ITEM", "pdf_source": "SDTMIG_v3.4", "pdf_page": 304, "pdf_parent_section": "§6.3.7.5 Ophthalmic Examinations (OE)", "pdf_verbatim": "Row 3: Represents the subject's assessment of ocular comfort in the left eye, upon installation of a lubricant eye drop for dry eye.", "figure_ref": null, "candidates": [{"md_atom_id": "md_dmOE_ex_a089", "md_file": "knowledge_base/domains/OE/examples.md", "md_atom_type": "SENTENCE", "md_parent_section": "§OE.4 [Example 4]", "md_verbatim": "**Row 3:** Represents the subject's assessment of ocular comfort in the left eye, upon instillation of a lubricant eye drop for dry eye.", "score": 0.849, "match_basis": "verbatim_token+domain_route:OE"}, {"md_atom_id": "md_dmOE_ex_a087", "md_file": "knowledge_base/domains/OE/examples.md", "md_atom_type": "SENTENCE", "md_parent_section": "§OE.4 [Example 4]", "md_verbatim": "**Row 1:** Represents the subject's assessment of ocular comfort in the right eye, upon instillation of a lubricant eye drop for dry eye.", "score": 0.8035, "match_basis": "verbatim_token+domain_route:OE"}, {"md_atom_id": "md_dmOE_ex_a090", "md_file": "knowledge_base/domains/OE/examples.md", "md_atom_type": "SENTENCE", "md_parent_section": "§OE.4 [Example 4]", "md_verbatim": "**Row 4:** Represents the subject's assessment of ocular comfort in the left eye, 1 minute post-instillation of a lubricant eye drop for dry eye.", "score": 0.7808, "match_basis": "verbatim_token+domain_route:OE"}, {"md_atom_id": "md_dmOE_ex_a088", "md_file": "knowledge_base/domains/OE/examples.md", "md_atom_type": "SENTENCE", "md_parent_section": "§OE.4 [Example 4]", "md_verbatim": "**Row 2:** Represents the subject's assessment of ocular comfort in the right eye, 1 minute post-instillation of a lubricant eye drop for dry eye.", "score": 0.7424, "match_basis": "verbatim_token+domain_route:OE"}, {"md_atom_id": "md_dmOE_ex_a018", "md_file": "knowledge_base/domains/OE/examples.md", "md_atom_type": "LIST_ITEM", "md_parent_section": "§OE.2 [Example 2]", "md_verbatim": "- Different assessments, from the front to the back of the eye, for 1 subject at 1 visit", "score": 0.5437, "match_basis": "verbatim_token+domain_route:OE"}], "candidate_count": 5, "zero_candidate": false}
{"pdf_atom_id": "ig34_p0304_a023", "pdf_atom_type": "LIST_ITEM", "pdf_source": "SDTMIG_v3.4", "pdf_page": 304, "pdf_parent_section": "§6.3.7.5 Ophthalmic Examinations (OE)", "pdf_verbatim": "Row 4: Represents the subject's assessment of ocular comfort in the left eye, 1 minute post-installation of a lubricant eye drop for dry eye.", "figure_ref": null, "candidates": [{"md_atom_id": "md_dmOE_ex_a090", "md_file": "knowledge_base/domains/OE/examples.md", "md_atom_type": "SENTENCE", "md_parent_section": "§OE.4 [Example 4]", "md_verbatim": "**Row 4:** Represents the subject's assessment of ocular comfort in the left eye, 1 minute post-instillation of a lubricant eye drop for dry eye.", "score": 0.8529, "match_basis": "verbatim_token+domain_route:OE"}, {"md_atom_id": "md_dmOE_ex_a088", "md_file": "knowledge_base/domains/OE/examples.md", "md_atom_type": "SENTENCE", "md_parent_section": "§OE.4 [Example 4]", "md_verbatim": "**Row 2:** Represents the subject's assessment of ocular comfort in the right eye, 1 minute post-instillation of a lubricant eye drop for dry eye.", "score": 0.81, "match_basis": "verbatim_token+domain_route:OE"}, {"md_atom_id": "md_dmOE_ex_a089", "md_file": "knowledge_base/domains/OE/examples.md", "md_atom_type": "SENTENCE", "md_parent_section": "§OE.4 [Example 4]", "md_verbatim": "**Row 3:** Represents the subject's assessment of ocular comfort in the left eye, upon instillation of a lubricant eye drop for dry eye.", "score": 0.7808, "match_basis": "verbatim_token+domain_route:OE"}, {"md_atom_id": "md_dmOE_ex_a087", "md_file": "knowledge_base/domains/OE/examples.md", "md_atom_type": "SENTENCE", "md_parent_section": "§OE.4 [Example 4]", "md_verbatim": "**Row 1:** Represents the subject's assessment of ocular comfort in the right eye, upon instillation of a lubricant eye drop for dry eye.", "score": 0.7424, "match_basis": "verbatim_token+domain_route:OE"}, {"md_atom_id": "md_dmOE_ex_a018", "md_file": "knowledge_base/domains/OE/examples.md", "md_atom_type": "LIST_ITEM", "md_parent_section": "§OE.2 [Example 2]", "md_verbatim": "- Different assessments, from the front to the back of the eye, for 1 subject at 1 visit", "score": 0.536, "match_basis": "verbatim_token+domain_route:OE"}], "candidate_count": 5, "zero_candidate": false}
{"pdf_atom_id": "ig34_p0304_a024", "pdf_atom_type": "CODE_LITERAL", "pdf_source": "SDTMIG_v3.4", "pdf_page": 304, "pdf_parent_section": "§6.3.7.5 Ophthalmic Examinations (OE)", "pdf_verbatim": "oe.xpt", "figure_ref": null, "candidates": [{"md_atom_id": "md_dmOE_ex_a006", "md_file": "knowledge_base/domains/OE/examples.md", "md_atom_type": "SENTENCE", "md_parent_section": "§OE.1 [Example 1]", "md_verbatim": "**oe.xpt**", "score": 0.79, "match_basis": "verbatim_token+domain_route:OE"}, {"md_atom_id": "md_dmOE_ex_a025", "md_file": "knowledge_base/domains/OE/examples.md", "md_atom_type": "SENTENCE", "md_parent_section": "§OE.2 [Example 2]", "md_verbatim": "**oe.xpt**", "score": 0.79, "match_basis": "verbatim_token+domain_route:OE"}, {"md_atom_id": "md_dmOE_ex_a048", "md_file": "knowledge_base/domains/OE/examples.md", "md_atom_type": "SENTENCE", "md_parent_section": "§OE.3 [Example 3]", "md_verbatim": "**oe.xpt**", "score": 0.79, "match_basis": "verbatim_token+domain_route:OE"}, {"md_atom_id": "md_dmOE_ex_a063", "md_file": "knowledge_base/domains/OE/examples.md", "md_atom_type": "SENTENCE", "md_parent_section": "§OE.3 [Example 3]", "md_verbatim": "**pr.xpt**", "score": 0.79, "match_basis": "verbatim_token+domain_route:OE"}, {"md_atom_id": "md_dmOE_ex_a071", "md_file": "knowledge_base/domains/OE/examples.md", "md_atom_type": "SENTENCE", "md_parent_section": "§OE.3 [Example 3]", "md_verbatim": "**di.xpt**", "score": 0.79, "match_basis": "verbatim_token+domain_route:OE"}, {"md_atom_id": "md_dmOE_ex_a091", "md_file": "knowledge_base/domains/OE/examples.md", "md_atom_type": "SENTENCE", "md_parent_section": "§OE.4 [Example 4]", "md_verbatim": "**oe.xpt**", "score": 0.79, "match_basis": "verbatim_token+domain_route:OE"}, {"md_atom_id": "md_dmOE_ex_a012", "md_file": "knowledge_base/domains/OE/examples.md", "md_atom_type": "SENTENCE", "md_parent_section": "§OE.1 [Example 1]", "md_verbatim": "**suppoe.xpt**", "score": 0.31, "match_basis": "verbatim_token+domain_route:OE"}, {"md_atom_id": "md_dmOE_ex_a036", "md_file": "knowledge_base/domains/OE/examples.md", "md_atom_type": "SENTENCE", "md_parent_section": "§OE.2 [Example 2]", "md_verbatim": "**suppoe.xpt**", "score": 0.31, "match_basis": "verbatim_token+domain_route:OE"}, {"md_atom_id": "md_dmOE_ex_a057", "md_file": "knowledge_base/domains/OE/examples.md", "md_atom_type": "SENTENCE", "md_parent_section": "§OE.3 [Example 3]", "md_verbatim": "**suppoe.xpt**", "score": 0.31, "match_basis": "verbatim_token+domain_route:OE"}, {"md_atom_id": "md_dmOE_ex_a078", "md_file": "knowledge_base/domains/OE/examples.md", "md_atom_type": "SENTENCE", "md_parent_section": "§OE.3 [Example 3]", "md_verbatim": "**relrec.xpt**", "score": 0.31, "match_basis": "verbatim_token+domain_route:OE"}], "candidate_count": 10, "zero_candidate": false}
