{"pdf_atom_id": "ig34_p0305_a014", "pdf_atom_type": "HEADING", "pdf_source": "SDTMIG_v3.4", "pdf_page": 305, "pdf_parent_section": "§6.3.7.6 Reproductive System Findings (RP)", "pdf_verbatim": "RP – Specification", "figure_ref": null, "candidates": [{"md_atom_id": "md_dmRP_assn_a001", "md_file": "knowledge_base/domains/RP/assumptions.md", "md_atom_type": "HEADING", "md_parent_section": "§RP [RP — Assumptions]", "md_verbatim": "# RP — Assumptions", "score": 0.4667, "match_basis": "verbatim_token+domain_route:RP"}, {"md_atom_id": "md_dmRP_ex_a001", "md_file": "knowledge_base/domains/RP/examples.md", "md_atom_type": "HEADING", "md_parent_section": "§RP [RP — Examples]", "md_verbatim": "# RP — Examples", "score": 0.4, "match_basis": "verbatim_token+domain_route:RP"}, {"md_atom_id": "md_dmRP_ex_a002", "md_file": "knowledge_base/domains/RP/examples.md", "md_atom_type": "HEADING", "md_parent_section": "§RP [RP — Examples]", "md_verbatim": "## Example 1", "score": 0.4, "match_basis": "verbatim_token+domain_route:RP"}], "candidate_count": 3, "zero_candidate": false}
{"pdf_atom_id": "ig34_p0305_a015", "pdf_atom_type": "SENTENCE", "pdf_source": "SDTMIG_v3.4", "pdf_page": 305, "pdf_parent_section": "§6.3.7.6 Reproductive System Findings (RP)", "pdf_verbatim": "rp.xpt, Reproductive System Findings — Findings. One record per finding or result per time point per visit per subject, Tabulation.", "figure_ref": null, "candidates": [{"md_atom_id": "md_dmRP_ex_a003", "md_file": "knowledge_base/domains/RP/examples.md", "md_atom_type": "SENTENCE", "md_parent_section": "§RP.1 [Example 1]", "md_verbatim": "This example represents reproductive system findings at the screening visit, visit 1, and visit 2 for 2 subjects.", "score": 0.6351, "match_basis": "verbatim_token+domain_route:RP"}, {"md_atom_id": "md_dmRP_assn_a002", "md_file": "knowledge_base/domains/RP/assumptions.md", "md_atom_type": "LIST_ITEM", "md_parent_section": "§RP [RP — Assumptions]", "md_verbatim": "1. Reproductive System Findings domain contains information regarding a subject's reproductive ability and reproductive history (e.g., number of previous pregnancies, number of births, pregnant during the study).", "score": 0.46, "match_basis": "verbatim_token+domain_route:RP"}, {"md_atom_id": "md_dmRP_ex_a004", "md_file": "knowledge_base/domains/RP/examples.md", "md_atom_type": "SENTENCE", "md_parent_section": "§RP.1 [Example 1]", "md_verbatim": "**rp.xpt**", "score": 0.4115, "match_basis": "verbatim_token+domain_route:RP"}, {"md_atom_id": "md_dmRP_assn_a003", "md_file": "knowledge_base/domains/RP/assumptions.md", "md_atom_type": "LIST_ITEM", "md_parent_section": "§RP [RP — Assumptions]", "md_verbatim": "2. Information on medications related to reproduction (e.g., contraceptives, fertility treatments) should be included in the Concomitant/Prior Medications (CM) domain; see Section 6.1.2.", "score": 0.3844, "match_basis": "verbatim_token+domain_route:RP"}, {"md_atom_id": "md_dmRP_assn_a006", "md_file": "knowledge_base/domains/RP/assumptions.md", "md_atom_type": "LIST_ITEM", "md_parent_section": "§RP [RP — Assumptions]", "md_verbatim": "4. Any Identifiers, Timing variables, or Findings general observation class qualifiers may be added to the RP domain, but the following qualifiers would not generally be used: --MODIFY, --BODSYS, --LOINC, --SPCCND, --FAST, --TOX, --TOXGR, --SEV.", "score": 0.3645, "match_basis": "verbatim_token+domain_route:RP"}], "candidate_count": 5, "zero_candidate": false}
{"pdf_atom_id": "ig34_p0305_a016", "pdf_atom_type": "CODE_LITERAL", "pdf_source": "SDTMIG_v3.4", "pdf_page": 305, "pdf_parent_section": "§6.3.7.6 Reproductive System Findings (RP)", "pdf_verbatim": "rp.xpt", "figure_ref": null, "candidates": [{"md_atom_id": "md_dmRP_ex_a004", "md_file": "knowledge_base/domains/RP/examples.md", "md_atom_type": "SENTENCE", "md_parent_section": "§RP.1 [Example 1]", "md_verbatim": "**rp.xpt**", "score": 0.79, "match_basis": "verbatim_token+domain_route:RP"}, {"md_atom_id": "md_dmRP_assn_a001", "md_file": "knowledge_base/domains/RP/assumptions.md", "md_atom_type": "HEADING", "md_parent_section": "§RP [RP — Assumptions]", "md_verbatim": "# RP — Assumptions", "score": 0.19, "match_basis": "verbatim_token+domain_route:RP"}, {"md_atom_id": "md_dmRP_assn_a002", "md_file": "knowledge_base/domains/RP/assumptions.md", "md_atom_type": "LIST_ITEM", "md_parent_section": "§RP [RP — Assumptions]", "md_verbatim": "1. Reproductive System Findings domain contains information regarding a subject's reproductive ability and reproductive history (e.g., number of previous pregnancies, number of births, pregnant during the study).", "score": 0.19, "match_basis": "verbatim_token+domain_route:RP"}, {"md_atom_id": "md_dmRP_assn_a003", "md_file": "knowledge_base/domains/RP/assumptions.md", "md_atom_type": "LIST_ITEM", "md_parent_section": "§RP [RP — Assumptions]", "md_verbatim": "2. Information on medications related to reproduction (e.g., contraceptives, fertility treatments) should be included in the Concomitant/Prior Medications (CM) domain; see Section 6.1.2.", "score": 0.19, "match_basis": "verbatim_token+domain_route:RP"}, {"md_atom_id": "md_dmRP_assn_a004", "md_file": "knowledge_base/domains/RP/assumptions.md", "md_atom_type": "LIST_ITEM", "md_parent_section": "§RP [RP — Assumptions]", "md_verbatim": "3. There are separate codelists for RP tests, responses, and units.", "score": 0.19, "match_basis": "verbatim_token+domain_route:RP"}, {"md_atom_id": "md_dmRP_assn_a005", "md_file": "knowledge_base/domains/RP/assumptions.md", "md_atom_type": "LIST_ITEM", "md_parent_section": "§RP [RP — Assumptions]", "md_verbatim": "   a. Associations between RP tests and response codelists are described in the RP Codetable, available at https://www.cdisc.org/standards/terminology/controlled-terminology.", "score": 0.19, "match_basis": "verbatim_token+domain_route:RP"}, {"md_atom_id": "md_dmRP_assn_a006", "md_file": "knowledge_base/domains/RP/assumptions.md", "md_atom_type": "LIST_ITEM", "md_parent_section": "§RP [RP — Assumptions]", "md_verbatim": "4. Any Identifiers, Timing variables, or Findings general observation class qualifiers may be added to the RP domain, but the following qualifiers would not generally be used: --MODIFY, --BODSYS, --LOINC, --SPCCND, --FAST, --TOX, --TOXGR, --SEV.", "score": 0.19, "match_basis": "verbatim_token+domain_route:RP"}, {"md_atom_id": "md_dmRP_ex_a001", "md_file": "knowledge_base/domains/RP/examples.md", "md_atom_type": "HEADING", "md_parent_section": "§RP [RP — Examples]", "md_verbatim": "# RP — Examples", "score": 0.19, "match_basis": "verbatim_token+domain_route:RP"}, {"md_atom_id": "md_dmRP_ex_a002", "md_file": "knowledge_base/domains/RP/examples.md", "md_atom_type": "HEADING", "md_parent_section": "§RP [RP — Examples]", "md_verbatim": "## Example 1", "score": 0.19, "match_basis": "verbatim_token+domain_route:RP"}, {"md_atom_id": "md_dmRP_ex_a003", "md_file": "knowledge_base/domains/RP/examples.md", "md_atom_type": "SENTENCE", "md_parent_section": "§RP.1 [Example 1]", "md_verbatim": "This example represents reproductive system findings at the screening visit, visit 1, and visit 2 for 2 subjects.", "score": 0.19, "match_basis": "verbatim_token+domain_route:RP"}], "candidate_count": 10, "zero_candidate": false}
{"pdf_atom_id": "ig34_p0305_a017", "pdf_atom_type": "TABLE_HEADER", "pdf_source": "SDTMIG_v3.4", "pdf_page": 305, "pdf_parent_section": "§6.3.7.6 Reproductive System Findings (RP)", "pdf_verbatim": "| Variable Name | Variable Label | Type | Controlled Terms, Codelist or Format* | Role | CDISC Notes | Core |", "figure_ref": null, "candidates": [{"md_atom_id": "md_dmRP_ex_a005", "md_file": "knowledge_base/domains/RP/examples.md", "md_atom_type": "TABLE_HEADER", "md_parent_section": "§RP.1 [Example 1]", "md_verbatim": "| Row | STUDYID | DOMAIN | USUBJID | RPSEQ | RPTESTCD | RPTEST | RPORRES | RPORRESU | RPSTRESC | RPSTRESN | RPSTRESU | RPDUR | RPBLFL | VISITNUM | VISIT | VISITDY | RPDTC | RPDY |\n|-----|---------|--------|---------|-------|----------|--------|---------|----------|----------|----------|----------|-------|--------|----------|-------|---------|-------|------|", "score": 0.4063, "match_basis": "verbatim_token+domain_route:RP"}, {"md_atom_id": "md_dmRP_ex_a011", "md_file": "knowledge_base/domains/RP/examples.md", "md_atom_type": "TABLE_ROW", "md_parent_section": "§RP.1 [Example 1]", "md_verbatim": "| 6 | STUDYX | RP | 2324-P0001 | 6 | BCMETHOD | Birth Control Method | FOAM OR OTHER SPERMICIDES | | FOAM OR OTHER SPERMICIDES | | | P3Y | Y | 1 | SCREENING | 1 | 2008-03-09 | -10 |", "score": 0.3829, "match_basis": "verbatim_token+domain_route:RP"}, {"md_atom_id": "md_dmRP_ex_a023", "md_file": "knowledge_base/domains/RP/examples.md", "md_atom_type": "TABLE_ROW", "md_parent_section": "§RP.1 [Example 1]", "md_verbatim": "| 18 | STUDYX | RP | 2324-P0002 | 7 | BCMETHOD | Birth Control Method | DIAPHRAGM | | DIAPHRAGM | | | P3Y | Y | 1 | SCREENING | 1 | 2009-03-10 | -10 |", "score": 0.3785, "match_basis": "verbatim_token+domain_route:RP"}, {"md_atom_id": "md_dmRP_ex_a013", "md_file": "knowledge_base/domains/RP/examples.md", "md_atom_type": "TABLE_ROW", "md_parent_section": "§RP.1 [Example 1]", "md_verbatim": "| 8 | STUDYX | RP | 2324-P0001 | 8 | CHILDPOT | Childbearing Potential | Y | | Y | | | | | 2 | Day 1 | 1 | 2008-03-19 | 1 |", "score": 0.3567, "match_basis": "verbatim_token+domain_route:RP"}, {"md_atom_id": "md_dmRP_ex_a015", "md_file": "knowledge_base/domains/RP/examples.md", "md_atom_type": "TABLE_ROW", "md_parent_section": "§RP.1 [Example 1]", "md_verbatim": "| 10 | STUDYX | RP | 2324-P0001 | 10 | CHILDPOT | Childbearing Potential | Y | | Y | | | | | 3 | Day 29 | 29 | 2008-04-16 | 29 |", "score": 0.3567, "match_basis": "verbatim_token+domain_route:RP"}], "candidate_count": 5, "zero_candidate": false}
{"pdf_atom_id": "ig34_p0305_a018", "pdf_atom_type": "TABLE_ROW", "pdf_source": "SDTMIG_v3.4", "pdf_page": 305, "pdf_parent_section": "§6.3.7.6 Reproductive System Findings (RP)", "pdf_verbatim": "| STUDYID | Study Identifier | Char | | Identifier | Unique identifier for a study. | Req |", "figure_ref": null, "candidates": [{"md_atom_id": "md_dmRP_ex_a013", "md_file": "knowledge_base/domains/RP/examples.md", "md_atom_type": "TABLE_ROW", "md_parent_section": "§RP.1 [Example 1]", "md_verbatim": "| 8 | STUDYX | RP | 2324-P0001 | 8 | CHILDPOT | Childbearing Potential | Y | | Y | | | | | 2 | Day 1 | 1 | 2008-03-19 | 1 |", "score": 0.4638, "match_basis": "verbatim_token+domain_route:RP"}, {"md_atom_id": "md_dmRP_ex_a015", "md_file": "knowledge_base/domains/RP/examples.md", "md_atom_type": "TABLE_ROW", "md_parent_section": "§RP.1 [Example 1]", "md_verbatim": "| 10 | STUDYX | RP | 2324-P0001 | 10 | CHILDPOT | Childbearing Potential | Y | | Y | | | | | 3 | Day 29 | 29 | 2008-04-16 | 29 |", "score": 0.4638, "match_basis": "verbatim_token+domain_route:RP"}, {"md_atom_id": "md_dmRP_ex_a025", "md_file": "knowledge_base/domains/RP/examples.md", "md_atom_type": "TABLE_ROW", "md_parent_section": "§RP.1 [Example 1]", "md_verbatim": "| 20 | STUDYX | RP | 2324-P0002 | 9 | CHILDPOT | Childbearing Potential | N | | N | | | | | 2 | Day 1 | 1 | 2009-03-19 | 1 |", "score": 0.4638, "match_basis": "verbatim_token+domain_route:RP"}, {"md_atom_id": "md_dmRP_ex_a026", "md_file": "knowledge_base/domains/RP/examples.md", "md_atom_type": "TABLE_ROW", "md_parent_section": "§RP.1 [Example 1]", "md_verbatim": "| 21 | STUDYX | RP | 2324-P0002 | 10 | CHILDPOT | Childbearing Potential | N | | N | | | | | 3 | Day 29 | 29 | 2009-04-16 | 29 |", "score": 0.4638, "match_basis": "verbatim_token+domain_route:RP"}, {"md_atom_id": "md_dmRP_ex_a012", "md_file": "knowledge_base/domains/RP/examples.md", "md_atom_type": "TABLE_ROW", "md_parent_section": "§RP.1 [Example 1]", "md_verbatim": "| 7 | STUDYX | RP | 2324-P0001 | 7 | CHILDPOT | Childbearing Potential | Y | | Y | | | | Y | 1 | SCREENING | 1 | 2008-03-09 | -10 |", "score": 0.4577, "match_basis": "verbatim_token+domain_route:RP"}], "candidate_count": 5, "zero_candidate": false}
{"pdf_atom_id": "ig34_p0305_a019", "pdf_atom_type": "TABLE_ROW", "pdf_source": "SDTMIG_v3.4", "pdf_page": 305, "pdf_parent_section": "§6.3.7.6 Reproductive System Findings (RP)", "pdf_verbatim": "| DOMAIN | Domain Abbreviation | Char | RP | Identifier | Two-character abbreviation for the domain. | Req |", "figure_ref": null, "candidates": [{"md_atom_id": "md_dmRP_ex_a013", "md_file": "knowledge_base/domains/RP/examples.md", "md_atom_type": "TABLE_ROW", "md_parent_section": "§RP.1 [Example 1]", "md_verbatim": "| 8 | STUDYX | RP | 2324-P0001 | 8 | CHILDPOT | Childbearing Potential | Y | | Y | | | | | 2 | Day 1 | 1 | 2008-03-19 | 1 |", "score": 0.4194, "match_basis": "verbatim_token+domain_route:RP"}, {"md_atom_id": "md_dmRP_ex_a015", "md_file": "knowledge_base/domains/RP/examples.md", "md_atom_type": "TABLE_ROW", "md_parent_section": "§RP.1 [Example 1]", "md_verbatim": "| 10 | STUDYX | RP | 2324-P0001 | 10 | CHILDPOT | Childbearing Potential | Y | | Y | | | | | 3 | Day 29 | 29 | 2008-04-16 | 29 |", "score": 0.4194, "match_basis": "verbatim_token+domain_route:RP"}, {"md_atom_id": "md_dmRP_ex_a025", "md_file": "knowledge_base/domains/RP/examples.md", "md_atom_type": "TABLE_ROW", "md_parent_section": "§RP.1 [Example 1]", "md_verbatim": "| 20 | STUDYX | RP | 2324-P0002 | 9 | CHILDPOT | Childbearing Potential | N | | N | | | | | 2 | Day 1 | 1 | 2009-03-19 | 1 |", "score": 0.4194, "match_basis": "verbatim_token+domain_route:RP"}, {"md_atom_id": "md_dmRP_ex_a026", "md_file": "knowledge_base/domains/RP/examples.md", "md_atom_type": "TABLE_ROW", "md_parent_section": "§RP.1 [Example 1]", "md_verbatim": "| 21 | STUDYX | RP | 2324-P0002 | 10 | CHILDPOT | Childbearing Potential | N | | N | | | | | 3 | Day 29 | 29 | 2009-04-16 | 29 |", "score": 0.4194, "match_basis": "verbatim_token+domain_route:RP"}, {"md_atom_id": "md_dmRP_ex_a012", "md_file": "knowledge_base/domains/RP/examples.md", "md_atom_type": "TABLE_ROW", "md_parent_section": "§RP.1 [Example 1]", "md_verbatim": "| 7 | STUDYX | RP | 2324-P0001 | 7 | CHILDPOT | Childbearing Potential | Y | | Y | | | | Y | 1 | SCREENING | 1 | 2008-03-09 | -10 |", "score": 0.4179, "match_basis": "verbatim_token+domain_route:RP"}], "candidate_count": 5, "zero_candidate": false}
{"pdf_atom_id": "ig34_p0305_a020", "pdf_atom_type": "TABLE_ROW", "pdf_source": "SDTMIG_v3.4", "pdf_page": 305, "pdf_parent_section": "§6.3.7.6 Reproductive System Findings (RP)", "pdf_verbatim": "| USUBJID | Unique Subject Identifier | Char | | Identifier | Identifier used to uniquely identify a subject across all studies for all applications or submissions involving the product. | Req |", "figure_ref": null, "candidates": [{"md_atom_id": "md_dmRP_ex_a017", "md_file": "knowledge_base/domains/RP/examples.md", "md_atom_type": "TABLE_ROW", "md_parent_section": "§RP.1 [Example 1]", "md_verbatim": "| 12 | STUDYX | RP | 2324-P0002 | 1 | INABORTN | Number of Induced Abortions | 0 | | 0 | 0 | | | Y | 1 | SCREENING | 1 | 2009-03-10 | -10 |", "score": 0.4429, "match_basis": "verbatim_token+domain_route:RP"}, {"md_atom_id": "md_dmRP_ex_a006", "md_file": "knowledge_base/domains/RP/examples.md", "md_atom_type": "TABLE_ROW", "md_parent_section": "§RP.1 [Example 1]", "md_verbatim": "| 1 | STUDYX | RP | 2324-P0001 | 1 | SPABORTN | Number of Spontaneous Abortions | 1 | | 1 | 1 | | | Y | 1 | SCREENING | 1 | 2008-03-09 | -10 |", "score": 0.435, "match_basis": "verbatim_token+domain_route:RP"}, {"md_atom_id": "md_dmRP_ex_a013", "md_file": "knowledge_base/domains/RP/examples.md", "md_atom_type": "TABLE_ROW", "md_parent_section": "§RP.1 [Example 1]", "md_verbatim": "| 8 | STUDYX | RP | 2324-P0001 | 8 | CHILDPOT | Childbearing Potential | Y | | Y | | | | | 2 | Day 1 | 1 | 2008-03-19 | 1 |", "score": 0.4319, "match_basis": "verbatim_token+domain_route:RP"}, {"md_atom_id": "md_dmRP_ex_a015", "md_file": "knowledge_base/domains/RP/examples.md", "md_atom_type": "TABLE_ROW", "md_parent_section": "§RP.1 [Example 1]", "md_verbatim": "| 10 | STUDYX | RP | 2324-P0001 | 10 | CHILDPOT | Childbearing Potential | Y | | Y | | | | | 3 | Day 29 | 29 | 2008-04-16 | 29 |", "score": 0.4319, "match_basis": "verbatim_token+domain_route:RP"}, {"md_atom_id": "md_dmRP_ex_a025", "md_file": "knowledge_base/domains/RP/examples.md", "md_atom_type": "TABLE_ROW", "md_parent_section": "§RP.1 [Example 1]", "md_verbatim": "| 20 | STUDYX | RP | 2324-P0002 | 9 | CHILDPOT | Childbearing Potential | N | | N | | | | | 2 | Day 1 | 1 | 2009-03-19 | 1 |", "score": 0.4319, "match_basis": "verbatim_token+domain_route:RP"}], "candidate_count": 5, "zero_candidate": false}
{"pdf_atom_id": "ig34_p0305_a021", "pdf_atom_type": "TABLE_ROW", "pdf_source": "SDTMIG_v3.4", "pdf_page": 305, "pdf_parent_section": "§6.3.7.6 Reproductive System Findings (RP)", "pdf_verbatim": "| RPSEQ | Sequence Number | Num | | Identifier | Sequence number to ensure uniqueness of records within a dataset for a subject (or within a parameter, in the case of the Trial Summary domain). May be any valid number including decimals and does not have to start at 1. | Req |", "figure_ref": null, "candidates": [{"md_atom_id": "md_dmRP_ex_a007", "md_file": "knowledge_base/domains/RP/examples.md", "md_atom_type": "TABLE_ROW", "md_parent_section": "§RP.1 [Example 1]", "md_verbatim": "| 2 | STUDYX | RP | 2324-P0001 | 2 | BRTHLVN | Number of Live Births | 2 | | 2 | 2 | | | Y | 1 | SCREENING | 1 | 2008-03-09 | -10 |", "score": 0.4238, "match_basis": "verbatim_token+domain_route:RP"}, {"md_atom_id": "md_dmRP_ex_a008", "md_file": "knowledge_base/domains/RP/examples.md", "md_atom_type": "TABLE_ROW", "md_parent_section": "§RP.1 [Example 1]", "md_verbatim": "| 3 | STUDYX | RP | 2324-P0001 | 3 | PREGNN | Number of Pregnancies | 3 | | 3 | 3 | | | Y | 1 | SCREENING | 1 | 2008-03-09 | -10 |", "score": 0.4238, "match_basis": "verbatim_token+domain_route:RP"}, {"md_atom_id": "md_dmRP_ex_a018", "md_file": "knowledge_base/domains/RP/examples.md", "md_atom_type": "TABLE_ROW", "md_parent_section": "§RP.1 [Example 1]", "md_verbatim": "| 13 | STUDYX | RP | 2324-P0002 | 2 | BRTHLVN | Number of Live Births | 1 | | 1 | 1 | | | Y | 1 | SCREENING | 1 | 2009-03-10 | -10 |", "score": 0.4238, "match_basis": "verbatim_token+domain_route:RP"}, {"md_atom_id": "md_dmRP_ex_a019", "md_file": "knowledge_base/domains/RP/examples.md", "md_atom_type": "TABLE_ROW", "md_parent_section": "§RP.1 [Example 1]", "md_verbatim": "| 14 | STUDYX | RP | 2324-P0002 | 3 | PREGNN | Number of Pregnancies | 1 | | 1 | 1 | | | Y | 1 | SCREENING | 1 | 2009-03-09 | -10 |", "score": 0.4238, "match_basis": "verbatim_token+domain_route:RP"}, {"md_atom_id": "md_dmRP_ex_a017", "md_file": "knowledge_base/domains/RP/examples.md", "md_atom_type": "TABLE_ROW", "md_parent_section": "§RP.1 [Example 1]", "md_verbatim": "| 12 | STUDYX | RP | 2324-P0002 | 1 | INABORTN | Number of Induced Abortions | 0 | | 0 | 0 | | | Y | 1 | SCREENING | 1 | 2009-03-10 | -10 |", "score": 0.4229, "match_basis": "verbatim_token+domain_route:RP"}], "candidate_count": 5, "zero_candidate": false}
{"pdf_atom_id": "ig34_p0305_a022", "pdf_atom_type": "TABLE_ROW", "pdf_source": "SDTMIG_v3.4", "pdf_page": 305, "pdf_parent_section": "§6.3.7.6 Reproductive System Findings (RP)", "pdf_verbatim": "| RPGRPID | Group ID | Char | | Identifier | Optional group identifier, used to link together a block of related records within a subject in a domain. Also used to link together a block of related records in the Trial Summary domain. | Perm |", "figure_ref": null, "candidates": [{"md_atom_id": "md_dmRP_ex_a011", "md_file": "knowledge_base/domains/RP/examples.md", "md_atom_type": "TABLE_ROW", "md_parent_section": "§RP.1 [Example 1]", "md_verbatim": "| 6 | STUDYX | RP | 2324-P0001 | 6 | BCMETHOD | Birth Control Method | FOAM OR OTHER SPERMICIDES | | FOAM OR OTHER SPERMICIDES | | | P3Y | Y | 1 | SCREENING | 1 | 2008-03-09 | -10 |", "score": 0.4319, "match_basis": "verbatim_token+domain_route:RP"}, {"md_atom_id": "md_dmRP_ex_a013", "md_file": "knowledge_base/domains/RP/examples.md", "md_atom_type": "TABLE_ROW", "md_parent_section": "§RP.1 [Example 1]", "md_verbatim": "| 8 | STUDYX | RP | 2324-P0001 | 8 | CHILDPOT | Childbearing Potential | Y | | Y | | | | | 2 | Day 1 | 1 | 2008-03-19 | 1 |", "score": 0.418, "match_basis": "verbatim_token+domain_route:RP"}, {"md_atom_id": "md_dmRP_ex_a015", "md_file": "knowledge_base/domains/RP/examples.md", "md_atom_type": "TABLE_ROW", "md_parent_section": "§RP.1 [Example 1]", "md_verbatim": "| 10 | STUDYX | RP | 2324-P0001 | 10 | CHILDPOT | Childbearing Potential | Y | | Y | | | | | 3 | Day 29 | 29 | 2008-04-16 | 29 |", "score": 0.418, "match_basis": "verbatim_token+domain_route:RP"}, {"md_atom_id": "md_dmRP_ex_a025", "md_file": "knowledge_base/domains/RP/examples.md", "md_atom_type": "TABLE_ROW", "md_parent_section": "§RP.1 [Example 1]", "md_verbatim": "| 20 | STUDYX | RP | 2324-P0002 | 9 | CHILDPOT | Childbearing Potential | N | | N | | | | | 2 | Day 1 | 1 | 2009-03-19 | 1 |", "score": 0.418, "match_basis": "verbatim_token+domain_route:RP"}, {"md_atom_id": "md_dmRP_ex_a026", "md_file": "knowledge_base/domains/RP/examples.md", "md_atom_type": "TABLE_ROW", "md_parent_section": "§RP.1 [Example 1]", "md_verbatim": "| 21 | STUDYX | RP | 2324-P0002 | 10 | CHILDPOT | Childbearing Potential | N | | N | | | | | 3 | Day 29 | 29 | 2009-04-16 | 29 |", "score": 0.418, "match_basis": "verbatim_token+domain_route:RP"}], "candidate_count": 5, "zero_candidate": false}
{"pdf_atom_id": "ig34_p0305_a023", "pdf_atom_type": "TABLE_ROW", "pdf_source": "SDTMIG_v3.4", "pdf_page": 305, "pdf_parent_section": "§6.3.7.6 Reproductive System Findings (RP)", "pdf_verbatim": "| RPREFID | Reference ID | Char | | Identifier | Identifier for the RPREFERENCE ID. Used for an ECG waveform or a medical imaging ID. UBID for reference to multiple studies across domains. This may be a one-to-one or a one-to-many relationship. | Perm |", "figure_ref": null, "candidates": [{"md_atom_id": "md_dmRP_ex_a011", "md_file": "knowledge_base/domains/RP/examples.md", "md_atom_type": "TABLE_ROW", "md_parent_section": "§RP.1 [Example 1]", "md_verbatim": "| 6 | STUDYX | RP | 2324-P0001 | 6 | BCMETHOD | Birth Control Method | FOAM OR OTHER SPERMICIDES | | FOAM OR OTHER SPERMICIDES | | | P3Y | Y | 1 | SCREENING | 1 | 2008-03-09 | -10 |", "score": 0.4347, "match_basis": "verbatim_token+domain_route:RP"}, {"md_atom_id": "md_dmRP_ex_a017", "md_file": "knowledge_base/domains/RP/examples.md", "md_atom_type": "TABLE_ROW", "md_parent_section": "§RP.1 [Example 1]", "md_verbatim": "| 12 | STUDYX | RP | 2324-P0002 | 1 | INABORTN | Number of Induced Abortions | 0 | | 0 | 0 | | | Y | 1 | SCREENING | 1 | 2009-03-10 | -10 |", "score": 0.4321, "match_basis": "verbatim_token+domain_route:RP"}, {"md_atom_id": "md_dmRP_ex_a006", "md_file": "knowledge_base/domains/RP/examples.md", "md_atom_type": "TABLE_ROW", "md_parent_section": "§RP.1 [Example 1]", "md_verbatim": "| 1 | STUDYX | RP | 2324-P0001 | 1 | SPABORTN | Number of Spontaneous Abortions | 1 | | 1 | 1 | | | Y | 1 | SCREENING | 1 | 2008-03-09 | -10 |", "score": 0.431, "match_basis": "verbatim_token+domain_route:RP"}, {"md_atom_id": "md_dmRP_ex_a014", "md_file": "knowledge_base/domains/RP/examples.md", "md_atom_type": "TABLE_ROW", "md_parent_section": "§RP.1 [Example 1]", "md_verbatim": "| 9 | STUDYX | RP | 2324-P0001 | 9 | PREGST | Pregnant During the Study | N | | N | | | | | 2 | Day 1 | 1 | 2008-03-19 | 1 |", "score": 0.4297, "match_basis": "verbatim_token+domain_route:RP"}, {"md_atom_id": "md_dmRP_ex_a016", "md_file": "knowledge_base/domains/RP/examples.md", "md_atom_type": "TABLE_ROW", "md_parent_section": "§RP.1 [Example 1]", "md_verbatim": "| 11 | STUDYX | RP | 2324-P0001 | 11 | PREGST | Pregnant During the Study | N | | N | | | | | 3 | Day 29 | 29 | 2008-04-29 | 29 |", "score": 0.4297, "match_basis": "verbatim_token+domain_route:RP"}], "candidate_count": 5, "zero_candidate": false}
{"pdf_atom_id": "ig34_p0305_a024", "pdf_atom_type": "TABLE_ROW", "pdf_source": "SDTMIG_v3.4", "pdf_page": 305, "pdf_parent_section": "§6.3.7.6 Reproductive System Findings (RP)", "pdf_verbatim": "| RPSPID | Sponsor-Defined Identifier | Char | | Identifier | Sponsor-defined identifier. Example: Preprinted line identifier on a CRF. | Perm |", "figure_ref": null, "candidates": [{"md_atom_id": "md_dmRP_ex_a013", "md_file": "knowledge_base/domains/RP/examples.md", "md_atom_type": "TABLE_ROW", "md_parent_section": "§RP.1 [Example 1]", "md_verbatim": "| 8 | STUDYX | RP | 2324-P0001 | 8 | CHILDPOT | Childbearing Potential | Y | | Y | | | | | 2 | Day 1 | 1 | 2008-03-19 | 1 |", "score": 0.4261, "match_basis": "verbatim_token+domain_route:RP"}, {"md_atom_id": "md_dmRP_ex_a015", "md_file": "knowledge_base/domains/RP/examples.md", "md_atom_type": "TABLE_ROW", "md_parent_section": "§RP.1 [Example 1]", "md_verbatim": "| 10 | STUDYX | RP | 2324-P0001 | 10 | CHILDPOT | Childbearing Potential | Y | | Y | | | | | 3 | Day 29 | 29 | 2008-04-16 | 29 |", "score": 0.4261, "match_basis": "verbatim_token+domain_route:RP"}, {"md_atom_id": "md_dmRP_ex_a025", "md_file": "knowledge_base/domains/RP/examples.md", "md_atom_type": "TABLE_ROW", "md_parent_section": "§RP.1 [Example 1]", "md_verbatim": "| 20 | STUDYX | RP | 2324-P0002 | 9 | CHILDPOT | Childbearing Potential | N | | N | | | | | 2 | Day 1 | 1 | 2009-03-19 | 1 |", "score": 0.4261, "match_basis": "verbatim_token+domain_route:RP"}, {"md_atom_id": "md_dmRP_ex_a026", "md_file": "knowledge_base/domains/RP/examples.md", "md_atom_type": "TABLE_ROW", "md_parent_section": "§RP.1 [Example 1]", "md_verbatim": "| 21 | STUDYX | RP | 2324-P0002 | 10 | CHILDPOT | Childbearing Potential | N | | N | | | | | 3 | Day 29 | 29 | 2009-04-16 | 29 |", "score": 0.4261, "match_basis": "verbatim_token+domain_route:RP"}, {"md_atom_id": "md_dmRP_ex_a012", "md_file": "knowledge_base/domains/RP/examples.md", "md_atom_type": "TABLE_ROW", "md_parent_section": "§RP.1 [Example 1]", "md_verbatim": "| 7 | STUDYX | RP | 2324-P0001 | 7 | CHILDPOT | Childbearing Potential | Y | | Y | | | | Y | 1 | SCREENING | 1 | 2008-03-09 | -10 |", "score": 0.4243, "match_basis": "verbatim_token+domain_route:RP"}], "candidate_count": 5, "zero_candidate": false}
{"pdf_atom_id": "ig34_p0305_a025", "pdf_atom_type": "TABLE_ROW", "pdf_source": "SDTMIG_v3.4", "pdf_page": 305, "pdf_parent_section": "§6.3.7.6 Reproductive System Findings (RP)", "pdf_verbatim": "| RPLNKID | Link ID | Char | | Identifier | Identifier used to link related records across domains. This may be a one-to-one or a one-to-many relationship. | Perm |", "figure_ref": null, "candidates": [{"md_atom_id": "md_dmRP_ex_a017", "md_file": "knowledge_base/domains/RP/examples.md", "md_atom_type": "TABLE_ROW", "md_parent_section": "§RP.1 [Example 1]", "md_verbatim": "| 12 | STUDYX | RP | 2324-P0002 | 1 | INABORTN | Number of Induced Abortions | 0 | | 0 | 0 | | | Y | 1 | SCREENING | 1 | 2009-03-10 | -10 |", "score": 0.4207, "match_basis": "verbatim_token+domain_route:RP"}, {"md_atom_id": "md_dmRP_ex_a006", "md_file": "knowledge_base/domains/RP/examples.md", "md_atom_type": "TABLE_ROW", "md_parent_section": "§RP.1 [Example 1]", "md_verbatim": "| 1 | STUDYX | RP | 2324-P0001 | 1 | SPABORTN | Number of Spontaneous Abortions | 1 | | 1 | 1 | | | Y | 1 | SCREENING | 1 | 2008-03-09 | -10 |", "score": 0.4198, "match_basis": "verbatim_token+domain_route:RP"}, {"md_atom_id": "md_dmRP_ex_a011", "md_file": "knowledge_base/domains/RP/examples.md", "md_atom_type": "TABLE_ROW", "md_parent_section": "§RP.1 [Example 1]", "md_verbatim": "| 6 | STUDYX | RP | 2324-P0001 | 6 | BCMETHOD | Birth Control Method | FOAM OR OTHER SPERMICIDES | | FOAM OR OTHER SPERMICIDES | | | P3Y | Y | 1 | SCREENING | 1 | 2008-03-09 | -10 |", "score": 0.4186, "match_basis": "verbatim_token+domain_route:RP"}, {"md_atom_id": "md_dmRP_ex_a013", "md_file": "knowledge_base/domains/RP/examples.md", "md_atom_type": "TABLE_ROW", "md_parent_section": "§RP.1 [Example 1]", "md_verbatim": "| 8 | STUDYX | RP | 2324-P0001 | 8 | CHILDPOT | Childbearing Potential | Y | | Y | | | | | 2 | Day 1 | 1 | 2008-03-19 | 1 |", "score": 0.4146, "match_basis": "verbatim_token+domain_route:RP"}, {"md_atom_id": "md_dmRP_ex_a015", "md_file": "knowledge_base/domains/RP/examples.md", "md_atom_type": "TABLE_ROW", "md_parent_section": "§RP.1 [Example 1]", "md_verbatim": "| 10 | STUDYX | RP | 2324-P0001 | 10 | CHILDPOT | Childbearing Potential | Y | | Y | | | | | 3 | Day 29 | 29 | 2008-04-16 | 29 |", "score": 0.4146, "match_basis": "verbatim_token+domain_route:RP"}], "candidate_count": 5, "zero_candidate": false}
{"pdf_atom_id": "ig34_p0305_a026", "pdf_atom_type": "TABLE_ROW", "pdf_source": "SDTMIG_v3.4", "pdf_page": 305, "pdf_parent_section": "§6.3.7.6 Reproductive System Findings (RP)", "pdf_verbatim": "| RPLNKGRP | Link Group ID | Char | | Identifier | Identifier used to link related records across domains. This will usually be a many-to-one relationship. | Perm |", "figure_ref": null, "candidates": [{"md_atom_id": "md_dmRP_ex_a017", "md_file": "knowledge_base/domains/RP/examples.md", "md_atom_type": "TABLE_ROW", "md_parent_section": "§RP.1 [Example 1]", "md_verbatim": "| 12 | STUDYX | RP | 2324-P0002 | 1 | INABORTN | Number of Induced Abortions | 0 | | 0 | 0 | | | Y | 1 | SCREENING | 1 | 2009-03-10 | -10 |", "score": 0.4186, "match_basis": "verbatim_token+domain_route:RP"}, {"md_atom_id": "md_dmRP_ex_a006", "md_file": "knowledge_base/domains/RP/examples.md", "md_atom_type": "TABLE_ROW", "md_parent_section": "§RP.1 [Example 1]", "md_verbatim": "| 1 | STUDYX | RP | 2324-P0001 | 1 | SPABORTN | Number of Spontaneous Abortions | 1 | | 1 | 1 | | | Y | 1 | SCREENING | 1 | 2008-03-09 | -10 |", "score": 0.4178, "match_basis": "verbatim_token+domain_route:RP"}, {"md_atom_id": "md_dmRP_ex_a011", "md_file": "knowledge_base/domains/RP/examples.md", "md_atom_type": "TABLE_ROW", "md_parent_section": "§RP.1 [Example 1]", "md_verbatim": "| 6 | STUDYX | RP | 2324-P0001 | 6 | BCMETHOD | Birth Control Method | FOAM OR OTHER SPERMICIDES | | FOAM OR OTHER SPERMICIDES | | | P3Y | Y | 1 | SCREENING | 1 | 2008-03-09 | -10 |", "score": 0.4168, "match_basis": "verbatim_token+domain_route:RP"}, {"md_atom_id": "md_dmRP_ex_a013", "md_file": "knowledge_base/domains/RP/examples.md", "md_atom_type": "TABLE_ROW", "md_parent_section": "§RP.1 [Example 1]", "md_verbatim": "| 8 | STUDYX | RP | 2324-P0001 | 8 | CHILDPOT | Childbearing Potential | Y | | Y | | | | | 2 | Day 1 | 1 | 2008-03-19 | 1 |", "score": 0.413, "match_basis": "verbatim_token+domain_route:RP"}, {"md_atom_id": "md_dmRP_ex_a015", "md_file": "knowledge_base/domains/RP/examples.md", "md_atom_type": "TABLE_ROW", "md_parent_section": "§RP.1 [Example 1]", "md_verbatim": "| 10 | STUDYX | RP | 2324-P0001 | 10 | CHILDPOT | Childbearing Potential | Y | | Y | | | | | 3 | Day 29 | 29 | 2008-04-16 | 29 |", "score": 0.413, "match_basis": "verbatim_token+domain_route:RP"}], "candidate_count": 5, "zero_candidate": false}
{"pdf_atom_id": "ig34_p0305_a027", "pdf_atom_type": "TABLE_ROW", "pdf_source": "SDTMIG_v3.4", "pdf_page": 305, "pdf_parent_section": "§6.3.7.6 Reproductive System Findings (RP)", "pdf_verbatim": "| RPTEST (RP) | Short Name of Reproductive Test | Char | (RPESTCD) | Topic | Short character value for a short name of a dataset from a narrow collection into a horizontal format. The short value can be up to 8 characters. Examples: \"CHILDPOT\", \"BCMETHOD\", \"MENARGAE\". | Req |", "figure_ref": null, "candidates": [{"md_atom_id": "md_dmRP_ex_a011", "md_file": "knowledge_base/domains/RP/examples.md", "md_atom_type": "TABLE_ROW", "md_parent_section": "§RP.1 [Example 1]", "md_verbatim": "| 6 | STUDYX | RP | 2324-P0001 | 6 | BCMETHOD | Birth Control Method | FOAM OR OTHER SPERMICIDES | | FOAM OR OTHER SPERMICIDES | | | P3Y | Y | 1 | SCREENING | 1 | 2008-03-09 | -10 |", "score": 0.4361, "match_basis": "verbatim_token+domain_route:RP"}, {"md_atom_id": "md_dmRP_ex_a023", "md_file": "knowledge_base/domains/RP/examples.md", "md_atom_type": "TABLE_ROW", "md_parent_section": "§RP.1 [Example 1]", "md_verbatim": "| 18 | STUDYX | RP | 2324-P0002 | 7 | BCMETHOD | Birth Control Method | DIAPHRAGM | | DIAPHRAGM | | | P3Y | Y | 1 | SCREENING | 1 | 2009-03-10 | -10 |", "score": 0.4331, "match_basis": "verbatim_token+domain_route:RP"}, {"md_atom_id": "md_dmRP_ex_a013", "md_file": "knowledge_base/domains/RP/examples.md", "md_atom_type": "TABLE_ROW", "md_parent_section": "§RP.1 [Example 1]", "md_verbatim": "| 8 | STUDYX | RP | 2324-P0001 | 8 | CHILDPOT | Childbearing Potential | Y | | Y | | | | | 2 | Day 1 | 1 | 2008-03-19 | 1 |", "score": 0.4303, "match_basis": "verbatim_token+domain_route:RP"}, {"md_atom_id": "md_dmRP_ex_a015", "md_file": "knowledge_base/domains/RP/examples.md", "md_atom_type": "TABLE_ROW", "md_parent_section": "§RP.1 [Example 1]", "md_verbatim": "| 10 | STUDYX | RP | 2324-P0001 | 10 | CHILDPOT | Childbearing Potential | Y | | Y | | | | | 3 | Day 29 | 29 | 2008-04-16 | 29 |", "score": 0.4303, "match_basis": "verbatim_token+domain_route:RP"}, {"md_atom_id": "md_dmRP_ex_a025", "md_file": "knowledge_base/domains/RP/examples.md", "md_atom_type": "TABLE_ROW", "md_parent_section": "§RP.1 [Example 1]", "md_verbatim": "| 20 | STUDYX | RP | 2324-P0002 | 9 | CHILDPOT | Childbearing Potential | N | | N | | | | | 2 | Day 1 | 1 | 2009-03-19 | 1 |", "score": 0.4303, "match_basis": "verbatim_token+domain_route:RP"}], "candidate_count": 5, "zero_candidate": false}
{"pdf_atom_id": "ig34_p0305_a028", "pdf_atom_type": "TABLE_ROW", "pdf_source": "SDTMIG_v3.4", "pdf_page": 305, "pdf_parent_section": "§6.3.7.6 Reproductive System Findings (RP)", "pdf_verbatim": "| RPTEST | Name of Reproductive Test | Char | (RPTEST) | Synonym | Long name for RPTEST Code. Example For RPESTCD: Example \"Childbirth Method\", \"Menarchae Age\". | Req |", "figure_ref": null, "candidates": [{"md_atom_id": "md_dmRP_ex_a023", "md_file": "knowledge_base/domains/RP/examples.md", "md_atom_type": "TABLE_ROW", "md_parent_section": "§RP.1 [Example 1]", "md_verbatim": "| 18 | STUDYX | RP | 2324-P0002 | 7 | BCMETHOD | Birth Control Method | DIAPHRAGM | | DIAPHRAGM | | | P3Y | Y | 1 | SCREENING | 1 | 2009-03-10 | -10 |", "score": 0.4467, "match_basis": "verbatim_token+domain_route:RP"}, {"md_atom_id": "md_dmRP_ex_a010", "md_file": "knowledge_base/domains/RP/examples.md", "md_atom_type": "TABLE_ROW", "md_parent_section": "§RP.1 [Example 1]", "md_verbatim": "| 5 | STUDYX | RP | 2324-P0001 | 5 | MENARAGE | Menarche Age | 10 | YEARS | 10 | 10 | YEARS | | Y | 1 | SCREENING | 1 | 2008-03-09 | -10 |", "score": 0.4444, "match_basis": "verbatim_token+domain_route:RP"}, {"md_atom_id": "md_dmRP_ex_a022", "md_file": "knowledge_base/domains/RP/examples.md", "md_atom_type": "TABLE_ROW", "md_parent_section": "§RP.1 [Example 1]", "md_verbatim": "| 17 | STUDYX | RP | 2324-P0002 | 6 | MENARAGE | Menarche Age | 11 | YEARS | 11 | 11 | YEARS | | Y | 1 | SCREENING | 1 | 2009-03-10 | -10 |", "score": 0.4444, "match_basis": "verbatim_token+domain_route:RP"}, {"md_atom_id": "md_dmRP_ex_a011", "md_file": "knowledge_base/domains/RP/examples.md", "md_atom_type": "TABLE_ROW", "md_parent_section": "§RP.1 [Example 1]", "md_verbatim": "| 6 | STUDYX | RP | 2324-P0001 | 6 | BCMETHOD | Birth Control Method | FOAM OR OTHER SPERMICIDES | | FOAM OR OTHER SPERMICIDES | | | P3Y | Y | 1 | SCREENING | 1 | 2008-03-09 | -10 |", "score": 0.4433, "match_basis": "verbatim_token+domain_route:RP"}, {"md_atom_id": "md_dmRP_ex_a013", "md_file": "knowledge_base/domains/RP/examples.md", "md_atom_type": "TABLE_ROW", "md_parent_section": "§RP.1 [Example 1]", "md_verbatim": "| 8 | STUDYX | RP | 2324-P0001 | 8 | CHILDPOT | Childbearing Potential | Y | | Y | | | | | 2 | Day 1 | 1 | 2008-03-19 | 1 |", "score": 0.4286, "match_basis": "verbatim_token+domain_route:RP"}], "candidate_count": 5, "zero_candidate": false}
{"pdf_atom_id": "ig34_p0305_a029", "pdf_atom_type": "TABLE_ROW", "pdf_source": "SDTMIG_v3.4", "pdf_page": 305, "pdf_parent_section": "§6.3.7.6 Reproductive System Findings (RP)", "pdf_verbatim": "| RPCAT | Category for Reproductive Test | Char | | Grouping Qualifier | Used to define a category of topic-variable values. Example: \"No use case to date, but values would be relative to reproduction tests grouping\". | Perm |", "figure_ref": null, "candidates": [{"md_atom_id": "md_dmRP_ex_a017", "md_file": "knowledge_base/domains/RP/examples.md", "md_atom_type": "TABLE_ROW", "md_parent_section": "§RP.1 [Example 1]", "md_verbatim": "| 12 | STUDYX | RP | 2324-P0002 | 1 | INABORTN | Number of Induced Abortions | 0 | | 0 | 0 | | | Y | 1 | SCREENING | 1 | 2009-03-10 | -10 |", "score": 0.422, "match_basis": "verbatim_token+domain_route:RP"}, {"md_atom_id": "md_dmRP_ex_a006", "md_file": "knowledge_base/domains/RP/examples.md", "md_atom_type": "TABLE_ROW", "md_parent_section": "§RP.1 [Example 1]", "md_verbatim": "| 1 | STUDYX | RP | 2324-P0001 | 1 | SPABORTN | Number of Spontaneous Abortions | 1 | | 1 | 1 | | | Y | 1 | SCREENING | 1 | 2008-03-09 | -10 |", "score": 0.4158, "match_basis": "verbatim_token+domain_route:RP"}, {"md_atom_id": "md_dmRP_ex_a011", "md_file": "knowledge_base/domains/RP/examples.md", "md_atom_type": "TABLE_ROW", "md_parent_section": "§RP.1 [Example 1]", "md_verbatim": "| 6 | STUDYX | RP | 2324-P0001 | 6 | BCMETHOD | Birth Control Method | FOAM OR OTHER SPERMICIDES | | FOAM OR OTHER SPERMICIDES | | | P3Y | Y | 1 | SCREENING | 1 | 2008-03-09 | -10 |", "score": 0.415, "match_basis": "verbatim_token+domain_route:RP"}, {"md_atom_id": "md_dmRP_ex_a013", "md_file": "knowledge_base/domains/RP/examples.md", "md_atom_type": "TABLE_ROW", "md_parent_section": "§RP.1 [Example 1]", "md_verbatim": "| 8 | STUDYX | RP | 2324-P0001 | 8 | CHILDPOT | Childbearing Potential | Y | | Y | | | | | 2 | Day 1 | 1 | 2008-03-19 | 1 |", "score": 0.4114, "match_basis": "verbatim_token+domain_route:RP"}, {"md_atom_id": "md_dmRP_ex_a015", "md_file": "knowledge_base/domains/RP/examples.md", "md_atom_type": "TABLE_ROW", "md_parent_section": "§RP.1 [Example 1]", "md_verbatim": "| 10 | STUDYX | RP | 2324-P0001 | 10 | CHILDPOT | Childbearing Potential | Y | | Y | | | | | 3 | Day 29 | 29 | 2008-04-16 | 29 |", "score": 0.4114, "match_basis": "verbatim_token+domain_route:RP"}], "candidate_count": 5, "zero_candidate": false}
{"pdf_atom_id": "ig34_p0305_a030", "pdf_atom_type": "TABLE_ROW", "pdf_source": "SDTMIG_v3.4", "pdf_page": 305, "pdf_parent_section": "§6.3.7.6 Reproductive System Findings (RP)", "pdf_verbatim": "| RPSCAT | Subcategory for Reproductive Test | Char | | Grouping Qualifier | Used to define a further categorization of RPCAT values. Example: \"No use case to date, but values would be relative to reproduction tests grouping\". | Perm |", "figure_ref": null, "candidates": [{"md_atom_id": "md_dmRP_ex_a011", "md_file": "knowledge_base/domains/RP/examples.md", "md_atom_type": "TABLE_ROW", "md_parent_section": "§RP.1 [Example 1]", "md_verbatim": "| 6 | STUDYX | RP | 2324-P0001 | 6 | BCMETHOD | Birth Control Method | FOAM OR OTHER SPERMICIDES | | FOAM OR OTHER SPERMICIDES | | | P3Y | Y | 1 | SCREENING | 1 | 2008-03-09 | -10 |", "score": 0.4293, "match_basis": "verbatim_token+domain_route:RP"}, {"md_atom_id": "md_dmRP_ex_a017", "md_file": "knowledge_base/domains/RP/examples.md", "md_atom_type": "TABLE_ROW", "md_parent_section": "§RP.1 [Example 1]", "md_verbatim": "| 12 | STUDYX | RP | 2324-P0002 | 1 | INABORTN | Number of Induced Abortions | 0 | | 0 | 0 | | | Y | 1 | SCREENING | 1 | 2009-03-10 | -10 |", "score": 0.4209, "match_basis": "verbatim_token+domain_route:RP"}, {"md_atom_id": "md_dmRP_ex_a007", "md_file": "knowledge_base/domains/RP/examples.md", "md_atom_type": "TABLE_ROW", "md_parent_section": "§RP.1 [Example 1]", "md_verbatim": "| 2 | STUDYX | RP | 2324-P0001 | 2 | BRTHLVN | Number of Live Births | 2 | | 2 | 2 | | | Y | 1 | SCREENING | 1 | 2008-03-09 | -10 |", "score": 0.4162, "match_basis": "verbatim_token+domain_route:RP"}, {"md_atom_id": "md_dmRP_ex_a018", "md_file": "knowledge_base/domains/RP/examples.md", "md_atom_type": "TABLE_ROW", "md_parent_section": "§RP.1 [Example 1]", "md_verbatim": "| 13 | STUDYX | RP | 2324-P0002 | 2 | BRTHLVN | Number of Live Births | 1 | | 1 | 1 | | | Y | 1 | SCREENING | 1 | 2009-03-10 | -10 |", "score": 0.4162, "match_basis": "verbatim_token+domain_route:RP"}, {"md_atom_id": "md_dmRP_ex_a006", "md_file": "knowledge_base/domains/RP/examples.md", "md_atom_type": "TABLE_ROW", "md_parent_section": "§RP.1 [Example 1]", "md_verbatim": "| 1 | STUDYX | RP | 2324-P0001 | 1 | SPABORTN | Number of Spontaneous Abortions | 1 | | 1 | 1 | | | Y | 1 | SCREENING | 1 | 2008-03-09 | -10 |", "score": 0.415, "match_basis": "verbatim_token+domain_route:RP"}], "candidate_count": 5, "zero_candidate": false}
{"pdf_atom_id": "ig34_p0305_a031", "pdf_atom_type": "TABLE_ROW", "pdf_source": "SDTMIG_v3.4", "pdf_page": 305, "pdf_parent_section": "§6.3.7.6 Reproductive System Findings (RP)", "pdf_verbatim": "| RPORRES | Result or Finding in Original Units | Char | | Result Qualifier | Result of the measurement or finding as originally received or collected. Examples: \"120\", \"<1\", \">3\". | Exp |", "figure_ref": null, "candidates": [{"md_atom_id": "md_dmRP_ex_a017", "md_file": "knowledge_base/domains/RP/examples.md", "md_atom_type": "TABLE_ROW", "md_parent_section": "§RP.1 [Example 1]", "md_verbatim": "| 12 | STUDYX | RP | 2324-P0002 | 1 | INABORTN | Number of Induced Abortions | 0 | | 0 | 0 | | | Y | 1 | SCREENING | 1 | 2009-03-10 | -10 |", "score": 0.4184, "match_basis": "verbatim_token+domain_route:RP"}, {"md_atom_id": "md_dmRP_ex_a014", "md_file": "knowledge_base/domains/RP/examples.md", "md_atom_type": "TABLE_ROW", "md_parent_section": "§RP.1 [Example 1]", "md_verbatim": "| 9 | STUDYX | RP | 2324-P0001 | 9 | PREGST | Pregnant During the Study | N | | N | | | | | 2 | Day 1 | 1 | 2008-03-19 | 1 |", "score": 0.4138, "match_basis": "verbatim_token+domain_route:RP"}, {"md_atom_id": "md_dmRP_ex_a016", "md_file": "knowledge_base/domains/RP/examples.md", "md_atom_type": "TABLE_ROW", "md_parent_section": "§RP.1 [Example 1]", "md_verbatim": "| 11 | STUDYX | RP | 2324-P0001 | 11 | PREGST | Pregnant During the Study | N | | N | | | | | 3 | Day 29 | 29 | 2008-04-29 | 29 |", "score": 0.4138, "match_basis": "verbatim_token+domain_route:RP"}, {"md_atom_id": "md_dmRP_ex_a010", "md_file": "knowledge_base/domains/RP/examples.md", "md_atom_type": "TABLE_ROW", "md_parent_section": "§RP.1 [Example 1]", "md_verbatim": "| 5 | STUDYX | RP | 2324-P0001 | 5 | MENARAGE | Menarche Age | 10 | YEARS | 10 | 10 | YEARS | | Y | 1 | SCREENING | 1 | 2008-03-09 | -10 |", "score": 0.413, "match_basis": "verbatim_token+domain_route:RP"}, {"md_atom_id": "md_dmRP_ex_a022", "md_file": "knowledge_base/domains/RP/examples.md", "md_atom_type": "TABLE_ROW", "md_parent_section": "§RP.1 [Example 1]", "md_verbatim": "| 17 | STUDYX | RP | 2324-P0002 | 6 | MENARAGE | Menarche Age | 11 | YEARS | 11 | 11 | YEARS | | Y | 1 | SCREENING | 1 | 2009-03-10 | -10 |", "score": 0.413, "match_basis": "verbatim_token+domain_route:RP"}], "candidate_count": 5, "zero_candidate": false}
{"pdf_atom_id": "ig34_p0305_a032", "pdf_atom_type": "TABLE_ROW", "pdf_source": "SDTMIG_v3.4", "pdf_page": 305, "pdf_parent_section": "§6.3.7.6 Reproductive System Findings (RP)", "pdf_verbatim": "| RPORRESU | Original Units | Char | (UNIT) | Variable Qualifier | Unit for RPORRES. Examples: \"in\", \"LB\", \"kg/L\". | Perm |", "figure_ref": null, "candidates": [{"md_atom_id": "md_dmRP_ex_a011", "md_file": "knowledge_base/domains/RP/examples.md", "md_atom_type": "TABLE_ROW", "md_parent_section": "§RP.1 [Example 1]", "md_verbatim": "| 6 | STUDYX | RP | 2324-P0001 | 6 | BCMETHOD | Birth Control Method | FOAM OR OTHER SPERMICIDES | | FOAM OR OTHER SPERMICIDES | | | P3Y | Y | 1 | SCREENING | 1 | 2008-03-09 | -10 |", "score": 0.4143, "match_basis": "verbatim_token+domain_route:RP"}, {"md_atom_id": "md_dmRP_ex_a013", "md_file": "knowledge_base/domains/RP/examples.md", "md_atom_type": "TABLE_ROW", "md_parent_section": "§RP.1 [Example 1]", "md_verbatim": "| 8 | STUDYX | RP | 2324-P0001 | 8 | CHILDPOT | Childbearing Potential | Y | | Y | | | | | 2 | Day 1 | 1 | 2008-03-19 | 1 |", "score": 0.4087, "match_basis": "verbatim_token+domain_route:RP"}, {"md_atom_id": "md_dmRP_ex_a015", "md_file": "knowledge_base/domains/RP/examples.md", "md_atom_type": "TABLE_ROW", "md_parent_section": "§RP.1 [Example 1]", "md_verbatim": "| 10 | STUDYX | RP | 2324-P0001 | 10 | CHILDPOT | Childbearing Potential | Y | | Y | | | | | 3 | Day 29 | 29 | 2008-04-16 | 29 |", "score": 0.4087, "match_basis": "verbatim_token+domain_route:RP"}, {"md_atom_id": "md_dmRP_ex_a025", "md_file": "knowledge_base/domains/RP/examples.md", "md_atom_type": "TABLE_ROW", "md_parent_section": "§RP.1 [Example 1]", "md_verbatim": "| 20 | STUDYX | RP | 2324-P0002 | 9 | CHILDPOT | Childbearing Potential | N | | N | | | | | 2 | Day 1 | 1 | 2009-03-19 | 1 |", "score": 0.4087, "match_basis": "verbatim_token+domain_route:RP"}, {"md_atom_id": "md_dmRP_ex_a026", "md_file": "knowledge_base/domains/RP/examples.md", "md_atom_type": "TABLE_ROW", "md_parent_section": "§RP.1 [Example 1]", "md_verbatim": "| 21 | STUDYX | RP | 2324-P0002 | 10 | CHILDPOT | Childbearing Potential | N | | N | | | | | 3 | Day 29 | 29 | 2009-04-16 | 29 |", "score": 0.4087, "match_basis": "verbatim_token+domain_route:RP"}], "candidate_count": 5, "zero_candidate": false}
{"pdf_atom_id": "ig34_p0306_a001", "pdf_atom_type": "TABLE_ROW", "pdf_source": "SDTMIG_v3.4", "pdf_page": 306, "pdf_parent_section": "§6.3.7.6 Reproductive System Findings (RP)", "pdf_verbatim": "| RPSTRESC | Character Result/Finding in Std Format | Char | | Result Qualifier | Contains the result value for all findings copied or derived from RPORRES, in a standard format or in standard units. RPSTRESC should store all results or findings in character format; if results are numeric, they should also be stored in numeric format in RPSTRESN. For example, if various tests have results \"NONE\", \"NEG\", and \"NEGATIVE\" in RPORRES, and these results effectively have the same meaning, they could be represented in standard format in RPSTRESC as \"NEGATIVE\". | Exp |", "figure_ref": null, "candidates": [{"md_atom_id": "md_dmRP_ex_a006", "md_file": "knowledge_base/domains/RP/examples.md", "md_atom_type": "TABLE_ROW", "md_parent_section": "§RP.1 [Example 1]", "md_verbatim": "| 1 | STUDYX | RP | 2324-P0001 | 1 | SPABORTN | Number of Spontaneous Abortions | 1 | | 1 | 1 | | | Y | 1 | SCREENING | 1 | 2008-03-09 | -10 |", "score": 0.4251, "match_basis": "verbatim_token+domain_route:RP"}, {"md_atom_id": "md_dmRP_ex_a011", "md_file": "knowledge_base/domains/RP/examples.md", "md_atom_type": "TABLE_ROW", "md_parent_section": "§RP.1 [Example 1]", "md_verbatim": "| 6 | STUDYX | RP | 2324-P0001 | 6 | BCMETHOD | Birth Control Method | FOAM OR OTHER SPERMICIDES | | FOAM OR OTHER SPERMICIDES | | | P3Y | Y | 1 | SCREENING | 1 | 2008-03-09 | -10 |", "score": 0.4171, "match_basis": "verbatim_token+domain_route:RP"}, {"md_atom_id": "md_dmRP_ex_a007", "md_file": "knowledge_base/domains/RP/examples.md", "md_atom_type": "TABLE_ROW", "md_parent_section": "§RP.1 [Example 1]", "md_verbatim": "| 2 | STUDYX | RP | 2324-P0001 | 2 | BRTHLVN | Number of Live Births | 2 | | 2 | 2 | | | Y | 1 | SCREENING | 1 | 2008-03-09 | -10 |", "score": 0.4149, "match_basis": "verbatim_token+domain_route:RP"}, {"md_atom_id": "md_dmRP_ex_a008", "md_file": "knowledge_base/domains/RP/examples.md", "md_atom_type": "TABLE_ROW", "md_parent_section": "§RP.1 [Example 1]", "md_verbatim": "| 3 | STUDYX | RP | 2324-P0001 | 3 | PREGNN | Number of Pregnancies | 3 | | 3 | 3 | | | Y | 1 | SCREENING | 1 | 2008-03-09 | -10 |", "score": 0.4149, "match_basis": "verbatim_token+domain_route:RP"}, {"md_atom_id": "md_dmRP_ex_a009", "md_file": "knowledge_base/domains/RP/examples.md", "md_atom_type": "TABLE_ROW", "md_parent_section": "§RP.1 [Example 1]", "md_verbatim": "| 4 | STUDYX | RP | 2324-P0001 | 4 | MENOSTAT | Menopause Status | Pre-Menopause | | Pre-Menopause | | | | Y | 1 | SCREENING | 1 | 2008-03-09 | -10 |", "score": 0.4149, "match_basis": "verbatim_token+domain_route:RP"}], "candidate_count": 5, "zero_candidate": false}
{"pdf_atom_id": "ig34_p0306_a002", "pdf_atom_type": "TABLE_ROW", "pdf_source": "SDTMIG_v3.4", "pdf_page": 306, "pdf_parent_section": "§6.3.7.6 Reproductive System Findings (RP)", "pdf_verbatim": "| RPSTRESN | Numeric Result/Finding in Standard Units | Num | | Result Qualifier | Used for continuous or numeric results or findings in standard format; copied in numeric format from RPSTRESC. RPSTRESN should store all numeric test results or findings. | Perm |", "figure_ref": null, "candidates": [{"md_atom_id": "md_dmRP_ex_a006", "md_file": "knowledge_base/domains/RP/examples.md", "md_atom_type": "TABLE_ROW", "md_parent_section": "§RP.1 [Example 1]", "md_verbatim": "| 1 | STUDYX | RP | 2324-P0001 | 1 | SPABORTN | Number of Spontaneous Abortions | 1 | | 1 | 1 | | | Y | 1 | SCREENING | 1 | 2008-03-09 | -10 |", "score": 0.4283, "match_basis": "verbatim_token+domain_route:RP"}, {"md_atom_id": "md_dmRP_ex_a011", "md_file": "knowledge_base/domains/RP/examples.md", "md_atom_type": "TABLE_ROW", "md_parent_section": "§RP.1 [Example 1]", "md_verbatim": "| 6 | STUDYX | RP | 2324-P0001 | 6 | BCMETHOD | Birth Control Method | FOAM OR OTHER SPERMICIDES | | FOAM OR OTHER SPERMICIDES | | | P3Y | Y | 1 | SCREENING | 1 | 2008-03-09 | -10 |", "score": 0.4268, "match_basis": "verbatim_token+domain_route:RP"}, {"md_atom_id": "md_dmRP_ex_a020", "md_file": "knowledge_base/domains/RP/examples.md", "md_atom_type": "TABLE_ROW", "md_parent_section": "§RP.1 [Example 1]", "md_verbatim": "| 15 | STUDYX | RP | 2324-P0002 | 4 | MENOSTAT | Menopause Status | MENOPAUSE | | MENOPAUSE | | | | Y | 1 | SCREENING | 1 | 2009-03-09 | -10 |", "score": 0.4184, "match_basis": "verbatim_token+domain_route:RP"}, {"md_atom_id": "md_dmRP_ex_a009", "md_file": "knowledge_base/domains/RP/examples.md", "md_atom_type": "TABLE_ROW", "md_parent_section": "§RP.1 [Example 1]", "md_verbatim": "| 4 | STUDYX | RP | 2324-P0001 | 4 | MENOSTAT | Menopause Status | Pre-Menopause | | Pre-Menopause | | | | Y | 1 | SCREENING | 1 | 2008-03-09 | -10 |", "score": 0.4182, "match_basis": "verbatim_token+domain_route:RP"}, {"md_atom_id": "md_dmRP_ex_a017", "md_file": "knowledge_base/domains/RP/examples.md", "md_atom_type": "TABLE_ROW", "md_parent_section": "§RP.1 [Example 1]", "md_verbatim": "| 12 | STUDYX | RP | 2324-P0002 | 1 | INABORTN | Number of Induced Abortions | 0 | | 0 | 0 | | | Y | 1 | SCREENING | 1 | 2009-03-10 | -10 |", "score": 0.4173, "match_basis": "verbatim_token+domain_route:RP"}], "candidate_count": 5, "zero_candidate": false}
{"pdf_atom_id": "ig34_p0306_a003", "pdf_atom_type": "TABLE_ROW", "pdf_source": "SDTMIG_v3.4", "pdf_page": 306, "pdf_parent_section": "§6.3.7.6 Reproductive System Findings (RP)", "pdf_verbatim": "| RPSTRESU | Standard Units | Char | (UNIT) | Variable Qualifier | Standardized units used for RPSTRESC and RPSTRESN. Example: \"mol/L\". | Perm |", "figure_ref": null, "candidates": [{"md_atom_id": "md_dmRP_ex_a020", "md_file": "knowledge_base/domains/RP/examples.md", "md_atom_type": "TABLE_ROW", "md_parent_section": "§RP.1 [Example 1]", "md_verbatim": "| 15 | STUDYX | RP | 2324-P0002 | 4 | MENOSTAT | Menopause Status | MENOPAUSE | | MENOPAUSE | | | | Y | 1 | SCREENING | 1 | 2009-03-09 | -10 |", "score": 0.4158, "match_basis": "verbatim_token+domain_route:RP"}, {"md_atom_id": "md_dmRP_ex_a009", "md_file": "knowledge_base/domains/RP/examples.md", "md_atom_type": "TABLE_ROW", "md_parent_section": "§RP.1 [Example 1]", "md_verbatim": "| 4 | STUDYX | RP | 2324-P0001 | 4 | MENOSTAT | Menopause Status | Pre-Menopause | | Pre-Menopause | | | | Y | 1 | SCREENING | 1 | 2008-03-09 | -10 |", "score": 0.4156, "match_basis": "verbatim_token+domain_route:RP"}, {"md_atom_id": "md_dmRP_ex_a011", "md_file": "knowledge_base/domains/RP/examples.md", "md_atom_type": "TABLE_ROW", "md_parent_section": "§RP.1 [Example 1]", "md_verbatim": "| 6 | STUDYX | RP | 2324-P0001 | 6 | BCMETHOD | Birth Control Method | FOAM OR OTHER SPERMICIDES | | FOAM OR OTHER SPERMICIDES | | | P3Y | Y | 1 | SCREENING | 1 | 2008-03-09 | -10 |", "score": 0.413, "match_basis": "verbatim_token+domain_route:RP"}, {"md_atom_id": "md_dmRP_ex_a013", "md_file": "knowledge_base/domains/RP/examples.md", "md_atom_type": "TABLE_ROW", "md_parent_section": "§RP.1 [Example 1]", "md_verbatim": "| 8 | STUDYX | RP | 2324-P0001 | 8 | CHILDPOT | Childbearing Potential | Y | | Y | | | | | 2 | Day 1 | 1 | 2008-03-19 | 1 |", "score": 0.4078, "match_basis": "verbatim_token+domain_route:RP"}, {"md_atom_id": "md_dmRP_ex_a015", "md_file": "knowledge_base/domains/RP/examples.md", "md_atom_type": "TABLE_ROW", "md_parent_section": "§RP.1 [Example 1]", "md_verbatim": "| 10 | STUDYX | RP | 2324-P0001 | 10 | CHILDPOT | Childbearing Potential | Y | | Y | | | | | 3 | Day 29 | 29 | 2008-04-16 | 29 |", "score": 0.4078, "match_basis": "verbatim_token+domain_route:RP"}], "candidate_count": 5, "zero_candidate": false}
{"pdf_atom_id": "ig34_p0306_a004", "pdf_atom_type": "TABLE_ROW", "pdf_source": "SDTMIG_v3.4", "pdf_page": 306, "pdf_parent_section": "§6.3.7.6 Reproductive System Findings (RP)", "pdf_verbatim": "| RPSTAT | Completion Status | Char | (ND) | Record Qualifier | Used to indicate that a question was not asked or a test was not done, or a test was attempted but did not generate a result. Should be null or have a value of \"NOT DONE\". | Perm |", "figure_ref": null, "candidates": [{"md_atom_id": "md_dmRP_ex_a020", "md_file": "knowledge_base/domains/RP/examples.md", "md_atom_type": "TABLE_ROW", "md_parent_section": "§RP.1 [Example 1]", "md_verbatim": "| 15 | STUDYX | RP | 2324-P0002 | 4 | MENOSTAT | Menopause Status | MENOPAUSE | | MENOPAUSE | | | | Y | 1 | SCREENING | 1 | 2009-03-09 | -10 |", "score": 0.4283, "match_basis": "verbatim_token+domain_route:RP"}, {"md_atom_id": "md_dmRP_ex_a009", "md_file": "knowledge_base/domains/RP/examples.md", "md_atom_type": "TABLE_ROW", "md_parent_section": "§RP.1 [Example 1]", "md_verbatim": "| 4 | STUDYX | RP | 2324-P0001 | 4 | MENOSTAT | Menopause Status | Pre-Menopause | | Pre-Menopause | | | | Y | 1 | SCREENING | 1 | 2008-03-09 | -10 |", "score": 0.428, "match_basis": "verbatim_token+domain_route:RP"}, {"md_atom_id": "md_dmRP_ex_a017", "md_file": "knowledge_base/domains/RP/examples.md", "md_atom_type": "TABLE_ROW", "md_parent_section": "§RP.1 [Example 1]", "md_verbatim": "| 12 | STUDYX | RP | 2324-P0002 | 1 | INABORTN | Number of Induced Abortions | 0 | | 0 | 0 | | | Y | 1 | SCREENING | 1 | 2009-03-10 | -10 |", "score": 0.4158, "match_basis": "verbatim_token+domain_route:RP"}, {"md_atom_id": "md_dmRP_ex_a006", "md_file": "knowledge_base/domains/RP/examples.md", "md_atom_type": "TABLE_ROW", "md_parent_section": "§RP.1 [Example 1]", "md_verbatim": "| 1 | STUDYX | RP | 2324-P0001 | 1 | SPABORTN | Number of Spontaneous Abortions | 1 | | 1 | 1 | | | Y | 1 | SCREENING | 1 | 2008-03-09 | -10 |", "score": 0.4101, "match_basis": "verbatim_token+domain_route:RP"}, {"md_atom_id": "md_dmRP_ex_a011", "md_file": "knowledge_base/domains/RP/examples.md", "md_atom_type": "TABLE_ROW", "md_parent_section": "§RP.1 [Example 1]", "md_verbatim": "| 6 | STUDYX | RP | 2324-P0001 | 6 | BCMETHOD | Birth Control Method | FOAM OR OTHER SPERMICIDES | | FOAM OR OTHER SPERMICIDES | | | P3Y | Y | 1 | SCREENING | 1 | 2008-03-09 | -10 |", "score": 0.4096, "match_basis": "verbatim_token+domain_route:RP"}], "candidate_count": 5, "zero_candidate": false}
{"pdf_atom_id": "ig34_p0306_a005", "pdf_atom_type": "TABLE_ROW", "pdf_source": "SDTMIG_v3.4", "pdf_page": 306, "pdf_parent_section": "§6.3.7.6 Reproductive System Findings (RP)", "pdf_verbatim": "| RPREASND | Reason Not Done | Char | | Record Qualifier | Reason not done. Used in conjunction with RPSTAT when value is \"NOT DONE\". | Perm |", "figure_ref": null, "candidates": [{"md_atom_id": "md_dmRP_ex_a009", "md_file": "knowledge_base/domains/RP/examples.md", "md_atom_type": "TABLE_ROW", "md_parent_section": "§RP.1 [Example 1]", "md_verbatim": "| 4 | STUDYX | RP | 2324-P0001 | 4 | MENOSTAT | Menopause Status | Pre-Menopause | | Pre-Menopause | | | | Y | 1 | SCREENING | 1 | 2008-03-09 | -10 |", "score": 0.4316, "match_basis": "verbatim_token+domain_route:RP"}, {"md_atom_id": "md_dmRP_ex_a020", "md_file": "knowledge_base/domains/RP/examples.md", "md_atom_type": "TABLE_ROW", "md_parent_section": "§RP.1 [Example 1]", "md_verbatim": "| 15 | STUDYX | RP | 2324-P0002 | 4 | MENOSTAT | Menopause Status | MENOPAUSE | | MENOPAUSE | | | | Y | 1 | SCREENING | 1 | 2009-03-09 | -10 |", "score": 0.4237, "match_basis": "verbatim_token+domain_route:RP"}, {"md_atom_id": "md_dmRP_ex_a011", "md_file": "knowledge_base/domains/RP/examples.md", "md_atom_type": "TABLE_ROW", "md_parent_section": "§RP.1 [Example 1]", "md_verbatim": "| 6 | STUDYX | RP | 2324-P0001 | 6 | BCMETHOD | Birth Control Method | FOAM OR OTHER SPERMICIDES | | FOAM OR OTHER SPERMICIDES | | | P3Y | Y | 1 | SCREENING | 1 | 2008-03-09 | -10 |", "score": 0.4196, "match_basis": "verbatim_token+domain_route:RP"}, {"md_atom_id": "md_dmRP_ex_a017", "md_file": "knowledge_base/domains/RP/examples.md", "md_atom_type": "TABLE_ROW", "md_parent_section": "§RP.1 [Example 1]", "md_verbatim": "| 12 | STUDYX | RP | 2324-P0002 | 1 | INABORTN | Number of Induced Abortions | 0 | | 0 | 0 | | | Y | 1 | SCREENING | 1 | 2009-03-10 | -10 |", "score": 0.4145, "match_basis": "verbatim_token+domain_route:RP"}, {"md_atom_id": "md_dmRP_ex_a006", "md_file": "knowledge_base/domains/RP/examples.md", "md_atom_type": "TABLE_ROW", "md_parent_section": "§RP.1 [Example 1]", "md_verbatim": "| 1 | STUDYX | RP | 2324-P0001 | 1 | SPABORTN | Number of Spontaneous Abortions | 1 | | 1 | 1 | | | Y | 1 | SCREENING | 1 | 2008-03-09 | -10 |", "score": 0.4138, "match_basis": "verbatim_token+domain_route:RP"}], "candidate_count": 5, "zero_candidate": false}
{"pdf_atom_id": "ig34_p0306_a006", "pdf_atom_type": "TABLE_ROW", "pdf_source": "SDTMIG_v3.4", "pdf_page": 306, "pdf_parent_section": "§6.3.7.6 Reproductive System Findings (RP)", "pdf_verbatim": "| RPLOBXFL | Last Observation Before Exposure Flag | Char | (NY) | Record Qualifier | Operationally derived indicator used to identify the last non-missing value prior to RFXSTDTC. The value should be \"Y\" or null. | Perm |", "figure_ref": null, "candidates": [{"md_atom_id": "md_dmRP_ex_a011", "md_file": "knowledge_base/domains/RP/examples.md", "md_atom_type": "TABLE_ROW", "md_parent_section": "§RP.1 [Example 1]", "md_verbatim": "| 6 | STUDYX | RP | 2324-P0001 | 6 | BCMETHOD | Birth Control Method | FOAM OR OTHER SPERMICIDES | | FOAM OR OTHER SPERMICIDES | | | P3Y | Y | 1 | SCREENING | 1 | 2008-03-09 | -10 |", "score": 0.4217, "match_basis": "verbatim_token+domain_route:RP"}, {"md_atom_id": "md_dmRP_ex_a017", "md_file": "knowledge_base/domains/RP/examples.md", "md_atom_type": "TABLE_ROW", "md_parent_section": "§RP.1 [Example 1]", "md_verbatim": "| 12 | STUDYX | RP | 2324-P0002 | 1 | INABORTN | Number of Induced Abortions | 0 | | 0 | 0 | | | Y | 1 | SCREENING | 1 | 2009-03-10 | -10 |", "score": 0.4186, "match_basis": "verbatim_token+domain_route:RP"}, {"md_atom_id": "md_dmRP_ex_a013", "md_file": "knowledge_base/domains/RP/examples.md", "md_atom_type": "TABLE_ROW", "md_parent_section": "§RP.1 [Example 1]", "md_verbatim": "| 8 | STUDYX | RP | 2324-P0001 | 8 | CHILDPOT | Childbearing Potential | Y | | Y | | | | | 2 | Day 1 | 1 | 2008-03-19 | 1 |", "score": 0.4145, "match_basis": "verbatim_token+domain_route:RP"}, {"md_atom_id": "md_dmRP_ex_a015", "md_file": "knowledge_base/domains/RP/examples.md", "md_atom_type": "TABLE_ROW", "md_parent_section": "§RP.1 [Example 1]", "md_verbatim": "| 10 | STUDYX | RP | 2324-P0001 | 10 | CHILDPOT | Childbearing Potential | Y | | Y | | | | | 3 | Day 29 | 29 | 2008-04-16 | 29 |", "score": 0.4145, "match_basis": "verbatim_token+domain_route:RP"}, {"md_atom_id": "md_dmRP_ex_a025", "md_file": "knowledge_base/domains/RP/examples.md", "md_atom_type": "TABLE_ROW", "md_parent_section": "§RP.1 [Example 1]", "md_verbatim": "| 20 | STUDYX | RP | 2324-P0002 | 9 | CHILDPOT | Childbearing Potential | N | | N | | | | | 2 | Day 1 | 1 | 2009-03-19 | 1 |", "score": 0.4145, "match_basis": "verbatim_token+domain_route:RP"}], "candidate_count": 5, "zero_candidate": false}
{"pdf_atom_id": "ig34_p0306_a007", "pdf_atom_type": "TABLE_ROW", "pdf_source": "SDTMIG_v3.4", "pdf_page": 306, "pdf_parent_section": "§6.3.7.6 Reproductive System Findings (RP)", "pdf_verbatim": "| RPBLFL | Baseline Flag | Char | (NY) | Record Qualifier | Indicator used to identify a baseline value. Should be \"Y\" or null. Note that RPBLFL is retained for backward compatibility. The authoritative baseline for statistical analysis is in an ADaM dataset. | Perm |", "figure_ref": null, "candidates": [{"md_atom_id": "md_dmRP_ex_a011", "md_file": "knowledge_base/domains/RP/examples.md", "md_atom_type": "TABLE_ROW", "md_parent_section": "§RP.1 [Example 1]", "md_verbatim": "| 6 | STUDYX | RP | 2324-P0001 | 6 | BCMETHOD | Birth Control Method | FOAM OR OTHER SPERMICIDES | | FOAM OR OTHER SPERMICIDES | | | P3Y | Y | 1 | SCREENING | 1 | 2008-03-09 | -10 |", "score": 0.4201, "match_basis": "verbatim_token+domain_route:RP"}, {"md_atom_id": "md_dmRP_ex_a013", "md_file": "knowledge_base/domains/RP/examples.md", "md_atom_type": "TABLE_ROW", "md_parent_section": "§RP.1 [Example 1]", "md_verbatim": "| 8 | STUDYX | RP | 2324-P0001 | 8 | CHILDPOT | Childbearing Potential | Y | | Y | | | | | 2 | Day 1 | 1 | 2008-03-19 | 1 |", "score": 0.4133, "match_basis": "verbatim_token+domain_route:RP"}, {"md_atom_id": "md_dmRP_ex_a015", "md_file": "knowledge_base/domains/RP/examples.md", "md_atom_type": "TABLE_ROW", "md_parent_section": "§RP.1 [Example 1]", "md_verbatim": "| 10 | STUDYX | RP | 2324-P0001 | 10 | CHILDPOT | Childbearing Potential | Y | | Y | | | | | 3 | Day 29 | 29 | 2008-04-16 | 29 |", "score": 0.4133, "match_basis": "verbatim_token+domain_route:RP"}, {"md_atom_id": "md_dmRP_ex_a020", "md_file": "knowledge_base/domains/RP/examples.md", "md_atom_type": "TABLE_ROW", "md_parent_section": "§RP.1 [Example 1]", "md_verbatim": "| 15 | STUDYX | RP | 2324-P0002 | 4 | MENOSTAT | Menopause Status | MENOPAUSE | | MENOPAUSE | | | | Y | 1 | SCREENING | 1 | 2009-03-09 | -10 |", "score": 0.4133, "match_basis": "verbatim_token+domain_route:RP"}, {"md_atom_id": "md_dmRP_ex_a025", "md_file": "knowledge_base/domains/RP/examples.md", "md_atom_type": "TABLE_ROW", "md_parent_section": "§RP.1 [Example 1]", "md_verbatim": "| 20 | STUDYX | RP | 2324-P0002 | 9 | CHILDPOT | Childbearing Potential | N | | N | | | | | 2 | Day 1 | 1 | 2009-03-19 | 1 |", "score": 0.4133, "match_basis": "verbatim_token+domain_route:RP"}], "candidate_count": 5, "zero_candidate": false}
{"pdf_atom_id": "ig34_p0306_a008", "pdf_atom_type": "TABLE_ROW", "pdf_source": "SDTMIG_v3.4", "pdf_page": 306, "pdf_parent_section": "§6.3.7.6 Reproductive System Findings (RP)", "pdf_verbatim": "| RPDRVFL | Derived Flag | Char | (NY) | Record Qualifier | Used to identify a derived record. The value should be \"Y\" or null. Records which represent the average of other records or which do not come from the CRF are examples of records that would be derived for the submission datasets. If RPDRVFL = \"Y\", then RPORRES may be null, with RPSTRESC and (if numeric) RPSTRESN having the derived value. | Perm |", "figure_ref": null, "candidates": [{"md_atom_id": "md_dmRP_ex_a011", "md_file": "knowledge_base/domains/RP/examples.md", "md_atom_type": "TABLE_ROW", "md_parent_section": "§RP.1 [Example 1]", "md_verbatim": "| 6 | STUDYX | RP | 2324-P0001 | 6 | BCMETHOD | Birth Control Method | FOAM OR OTHER SPERMICIDES | | FOAM OR OTHER SPERMICIDES | | | P3Y | Y | 1 | SCREENING | 1 | 2008-03-09 | -10 |", "score": 0.4269, "match_basis": "verbatim_token+domain_route:RP"}, {"md_atom_id": "md_dmRP_ex_a014", "md_file": "knowledge_base/domains/RP/examples.md", "md_atom_type": "TABLE_ROW", "md_parent_section": "§RP.1 [Example 1]", "md_verbatim": "| 9 | STUDYX | RP | 2324-P0001 | 9 | PREGST | Pregnant During the Study | N | | N | | | | | 2 | Day 1 | 1 | 2008-03-19 | 1 |", "score": 0.413, "match_basis": "verbatim_token+domain_route:RP"}, {"md_atom_id": "md_dmRP_ex_a016", "md_file": "knowledge_base/domains/RP/examples.md", "md_atom_type": "TABLE_ROW", "md_parent_section": "§RP.1 [Example 1]", "md_verbatim": "| 11 | STUDYX | RP | 2324-P0001 | 11 | PREGST | Pregnant During the Study | N | | N | | | | | 3 | Day 29 | 29 | 2008-04-29 | 29 |", "score": 0.413, "match_basis": "verbatim_token+domain_route:RP"}, {"md_atom_id": "md_dmRP_ex_a010", "md_file": "knowledge_base/domains/RP/examples.md", "md_atom_type": "TABLE_ROW", "md_parent_section": "§RP.1 [Example 1]", "md_verbatim": "| 5 | STUDYX | RP | 2324-P0001 | 5 | MENARAGE | Menarche Age | 10 | YEARS | 10 | 10 | YEARS | | Y | 1 | SCREENING | 1 | 2008-03-09 | -10 |", "score": 0.4126, "match_basis": "verbatim_token+domain_route:RP"}, {"md_atom_id": "md_dmRP_ex_a022", "md_file": "knowledge_base/domains/RP/examples.md", "md_atom_type": "TABLE_ROW", "md_parent_section": "§RP.1 [Example 1]", "md_verbatim": "| 17 | STUDYX | RP | 2324-P0002 | 6 | MENARAGE | Menarche Age | 11 | YEARS | 11 | 11 | YEARS | | Y | 1 | SCREENING | 1 | 2009-03-10 | -10 |", "score": 0.4126, "match_basis": "verbatim_token+domain_route:RP"}], "candidate_count": 5, "zero_candidate": false}
{"pdf_atom_id": "ig34_p0306_a009", "pdf_atom_type": "TABLE_ROW", "pdf_source": "SDTMIG_v3.4", "pdf_page": 306, "pdf_parent_section": "§6.3.7.6 Reproductive System Findings (RP)", "pdf_verbatim": "| VISITNUM | Visit Number | Num | | Timing | Clinical encounter number. Numeric version of VISIT, used for sorting. | Exp |", "figure_ref": null, "candidates": [{"md_atom_id": "md_dmRP_ex_a017", "md_file": "knowledge_base/domains/RP/examples.md", "md_atom_type": "TABLE_ROW", "md_parent_section": "§RP.1 [Example 1]", "md_verbatim": "| 12 | STUDYX | RP | 2324-P0002 | 1 | INABORTN | Number of Induced Abortions | 0 | | 0 | 0 | | | Y | 1 | SCREENING | 1 | 2009-03-10 | -10 |", "score": 0.4667, "match_basis": "verbatim_token+domain_route:RP"}, {"md_atom_id": "md_dmRP_ex_a006", "md_file": "knowledge_base/domains/RP/examples.md", "md_atom_type": "TABLE_ROW", "md_parent_section": "§RP.1 [Example 1]", "md_verbatim": "| 1 | STUDYX | RP | 2324-P0001 | 1 | SPABORTN | Number of Spontaneous Abortions | 1 | | 1 | 1 | | | Y | 1 | SCREENING | 1 | 2008-03-09 | -10 |", "score": 0.4632, "match_basis": "verbatim_token+domain_route:RP"}, {"md_atom_id": "md_dmRP_ex_a007", "md_file": "knowledge_base/domains/RP/examples.md", "md_atom_type": "TABLE_ROW", "md_parent_section": "§RP.1 [Example 1]", "md_verbatim": "| 2 | STUDYX | RP | 2324-P0001 | 2 | BRTHLVN | Number of Live Births | 2 | | 2 | 2 | | | Y | 1 | SCREENING | 1 | 2008-03-09 | -10 |", "score": 0.4429, "match_basis": "verbatim_token+domain_route:RP"}, {"md_atom_id": "md_dmRP_ex_a008", "md_file": "knowledge_base/domains/RP/examples.md", "md_atom_type": "TABLE_ROW", "md_parent_section": "§RP.1 [Example 1]", "md_verbatim": "| 3 | STUDYX | RP | 2324-P0001 | 3 | PREGNN | Number of Pregnancies | 3 | | 3 | 3 | | | Y | 1 | SCREENING | 1 | 2008-03-09 | -10 |", "score": 0.4429, "match_basis": "verbatim_token+domain_route:RP"}, {"md_atom_id": "md_dmRP_ex_a018", "md_file": "knowledge_base/domains/RP/examples.md", "md_atom_type": "TABLE_ROW", "md_parent_section": "§RP.1 [Example 1]", "md_verbatim": "| 13 | STUDYX | RP | 2324-P0002 | 2 | BRTHLVN | Number of Live Births | 1 | | 1 | 1 | | | Y | 1 | SCREENING | 1 | 2009-03-10 | -10 |", "score": 0.4429, "match_basis": "verbatim_token+domain_route:RP"}], "candidate_count": 5, "zero_candidate": false}
{"pdf_atom_id": "ig34_p0306_a010", "pdf_atom_type": "TABLE_ROW", "pdf_source": "SDTMIG_v3.4", "pdf_page": 306, "pdf_parent_section": "§6.3.7.6 Reproductive System Findings (RP)", "pdf_verbatim": "| VISIT | Visit Name | Char | | Timing | Protocol-defined description of a clinical encounter. | Perm |", "figure_ref": null, "candidates": [{"md_atom_id": "md_dmRP_ex_a011", "md_file": "knowledge_base/domains/RP/examples.md", "md_atom_type": "TABLE_ROW", "md_parent_section": "§RP.1 [Example 1]", "md_verbatim": "| 6 | STUDYX | RP | 2324-P0001 | 6 | BCMETHOD | Birth Control Method | FOAM OR OTHER SPERMICIDES | | FOAM OR OTHER SPERMICIDES | | | P3Y | Y | 1 | SCREENING | 1 | 2008-03-09 | -10 |", "score": 0.4341, "match_basis": "verbatim_token+domain_route:RP"}, {"md_atom_id": "md_dmRP_ex_a017", "md_file": "knowledge_base/domains/RP/examples.md", "md_atom_type": "TABLE_ROW", "md_parent_section": "§RP.1 [Example 1]", "md_verbatim": "| 12 | STUDYX | RP | 2324-P0002 | 1 | INABORTN | Number of Induced Abortions | 0 | | 0 | 0 | | | Y | 1 | SCREENING | 1 | 2009-03-10 | -10 |", "score": 0.4304, "match_basis": "verbatim_token+domain_route:RP"}, {"md_atom_id": "md_dmRP_ex_a006", "md_file": "knowledge_base/domains/RP/examples.md", "md_atom_type": "TABLE_ROW", "md_parent_section": "§RP.1 [Example 1]", "md_verbatim": "| 1 | STUDYX | RP | 2324-P0001 | 1 | SPABORTN | Number of Spontaneous Abortions | 1 | | 1 | 1 | | | Y | 1 | SCREENING | 1 | 2008-03-09 | -10 |", "score": 0.4289, "match_basis": "verbatim_token+domain_route:RP"}, {"md_atom_id": "md_dmRP_ex_a010", "md_file": "knowledge_base/domains/RP/examples.md", "md_atom_type": "TABLE_ROW", "md_parent_section": "§RP.1 [Example 1]", "md_verbatim": "| 5 | STUDYX | RP | 2324-P0001 | 5 | MENARAGE | Menarche Age | 10 | YEARS | 10 | 10 | YEARS | | Y | 1 | SCREENING | 1 | 2008-03-09 | -10 |", "score": 0.4162, "match_basis": "verbatim_token+domain_route:RP"}, {"md_atom_id": "md_dmRP_ex_a022", "md_file": "knowledge_base/domains/RP/examples.md", "md_atom_type": "TABLE_ROW", "md_parent_section": "§RP.1 [Example 1]", "md_verbatim": "| 17 | STUDYX | RP | 2324-P0002 | 6 | MENARAGE | Menarche Age | 11 | YEARS | 11 | 11 | YEARS | | Y | 1 | SCREENING | 1 | 2009-03-10 | -10 |", "score": 0.4162, "match_basis": "verbatim_token+domain_route:RP"}], "candidate_count": 5, "zero_candidate": false}
{"pdf_atom_id": "ig34_p0306_a011", "pdf_atom_type": "TABLE_ROW", "pdf_source": "SDTMIG_v3.4", "pdf_page": 306, "pdf_parent_section": "§6.3.7.6 Reproductive System Findings (RP)", "pdf_verbatim": "| VISITDY | Planned Study Day of Visit | Num | | Timing | Planned study day of VISIT. Should be an integer. | Perm |", "figure_ref": null, "candidates": [{"md_atom_id": "md_dmRP_ex_a014", "md_file": "knowledge_base/domains/RP/examples.md", "md_atom_type": "TABLE_ROW", "md_parent_section": "§RP.1 [Example 1]", "md_verbatim": "| 9 | STUDYX | RP | 2324-P0001 | 9 | PREGST | Pregnant During the Study | N | | N | | | | | 2 | Day 1 | 1 | 2008-03-19 | 1 |", "score": 0.46, "match_basis": "verbatim_token+domain_route:RP"}, {"md_atom_id": "md_dmRP_ex_a016", "md_file": "knowledge_base/domains/RP/examples.md", "md_atom_type": "TABLE_ROW", "md_parent_section": "§RP.1 [Example 1]", "md_verbatim": "| 11 | STUDYX | RP | 2324-P0001 | 11 | PREGST | Pregnant During the Study | N | | N | | | | | 3 | Day 29 | 29 | 2008-04-29 | 29 |", "score": 0.46, "match_basis": "verbatim_token+domain_route:RP"}, {"md_atom_id": "md_dmRP_ex_a013", "md_file": "knowledge_base/domains/RP/examples.md", "md_atom_type": "TABLE_ROW", "md_parent_section": "§RP.1 [Example 1]", "md_verbatim": "| 8 | STUDYX | RP | 2324-P0001 | 8 | CHILDPOT | Childbearing Potential | Y | | Y | | | | | 2 | Day 1 | 1 | 2008-03-19 | 1 |", "score": 0.4536, "match_basis": "verbatim_token+domain_route:RP"}, {"md_atom_id": "md_dmRP_ex_a015", "md_file": "knowledge_base/domains/RP/examples.md", "md_atom_type": "TABLE_ROW", "md_parent_section": "§RP.1 [Example 1]", "md_verbatim": "| 10 | STUDYX | RP | 2324-P0001 | 10 | CHILDPOT | Childbearing Potential | Y | | Y | | | | | 3 | Day 29 | 29 | 2008-04-16 | 29 |", "score": 0.4536, "match_basis": "verbatim_token+domain_route:RP"}, {"md_atom_id": "md_dmRP_ex_a025", "md_file": "knowledge_base/domains/RP/examples.md", "md_atom_type": "TABLE_ROW", "md_parent_section": "§RP.1 [Example 1]", "md_verbatim": "| 20 | STUDYX | RP | 2324-P0002 | 9 | CHILDPOT | Childbearing Potential | N | | N | | | | | 2 | Day 1 | 1 | 2009-03-19 | 1 |", "score": 0.4536, "match_basis": "verbatim_token+domain_route:RP"}], "candidate_count": 5, "zero_candidate": false}
{"pdf_atom_id": "ig34_p0306_a012", "pdf_atom_type": "TABLE_ROW", "pdf_source": "SDTMIG_v3.4", "pdf_page": 306, "pdf_parent_section": "§6.3.7.6 Reproductive System Findings (RP)", "pdf_verbatim": "| TAETORD | Planned Order of Element within Arm | Num | | Timing | Number that gives the planned order of the element within the arm for the element in which the assessment was made. | Perm |", "figure_ref": null, "candidates": [{"md_atom_id": "md_dmRP_ex_a007", "md_file": "knowledge_base/domains/RP/examples.md", "md_atom_type": "TABLE_ROW", "md_parent_section": "§RP.1 [Example 1]", "md_verbatim": "| 2 | STUDYX | RP | 2324-P0001 | 2 | BRTHLVN | Number of Live Births | 2 | | 2 | 2 | | | Y | 1 | SCREENING | 1 | 2008-03-09 | -10 |", "score": 0.4468, "match_basis": "verbatim_token+domain_route:RP"}, {"md_atom_id": "md_dmRP_ex_a018", "md_file": "knowledge_base/domains/RP/examples.md", "md_atom_type": "TABLE_ROW", "md_parent_section": "§RP.1 [Example 1]", "md_verbatim": "| 13 | STUDYX | RP | 2324-P0002 | 2 | BRTHLVN | Number of Live Births | 1 | | 1 | 1 | | | Y | 1 | SCREENING | 1 | 2009-03-10 | -10 |", "score": 0.4468, "match_basis": "verbatim_token+domain_route:RP"}, {"md_atom_id": "md_dmRP_ex_a008", "md_file": "knowledge_base/domains/RP/examples.md", "md_atom_type": "TABLE_ROW", "md_parent_section": "§RP.1 [Example 1]", "md_verbatim": "| 3 | STUDYX | RP | 2324-P0001 | 3 | PREGNN | Number of Pregnancies | 3 | | 3 | 3 | | | Y | 1 | SCREENING | 1 | 2008-03-09 | -10 |", "score": 0.4385, "match_basis": "verbatim_token+domain_route:RP"}, {"md_atom_id": "md_dmRP_ex_a019", "md_file": "knowledge_base/domains/RP/examples.md", "md_atom_type": "TABLE_ROW", "md_parent_section": "§RP.1 [Example 1]", "md_verbatim": "| 14 | STUDYX | RP | 2324-P0002 | 3 | PREGNN | Number of Pregnancies | 1 | | 1 | 1 | | | Y | 1 | SCREENING | 1 | 2009-03-09 | -10 |", "score": 0.4385, "match_basis": "verbatim_token+domain_route:RP"}, {"md_atom_id": "md_dmRP_ex_a017", "md_file": "knowledge_base/domains/RP/examples.md", "md_atom_type": "TABLE_ROW", "md_parent_section": "§RP.1 [Example 1]", "md_verbatim": "| 12 | STUDYX | RP | 2324-P0002 | 1 | INABORTN | Number of Induced Abortions | 0 | | 0 | 0 | | | Y | 1 | SCREENING | 1 | 2009-03-10 | -10 |", "score": 0.4361, "match_basis": "verbatim_token+domain_route:RP"}], "candidate_count": 5, "zero_candidate": false}
{"pdf_atom_id": "ig34_p0306_a013", "pdf_atom_type": "TABLE_ROW", "pdf_source": "SDTMIG_v3.4", "pdf_page": 306, "pdf_parent_section": "§6.3.7.6 Reproductive System Findings (RP)", "pdf_verbatim": "| EPOCH | Epoch | Char | (EPOCH) | Timing | Epoch associated with the date/time at which the assessment was made. | Perm |", "figure_ref": null, "candidates": [{"md_atom_id": "md_dmRP_ex_a011", "md_file": "knowledge_base/domains/RP/examples.md", "md_atom_type": "TABLE_ROW", "md_parent_section": "§RP.1 [Example 1]", "md_verbatim": "| 6 | STUDYX | RP | 2324-P0001 | 6 | BCMETHOD | Birth Control Method | FOAM OR OTHER SPERMICIDES | | FOAM OR OTHER SPERMICIDES | | | P3Y | Y | 1 | SCREENING | 1 | 2008-03-09 | -10 |", "score": 0.43, "match_basis": "verbatim_token+domain_route:RP"}, {"md_atom_id": "md_dmRP_ex_a014", "md_file": "knowledge_base/domains/RP/examples.md", "md_atom_type": "TABLE_ROW", "md_parent_section": "§RP.1 [Example 1]", "md_verbatim": "| 9 | STUDYX | RP | 2324-P0001 | 9 | PREGST | Pregnant During the Study | N | | N | | | | | 2 | Day 1 | 1 | 2008-03-19 | 1 |", "score": 0.42, "match_basis": "verbatim_token+domain_route:RP"}, {"md_atom_id": "md_dmRP_ex_a016", "md_file": "knowledge_base/domains/RP/examples.md", "md_atom_type": "TABLE_ROW", "md_parent_section": "§RP.1 [Example 1]", "md_verbatim": "| 11 | STUDYX | RP | 2324-P0001 | 11 | PREGST | Pregnant During the Study | N | | N | | | | | 3 | Day 29 | 29 | 2008-04-29 | 29 |", "score": 0.42, "match_basis": "verbatim_token+domain_route:RP"}, {"md_atom_id": "md_dmRP_ex_a010", "md_file": "knowledge_base/domains/RP/examples.md", "md_atom_type": "TABLE_ROW", "md_parent_section": "§RP.1 [Example 1]", "md_verbatim": "| 5 | STUDYX | RP | 2324-P0001 | 5 | MENARAGE | Menarche Age | 10 | YEARS | 10 | 10 | YEARS | | Y | 1 | SCREENING | 1 | 2008-03-09 | -10 |", "score": 0.4185, "match_basis": "verbatim_token+domain_route:RP"}, {"md_atom_id": "md_dmRP_ex_a022", "md_file": "knowledge_base/domains/RP/examples.md", "md_atom_type": "TABLE_ROW", "md_parent_section": "§RP.1 [Example 1]", "md_verbatim": "| 17 | STUDYX | RP | 2324-P0002 | 6 | MENARAGE | Menarche Age | 11 | YEARS | 11 | 11 | YEARS | | Y | 1 | SCREENING | 1 | 2009-03-10 | -10 |", "score": 0.4185, "match_basis": "verbatim_token+domain_route:RP"}], "candidate_count": 5, "zero_candidate": false}
{"pdf_atom_id": "ig34_p0306_a014", "pdf_atom_type": "TABLE_ROW", "pdf_source": "SDTMIG_v3.4", "pdf_page": 306, "pdf_parent_section": "§6.3.7.6 Reproductive System Findings (RP)", "pdf_verbatim": "| RPDTC | Date/Time of Collection | Char | ISO 8601 datetime or interval | Timing | Collection date and time of an observation. | Exp |", "figure_ref": null, "candidates": [{"md_atom_id": "md_dmRP_ex_a017", "md_file": "knowledge_base/domains/RP/examples.md", "md_atom_type": "TABLE_ROW", "md_parent_section": "§RP.1 [Example 1]", "md_verbatim": "| 12 | STUDYX | RP | 2324-P0002 | 1 | INABORTN | Number of Induced Abortions | 0 | | 0 | 0 | | | Y | 1 | SCREENING | 1 | 2009-03-10 | -10 |", "score": 0.425, "match_basis": "verbatim_token+domain_route:RP"}, {"md_atom_id": "md_dmRP_ex_a006", "md_file": "knowledge_base/domains/RP/examples.md", "md_atom_type": "TABLE_ROW", "md_parent_section": "§RP.1 [Example 1]", "md_verbatim": "| 1 | STUDYX | RP | 2324-P0001 | 1 | SPABORTN | Number of Spontaneous Abortions | 1 | | 1 | 1 | | | Y | 1 | SCREENING | 1 | 2008-03-09 | -10 |", "score": 0.4237, "match_basis": "verbatim_token+domain_route:RP"}, {"md_atom_id": "md_dmRP_ex_a014", "md_file": "knowledge_base/domains/RP/examples.md", "md_atom_type": "TABLE_ROW", "md_parent_section": "§RP.1 [Example 1]", "md_verbatim": "| 9 | STUDYX | RP | 2324-P0001 | 9 | PREGST | Pregnant During the Study | N | | N | | | | | 2 | Day 1 | 1 | 2008-03-19 | 1 |", "score": 0.4097, "match_basis": "verbatim_token+domain_route:RP"}, {"md_atom_id": "md_dmRP_ex_a016", "md_file": "knowledge_base/domains/RP/examples.md", "md_atom_type": "TABLE_ROW", "md_parent_section": "§RP.1 [Example 1]", "md_verbatim": "| 11 | STUDYX | RP | 2324-P0001 | 11 | PREGST | Pregnant During the Study | N | | N | | | | | 3 | Day 29 | 29 | 2008-04-29 | 29 |", "score": 0.4097, "match_basis": "verbatim_token+domain_route:RP"}, {"md_atom_id": "md_dmRP_ex_a010", "md_file": "knowledge_base/domains/RP/examples.md", "md_atom_type": "TABLE_ROW", "md_parent_section": "§RP.1 [Example 1]", "md_verbatim": "| 5 | STUDYX | RP | 2324-P0001 | 5 | MENARAGE | Menarche Age | 10 | YEARS | 10 | 10 | YEARS | | Y | 1 | SCREENING | 1 | 2008-03-09 | -10 |", "score": 0.409, "match_basis": "verbatim_token+domain_route:RP"}], "candidate_count": 5, "zero_candidate": false}
{"pdf_atom_id": "ig34_p0306_a015", "pdf_atom_type": "TABLE_ROW", "pdf_source": "SDTMIG_v3.4", "pdf_page": 306, "pdf_parent_section": "§6.3.7.6 Reproductive System Findings (RP)", "pdf_verbatim": "| RPDY | Study Day of Visit/Collection/Exam | Num | | Timing | Actual study day of visit/collection/exam expressed in integer days relative to the sponsor-defined RFSTDTC in Demographics. | Perm |", "figure_ref": null, "candidates": [{"md_atom_id": "md_dmRP_ex_a006", "md_file": "knowledge_base/domains/RP/examples.md", "md_atom_type": "TABLE_ROW", "md_parent_section": "§RP.1 [Example 1]", "md_verbatim": "| 1 | STUDYX | RP | 2324-P0001 | 1 | SPABORTN | Number of Spontaneous Abortions | 1 | | 1 | 1 | | | Y | 1 | SCREENING | 1 | 2008-03-09 | -10 |", "score": 0.4566, "match_basis": "verbatim_token+domain_route:RP"}, {"md_atom_id": "md_dmRP_ex_a017", "md_file": "knowledge_base/domains/RP/examples.md", "md_atom_type": "TABLE_ROW", "md_parent_section": "§RP.1 [Example 1]", "md_verbatim": "| 12 | STUDYX | RP | 2324-P0002 | 1 | INABORTN | Number of Induced Abortions | 0 | | 0 | 0 | | | Y | 1 | SCREENING | 1 | 2009-03-10 | -10 |", "score": 0.4462, "match_basis": "verbatim_token+domain_route:RP"}, {"md_atom_id": "md_dmRP_ex_a014", "md_file": "knowledge_base/domains/RP/examples.md", "md_atom_type": "TABLE_ROW", "md_parent_section": "§RP.1 [Example 1]", "md_verbatim": "| 9 | STUDYX | RP | 2324-P0001 | 9 | PREGST | Pregnant During the Study | N | | N | | | | | 2 | Day 1 | 1 | 2008-03-19 | 1 |", "score": 0.4452, "match_basis": "verbatim_token+domain_route:RP"}, {"md_atom_id": "md_dmRP_ex_a016", "md_file": "knowledge_base/domains/RP/examples.md", "md_atom_type": "TABLE_ROW", "md_parent_section": "§RP.1 [Example 1]", "md_verbatim": "| 11 | STUDYX | RP | 2324-P0001 | 11 | PREGST | Pregnant During the Study | N | | N | | | | | 3 | Day 29 | 29 | 2008-04-29 | 29 |", "score": 0.4452, "match_basis": "verbatim_token+domain_route:RP"}, {"md_atom_id": "md_dmRP_ex_a011", "md_file": "knowledge_base/domains/RP/examples.md", "md_atom_type": "TABLE_ROW", "md_parent_section": "§RP.1 [Example 1]", "md_verbatim": "| 6 | STUDYX | RP | 2324-P0001 | 6 | BCMETHOD | Birth Control Method | FOAM OR OTHER SPERMICIDES | | FOAM OR OTHER SPERMICIDES | | | P3Y | Y | 1 | SCREENING | 1 | 2008-03-09 | -10 |", "score": 0.4365, "match_basis": "verbatim_token+domain_route:RP"}], "candidate_count": 5, "zero_candidate": false}
{"pdf_atom_id": "ig34_p0306_a016", "pdf_atom_type": "TABLE_ROW", "pdf_source": "SDTMIG_v3.4", "pdf_page": 306, "pdf_parent_section": "§6.3.7.6 Reproductive System Findings (RP)", "pdf_verbatim": "| RPDUR | Duration | Char | ISO 8601 duration | Timing | Collected duration of an event, intervention, or finding represented in ISO 8601 character format. Used only if collected on the CRF and not derived. | Perm |", "figure_ref": null, "candidates": [{"md_atom_id": "md_dmRP_ex_a014", "md_file": "knowledge_base/domains/RP/examples.md", "md_atom_type": "TABLE_ROW", "md_parent_section": "§RP.1 [Example 1]", "md_verbatim": "| 9 | STUDYX | RP | 2324-P0001 | 9 | PREGST | Pregnant During the Study | N | | N | | | | | 2 | Day 1 | 1 | 2008-03-19 | 1 |", "score": 0.4279, "match_basis": "verbatim_token+domain_route:RP"}, {"md_atom_id": "md_dmRP_ex_a016", "md_file": "knowledge_base/domains/RP/examples.md", "md_atom_type": "TABLE_ROW", "md_parent_section": "§RP.1 [Example 1]", "md_verbatim": "| 11 | STUDYX | RP | 2324-P0001 | 11 | PREGST | Pregnant During the Study | N | | N | | | | | 3 | Day 29 | 29 | 2008-04-29 | 29 |", "score": 0.4279, "match_basis": "verbatim_token+domain_route:RP"}, {"md_atom_id": "md_dmRP_ex_a017", "md_file": "knowledge_base/domains/RP/examples.md", "md_atom_type": "TABLE_ROW", "md_parent_section": "§RP.1 [Example 1]", "md_verbatim": "| 12 | STUDYX | RP | 2324-P0002 | 1 | INABORTN | Number of Induced Abortions | 0 | | 0 | 0 | | | Y | 1 | SCREENING | 1 | 2009-03-10 | -10 |", "score": 0.4245, "match_basis": "verbatim_token+domain_route:RP"}, {"md_atom_id": "md_dmRP_ex_a011", "md_file": "knowledge_base/domains/RP/examples.md", "md_atom_type": "TABLE_ROW", "md_parent_section": "§RP.1 [Example 1]", "md_verbatim": "| 6 | STUDYX | RP | 2324-P0001 | 6 | BCMETHOD | Birth Control Method | FOAM OR OTHER SPERMICIDES | | FOAM OR OTHER SPERMICIDES | | | P3Y | Y | 1 | SCREENING | 1 | 2008-03-09 | -10 |", "score": 0.4222, "match_basis": "verbatim_token+domain_route:RP"}, {"md_atom_id": "md_dmRP_ex_a013", "md_file": "knowledge_base/domains/RP/examples.md", "md_atom_type": "TABLE_ROW", "md_parent_section": "§RP.1 [Example 1]", "md_verbatim": "| 8 | STUDYX | RP | 2324-P0001 | 8 | CHILDPOT | Childbearing Potential | Y | | Y | | | | | 2 | Day 1 | 1 | 2008-03-19 | 1 |", "score": 0.4194, "match_basis": "verbatim_token+domain_route:RP"}], "candidate_count": 5, "zero_candidate": false}
{"pdf_atom_id": "ig34_p0306_a017", "pdf_atom_type": "TABLE_ROW", "pdf_source": "SDTMIG_v3.4", "pdf_page": 306, "pdf_parent_section": "§6.3.7.6 Reproductive System Findings (RP)", "pdf_verbatim": "| RPTPT | Planned Time Point Name | Char | | Timing | Text description of time when a measurement or observation should be taken as defined in the protocol. This may be represented as an elapsed time relative to a fixed reference point, such as time of last dose. | Perm |", "figure_ref": null, "candidates": [{"md_atom_id": "md_dmRP_ex_a011", "md_file": "knowledge_base/domains/RP/examples.md", "md_atom_type": "TABLE_ROW", "md_parent_section": "§RP.1 [Example 1]", "md_verbatim": "| 6 | STUDYX | RP | 2324-P0001 | 6 | BCMETHOD | Birth Control Method | FOAM OR OTHER SPERMICIDES | | FOAM OR OTHER SPERMICIDES | | | P3Y | Y | 1 | SCREENING | 1 | 2008-03-09 | -10 |", "score": 0.4247, "match_basis": "verbatim_token+domain_route:RP"}, {"md_atom_id": "md_dmRP_ex_a009", "md_file": "knowledge_base/domains/RP/examples.md", "md_atom_type": "TABLE_ROW", "md_parent_section": "§RP.1 [Example 1]", "md_verbatim": "| 4 | STUDYX | RP | 2324-P0001 | 4 | MENOSTAT | Menopause Status | Pre-Menopause | | Pre-Menopause | | | | Y | 1 | SCREENING | 1 | 2008-03-09 | -10 |", "score": 0.418, "match_basis": "verbatim_token+domain_route:RP"}, {"md_atom_id": "md_dmRP_ex_a017", "md_file": "knowledge_base/domains/RP/examples.md", "md_atom_type": "TABLE_ROW", "md_parent_section": "§RP.1 [Example 1]", "md_verbatim": "| 12 | STUDYX | RP | 2324-P0002 | 1 | INABORTN | Number of Induced Abortions | 0 | | 0 | 0 | | | Y | 1 | SCREENING | 1 | 2009-03-10 | -10 |", "score": 0.4174, "match_basis": "verbatim_token+domain_route:RP"}, {"md_atom_id": "md_dmRP_ex_a006", "md_file": "knowledge_base/domains/RP/examples.md", "md_atom_type": "TABLE_ROW", "md_parent_section": "§RP.1 [Example 1]", "md_verbatim": "| 1 | STUDYX | RP | 2324-P0001 | 1 | SPABORTN | Number of Spontaneous Abortions | 1 | | 1 | 1 | | | Y | 1 | SCREENING | 1 | 2008-03-09 | -10 |", "score": 0.4169, "match_basis": "verbatim_token+domain_route:RP"}, {"md_atom_id": "md_dmRP_ex_a014", "md_file": "knowledge_base/domains/RP/examples.md", "md_atom_type": "TABLE_ROW", "md_parent_section": "§RP.1 [Example 1]", "md_verbatim": "| 9 | STUDYX | RP | 2324-P0001 | 9 | PREGST | Pregnant During the Study | N | | N | | | | | 2 | Day 1 | 1 | 2008-03-19 | 1 |", "score": 0.4142, "match_basis": "verbatim_token+domain_route:RP"}], "candidate_count": 5, "zero_candidate": false}
{"pdf_atom_id": "ig34_p0306_a018", "pdf_atom_type": "TABLE_ROW", "pdf_source": "SDTMIG_v3.4", "pdf_page": 306, "pdf_parent_section": "§6.3.7.6 Reproductive System Findings (RP)", "pdf_verbatim": "| RPTPTNUM | Planned Time Point Number | Num | | Timing | Numeric version of planned time point used in sorting. | Perm |", "figure_ref": null, "candidates": [{"md_atom_id": "md_dmRP_ex_a017", "md_file": "knowledge_base/domains/RP/examples.md", "md_atom_type": "TABLE_ROW", "md_parent_section": "§RP.1 [Example 1]", "md_verbatim": "| 12 | STUDYX | RP | 2324-P0002 | 1 | INABORTN | Number of Induced Abortions | 0 | | 0 | 0 | | | Y | 1 | SCREENING | 1 | 2009-03-10 | -10 |", "score": 0.4706, "match_basis": "verbatim_token+domain_route:RP"}, {"md_atom_id": "md_dmRP_ex_a006", "md_file": "knowledge_base/domains/RP/examples.md", "md_atom_type": "TABLE_ROW", "md_parent_section": "§RP.1 [Example 1]", "md_verbatim": "| 1 | STUDYX | RP | 2324-P0001 | 1 | SPABORTN | Number of Spontaneous Abortions | 1 | | 1 | 1 | | | Y | 1 | SCREENING | 1 | 2008-03-09 | -10 |", "score": 0.4667, "match_basis": "verbatim_token+domain_route:RP"}, {"md_atom_id": "md_dmRP_ex_a007", "md_file": "knowledge_base/domains/RP/examples.md", "md_atom_type": "TABLE_ROW", "md_parent_section": "§RP.1 [Example 1]", "md_verbatim": "| 2 | STUDYX | RP | 2324-P0001 | 2 | BRTHLVN | Number of Live Births | 2 | | 2 | 2 | | | Y | 1 | SCREENING | 1 | 2008-03-09 | -10 |", "score": 0.4455, "match_basis": "verbatim_token+domain_route:RP"}, {"md_atom_id": "md_dmRP_ex_a008", "md_file": "knowledge_base/domains/RP/examples.md", "md_atom_type": "TABLE_ROW", "md_parent_section": "§RP.1 [Example 1]", "md_verbatim": "| 3 | STUDYX | RP | 2324-P0001 | 3 | PREGNN | Number of Pregnancies | 3 | | 3 | 3 | | | Y | 1 | SCREENING | 1 | 2008-03-09 | -10 |", "score": 0.4455, "match_basis": "verbatim_token+domain_route:RP"}, {"md_atom_id": "md_dmRP_ex_a018", "md_file": "knowledge_base/domains/RP/examples.md", "md_atom_type": "TABLE_ROW", "md_parent_section": "§RP.1 [Example 1]", "md_verbatim": "| 13 | STUDYX | RP | 2324-P0002 | 2 | BRTHLVN | Number of Live Births | 1 | | 1 | 1 | | | Y | 1 | SCREENING | 1 | 2009-03-10 | -10 |", "score": 0.4455, "match_basis": "verbatim_token+domain_route:RP"}], "candidate_count": 5, "zero_candidate": false}
{"pdf_atom_id": "ig34_p0306_a019", "pdf_atom_type": "TABLE_ROW", "pdf_source": "SDTMIG_v3.4", "pdf_page": 306, "pdf_parent_section": "§6.3.7.6 Reproductive System Findings (RP)", "pdf_verbatim": "| RPELTM | Planned Elapsed Time from Time Point Ref | Char | ISO 8601 duration | Timing | Planned elapsed time in ISO 8601 character format relative to a planned fixed reference (RPTPTREF; e.g., \"PREVIOUS DOSE\", \"PREVIOUS MEAL\"). This variable is useful where there are repetitive measures. Not a clock time or a date/time variable, but an interval, represented as ISO duration. | Perm |", "figure_ref": null, "candidates": [{"md_atom_id": "md_dmRP_ex_a011", "md_file": "knowledge_base/domains/RP/examples.md", "md_atom_type": "TABLE_ROW", "md_parent_section": "§RP.1 [Example 1]", "md_verbatim": "| 6 | STUDYX | RP | 2324-P0001 | 6 | BCMETHOD | Birth Control Method | FOAM OR OTHER SPERMICIDES | | FOAM OR OTHER SPERMICIDES | | | P3Y | Y | 1 | SCREENING | 1 | 2008-03-09 | -10 |", "score": 0.4187, "match_basis": "verbatim_token+domain_route:RP"}, {"md_atom_id": "md_dmRP_ex_a014", "md_file": "knowledge_base/domains/RP/examples.md", "md_atom_type": "TABLE_ROW", "md_parent_section": "§RP.1 [Example 1]", "md_verbatim": "| 9 | STUDYX | RP | 2324-P0001 | 9 | PREGST | Pregnant During the Study | N | | N | | | | | 2 | Day 1 | 1 | 2008-03-19 | 1 |", "score": 0.4173, "match_basis": "verbatim_token+domain_route:RP"}, {"md_atom_id": "md_dmRP_ex_a016", "md_file": "knowledge_base/domains/RP/examples.md", "md_atom_type": "TABLE_ROW", "md_parent_section": "§RP.1 [Example 1]", "md_verbatim": "| 11 | STUDYX | RP | 2324-P0001 | 11 | PREGST | Pregnant During the Study | N | | N | | | | | 3 | Day 29 | 29 | 2008-04-29 | 29 |", "score": 0.4173, "match_basis": "verbatim_token+domain_route:RP"}, {"md_atom_id": "md_dmRP_ex_a006", "md_file": "knowledge_base/domains/RP/examples.md", "md_atom_type": "TABLE_ROW", "md_parent_section": "§RP.1 [Example 1]", "md_verbatim": "| 1 | STUDYX | RP | 2324-P0001 | 1 | SPABORTN | Number of Spontaneous Abortions | 1 | | 1 | 1 | | | Y | 1 | SCREENING | 1 | 2008-03-09 | -10 |", "score": 0.4155, "match_basis": "verbatim_token+domain_route:RP"}, {"md_atom_id": "md_dmRP_ex_a013", "md_file": "knowledge_base/domains/RP/examples.md", "md_atom_type": "TABLE_ROW", "md_parent_section": "§RP.1 [Example 1]", "md_verbatim": "| 8 | STUDYX | RP | 2324-P0001 | 8 | CHILDPOT | Childbearing Potential | Y | | Y | | | | | 2 | Day 1 | 1 | 2008-03-19 | 1 |", "score": 0.4123, "match_basis": "verbatim_token+domain_route:RP"}], "candidate_count": 5, "zero_candidate": false}
{"pdf_atom_id": "ig34_p0306_a020", "pdf_atom_type": "TABLE_ROW", "pdf_source": "SDTMIG_v3.4", "pdf_page": 306, "pdf_parent_section": "§6.3.7.6 Reproductive System Findings (RP)", "pdf_verbatim": "| RPTPTREF | Time Point Reference | Char | | Timing | Description of the fixed reference point referred to by RPELTM, RPTPTNUM, and RPTPT. Examples: \"PREVIOUS DOSE\", \"PREVIOUS MEAL\". | Perm |", "figure_ref": null, "candidates": [{"md_atom_id": "md_dmRP_ex_a006", "md_file": "knowledge_base/domains/RP/examples.md", "md_atom_type": "TABLE_ROW", "md_parent_section": "§RP.1 [Example 1]", "md_verbatim": "| 1 | STUDYX | RP | 2324-P0001 | 1 | SPABORTN | Number of Spontaneous Abortions | 1 | | 1 | 1 | | | Y | 1 | SCREENING | 1 | 2008-03-09 | -10 |", "score": 0.4364, "match_basis": "verbatim_token+domain_route:RP"}, {"md_atom_id": "md_dmRP_ex_a011", "md_file": "knowledge_base/domains/RP/examples.md", "md_atom_type": "TABLE_ROW", "md_parent_section": "§RP.1 [Example 1]", "md_verbatim": "| 6 | STUDYX | RP | 2324-P0001 | 6 | BCMETHOD | Birth Control Method | FOAM OR OTHER SPERMICIDES | | FOAM OR OTHER SPERMICIDES | | | P3Y | Y | 1 | SCREENING | 1 | 2008-03-09 | -10 |", "score": 0.4343, "match_basis": "verbatim_token+domain_route:RP"}, {"md_atom_id": "md_dmRP_ex_a017", "md_file": "knowledge_base/domains/RP/examples.md", "md_atom_type": "TABLE_ROW", "md_parent_section": "§RP.1 [Example 1]", "md_verbatim": "| 12 | STUDYX | RP | 2324-P0002 | 1 | INABORTN | Number of Induced Abortions | 0 | | 0 | 0 | | | Y | 1 | SCREENING | 1 | 2009-03-10 | -10 |", "score": 0.4313, "match_basis": "verbatim_token+domain_route:RP"}, {"md_atom_id": "md_dmRP_ex_a008", "md_file": "knowledge_base/domains/RP/examples.md", "md_atom_type": "TABLE_ROW", "md_parent_section": "§RP.1 [Example 1]", "md_verbatim": "| 3 | STUDYX | RP | 2324-P0001 | 3 | PREGNN | Number of Pregnancies | 3 | | 3 | 3 | | | Y | 1 | SCREENING | 1 | 2008-03-09 | -10 |", "score": 0.4261, "match_basis": "verbatim_token+domain_route:RP"}, {"md_atom_id": "md_dmRP_ex_a019", "md_file": "knowledge_base/domains/RP/examples.md", "md_atom_type": "TABLE_ROW", "md_parent_section": "§RP.1 [Example 1]", "md_verbatim": "| 14 | STUDYX | RP | 2324-P0002 | 3 | PREGNN | Number of Pregnancies | 1 | | 1 | 1 | | | Y | 1 | SCREENING | 1 | 2009-03-09 | -10 |", "score": 0.4261, "match_basis": "verbatim_token+domain_route:RP"}], "candidate_count": 5, "zero_candidate": false}
{"pdf_atom_id": "ig34_p0306_a021", "pdf_atom_type": "TABLE_ROW", "pdf_source": "SDTMIG_v3.4", "pdf_page": 306, "pdf_parent_section": "§6.3.7.6 Reproductive System Findings (RP)", "pdf_verbatim": "| RPRFTDTC | Date/Time of Reference Time Point | Char | ISO 8601 datetime or interval | Timing | Date/time for a fixed reference time point defined by RPTPTREF in ISO 8601 character format. | Perm |", "figure_ref": null, "candidates": [{"md_atom_id": "md_dmRP_ex_a011", "md_file": "knowledge_base/domains/RP/examples.md", "md_atom_type": "TABLE_ROW", "md_parent_section": "§RP.1 [Example 1]", "md_verbatim": "| 6 | STUDYX | RP | 2324-P0001 | 6 | BCMETHOD | Birth Control Method | FOAM OR OTHER SPERMICIDES | | FOAM OR OTHER SPERMICIDES | | | P3Y | Y | 1 | SCREENING | 1 | 2008-03-09 | -10 |", "score": 0.4176, "match_basis": "verbatim_token+domain_route:RP"}, {"md_atom_id": "md_dmRP_ex_a010", "md_file": "knowledge_base/domains/RP/examples.md", "md_atom_type": "TABLE_ROW", "md_parent_section": "§RP.1 [Example 1]", "md_verbatim": "| 5 | STUDYX | RP | 2324-P0001 | 5 | MENARAGE | Menarche Age | 10 | YEARS | 10 | 10 | YEARS | | Y | 1 | SCREENING | 1 | 2008-03-09 | -10 |", "score": 0.414, "match_basis": "verbatim_token+domain_route:RP"}, {"md_atom_id": "md_dmRP_ex_a022", "md_file": "knowledge_base/domains/RP/examples.md", "md_atom_type": "TABLE_ROW", "md_parent_section": "§RP.1 [Example 1]", "md_verbatim": "| 17 | STUDYX | RP | 2324-P0002 | 6 | MENARAGE | Menarche Age | 11 | YEARS | 11 | 11 | YEARS | | Y | 1 | SCREENING | 1 | 2009-03-10 | -10 |", "score": 0.414, "match_basis": "verbatim_token+domain_route:RP"}, {"md_atom_id": "md_dmRP_ex_a014", "md_file": "knowledge_base/domains/RP/examples.md", "md_atom_type": "TABLE_ROW", "md_parent_section": "§RP.1 [Example 1]", "md_verbatim": "| 9 | STUDYX | RP | 2324-P0001 | 9 | PREGST | Pregnant During the Study | N | | N | | | | | 2 | Day 1 | 1 | 2008-03-19 | 1 |", "score": 0.4073, "match_basis": "verbatim_token+domain_route:RP"}, {"md_atom_id": "md_dmRP_ex_a016", "md_file": "knowledge_base/domains/RP/examples.md", "md_atom_type": "TABLE_ROW", "md_parent_section": "§RP.1 [Example 1]", "md_verbatim": "| 11 | STUDYX | RP | 2324-P0001 | 11 | PREGST | Pregnant During the Study | N | | N | | | | | 3 | Day 29 | 29 | 2008-04-29 | 29 |", "score": 0.4073, "match_basis": "verbatim_token+domain_route:RP"}], "candidate_count": 5, "zero_candidate": false}
{"pdf_atom_id": "ig34_p0306_a022", "pdf_atom_type": "NOTE", "pdf_source": "SDTMIG_v3.4", "pdf_page": 306, "pdf_parent_section": "§6.3.7.6 Reproductive System Findings (RP)", "pdf_verbatim": "1In this column, an asterisk (*) indicates that the variable may be subject to controlled terminology. CDISC/NCI codelist values are enclosed in parentheses.", "figure_ref": null, "candidates": [{"md_atom_id": "md_dmRP_assn_a005", "md_file": "knowledge_base/domains/RP/assumptions.md", "md_atom_type": "LIST_ITEM", "md_parent_section": "§RP [RP — Assumptions]", "md_verbatim": "   a. Associations between RP tests and response codelists are described in the RP Codetable, available at https://www.cdisc.org/standards/terminology/controlled-terminology.", "score": 0.3953, "match_basis": "verbatim_token+domain_route:RP"}, {"md_atom_id": "md_dmRP_ex_a003", "md_file": "knowledge_base/domains/RP/examples.md", "md_atom_type": "SENTENCE", "md_parent_section": "§RP.1 [Example 1]", "md_verbatim": "This example represents reproductive system findings at the screening visit, visit 1, and visit 2 for 2 subjects.", "score": 0.3767, "match_basis": "verbatim_token+domain_route:RP"}, {"md_atom_id": "md_dmRP_assn_a004", "md_file": "knowledge_base/domains/RP/assumptions.md", "md_atom_type": "LIST_ITEM", "md_parent_section": "§RP [RP — Assumptions]", "md_verbatim": "3. There are separate codelists for RP tests, responses, and units.", "score": 0.3235, "match_basis": "verbatim_token+domain_route:RP"}, {"md_atom_id": "md_dmRP_ex_a004", "md_file": "knowledge_base/domains/RP/examples.md", "md_atom_type": "SENTENCE", "md_parent_section": "§RP.1 [Example 1]", "md_verbatim": "**rp.xpt**", "score": 0.31, "match_basis": "verbatim_token+domain_route:RP"}, {"md_atom_id": "md_dmRP_assn_a006", "md_file": "knowledge_base/domains/RP/assumptions.md", "md_atom_type": "LIST_ITEM", "md_parent_section": "§RP [RP — Assumptions]", "md_verbatim": "4. Any Identifiers, Timing variables, or Findings general observation class qualifiers may be added to the RP domain, but the following qualifiers would not generally be used: --MODIFY, --BODSYS, --LOINC, --SPCCND, --FAST, --TOX, --TOXGR, --SEV.", "score": 0.3077, "match_basis": "verbatim_token+domain_route:RP"}], "candidate_count": 5, "zero_candidate": false}
{"pdf_atom_id": "ig34_p0306_a023", "pdf_atom_type": "HEADING", "pdf_source": "SDTMIG_v3.4", "pdf_page": 306, "pdf_parent_section": "§6.3.7.6 Reproductive System Findings (RP)", "pdf_verbatim": "RP – Assumptions", "figure_ref": null, "candidates": [{"md_atom_id": "md_dmRP_assn_a001", "md_file": "knowledge_base/domains/RP/assumptions.md", "md_atom_type": "HEADING", "md_parent_section": "§RP [RP — Assumptions]", "md_verbatim": "# RP — Assumptions", "score": 1.0, "match_basis": "verbatim_token+domain_route:RP"}, {"md_atom_id": "md_dmRP_ex_a001", "md_file": "knowledge_base/domains/RP/examples.md", "md_atom_type": "HEADING", "md_parent_section": "§RP [RP — Examples]", "md_verbatim": "# RP — Examples", "score": 0.4, "match_basis": "verbatim_token+domain_route:RP"}, {"md_atom_id": "md_dmRP_ex_a002", "md_file": "knowledge_base/domains/RP/examples.md", "md_atom_type": "HEADING", "md_parent_section": "§RP [RP — Examples]", "md_verbatim": "## Example 1", "score": 0.4, "match_basis": "verbatim_token+domain_route:RP"}], "candidate_count": 3, "zero_candidate": false}
{"pdf_atom_id": "ig34_p0306_a024", "pdf_atom_type": "LIST_ITEM", "pdf_source": "SDTMIG_v3.4", "pdf_page": 306, "pdf_parent_section": "§6.3.7.6 Reproductive System Findings (RP)", "pdf_verbatim": "Reproductive System Findings domain contains information regarding a subject's reproductive ability and reproductive history (e.g., number of previous pregnancies, number of births, pregnant during the study).", "figure_ref": null, "candidates": [{"md_atom_id": "md_dmRP_assn_a002", "md_file": "knowledge_base/domains/RP/assumptions.md", "md_atom_type": "LIST_ITEM", "md_parent_section": "§RP [RP — Assumptions]", "md_verbatim": "1. Reproductive System Findings domain contains information regarding a subject's reproductive ability and reproductive history (e.g., number of previous pregnancies, number of births, pregnant during the study).", "score": 1.0, "match_basis": "verbatim_token+domain_route:RP"}, {"md_atom_id": "md_dmRP_assn_a003", "md_file": "knowledge_base/domains/RP/assumptions.md", "md_atom_type": "LIST_ITEM", "md_parent_section": "§RP [RP — Assumptions]", "md_verbatim": "2. Information on medications related to reproduction (e.g., contraceptives, fertility treatments) should be included in the Concomitant/Prior Medications (CM) domain; see Section 6.1.2.", "score": 0.5319, "match_basis": "verbatim_token+domain_route:RP"}, {"md_atom_id": "md_dmRP_ex_a003", "md_file": "knowledge_base/domains/RP/examples.md", "md_atom_type": "SENTENCE", "md_parent_section": "§RP.1 [Example 1]", "md_verbatim": "This example represents reproductive system findings at the screening visit, visit 1, and visit 2 for 2 subjects.", "score": 0.4751, "match_basis": "verbatim_token+domain_route:RP"}, {"md_atom_id": "md_dmRP_assn_a006", "md_file": "knowledge_base/domains/RP/assumptions.md", "md_atom_type": "LIST_ITEM", "md_parent_section": "§RP [RP — Assumptions]", "md_verbatim": "4. Any Identifiers, Timing variables, or Findings general observation class qualifiers may be added to the RP domain, but the following qualifiers would not generally be used: --MODIFY, --BODSYS, --LOINC, --SPCCND, --FAST, --TOX, --TOXGR, --SEV.", "score": 0.4545, "match_basis": "verbatim_token+domain_route:RP"}, {"md_atom_id": "md_dmRP_assn_a005", "md_file": "knowledge_base/domains/RP/assumptions.md", "md_atom_type": "LIST_ITEM", "md_parent_section": "§RP [RP — Assumptions]", "md_verbatim": "   a. Associations between RP tests and response codelists are described in the RP Codetable, available at https://www.cdisc.org/standards/terminology/controlled-terminology.", "score": 0.434, "match_basis": "verbatim_token+domain_route:RP"}], "candidate_count": 5, "zero_candidate": false}
{"pdf_atom_id": "ig34_p0306_a025", "pdf_atom_type": "LIST_ITEM", "pdf_source": "SDTMIG_v3.4", "pdf_page": 306, "pdf_parent_section": "§6.3.7.6 Reproductive System Findings (RP)", "pdf_verbatim": "Information on medications related to reproduction (e.g., contraceptives, fertility treatments) should be included in the Concomitant/Prior Medications (CM) domain; see Section 6.1.2.", "figure_ref": null, "candidates": [{"md_atom_id": "md_dmRP_assn_a003", "md_file": "knowledge_base/domains/RP/assumptions.md", "md_atom_type": "LIST_ITEM", "md_parent_section": "§RP [RP — Assumptions]", "md_verbatim": "2. Information on medications related to reproduction (e.g., contraceptives, fertility treatments) should be included in the Concomitant/Prior Medications (CM) domain; see Section 6.1.2.", "score": 1.0, "match_basis": "verbatim_token+domain_route:RP"}, {"md_atom_id": "md_dmRP_assn_a002", "md_file": "knowledge_base/domains/RP/assumptions.md", "md_atom_type": "LIST_ITEM", "md_parent_section": "§RP [RP — Assumptions]", "md_verbatim": "1. Reproductive System Findings domain contains information regarding a subject's reproductive ability and reproductive history (e.g., number of previous pregnancies, number of births, pregnant during the study).", "score": 0.5319, "match_basis": "verbatim_token+domain_route:RP"}, {"md_atom_id": "md_dmRP_assn_a006", "md_file": "knowledge_base/domains/RP/assumptions.md", "md_atom_type": "LIST_ITEM", "md_parent_section": "§RP [RP — Assumptions]", "md_verbatim": "4. Any Identifiers, Timing variables, or Findings general observation class qualifiers may be added to the RP domain, but the following qualifiers would not generally be used: --MODIFY, --BODSYS, --LOINC, --SPCCND, --FAST, --TOX, --TOXGR, --SEV.", "score": 0.4479, "match_basis": "verbatim_token+domain_route:RP"}, {"md_atom_id": "md_dmRP_assn_a005", "md_file": "knowledge_base/domains/RP/assumptions.md", "md_atom_type": "LIST_ITEM", "md_parent_section": "§RP [RP — Assumptions]", "md_verbatim": "   a. Associations between RP tests and response codelists are described in the RP Codetable, available at https://www.cdisc.org/standards/terminology/controlled-terminology.", "score": 0.4348, "match_basis": "verbatim_token+domain_route:RP"}, {"md_atom_id": "md_dmRP_assn_a004", "md_file": "knowledge_base/domains/RP/assumptions.md", "md_atom_type": "LIST_ITEM", "md_parent_section": "§RP [RP — Assumptions]", "md_verbatim": "3. There are separate codelists for RP tests, responses, and units.", "score": 0.4216, "match_basis": "verbatim_token+domain_route:RP"}], "candidate_count": 5, "zero_candidate": false}
{"pdf_atom_id": "ig34_p0306_a026", "pdf_atom_type": "LIST_ITEM", "pdf_source": "SDTMIG_v3.4", "pdf_page": 306, "pdf_parent_section": "§6.3.7.6 Reproductive System Findings (RP)", "pdf_verbatim": "There are separate codelists for RP tests, responses, and units.", "figure_ref": null, "candidates": [{"md_atom_id": "md_dmRP_assn_a004", "md_file": "knowledge_base/domains/RP/assumptions.md", "md_atom_type": "LIST_ITEM", "md_parent_section": "§RP [RP — Assumptions]", "md_verbatim": "3. There are separate codelists for RP tests, responses, and units.", "score": 1.0, "match_basis": "verbatim_token+domain_route:RP"}, {"md_atom_id": "md_dmRP_assn_a005", "md_file": "knowledge_base/domains/RP/assumptions.md", "md_atom_type": "LIST_ITEM", "md_parent_section": "§RP [RP — Assumptions]", "md_verbatim": "   a. Associations between RP tests and response codelists are described in the RP Codetable, available at https://www.cdisc.org/standards/terminology/controlled-terminology.", "score": 0.5161, "match_basis": "verbatim_token+domain_route:RP"}, {"md_atom_id": "md_dmRP_assn_a003", "md_file": "knowledge_base/domains/RP/assumptions.md", "md_atom_type": "LIST_ITEM", "md_parent_section": "§RP [RP — Assumptions]", "md_verbatim": "2. Information on medications related to reproduction (e.g., contraceptives, fertility treatments) should be included in the Concomitant/Prior Medications (CM) domain; see Section 6.1.2.", "score": 0.4216, "match_basis": "verbatim_token+domain_route:RP"}, {"md_atom_id": "md_dmRP_assn_a002", "md_file": "knowledge_base/domains/RP/assumptions.md", "md_atom_type": "LIST_ITEM", "md_parent_section": "§RP [RP — Assumptions]", "md_verbatim": "1. Reproductive System Findings domain contains information regarding a subject's reproductive ability and reproductive history (e.g., number of previous pregnancies, number of births, pregnant during the study).", "score": 0.4209, "match_basis": "verbatim_token+domain_route:RP"}, {"md_atom_id": "md_dmRP_assn_a006", "md_file": "knowledge_base/domains/RP/assumptions.md", "md_atom_type": "LIST_ITEM", "md_parent_section": "§RP [RP — Assumptions]", "md_verbatim": "4. Any Identifiers, Timing variables, or Findings general observation class qualifiers may be added to the RP domain, but the following qualifiers would not generally be used: --MODIFY, --BODSYS, --LOINC, --SPCCND, --FAST, --TOX, --TOXGR, --SEV.", "score": 0.4049, "match_basis": "verbatim_token+domain_route:RP"}], "candidate_count": 5, "zero_candidate": false}
{"pdf_atom_id": "ig34_p0307_a001", "pdf_atom_type": "LIST_ITEM", "pdf_source": "SDTMIG_v3.4", "pdf_page": 307, "pdf_parent_section": "§6.3.7.6 Reproductive System Findings (RP)", "pdf_verbatim": "Associations between RP tests and response codelists are described in the RP Codetable, available at https://www.cdisc.org/standards/terminology/controlled-terminology.", "figure_ref": null, "candidates": [{"md_atom_id": "md_dmRP_assn_a005", "md_file": "knowledge_base/domains/RP/assumptions.md", "md_atom_type": "LIST_ITEM", "md_parent_section": "§RP [RP — Assumptions]", "md_verbatim": "   a. Associations between RP tests and response codelists are described in the RP Codetable, available at https://www.cdisc.org/standards/terminology/controlled-terminology.", "score": 1.0, "match_basis": "verbatim_token+domain_route:RP"}, {"md_atom_id": "md_dmRP_assn_a004", "md_file": "knowledge_base/domains/RP/assumptions.md", "md_atom_type": "LIST_ITEM", "md_parent_section": "§RP [RP — Assumptions]", "md_verbatim": "3. There are separate codelists for RP tests, responses, and units.", "score": 0.5161, "match_basis": "verbatim_token+domain_route:RP"}, {"md_atom_id": "md_dmRP_assn_a003", "md_file": "knowledge_base/domains/RP/assumptions.md", "md_atom_type": "LIST_ITEM", "md_parent_section": "§RP [RP — Assumptions]", "md_verbatim": "2. Information on medications related to reproduction (e.g., contraceptives, fertility treatments) should be included in the Concomitant/Prior Medications (CM) domain; see Section 6.1.2.", "score": 0.4348, "match_basis": "verbatim_token+domain_route:RP"}, {"md_atom_id": "md_dmRP_assn_a002", "md_file": "knowledge_base/domains/RP/assumptions.md", "md_atom_type": "LIST_ITEM", "md_parent_section": "§RP [RP — Assumptions]", "md_verbatim": "1. Reproductive System Findings domain contains information regarding a subject's reproductive ability and reproductive history (e.g., number of previous pregnancies, number of births, pregnant during the study).", "score": 0.434, "match_basis": "verbatim_token+domain_route:RP"}, {"md_atom_id": "md_dmRP_assn_a006", "md_file": "knowledge_base/domains/RP/assumptions.md", "md_atom_type": "LIST_ITEM", "md_parent_section": "§RP [RP — Assumptions]", "md_verbatim": "4. Any Identifiers, Timing variables, or Findings general observation class qualifiers may be added to the RP domain, but the following qualifiers would not generally be used: --MODIFY, --BODSYS, --LOINC, --SPCCND, --FAST, --TOX, --TOXGR, --SEV.", "score": 0.4331, "match_basis": "verbatim_token+domain_route:RP"}], "candidate_count": 5, "zero_candidate": false}
{"pdf_atom_id": "ig34_p0307_a002", "pdf_atom_type": "LIST_ITEM", "pdf_source": "SDTMIG_v3.4", "pdf_page": 307, "pdf_parent_section": "§6.3.7.6 Reproductive System Findings (RP)", "pdf_verbatim": "Any Identifiers, Timing variables, or Findings general observation class qualifiers may be added to the RP domain, but the following qualifiers would not generally be used: --MODIFY, --BODSYS, --LOINC, --SPCCND, --FAST, --TOX, --TOXGR, --SEV.", "figure_ref": null, "candidates": [{"md_atom_id": "md_dmRP_assn_a006", "md_file": "knowledge_base/domains/RP/assumptions.md", "md_atom_type": "LIST_ITEM", "md_parent_section": "§RP [RP — Assumptions]", "md_verbatim": "4. Any Identifiers, Timing variables, or Findings general observation class qualifiers may be added to the RP domain, but the following qualifiers would not generally be used: --MODIFY, --BODSYS, --LOINC, --SPCCND, --FAST, --TOX, --TOXGR, --SEV.", "score": 1.0, "match_basis": "verbatim_token+domain_route:RP"}, {"md_atom_id": "md_dmRP_assn_a002", "md_file": "knowledge_base/domains/RP/assumptions.md", "md_atom_type": "LIST_ITEM", "md_parent_section": "§RP [RP — Assumptions]", "md_verbatim": "1. Reproductive System Findings domain contains information regarding a subject's reproductive ability and reproductive history (e.g., number of previous pregnancies, number of births, pregnant during the study).", "score": 0.4545, "match_basis": "verbatim_token+domain_route:RP"}, {"md_atom_id": "md_dmRP_assn_a003", "md_file": "knowledge_base/domains/RP/assumptions.md", "md_atom_type": "LIST_ITEM", "md_parent_section": "§RP [RP — Assumptions]", "md_verbatim": "2. Information on medications related to reproduction (e.g., contraceptives, fertility treatments) should be included in the Concomitant/Prior Medications (CM) domain; see Section 6.1.2.", "score": 0.4479, "match_basis": "verbatim_token+domain_route:RP"}, {"md_atom_id": "md_dmRP_assn_a005", "md_file": "knowledge_base/domains/RP/assumptions.md", "md_atom_type": "LIST_ITEM", "md_parent_section": "§RP [RP — Assumptions]", "md_verbatim": "   a. Associations between RP tests and response codelists are described in the RP Codetable, available at https://www.cdisc.org/standards/terminology/controlled-terminology.", "score": 0.4331, "match_basis": "verbatim_token+domain_route:RP"}, {"md_atom_id": "md_dmRP_assn_a004", "md_file": "knowledge_base/domains/RP/assumptions.md", "md_atom_type": "LIST_ITEM", "md_parent_section": "§RP [RP — Assumptions]", "md_verbatim": "3. There are separate codelists for RP tests, responses, and units.", "score": 0.4049, "match_basis": "verbatim_token+domain_route:RP"}], "candidate_count": 5, "zero_candidate": false}
{"pdf_atom_id": "ig34_p0307_a003", "pdf_atom_type": "HEADING", "pdf_source": "SDTMIG_v3.4", "pdf_page": 307, "pdf_parent_section": "§6.3.7.6 Reproductive System Findings (RP)", "pdf_verbatim": "RP – Examples", "figure_ref": null, "candidates": [{"md_atom_id": "md_dmRP_ex_a001", "md_file": "knowledge_base/domains/RP/examples.md", "md_atom_type": "HEADING", "md_parent_section": "§RP [RP — Examples]", "md_verbatim": "# RP — Examples", "score": 1.0, "match_basis": "verbatim_token+domain_route:RP"}, {"md_atom_id": "md_dmRP_ex_a002", "md_file": "knowledge_base/domains/RP/examples.md", "md_atom_type": "HEADING", "md_parent_section": "§RP [RP — Examples]", "md_verbatim": "## Example 1", "score": 0.9, "match_basis": "verbatim_token+domain_route:RP"}, {"md_atom_id": "md_dmRP_assn_a001", "md_file": "knowledge_base/domains/RP/assumptions.md", "md_atom_type": "HEADING", "md_parent_section": "§RP [RP — Assumptions]", "md_verbatim": "# RP — Assumptions", "score": 0.4, "match_basis": "verbatim_token+domain_route:RP"}], "candidate_count": 3, "zero_candidate": false}
{"pdf_atom_id": "ig34_p0307_a004", "pdf_atom_type": "HEADING", "pdf_source": "SDTMIG_v3.4", "pdf_page": 307, "pdf_parent_section": "§6.3.7.6 Reproductive System Findings (RP)", "pdf_verbatim": "Example 1", "figure_ref": null, "candidates": [{"md_atom_id": "md_dmRP_ex_a002", "md_file": "knowledge_base/domains/RP/examples.md", "md_atom_type": "HEADING", "md_parent_section": "§RP [RP — Examples]", "md_verbatim": "## Example 1", "score": 1.0, "match_basis": "verbatim_token+domain_route:RP"}, {"md_atom_id": "md_dmRP_ex_a001", "md_file": "knowledge_base/domains/RP/examples.md", "md_atom_type": "HEADING", "md_parent_section": "§RP [RP — Examples]", "md_verbatim": "# RP — Examples", "score": 0.9, "match_basis": "verbatim_token+domain_route:RP"}, {"md_atom_id": "md_dmRP_assn_a001", "md_file": "knowledge_base/domains/RP/assumptions.md", "md_atom_type": "HEADING", "md_parent_section": "§RP [RP — Assumptions]", "md_verbatim": "# RP — Assumptions", "score": 0.4, "match_basis": "verbatim_token+domain_route:RP"}], "candidate_count": 3, "zero_candidate": false}
{"pdf_atom_id": "ig34_p0307_a005", "pdf_atom_type": "SENTENCE", "pdf_source": "SDTMIG_v3.4", "pdf_page": 307, "pdf_parent_section": "§6.3.7.6 Reproductive System Findings (RP)", "pdf_verbatim": "This example represents reproductive system findings at the screening visit, visit 1, and visit 2 for 2 subjects.", "figure_ref": null, "candidates": [{"md_atom_id": "md_dmRP_ex_a003", "md_file": "knowledge_base/domains/RP/examples.md", "md_atom_type": "SENTENCE", "md_parent_section": "§RP.1 [Example 1]", "md_verbatim": "This example represents reproductive system findings at the screening visit, visit 1, and visit 2 for 2 subjects.", "score": 1.0, "match_basis": "verbatim_token+domain_route:RP"}, {"md_atom_id": "md_dmRP_assn_a002", "md_file": "knowledge_base/domains/RP/assumptions.md", "md_atom_type": "LIST_ITEM", "md_parent_section": "§RP [RP — Assumptions]", "md_verbatim": "1. Reproductive System Findings domain contains information regarding a subject's reproductive ability and reproductive history (e.g., number of previous pregnancies, number of births, pregnant during the study).", "score": 0.4751, "match_basis": "verbatim_token+domain_route:RP"}, {"md_atom_id": "md_dmRP_ex_a004", "md_file": "knowledge_base/domains/RP/examples.md", "md_atom_type": "SENTENCE", "md_parent_section": "§RP.1 [Example 1]", "md_verbatim": "**rp.xpt**", "score": 0.4, "match_basis": "verbatim_token+domain_route:RP"}, {"md_atom_id": "md_dmRP_assn_a003", "md_file": "knowledge_base/domains/RP/assumptions.md", "md_atom_type": "LIST_ITEM", "md_parent_section": "§RP [RP — Assumptions]", "md_verbatim": "2. Information on medications related to reproduction (e.g., contraceptives, fertility treatments) should be included in the Concomitant/Prior Medications (CM) domain; see Section 6.1.2.", "score": 0.385, "match_basis": "verbatim_token+domain_route:RP"}, {"md_atom_id": "md_dmRP_assn_a006", "md_file": "knowledge_base/domains/RP/assumptions.md", "md_atom_type": "LIST_ITEM", "md_parent_section": "§RP [RP — Assumptions]", "md_verbatim": "4. Any Identifiers, Timing variables, or Findings general observation class qualifiers may be added to the RP domain, but the following qualifiers would not generally be used: --MODIFY, --BODSYS, --LOINC, --SPCCND, --FAST, --TOX, --TOXGR, --SEV.", "score": 0.3503, "match_basis": "verbatim_token+domain_route:RP"}], "candidate_count": 5, "zero_candidate": false}
{"pdf_atom_id": "ig34_p0307_a006", "pdf_atom_type": "CODE_LITERAL", "pdf_source": "SDTMIG_v3.4", "pdf_page": 307, "pdf_parent_section": "§6.3.7.6 Reproductive System Findings (RP)", "pdf_verbatim": "rp.xpt", "figure_ref": null, "candidates": [{"md_atom_id": "md_dmRP_ex_a004", "md_file": "knowledge_base/domains/RP/examples.md", "md_atom_type": "SENTENCE", "md_parent_section": "§RP.1 [Example 1]", "md_verbatim": "**rp.xpt**", "score": 0.79, "match_basis": "verbatim_token+domain_route:RP"}, {"md_atom_id": "md_dmRP_assn_a001", "md_file": "knowledge_base/domains/RP/assumptions.md", "md_atom_type": "HEADING", "md_parent_section": "§RP [RP — Assumptions]", "md_verbatim": "# RP — Assumptions", "score": 0.19, "match_basis": "verbatim_token+domain_route:RP"}, {"md_atom_id": "md_dmRP_assn_a002", "md_file": "knowledge_base/domains/RP/assumptions.md", "md_atom_type": "LIST_ITEM", "md_parent_section": "§RP [RP — Assumptions]", "md_verbatim": "1. Reproductive System Findings domain contains information regarding a subject's reproductive ability and reproductive history (e.g., number of previous pregnancies, number of births, pregnant during the study).", "score": 0.19, "match_basis": "verbatim_token+domain_route:RP"}, {"md_atom_id": "md_dmRP_assn_a003", "md_file": "knowledge_base/domains/RP/assumptions.md", "md_atom_type": "LIST_ITEM", "md_parent_section": "§RP [RP — Assumptions]", "md_verbatim": "2. Information on medications related to reproduction (e.g., contraceptives, fertility treatments) should be included in the Concomitant/Prior Medications (CM) domain; see Section 6.1.2.", "score": 0.19, "match_basis": "verbatim_token+domain_route:RP"}, {"md_atom_id": "md_dmRP_assn_a004", "md_file": "knowledge_base/domains/RP/assumptions.md", "md_atom_type": "LIST_ITEM", "md_parent_section": "§RP [RP — Assumptions]", "md_verbatim": "3. There are separate codelists for RP tests, responses, and units.", "score": 0.19, "match_basis": "verbatim_token+domain_route:RP"}, {"md_atom_id": "md_dmRP_assn_a005", "md_file": "knowledge_base/domains/RP/assumptions.md", "md_atom_type": "LIST_ITEM", "md_parent_section": "§RP [RP — Assumptions]", "md_verbatim": "   a. Associations between RP tests and response codelists are described in the RP Codetable, available at https://www.cdisc.org/standards/terminology/controlled-terminology.", "score": 0.19, "match_basis": "verbatim_token+domain_route:RP"}, {"md_atom_id": "md_dmRP_assn_a006", "md_file": "knowledge_base/domains/RP/assumptions.md", "md_atom_type": "LIST_ITEM", "md_parent_section": "§RP [RP — Assumptions]", "md_verbatim": "4. Any Identifiers, Timing variables, or Findings general observation class qualifiers may be added to the RP domain, but the following qualifiers would not generally be used: --MODIFY, --BODSYS, --LOINC, --SPCCND, --FAST, --TOX, --TOXGR, --SEV.", "score": 0.19, "match_basis": "verbatim_token+domain_route:RP"}, {"md_atom_id": "md_dmRP_ex_a001", "md_file": "knowledge_base/domains/RP/examples.md", "md_atom_type": "HEADING", "md_parent_section": "§RP [RP — Examples]", "md_verbatim": "# RP — Examples", "score": 0.19, "match_basis": "verbatim_token+domain_route:RP"}, {"md_atom_id": "md_dmRP_ex_a002", "md_file": "knowledge_base/domains/RP/examples.md", "md_atom_type": "HEADING", "md_parent_section": "§RP [RP — Examples]", "md_verbatim": "## Example 1", "score": 0.19, "match_basis": "verbatim_token+domain_route:RP"}, {"md_atom_id": "md_dmRP_ex_a003", "md_file": "knowledge_base/domains/RP/examples.md", "md_atom_type": "SENTENCE", "md_parent_section": "§RP.1 [Example 1]", "md_verbatim": "This example represents reproductive system findings at the screening visit, visit 1, and visit 2 for 2 subjects.", "score": 0.19, "match_basis": "verbatim_token+domain_route:RP"}], "candidate_count": 10, "zero_candidate": false}
{"pdf_atom_id": "ig34_p0307_a007", "pdf_atom_type": "TABLE_HEADER", "pdf_source": "SDTMIG_v3.4", "pdf_page": 307, "pdf_parent_section": "§6.3.7.6 Reproductive System Findings (RP)", "pdf_verbatim": "| Row | STUDYID | DOMAIN | USUBJID | RPSEQ | RPTESTCD | RPTEST | RPORRES | RPORRESU | RPSTRESC | RPSTRESN | RPSTRESU | RPDUR | RPBLFL | VISITNUM | VISIT | VISITDY | RPDTC | RPDY |", "figure_ref": null, "candidates": [{"md_atom_id": "md_dmRP_ex_a005", "md_file": "knowledge_base/domains/RP/examples.md", "md_atom_type": "TABLE_HEADER", "md_parent_section": "§RP.1 [Example 1]", "md_verbatim": "| Row | STUDYID | DOMAIN | USUBJID | RPSEQ | RPTESTCD | RPTEST | RPORRES | RPORRESU | RPSTRESC | RPSTRESN | RPSTRESU | RPDUR | RPBLFL | VISITNUM | VISIT | VISITDY | RPDTC | RPDY |\n|-----|---------|--------|---------|-------|----------|--------|---------|----------|----------|----------|----------|-------|--------|----------|-------|---------|-------|------|", "score": 1.0, "match_basis": "verbatim_token+domain_route:RP"}, {"md_atom_id": "md_dmRP_ex_a014", "md_file": "knowledge_base/domains/RP/examples.md", "md_atom_type": "TABLE_ROW", "md_parent_section": "§RP.1 [Example 1]", "md_verbatim": "| 9 | STUDYX | RP | 2324-P0001 | 9 | PREGST | Pregnant During the Study | N | | N | | | | | 2 | Day 1 | 1 | 2008-03-19 | 1 |", "score": 0.3724, "match_basis": "verbatim_token+domain_route:RP"}, {"md_atom_id": "md_dmRP_ex_a016", "md_file": "knowledge_base/domains/RP/examples.md", "md_atom_type": "TABLE_ROW", "md_parent_section": "§RP.1 [Example 1]", "md_verbatim": "| 11 | STUDYX | RP | 2324-P0001 | 11 | PREGST | Pregnant During the Study | N | | N | | | | | 3 | Day 29 | 29 | 2008-04-29 | 29 |", "score": 0.3724, "match_basis": "verbatim_token+domain_route:RP"}, {"md_atom_id": "md_dmRP_ex_a007", "md_file": "knowledge_base/domains/RP/examples.md", "md_atom_type": "TABLE_ROW", "md_parent_section": "§RP.1 [Example 1]", "md_verbatim": "| 2 | STUDYX | RP | 2324-P0001 | 2 | BRTHLVN | Number of Live Births | 2 | | 2 | 2 | | | Y | 1 | SCREENING | 1 | 2008-03-09 | -10 |", "score": 0.3696, "match_basis": "verbatim_token+domain_route:RP"}, {"md_atom_id": "md_dmRP_ex_a008", "md_file": "knowledge_base/domains/RP/examples.md", "md_atom_type": "TABLE_ROW", "md_parent_section": "§RP.1 [Example 1]", "md_verbatim": "| 3 | STUDYX | RP | 2324-P0001 | 3 | PREGNN | Number of Pregnancies | 3 | | 3 | 3 | | | Y | 1 | SCREENING | 1 | 2008-03-09 | -10 |", "score": 0.3696, "match_basis": "verbatim_token+domain_route:RP"}], "candidate_count": 5, "zero_candidate": false}
{"pdf_atom_id": "ig34_p0307_a008", "pdf_atom_type": "TABLE_ROW", "pdf_source": "SDTMIG_v3.4", "pdf_page": 307, "pdf_parent_section": "§6.3.7.6 Reproductive System Findings (RP)", "pdf_verbatim": "| 1 | STUDYX | RP | 2324-P0001 | 1 | SPABORTN | Number of Spontaneous Abortions | 1 | | 1 | | | | Y | 1 | SCREENING | 1 | 2008-03-09 | -10 |", "figure_ref": null, "candidates": [{"md_atom_id": "md_dmRP_ex_a006", "md_file": "knowledge_base/domains/RP/examples.md", "md_atom_type": "TABLE_ROW", "md_parent_section": "§RP.1 [Example 1]", "md_verbatim": "| 1 | STUDYX | RP | 2324-P0001 | 1 | SPABORTN | Number of Spontaneous Abortions | 1 | | 1 | 1 | | | Y | 1 | SCREENING | 1 | 2008-03-09 | -10 |", "score": 1.0, "match_basis": "verbatim_token+domain_route:RP"}, {"md_atom_id": "md_dmRP_ex_a017", "md_file": "knowledge_base/domains/RP/examples.md", "md_atom_type": "TABLE_ROW", "md_parent_section": "§RP.1 [Example 1]", "md_verbatim": "| 12 | STUDYX | RP | 2324-P0002 | 1 | INABORTN | Number of Induced Abortions | 0 | | 0 | 0 | | | Y | 1 | SCREENING | 1 | 2009-03-10 | -10 |", "score": 0.736, "match_basis": "verbatim_token+domain_route:RP"}, {"md_atom_id": "md_dmRP_ex_a007", "md_file": "knowledge_base/domains/RP/examples.md", "md_atom_type": "TABLE_ROW", "md_parent_section": "§RP.1 [Example 1]", "md_verbatim": "| 2 | STUDYX | RP | 2324-P0001 | 2 | BRTHLVN | Number of Live Births | 2 | | 2 | 2 | | | Y | 1 | SCREENING | 1 | 2008-03-09 | -10 |", "score": 0.6588, "match_basis": "verbatim_token+domain_route:RP"}, {"md_atom_id": "md_dmRP_ex_a008", "md_file": "knowledge_base/domains/RP/examples.md", "md_atom_type": "TABLE_ROW", "md_parent_section": "§RP.1 [Example 1]", "md_verbatim": "| 3 | STUDYX | RP | 2324-P0001 | 3 | PREGNN | Number of Pregnancies | 3 | | 3 | 3 | | | Y | 1 | SCREENING | 1 | 2008-03-09 | -10 |", "score": 0.6588, "match_basis": "verbatim_token+domain_route:RP"}, {"md_atom_id": "md_dmRP_ex_a018", "md_file": "knowledge_base/domains/RP/examples.md", "md_atom_type": "TABLE_ROW", "md_parent_section": "§RP.1 [Example 1]", "md_verbatim": "| 13 | STUDYX | RP | 2324-P0002 | 2 | BRTHLVN | Number of Live Births | 1 | | 1 | 1 | | | Y | 1 | SCREENING | 1 | 2009-03-10 | -10 |", "score": 0.6264, "match_basis": "verbatim_token+domain_route:RP"}], "candidate_count": 5, "zero_candidate": false}
{"pdf_atom_id": "ig34_p0307_a009", "pdf_atom_type": "TABLE_ROW", "pdf_source": "SDTMIG_v3.4", "pdf_page": 307, "pdf_parent_section": "§6.3.7.6 Reproductive System Findings (RP)", "pdf_verbatim": "| 2 | STUDYX | RP | 2324-P0001 | 2 | BRTHLVN | Number of Live Births | 2 | | 2 | 2 | | | Y | 1 | SCREENING | 1 | 2008-03-09 | -10 |", "figure_ref": null, "candidates": [{"md_atom_id": "md_dmRP_ex_a007", "md_file": "knowledge_base/domains/RP/examples.md", "md_atom_type": "TABLE_ROW", "md_parent_section": "§RP.1 [Example 1]", "md_verbatim": "| 2 | STUDYX | RP | 2324-P0001 | 2 | BRTHLVN | Number of Live Births | 2 | | 2 | 2 | | | Y | 1 | SCREENING | 1 | 2008-03-09 | -10 |", "score": 1.0, "match_basis": "verbatim_token+domain_route:RP"}, {"md_atom_id": "md_dmRP_ex_a018", "md_file": "knowledge_base/domains/RP/examples.md", "md_atom_type": "TABLE_ROW", "md_parent_section": "§RP.1 [Example 1]", "md_verbatim": "| 13 | STUDYX | RP | 2324-P0002 | 2 | BRTHLVN | Number of Live Births | 1 | | 1 | 1 | | | Y | 1 | SCREENING | 1 | 2009-03-10 | -10 |", "score": 0.9294, "match_basis": "verbatim_token+domain_route:RP"}, {"md_atom_id": "md_dmRP_ex_a008", "md_file": "knowledge_base/domains/RP/examples.md", "md_atom_type": "TABLE_ROW", "md_parent_section": "§RP.1 [Example 1]", "md_verbatim": "| 3 | STUDYX | RP | 2324-P0001 | 3 | PREGNN | Number of Pregnancies | 3 | | 3 | 3 | | | Y | 1 | SCREENING | 1 | 2008-03-09 | -10 |", "score": 0.7143, "match_basis": "verbatim_token+domain_route:RP"}, {"md_atom_id": "md_dmRP_ex_a019", "md_file": "knowledge_base/domains/RP/examples.md", "md_atom_type": "TABLE_ROW", "md_parent_section": "§RP.1 [Example 1]", "md_verbatim": "| 14 | STUDYX | RP | 2324-P0002 | 3 | PREGNN | Number of Pregnancies | 1 | | 1 | 1 | | | Y | 1 | SCREENING | 1 | 2009-03-09 | -10 |", "score": 0.6727, "match_basis": "verbatim_token+domain_route:RP"}, {"md_atom_id": "md_dmRP_ex_a006", "md_file": "knowledge_base/domains/RP/examples.md", "md_atom_type": "TABLE_ROW", "md_parent_section": "§RP.1 [Example 1]", "md_verbatim": "| 1 | STUDYX | RP | 2324-P0001 | 1 | SPABORTN | Number of Spontaneous Abortions | 1 | | 1 | 1 | | | Y | 1 | SCREENING | 1 | 2008-03-09 | -10 |", "score": 0.6588, "match_basis": "verbatim_token+domain_route:RP"}], "candidate_count": 5, "zero_candidate": false}
{"pdf_atom_id": "ig34_p0307_a010", "pdf_atom_type": "TABLE_ROW", "pdf_source": "SDTMIG_v3.4", "pdf_page": 307, "pdf_parent_section": "§6.3.7.6 Reproductive System Findings (RP)", "pdf_verbatim": "| 3 | STUDYX | RP | 2324-P0001 | 3 | PREGNN | Number of Pregnancies | 3 | | 3 | 3 | | | Y | 1 | SCREENING | 1 | 2008-03-09 | -10 |", "figure_ref": null, "candidates": [{"md_atom_id": "md_dmRP_ex_a008", "md_file": "knowledge_base/domains/RP/examples.md", "md_atom_type": "TABLE_ROW", "md_parent_section": "§RP.1 [Example 1]", "md_verbatim": "| 3 | STUDYX | RP | 2324-P0001 | 3 | PREGNN | Number of Pregnancies | 3 | | 3 | 3 | | | Y | 1 | SCREENING | 1 | 2008-03-09 | -10 |", "score": 1.0, "match_basis": "verbatim_token+domain_route:RP"}, {"md_atom_id": "md_dmRP_ex_a019", "md_file": "knowledge_base/domains/RP/examples.md", "md_atom_type": "TABLE_ROW", "md_parent_section": "§RP.1 [Example 1]", "md_verbatim": "| 14 | STUDYX | RP | 2324-P0002 | 3 | PREGNN | Number of Pregnancies | 1 | | 1 | 1 | | | Y | 1 | SCREENING | 1 | 2009-03-09 | -10 |", "score": 0.9294, "match_basis": "verbatim_token+domain_route:RP"}, {"md_atom_id": "md_dmRP_ex_a007", "md_file": "knowledge_base/domains/RP/examples.md", "md_atom_type": "TABLE_ROW", "md_parent_section": "§RP.1 [Example 1]", "md_verbatim": "| 2 | STUDYX | RP | 2324-P0001 | 2 | BRTHLVN | Number of Live Births | 2 | | 2 | 2 | | | Y | 1 | SCREENING | 1 | 2008-03-09 | -10 |", "score": 0.7143, "match_basis": "verbatim_token+domain_route:RP"}, {"md_atom_id": "md_dmRP_ex_a018", "md_file": "knowledge_base/domains/RP/examples.md", "md_atom_type": "TABLE_ROW", "md_parent_section": "§RP.1 [Example 1]", "md_verbatim": "| 13 | STUDYX | RP | 2324-P0002 | 2 | BRTHLVN | Number of Live Births | 1 | | 1 | 1 | | | Y | 1 | SCREENING | 1 | 2009-03-10 | -10 |", "score": 0.6727, "match_basis": "verbatim_token+domain_route:RP"}, {"md_atom_id": "md_dmRP_ex_a006", "md_file": "knowledge_base/domains/RP/examples.md", "md_atom_type": "TABLE_ROW", "md_parent_section": "§RP.1 [Example 1]", "md_verbatim": "| 1 | STUDYX | RP | 2324-P0001 | 1 | SPABORTN | Number of Spontaneous Abortions | 1 | | 1 | 1 | | | Y | 1 | SCREENING | 1 | 2008-03-09 | -10 |", "score": 0.6588, "match_basis": "verbatim_token+domain_route:RP"}], "candidate_count": 5, "zero_candidate": false}
{"pdf_atom_id": "ig34_p0307_a011", "pdf_atom_type": "TABLE_ROW", "pdf_source": "SDTMIG_v3.4", "pdf_page": 307, "pdf_parent_section": "§6.3.7.6 Reproductive System Findings (RP)", "pdf_verbatim": "| 4 | STUDYX | RP | 2324-P0001 | 4 | MENOSTAT | Menopause Status | Pre-Menopause | | Pre-Menopause | | | | Y | 1 | SCREENING | 1 | 2008-03-09 | -10 |", "figure_ref": null, "candidates": [{"md_atom_id": "md_dmRP_ex_a009", "md_file": "knowledge_base/domains/RP/examples.md", "md_atom_type": "TABLE_ROW", "md_parent_section": "§RP.1 [Example 1]", "md_verbatim": "| 4 | STUDYX | RP | 2324-P0001 | 4 | MENOSTAT | Menopause Status | Pre-Menopause | | Pre-Menopause | | | | Y | 1 | SCREENING | 1 | 2008-03-09 | -10 |", "score": 1.0, "match_basis": "verbatim_token+domain_route:RP"}, {"md_atom_id": "md_dmRP_ex_a020", "md_file": "knowledge_base/domains/RP/examples.md", "md_atom_type": "TABLE_ROW", "md_parent_section": "§RP.1 [Example 1]", "md_verbatim": "| 15 | STUDYX | RP | 2324-P0002 | 4 | MENOSTAT | Menopause Status | MENOPAUSE | | MENOPAUSE | | | | Y | 1 | SCREENING | 1 | 2009-03-09 | -10 |", "score": 0.9118, "match_basis": "verbatim_token+domain_route:RP"}, {"md_atom_id": "md_dmRP_ex_a021", "md_file": "knowledge_base/domains/RP/examples.md", "md_atom_type": "TABLE_ROW", "md_parent_section": "§RP.1 [Example 1]", "md_verbatim": "| 16 | STUDYX | RP | 2324-P0002 | 5 | MENOAGE | Menopause Age | 55 | YEARS | 55 | 55 | YEARS | | Y | 1 | SCREENING | 1 | 2009-03-10 | -10 |", "score": 0.745, "match_basis": "verbatim_token+domain_route:RP"}, {"md_atom_id": "md_dmRP_ex_a010", "md_file": "knowledge_base/domains/RP/examples.md", "md_atom_type": "TABLE_ROW", "md_parent_section": "§RP.1 [Example 1]", "md_verbatim": "| 5 | STUDYX | RP | 2324-P0001 | 5 | MENARAGE | Menarche Age | 10 | YEARS | 10 | 10 | YEARS | | Y | 1 | SCREENING | 1 | 2008-03-09 | -10 |", "score": 0.6651, "match_basis": "verbatim_token+domain_route:RP"}, {"md_atom_id": "md_dmRP_ex_a008", "md_file": "knowledge_base/domains/RP/examples.md", "md_atom_type": "TABLE_ROW", "md_parent_section": "§RP.1 [Example 1]", "md_verbatim": "| 3 | STUDYX | RP | 2324-P0001 | 3 | PREGNN | Number of Pregnancies | 3 | | 3 | 3 | | | Y | 1 | SCREENING | 1 | 2008-03-09 | -10 |", "score": 0.6533, "match_basis": "verbatim_token+domain_route:RP"}], "candidate_count": 5, "zero_candidate": false}
{"pdf_atom_id": "ig34_p0307_a012", "pdf_atom_type": "TABLE_ROW", "pdf_source": "SDTMIG_v3.4", "pdf_page": 307, "pdf_parent_section": "§6.3.7.6 Reproductive System Findings (RP)", "pdf_verbatim": "| 5 | STUDYX | RP | 2324-P0001 | 5 | MENARAGE | Menarche Age | 10 | YEARS | 10 | 10 | YEARS | | Y | 1 | SCREENING | 1 | 2008-03-09 | -10 |", "figure_ref": null, "candidates": [{"md_atom_id": "md_dmRP_ex_a010", "md_file": "knowledge_base/domains/RP/examples.md", "md_atom_type": "TABLE_ROW", "md_parent_section": "§RP.1 [Example 1]", "md_verbatim": "| 5 | STUDYX | RP | 2324-P0001 | 5 | MENARAGE | Menarche Age | 10 | YEARS | 10 | 10 | YEARS | | Y | 1 | SCREENING | 1 | 2008-03-09 | -10 |", "score": 1.0, "match_basis": "verbatim_token+domain_route:RP"}, {"md_atom_id": "md_dmRP_ex_a022", "md_file": "knowledge_base/domains/RP/examples.md", "md_atom_type": "TABLE_ROW", "md_parent_section": "§RP.1 [Example 1]", "md_verbatim": "| 17 | STUDYX | RP | 2324-P0002 | 6 | MENARAGE | Menarche Age | 11 | YEARS | 11 | 11 | YEARS | | Y | 1 | SCREENING | 1 | 2009-03-10 | -10 |", "score": 0.925, "match_basis": "verbatim_token+domain_route:RP"}, {"md_atom_id": "md_dmRP_ex_a021", "md_file": "knowledge_base/domains/RP/examples.md", "md_atom_type": "TABLE_ROW", "md_parent_section": "§RP.1 [Example 1]", "md_verbatim": "| 16 | STUDYX | RP | 2324-P0002 | 5 | MENOAGE | Menopause Age | 55 | YEARS | 55 | 55 | YEARS | | Y | 1 | SCREENING | 1 | 2009-03-10 | -10 |", "score": 0.715, "match_basis": "verbatim_token+domain_route:RP"}, {"md_atom_id": "md_dmRP_ex_a009", "md_file": "knowledge_base/domains/RP/examples.md", "md_atom_type": "TABLE_ROW", "md_parent_section": "§RP.1 [Example 1]", "md_verbatim": "| 4 | STUDYX | RP | 2324-P0001 | 4 | MENOSTAT | Menopause Status | Pre-Menopause | | Pre-Menopause | | | | Y | 1 | SCREENING | 1 | 2008-03-09 | -10 |", "score": 0.6651, "match_basis": "verbatim_token+domain_route:RP"}, {"md_atom_id": "md_dmRP_ex_a007", "md_file": "knowledge_base/domains/RP/examples.md", "md_atom_type": "TABLE_ROW", "md_parent_section": "§RP.1 [Example 1]", "md_verbatim": "| 2 | STUDYX | RP | 2324-P0001 | 2 | BRTHLVN | Number of Live Births | 2 | | 2 | 2 | | | Y | 1 | SCREENING | 1 | 2008-03-09 | -10 |", "score": 0.6455, "match_basis": "verbatim_token+domain_route:RP"}], "candidate_count": 5, "zero_candidate": false}
{"pdf_atom_id": "ig34_p0307_a013", "pdf_atom_type": "TABLE_ROW", "pdf_source": "SDTMIG_v3.4", "pdf_page": 307, "pdf_parent_section": "§6.3.7.6 Reproductive System Findings (RP)", "pdf_verbatim": "| 6 | STUDYX | RP | 2324-P0001 | 6 | BCMETHOD | Birth Control Method | FOAM OR OTHER SPERMICIDES | | FOAM OR OTHER SPERMICIDES | | | P3Y | Y | 1 | SCREENING | 1 | 2008-03-09 | -10 |", "figure_ref": null, "candidates": [{"md_atom_id": "md_dmRP_ex_a011", "md_file": "knowledge_base/domains/RP/examples.md", "md_atom_type": "TABLE_ROW", "md_parent_section": "§RP.1 [Example 1]", "md_verbatim": "| 6 | STUDYX | RP | 2324-P0001 | 6 | BCMETHOD | Birth Control Method | FOAM OR OTHER SPERMICIDES | | FOAM OR OTHER SPERMICIDES | | | P3Y | Y | 1 | SCREENING | 1 | 2008-03-09 | -10 |", "score": 1.0, "match_basis": "verbatim_token+domain_route:RP"}, {"md_atom_id": "md_dmRP_ex_a023", "md_file": "knowledge_base/domains/RP/examples.md", "md_atom_type": "TABLE_ROW", "md_parent_section": "§RP.1 [Example 1]", "md_verbatim": "| 18 | STUDYX | RP | 2324-P0002 | 7 | BCMETHOD | Birth Control Method | DIAPHRAGM | | DIAPHRAGM | | | P3Y | Y | 1 | SCREENING | 1 | 2009-03-10 | -10 |", "score": 0.7321, "match_basis": "verbatim_token+domain_route:RP"}, {"md_atom_id": "md_dmRP_ex_a007", "md_file": "knowledge_base/domains/RP/examples.md", "md_atom_type": "TABLE_ROW", "md_parent_section": "§RP.1 [Example 1]", "md_verbatim": "| 2 | STUDYX | RP | 2324-P0001 | 2 | BRTHLVN | Number of Live Births | 2 | | 2 | 2 | | | Y | 1 | SCREENING | 1 | 2008-03-09 | -10 |", "score": 0.6172, "match_basis": "verbatim_token+domain_route:RP"}, {"md_atom_id": "md_dmRP_ex_a018", "md_file": "knowledge_base/domains/RP/examples.md", "md_atom_type": "TABLE_ROW", "md_parent_section": "§RP.1 [Example 1]", "md_verbatim": "| 13 | STUDYX | RP | 2324-P0002 | 2 | BRTHLVN | Number of Live Births | 1 | | 1 | 1 | | | Y | 1 | SCREENING | 1 | 2009-03-10 | -10 |", "score": 0.59, "match_basis": "verbatim_token+domain_route:RP"}, {"md_atom_id": "md_dmRP_ex_a010", "md_file": "knowledge_base/domains/RP/examples.md", "md_atom_type": "TABLE_ROW", "md_parent_section": "§RP.1 [Example 1]", "md_verbatim": "| 5 | STUDYX | RP | 2324-P0001 | 5 | MENARAGE | Menarche Age | 10 | YEARS | 10 | 10 | YEARS | | Y | 1 | SCREENING | 1 | 2008-03-09 | -10 |", "score": 0.5831, "match_basis": "verbatim_token+domain_route:RP"}], "candidate_count": 5, "zero_candidate": false}
{"pdf_atom_id": "ig34_p0307_a014", "pdf_atom_type": "TABLE_ROW", "pdf_source": "SDTMIG_v3.4", "pdf_page": 307, "pdf_parent_section": "§6.3.7.6 Reproductive System Findings (RP)", "pdf_verbatim": "| 7 | STUDYX | RP | 2324-P0001 | 7 | CHILDPOT | Childbearing Potential | Y | | Y | | | | Y | 1 | SCREENING | 1 | 2008-03-09 | -10 |", "figure_ref": null, "candidates": [{"md_atom_id": "md_dmRP_ex_a012", "md_file": "knowledge_base/domains/RP/examples.md", "md_atom_type": "TABLE_ROW", "md_parent_section": "§RP.1 [Example 1]", "md_verbatim": "| 7 | STUDYX | RP | 2324-P0001 | 7 | CHILDPOT | Childbearing Potential | Y | | Y | | | | Y | 1 | SCREENING | 1 | 2008-03-09 | -10 |", "score": 1.0, "match_basis": "verbatim_token+domain_route:RP"}, {"md_atom_id": "md_dmRP_ex_a024", "md_file": "knowledge_base/domains/RP/examples.md", "md_atom_type": "TABLE_ROW", "md_parent_section": "§RP.1 [Example 1]", "md_verbatim": "| 19 | STUDYX | RP | 2324-P0002 | 8 | CHILDPOT | Childbearing Potential | N | | N | | | | Y | 1 | SCREENING | 1 | 2009-03-10 | -10 |", "score": 0.9368, "match_basis": "verbatim_token+domain_route:RP"}, {"md_atom_id": "md_dmRP_ex_a013", "md_file": "knowledge_base/domains/RP/examples.md", "md_atom_type": "TABLE_ROW", "md_parent_section": "§RP.1 [Example 1]", "md_verbatim": "| 8 | STUDYX | RP | 2324-P0001 | 8 | CHILDPOT | Childbearing Potential | Y | | Y | | | | | 2 | Day 1 | 1 | 2008-03-19 | 1 |", "score": 0.8865, "match_basis": "verbatim_token+domain_route:RP"}, {"md_atom_id": "md_dmRP_ex_a015", "md_file": "knowledge_base/domains/RP/examples.md", "md_atom_type": "TABLE_ROW", "md_parent_section": "§RP.1 [Example 1]", "md_verbatim": "| 10 | STUDYX | RP | 2324-P0001 | 10 | CHILDPOT | Childbearing Potential | Y | | Y | | | | | 3 | Day 29 | 29 | 2008-04-16 | 29 |", "score": 0.8865, "match_basis": "verbatim_token+domain_route:RP"}, {"md_atom_id": "md_dmRP_ex_a025", "md_file": "knowledge_base/domains/RP/examples.md", "md_atom_type": "TABLE_ROW", "md_parent_section": "§RP.1 [Example 1]", "md_verbatim": "| 20 | STUDYX | RP | 2324-P0002 | 9 | CHILDPOT | Childbearing Potential | N | | N | | | | | 2 | Day 1 | 1 | 2009-03-19 | 1 |", "score": 0.8308, "match_basis": "verbatim_token+domain_route:RP"}], "candidate_count": 5, "zero_candidate": false}
{"pdf_atom_id": "ig34_p0307_a015", "pdf_atom_type": "TABLE_ROW", "pdf_source": "SDTMIG_v3.4", "pdf_page": 307, "pdf_parent_section": "§6.3.7.6 Reproductive System Findings (RP)", "pdf_verbatim": "| 8 | STUDYX | RP | 2324-P0001 | 8 | CHILDPOT | Childbearing Potential | Y | | Y | | | | | 2 | Day 1 | 1 | 2008-03-19 | 1 |", "figure_ref": null, "candidates": [{"md_atom_id": "md_dmRP_ex_a013", "md_file": "knowledge_base/domains/RP/examples.md", "md_atom_type": "TABLE_ROW", "md_parent_section": "§RP.1 [Example 1]", "md_verbatim": "| 8 | STUDYX | RP | 2324-P0001 | 8 | CHILDPOT | Childbearing Potential | Y | | Y | | | | | 2 | Day 1 | 1 | 2008-03-19 | 1 |", "score": 1.0, "match_basis": "verbatim_token+domain_route:RP"}, {"md_atom_id": "md_dmRP_ex_a015", "md_file": "knowledge_base/domains/RP/examples.md", "md_atom_type": "TABLE_ROW", "md_parent_section": "§RP.1 [Example 1]", "md_verbatim": "| 10 | STUDYX | RP | 2324-P0001 | 10 | CHILDPOT | Childbearing Potential | Y | | Y | | | | | 3 | Day 29 | 29 | 2008-04-16 | 29 |", "score": 1.0, "match_basis": "verbatim_token+domain_route:RP"}, {"md_atom_id": "md_dmRP_ex_a025", "md_file": "knowledge_base/domains/RP/examples.md", "md_atom_type": "TABLE_ROW", "md_parent_section": "§RP.1 [Example 1]", "md_verbatim": "| 20 | STUDYX | RP | 2324-P0002 | 9 | CHILDPOT | Childbearing Potential | N | | N | | | | | 2 | Day 1 | 1 | 2009-03-19 | 1 |", "score": 0.9273, "match_basis": "verbatim_token+domain_route:RP"}, {"md_atom_id": "md_dmRP_ex_a026", "md_file": "knowledge_base/domains/RP/examples.md", "md_atom_type": "TABLE_ROW", "md_parent_section": "§RP.1 [Example 1]", "md_verbatim": "| 21 | STUDYX | RP | 2324-P0002 | 10 | CHILDPOT | Childbearing Potential | N | | N | | | | | 3 | Day 29 | 29 | 2009-04-16 | 29 |", "score": 0.9273, "match_basis": "verbatim_token+domain_route:RP"}, {"md_atom_id": "md_dmRP_ex_a012", "md_file": "knowledge_base/domains/RP/examples.md", "md_atom_type": "TABLE_ROW", "md_parent_section": "§RP.1 [Example 1]", "md_verbatim": "| 7 | STUDYX | RP | 2324-P0001 | 7 | CHILDPOT | Childbearing Potential | Y | | Y | | | | Y | 1 | SCREENING | 1 | 2008-03-09 | -10 |", "score": 0.8865, "match_basis": "verbatim_token+domain_route:RP"}], "candidate_count": 5, "zero_candidate": false}
{"pdf_atom_id": "ig34_p0307_a016", "pdf_atom_type": "TABLE_ROW", "pdf_source": "SDTMIG_v3.4", "pdf_page": 307, "pdf_parent_section": "§6.3.7.6 Reproductive System Findings (RP)", "pdf_verbatim": "| 9 | STUDYX | RP | 2324-P0001 | 9 | PREGST | Pregnant During the Study | N | | N | | | | | 2 | Day 1 | 1 | 2008-03-19 | 1 |", "figure_ref": null, "candidates": [{"md_atom_id": "md_dmRP_ex_a014", "md_file": "knowledge_base/domains/RP/examples.md", "md_atom_type": "TABLE_ROW", "md_parent_section": "§RP.1 [Example 1]", "md_verbatim": "| 9 | STUDYX | RP | 2324-P0001 | 9 | PREGST | Pregnant During the Study | N | | N | | | | | 2 | Day 1 | 1 | 2008-03-19 | 1 |", "score": 1.0, "match_basis": "verbatim_token+domain_route:RP"}, {"md_atom_id": "md_dmRP_ex_a016", "md_file": "knowledge_base/domains/RP/examples.md", "md_atom_type": "TABLE_ROW", "md_parent_section": "§RP.1 [Example 1]", "md_verbatim": "| 11 | STUDYX | RP | 2324-P0001 | 11 | PREGST | Pregnant During the Study | N | | N | | | | | 3 | Day 29 | 29 | 2008-04-29 | 29 |", "score": 1.0, "match_basis": "verbatim_token+domain_route:RP"}, {"md_atom_id": "md_dmRP_ex_a008", "md_file": "knowledge_base/domains/RP/examples.md", "md_atom_type": "TABLE_ROW", "md_parent_section": "§RP.1 [Example 1]", "md_verbatim": "| 3 | STUDYX | RP | 2324-P0001 | 3 | PREGNN | Number of Pregnancies | 3 | | 3 | 3 | | | Y | 1 | SCREENING | 1 | 2008-03-09 | -10 |", "score": 0.655, "match_basis": "verbatim_token+domain_route:RP"}, {"md_atom_id": "md_dmRP_ex_a019", "md_file": "knowledge_base/domains/RP/examples.md", "md_atom_type": "TABLE_ROW", "md_parent_section": "§RP.1 [Example 1]", "md_verbatim": "| 14 | STUDYX | RP | 2324-P0002 | 3 | PREGNN | Number of Pregnancies | 1 | | 1 | 1 | | | Y | 1 | SCREENING | 1 | 2009-03-09 | -10 |", "score": 0.6143, "match_basis": "verbatim_token+domain_route:RP"}, {"md_atom_id": "md_dmRP_ex_a013", "md_file": "knowledge_base/domains/RP/examples.md", "md_atom_type": "TABLE_ROW", "md_parent_section": "§RP.1 [Example 1]", "md_verbatim": "| 8 | STUDYX | RP | 2324-P0001 | 8 | CHILDPOT | Childbearing Potential | Y | | Y | | | | | 2 | Day 1 | 1 | 2008-03-19 | 1 |", "score": 0.6, "match_basis": "verbatim_token+domain_route:RP"}], "candidate_count": 5, "zero_candidate": false}
{"pdf_atom_id": "ig34_p0307_a017", "pdf_atom_type": "TABLE_ROW", "pdf_source": "SDTMIG_v3.4", "pdf_page": 307, "pdf_parent_section": "§6.3.7.6 Reproductive System Findings (RP)", "pdf_verbatim": "| 10 | STUDYX | RP | 2324-P0001 | 10 | CHILDPOT | Childbearing Potential | Y | | Y | | | | | 3 | Day 29 | 29 | 2008-04-16 | 29 |", "figure_ref": null, "candidates": [{"md_atom_id": "md_dmRP_ex_a013", "md_file": "knowledge_base/domains/RP/examples.md", "md_atom_type": "TABLE_ROW", "md_parent_section": "§RP.1 [Example 1]", "md_verbatim": "| 8 | STUDYX | RP | 2324-P0001 | 8 | CHILDPOT | Childbearing Potential | Y | | Y | | | | | 2 | Day 1 | 1 | 2008-03-19 | 1 |", "score": 1.0, "match_basis": "verbatim_token+domain_route:RP"}, {"md_atom_id": "md_dmRP_ex_a015", "md_file": "knowledge_base/domains/RP/examples.md", "md_atom_type": "TABLE_ROW", "md_parent_section": "§RP.1 [Example 1]", "md_verbatim": "| 10 | STUDYX | RP | 2324-P0001 | 10 | CHILDPOT | Childbearing Potential | Y | | Y | | | | | 3 | Day 29 | 29 | 2008-04-16 | 29 |", "score": 1.0, "match_basis": "verbatim_token+domain_route:RP"}, {"md_atom_id": "md_dmRP_ex_a025", "md_file": "knowledge_base/domains/RP/examples.md", "md_atom_type": "TABLE_ROW", "md_parent_section": "§RP.1 [Example 1]", "md_verbatim": "| 20 | STUDYX | RP | 2324-P0002 | 9 | CHILDPOT | Childbearing Potential | N | | N | | | | | 2 | Day 1 | 1 | 2009-03-19 | 1 |", "score": 0.9273, "match_basis": "verbatim_token+domain_route:RP"}, {"md_atom_id": "md_dmRP_ex_a026", "md_file": "knowledge_base/domains/RP/examples.md", "md_atom_type": "TABLE_ROW", "md_parent_section": "§RP.1 [Example 1]", "md_verbatim": "| 21 | STUDYX | RP | 2324-P0002 | 10 | CHILDPOT | Childbearing Potential | N | | N | | | | | 3 | Day 29 | 29 | 2009-04-16 | 29 |", "score": 0.9273, "match_basis": "verbatim_token+domain_route:RP"}, {"md_atom_id": "md_dmRP_ex_a012", "md_file": "knowledge_base/domains/RP/examples.md", "md_atom_type": "TABLE_ROW", "md_parent_section": "§RP.1 [Example 1]", "md_verbatim": "| 7 | STUDYX | RP | 2324-P0001 | 7 | CHILDPOT | Childbearing Potential | Y | | Y | | | | Y | 1 | SCREENING | 1 | 2008-03-09 | -10 |", "score": 0.8865, "match_basis": "verbatim_token+domain_route:RP"}], "candidate_count": 5, "zero_candidate": false}
{"pdf_atom_id": "ig34_p0307_a018", "pdf_atom_type": "TABLE_ROW", "pdf_source": "SDTMIG_v3.4", "pdf_page": 307, "pdf_parent_section": "§6.3.7.6 Reproductive System Findings (RP)", "pdf_verbatim": "| 11 | STUDYX | RP | 2324-P0001 | 11 | PREGST | Pregnant During the Study | N | | N | | | | | 3 | Day 29 | 29 | 2008-04-16 | 29 |", "figure_ref": null, "candidates": [{"md_atom_id": "md_dmRP_ex_a014", "md_file": "knowledge_base/domains/RP/examples.md", "md_atom_type": "TABLE_ROW", "md_parent_section": "§RP.1 [Example 1]", "md_verbatim": "| 9 | STUDYX | RP | 2324-P0001 | 9 | PREGST | Pregnant During the Study | N | | N | | | | | 2 | Day 1 | 1 | 2008-03-19 | 1 |", "score": 1.0, "match_basis": "verbatim_token+domain_route:RP"}, {"md_atom_id": "md_dmRP_ex_a016", "md_file": "knowledge_base/domains/RP/examples.md", "md_atom_type": "TABLE_ROW", "md_parent_section": "§RP.1 [Example 1]", "md_verbatim": "| 11 | STUDYX | RP | 2324-P0001 | 11 | PREGST | Pregnant During the Study | N | | N | | | | | 3 | Day 29 | 29 | 2008-04-29 | 29 |", "score": 1.0, "match_basis": "verbatim_token+domain_route:RP"}, {"md_atom_id": "md_dmRP_ex_a008", "md_file": "knowledge_base/domains/RP/examples.md", "md_atom_type": "TABLE_ROW", "md_parent_section": "§RP.1 [Example 1]", "md_verbatim": "| 3 | STUDYX | RP | 2324-P0001 | 3 | PREGNN | Number of Pregnancies | 3 | | 3 | 3 | | | Y | 1 | SCREENING | 1 | 2008-03-09 | -10 |", "score": 0.655, "match_basis": "verbatim_token+domain_route:RP"}, {"md_atom_id": "md_dmRP_ex_a019", "md_file": "knowledge_base/domains/RP/examples.md", "md_atom_type": "TABLE_ROW", "md_parent_section": "§RP.1 [Example 1]", "md_verbatim": "| 14 | STUDYX | RP | 2324-P0002 | 3 | PREGNN | Number of Pregnancies | 1 | | 1 | 1 | | | Y | 1 | SCREENING | 1 | 2009-03-09 | -10 |", "score": 0.6143, "match_basis": "verbatim_token+domain_route:RP"}, {"md_atom_id": "md_dmRP_ex_a013", "md_file": "knowledge_base/domains/RP/examples.md", "md_atom_type": "TABLE_ROW", "md_parent_section": "§RP.1 [Example 1]", "md_verbatim": "| 8 | STUDYX | RP | 2324-P0001 | 8 | CHILDPOT | Childbearing Potential | Y | | Y | | | | | 2 | Day 1 | 1 | 2008-03-19 | 1 |", "score": 0.6, "match_basis": "verbatim_token+domain_route:RP"}], "candidate_count": 5, "zero_candidate": false}
{"pdf_atom_id": "ig34_p0307_a019", "pdf_atom_type": "TABLE_ROW", "pdf_source": "SDTMIG_v3.4", "pdf_page": 307, "pdf_parent_section": "§6.3.7.6 Reproductive System Findings (RP)", "pdf_verbatim": "| 12 | STUDYX | RP | 2324-P0002 | 1 | INABORTN | Number of Induced Abortions | 0 | | 0 | 0 | | | Y | 1 | SCREENING | 1 | 2009-03-09 | -10 |", "figure_ref": null, "candidates": [{"md_atom_id": "md_dmRP_ex_a017", "md_file": "knowledge_base/domains/RP/examples.md", "md_atom_type": "TABLE_ROW", "md_parent_section": "§RP.1 [Example 1]", "md_verbatim": "| 12 | STUDYX | RP | 2324-P0002 | 1 | INABORTN | Number of Induced Abortions | 0 | | 0 | 0 | | | Y | 1 | SCREENING | 1 | 2009-03-10 | -10 |", "score": 1.0, "match_basis": "verbatim_token+domain_route:RP"}, {"md_atom_id": "md_dmRP_ex_a006", "md_file": "knowledge_base/domains/RP/examples.md", "md_atom_type": "TABLE_ROW", "md_parent_section": "§RP.1 [Example 1]", "md_verbatim": "| 1 | STUDYX | RP | 2324-P0001 | 1 | SPABORTN | Number of Spontaneous Abortions | 1 | | 1 | 1 | | | Y | 1 | SCREENING | 1 | 2008-03-09 | -10 |", "score": 0.736, "match_basis": "verbatim_token+domain_route:RP"}, {"md_atom_id": "md_dmRP_ex_a018", "md_file": "knowledge_base/domains/RP/examples.md", "md_atom_type": "TABLE_ROW", "md_parent_section": "§RP.1 [Example 1]", "md_verbatim": "| 13 | STUDYX | RP | 2324-P0002 | 2 | BRTHLVN | Number of Live Births | 1 | | 1 | 1 | | | Y | 1 | SCREENING | 1 | 2009-03-10 | -10 |", "score": 0.6809, "match_basis": "verbatim_token+domain_route:RP"}, {"md_atom_id": "md_dmRP_ex_a019", "md_file": "knowledge_base/domains/RP/examples.md", "md_atom_type": "TABLE_ROW", "md_parent_section": "§RP.1 [Example 1]", "md_verbatim": "| 14 | STUDYX | RP | 2324-P0002 | 3 | PREGNN | Number of Pregnancies | 1 | | 1 | 1 | | | Y | 1 | SCREENING | 1 | 2009-03-09 | -10 |", "score": 0.6809, "match_basis": "verbatim_token+domain_route:RP"}, {"md_atom_id": "md_dmRP_ex_a007", "md_file": "knowledge_base/domains/RP/examples.md", "md_atom_type": "TABLE_ROW", "md_parent_section": "§RP.1 [Example 1]", "md_verbatim": "| 2 | STUDYX | RP | 2324-P0001 | 2 | BRTHLVN | Number of Live Births | 2 | | 2 | 2 | | | Y | 1 | SCREENING | 1 | 2008-03-09 | -10 |", "score": 0.6449, "match_basis": "verbatim_token+domain_route:RP"}], "candidate_count": 5, "zero_candidate": false}
{"pdf_atom_id": "ig34_p0307_a020", "pdf_atom_type": "TABLE_ROW", "pdf_source": "SDTMIG_v3.4", "pdf_page": 307, "pdf_parent_section": "§6.3.7.6 Reproductive System Findings (RP)", "pdf_verbatim": "| 13 | STUDYX | RP | 2324-P0002 | 2 | BRTHLVN | Number of Live Births | 1 | | 1 | 1 | | | Y | 1 | SCREENING | 1 | 2009-03-09 | -10 |", "figure_ref": null, "candidates": [{"md_atom_id": "md_dmRP_ex_a018", "md_file": "knowledge_base/domains/RP/examples.md", "md_atom_type": "TABLE_ROW", "md_parent_section": "§RP.1 [Example 1]", "md_verbatim": "| 13 | STUDYX | RP | 2324-P0002 | 2 | BRTHLVN | Number of Live Births | 1 | | 1 | 1 | | | Y | 1 | SCREENING | 1 | 2009-03-10 | -10 |", "score": 1.0, "match_basis": "verbatim_token+domain_route:RP"}, {"md_atom_id": "md_dmRP_ex_a007", "md_file": "knowledge_base/domains/RP/examples.md", "md_atom_type": "TABLE_ROW", "md_parent_section": "§RP.1 [Example 1]", "md_verbatim": "| 2 | STUDYX | RP | 2324-P0001 | 2 | BRTHLVN | Number of Live Births | 2 | | 2 | 2 | | | Y | 1 | SCREENING | 1 | 2008-03-09 | -10 |", "score": 0.9294, "match_basis": "verbatim_token+domain_route:RP"}, {"md_atom_id": "md_dmRP_ex_a019", "md_file": "knowledge_base/domains/RP/examples.md", "md_atom_type": "TABLE_ROW", "md_parent_section": "§RP.1 [Example 1]", "md_verbatim": "| 14 | STUDYX | RP | 2324-P0002 | 3 | PREGNN | Number of Pregnancies | 1 | | 1 | 1 | | | Y | 1 | SCREENING | 1 | 2009-03-09 | -10 |", "score": 0.7143, "match_basis": "verbatim_token+domain_route:RP"}, {"md_atom_id": "md_dmRP_ex_a017", "md_file": "knowledge_base/domains/RP/examples.md", "md_atom_type": "TABLE_ROW", "md_parent_section": "§RP.1 [Example 1]", "md_verbatim": "| 12 | STUDYX | RP | 2324-P0002 | 1 | INABORTN | Number of Induced Abortions | 0 | | 0 | 0 | | | Y | 1 | SCREENING | 1 | 2009-03-10 | -10 |", "score": 0.6809, "match_basis": "verbatim_token+domain_route:RP"}, {"md_atom_id": "md_dmRP_ex_a008", "md_file": "knowledge_base/domains/RP/examples.md", "md_atom_type": "TABLE_ROW", "md_parent_section": "§RP.1 [Example 1]", "md_verbatim": "| 3 | STUDYX | RP | 2324-P0001 | 3 | PREGNN | Number of Pregnancies | 3 | | 3 | 3 | | | Y | 1 | SCREENING | 1 | 2008-03-09 | -10 |", "score": 0.6727, "match_basis": "verbatim_token+domain_route:RP"}], "candidate_count": 5, "zero_candidate": false}
{"pdf_atom_id": "ig34_p0307_a021", "pdf_atom_type": "TABLE_ROW", "pdf_source": "SDTMIG_v3.4", "pdf_page": 307, "pdf_parent_section": "§6.3.7.6 Reproductive System Findings (RP)", "pdf_verbatim": "| 14 | STUDYX | RP | 2324-P0002 | 3 | PREGNN | Number of Pregnancies | 1 | | 1 | 1 | | | Y | 1 | SCREENING | 1 | 2009-03-09 | -10 |", "figure_ref": null, "candidates": [{"md_atom_id": "md_dmRP_ex_a019", "md_file": "knowledge_base/domains/RP/examples.md", "md_atom_type": "TABLE_ROW", "md_parent_section": "§RP.1 [Example 1]", "md_verbatim": "| 14 | STUDYX | RP | 2324-P0002 | 3 | PREGNN | Number of Pregnancies | 1 | | 1 | 1 | | | Y | 1 | SCREENING | 1 | 2009-03-09 | -10 |", "score": 1.0, "match_basis": "verbatim_token+domain_route:RP"}, {"md_atom_id": "md_dmRP_ex_a008", "md_file": "knowledge_base/domains/RP/examples.md", "md_atom_type": "TABLE_ROW", "md_parent_section": "§RP.1 [Example 1]", "md_verbatim": "| 3 | STUDYX | RP | 2324-P0001 | 3 | PREGNN | Number of Pregnancies | 3 | | 3 | 3 | | | Y | 1 | SCREENING | 1 | 2008-03-09 | -10 |", "score": 0.9294, "match_basis": "verbatim_token+domain_route:RP"}, {"md_atom_id": "md_dmRP_ex_a018", "md_file": "knowledge_base/domains/RP/examples.md", "md_atom_type": "TABLE_ROW", "md_parent_section": "§RP.1 [Example 1]", "md_verbatim": "| 13 | STUDYX | RP | 2324-P0002 | 2 | BRTHLVN | Number of Live Births | 1 | | 1 | 1 | | | Y | 1 | SCREENING | 1 | 2009-03-10 | -10 |", "score": 0.7143, "match_basis": "verbatim_token+domain_route:RP"}, {"md_atom_id": "md_dmRP_ex_a017", "md_file": "knowledge_base/domains/RP/examples.md", "md_atom_type": "TABLE_ROW", "md_parent_section": "§RP.1 [Example 1]", "md_verbatim": "| 12 | STUDYX | RP | 2324-P0002 | 1 | INABORTN | Number of Induced Abortions | 0 | | 0 | 0 | | | Y | 1 | SCREENING | 1 | 2009-03-10 | -10 |", "score": 0.6809, "match_basis": "verbatim_token+domain_route:RP"}, {"md_atom_id": "md_dmRP_ex_a007", "md_file": "knowledge_base/domains/RP/examples.md", "md_atom_type": "TABLE_ROW", "md_parent_section": "§RP.1 [Example 1]", "md_verbatim": "| 2 | STUDYX | RP | 2324-P0001 | 2 | BRTHLVN | Number of Live Births | 2 | | 2 | 2 | | | Y | 1 | SCREENING | 1 | 2008-03-09 | -10 |", "score": 0.6727, "match_basis": "verbatim_token+domain_route:RP"}], "candidate_count": 5, "zero_candidate": false}
{"pdf_atom_id": "ig34_p0307_a022", "pdf_atom_type": "TABLE_ROW", "pdf_source": "SDTMIG_v3.4", "pdf_page": 307, "pdf_parent_section": "§6.3.7.6 Reproductive System Findings (RP)", "pdf_verbatim": "| 15 | STUDYX | RP | 2324-P0002 | 4 | MENOSTAT | Menopause Status | MENOPAUSE | | MENOPAUSE | | | | Y | 1 | SCREENING | 1 | 2009-03-09 | -10 |", "figure_ref": null, "candidates": [{"md_atom_id": "md_dmRP_ex_a020", "md_file": "knowledge_base/domains/RP/examples.md", "md_atom_type": "TABLE_ROW", "md_parent_section": "§RP.1 [Example 1]", "md_verbatim": "| 15 | STUDYX | RP | 2324-P0002 | 4 | MENOSTAT | Menopause Status | MENOPAUSE | | MENOPAUSE | | | | Y | 1 | SCREENING | 1 | 2009-03-09 | -10 |", "score": 1.0, "match_basis": "verbatim_token+domain_route:RP"}, {"md_atom_id": "md_dmRP_ex_a009", "md_file": "knowledge_base/domains/RP/examples.md", "md_atom_type": "TABLE_ROW", "md_parent_section": "§RP.1 [Example 1]", "md_verbatim": "| 4 | STUDYX | RP | 2324-P0001 | 4 | MENOSTAT | Menopause Status | Pre-Menopause | | Pre-Menopause | | | | Y | 1 | SCREENING | 1 | 2008-03-09 | -10 |", "score": 0.9118, "match_basis": "verbatim_token+domain_route:RP"}, {"md_atom_id": "md_dmRP_ex_a021", "md_file": "knowledge_base/domains/RP/examples.md", "md_atom_type": "TABLE_ROW", "md_parent_section": "§RP.1 [Example 1]", "md_verbatim": "| 16 | STUDYX | RP | 2324-P0002 | 5 | MENOAGE | Menopause Age | 55 | YEARS | 55 | 55 | YEARS | | Y | 1 | SCREENING | 1 | 2009-03-10 | -10 |", "score": 0.8054, "match_basis": "verbatim_token+domain_route:RP"}, {"md_atom_id": "md_dmRP_ex_a022", "md_file": "knowledge_base/domains/RP/examples.md", "md_atom_type": "TABLE_ROW", "md_parent_section": "§RP.1 [Example 1]", "md_verbatim": "| 17 | STUDYX | RP | 2324-P0002 | 6 | MENARAGE | Menarche Age | 11 | YEARS | 11 | 11 | YEARS | | Y | 1 | SCREENING | 1 | 2009-03-10 | -10 |", "score": 0.6714, "match_basis": "verbatim_token+domain_route:RP"}, {"md_atom_id": "md_dmRP_ex_a018", "md_file": "knowledge_base/domains/RP/examples.md", "md_atom_type": "TABLE_ROW", "md_parent_section": "§RP.1 [Example 1]", "md_verbatim": "| 13 | STUDYX | RP | 2324-P0002 | 2 | BRTHLVN | Number of Live Births | 1 | | 1 | 1 | | | Y | 1 | SCREENING | 1 | 2009-03-10 | -10 |", "score": 0.64, "match_basis": "verbatim_token+domain_route:RP"}], "candidate_count": 5, "zero_candidate": false}
{"pdf_atom_id": "ig34_p0307_a023", "pdf_atom_type": "TABLE_ROW", "pdf_source": "SDTMIG_v3.4", "pdf_page": 307, "pdf_parent_section": "§6.3.7.6 Reproductive System Findings (RP)", "pdf_verbatim": "| 16 | STUDYX | RP | 2324-P0002 | 5 | MENOAGE | Menopause Age | 55 | YEARS | 55 | 55 | YEARS | | Y | 1 | SCREENING | 1 | 2009-03-09 | -10 |", "figure_ref": null, "candidates": [{"md_atom_id": "md_dmRP_ex_a021", "md_file": "knowledge_base/domains/RP/examples.md", "md_atom_type": "TABLE_ROW", "md_parent_section": "§RP.1 [Example 1]", "md_verbatim": "| 16 | STUDYX | RP | 2324-P0002 | 5 | MENOAGE | Menopause Age | 55 | YEARS | 55 | 55 | YEARS | | Y | 1 | SCREENING | 1 | 2009-03-10 | -10 |", "score": 1.0, "match_basis": "verbatim_token+domain_route:RP"}, {"md_atom_id": "md_dmRP_ex_a020", "md_file": "knowledge_base/domains/RP/examples.md", "md_atom_type": "TABLE_ROW", "md_parent_section": "§RP.1 [Example 1]", "md_verbatim": "| 15 | STUDYX | RP | 2324-P0002 | 4 | MENOSTAT | Menopause Status | MENOPAUSE | | MENOPAUSE | | | | Y | 1 | SCREENING | 1 | 2009-03-09 | -10 |", "score": 0.8054, "match_basis": "verbatim_token+domain_route:RP"}, {"md_atom_id": "md_dmRP_ex_a022", "md_file": "knowledge_base/domains/RP/examples.md", "md_atom_type": "TABLE_ROW", "md_parent_section": "§RP.1 [Example 1]", "md_verbatim": "| 17 | STUDYX | RP | 2324-P0002 | 6 | MENARAGE | Menarche Age | 11 | YEARS | 11 | 11 | YEARS | | Y | 1 | SCREENING | 1 | 2009-03-10 | -10 |", "score": 0.7632, "match_basis": "verbatim_token+domain_route:RP"}, {"md_atom_id": "md_dmRP_ex_a009", "md_file": "knowledge_base/domains/RP/examples.md", "md_atom_type": "TABLE_ROW", "md_parent_section": "§RP.1 [Example 1]", "md_verbatim": "| 4 | STUDYX | RP | 2324-P0001 | 4 | MENOSTAT | Menopause Status | Pre-Menopause | | Pre-Menopause | | | | Y | 1 | SCREENING | 1 | 2008-03-09 | -10 |", "score": 0.745, "match_basis": "verbatim_token+domain_route:RP"}, {"md_atom_id": "md_dmRP_ex_a010", "md_file": "knowledge_base/domains/RP/examples.md", "md_atom_type": "TABLE_ROW", "md_parent_section": "§RP.1 [Example 1]", "md_verbatim": "| 5 | STUDYX | RP | 2324-P0001 | 5 | MENARAGE | Menarche Age | 10 | YEARS | 10 | 10 | YEARS | | Y | 1 | SCREENING | 1 | 2008-03-09 | -10 |", "score": 0.715, "match_basis": "verbatim_token+domain_route:RP"}], "candidate_count": 5, "zero_candidate": false}
{"pdf_atom_id": "ig34_p0307_a024", "pdf_atom_type": "TABLE_ROW", "pdf_source": "SDTMIG_v3.4", "pdf_page": 307, "pdf_parent_section": "§6.3.7.6 Reproductive System Findings (RP)", "pdf_verbatim": "| 17 | STUDYX | RP | 2324-P0002 | 6 | MENARAGE | Menarche Age | 11 | YEARS | 11 | 11 | YEARS | | Y | 1 | SCREENING | 1 | 2009-03-09 | -10 |", "figure_ref": null, "candidates": [{"md_atom_id": "md_dmRP_ex_a022", "md_file": "knowledge_base/domains/RP/examples.md", "md_atom_type": "TABLE_ROW", "md_parent_section": "§RP.1 [Example 1]", "md_verbatim": "| 17 | STUDYX | RP | 2324-P0002 | 6 | MENARAGE | Menarche Age | 11 | YEARS | 11 | 11 | YEARS | | Y | 1 | SCREENING | 1 | 2009-03-10 | -10 |", "score": 1.0, "match_basis": "verbatim_token+domain_route:RP"}, {"md_atom_id": "md_dmRP_ex_a010", "md_file": "knowledge_base/domains/RP/examples.md", "md_atom_type": "TABLE_ROW", "md_parent_section": "§RP.1 [Example 1]", "md_verbatim": "| 5 | STUDYX | RP | 2324-P0001 | 5 | MENARAGE | Menarche Age | 10 | YEARS | 10 | 10 | YEARS | | Y | 1 | SCREENING | 1 | 2008-03-09 | -10 |", "score": 0.925, "match_basis": "verbatim_token+domain_route:RP"}, {"md_atom_id": "md_dmRP_ex_a021", "md_file": "knowledge_base/domains/RP/examples.md", "md_atom_type": "TABLE_ROW", "md_parent_section": "§RP.1 [Example 1]", "md_verbatim": "| 16 | STUDYX | RP | 2324-P0002 | 5 | MENOAGE | Menopause Age | 55 | YEARS | 55 | 55 | YEARS | | Y | 1 | SCREENING | 1 | 2009-03-10 | -10 |", "score": 0.7632, "match_basis": "verbatim_token+domain_route:RP"}, {"md_atom_id": "md_dmRP_ex_a020", "md_file": "knowledge_base/domains/RP/examples.md", "md_atom_type": "TABLE_ROW", "md_parent_section": "§RP.1 [Example 1]", "md_verbatim": "| 15 | STUDYX | RP | 2324-P0002 | 4 | MENOSTAT | Menopause Status | MENOPAUSE | | MENOPAUSE | | | | Y | 1 | SCREENING | 1 | 2009-03-09 | -10 |", "score": 0.6714, "match_basis": "verbatim_token+domain_route:RP"}, {"md_atom_id": "md_dmRP_ex_a018", "md_file": "knowledge_base/domains/RP/examples.md", "md_atom_type": "TABLE_ROW", "md_parent_section": "§RP.1 [Example 1]", "md_verbatim": "| 13 | STUDYX | RP | 2324-P0002 | 2 | BRTHLVN | Number of Live Births | 1 | | 1 | 1 | | | Y | 1 | SCREENING | 1 | 2009-03-10 | -10 |", "score": 0.6455, "match_basis": "verbatim_token+domain_route:RP"}], "candidate_count": 5, "zero_candidate": false}
{"pdf_atom_id": "ig34_p0307_a025", "pdf_atom_type": "TABLE_ROW", "pdf_source": "SDTMIG_v3.4", "pdf_page": 307, "pdf_parent_section": "§6.3.7.6 Reproductive System Findings (RP)", "pdf_verbatim": "| 18 | STUDYX | RP | 2324-P0002 | 7 | BCMETHOD | Birth Control Method | DIAPHRAGM | | DIAPHRAGM | | | P3Y | Y | 1 | SCREENING | 1 | 2009-03-09 | -10 |", "figure_ref": null, "candidates": [{"md_atom_id": "md_dmRP_ex_a023", "md_file": "knowledge_base/domains/RP/examples.md", "md_atom_type": "TABLE_ROW", "md_parent_section": "§RP.1 [Example 1]", "md_verbatim": "| 18 | STUDYX | RP | 2324-P0002 | 7 | BCMETHOD | Birth Control Method | DIAPHRAGM | | DIAPHRAGM | | | P3Y | Y | 1 | SCREENING | 1 | 2009-03-10 | -10 |", "score": 1.0, "match_basis": "verbatim_token+domain_route:RP"}, {"md_atom_id": "md_dmRP_ex_a011", "md_file": "knowledge_base/domains/RP/examples.md", "md_atom_type": "TABLE_ROW", "md_parent_section": "§RP.1 [Example 1]", "md_verbatim": "| 6 | STUDYX | RP | 2324-P0001 | 6 | BCMETHOD | Birth Control Method | FOAM OR OTHER SPERMICIDES | | FOAM OR OTHER SPERMICIDES | | | P3Y | Y | 1 | SCREENING | 1 | 2008-03-09 | -10 |", "score": 0.7321, "match_basis": "verbatim_token+domain_route:RP"}, {"md_atom_id": "md_dmRP_ex_a018", "md_file": "knowledge_base/domains/RP/examples.md", "md_atom_type": "TABLE_ROW", "md_parent_section": "§RP.1 [Example 1]", "md_verbatim": "| 13 | STUDYX | RP | 2324-P0002 | 2 | BRTHLVN | Number of Live Births | 1 | | 1 | 1 | | | Y | 1 | SCREENING | 1 | 2009-03-10 | -10 |", "score": 0.6471, "match_basis": "verbatim_token+domain_route:RP"}, {"md_atom_id": "md_dmRP_ex_a022", "md_file": "knowledge_base/domains/RP/examples.md", "md_atom_type": "TABLE_ROW", "md_parent_section": "§RP.1 [Example 1]", "md_verbatim": "| 17 | STUDYX | RP | 2324-P0002 | 6 | MENARAGE | Menarche Age | 11 | YEARS | 11 | 11 | YEARS | | Y | 1 | SCREENING | 1 | 2009-03-10 | -10 |", "score": 0.6235, "match_basis": "verbatim_token+domain_route:RP"}, {"md_atom_id": "md_dmRP_ex_a007", "md_file": "knowledge_base/domains/RP/examples.md", "md_atom_type": "TABLE_ROW", "md_parent_section": "§RP.1 [Example 1]", "md_verbatim": "| 2 | STUDYX | RP | 2324-P0001 | 2 | BRTHLVN | Number of Live Births | 2 | | 2 | 2 | | | Y | 1 | SCREENING | 1 | 2008-03-09 | -10 |", "score": 0.6151, "match_basis": "verbatim_token+domain_route:RP"}], "candidate_count": 5, "zero_candidate": false}
{"pdf_atom_id": "ig34_p0307_a026", "pdf_atom_type": "TABLE_ROW", "pdf_source": "SDTMIG_v3.4", "pdf_page": 307, "pdf_parent_section": "§6.3.7.6 Reproductive System Findings (RP)", "pdf_verbatim": "| 19 | STUDYX | RP | 2324-P0002 | 8 | CHILDPOT | Childbearing Potential | N | | N | | | | Y | 1 | SCREENING | 1 | 2009-03-09 | -10 |", "figure_ref": null, "candidates": [{"md_atom_id": "md_dmRP_ex_a024", "md_file": "knowledge_base/domains/RP/examples.md", "md_atom_type": "TABLE_ROW", "md_parent_section": "§RP.1 [Example 1]", "md_verbatim": "| 19 | STUDYX | RP | 2324-P0002 | 8 | CHILDPOT | Childbearing Potential | N | | N | | | | Y | 1 | SCREENING | 1 | 2009-03-10 | -10 |", "score": 1.0, "match_basis": "verbatim_token+domain_route:RP"}, {"md_atom_id": "md_dmRP_ex_a012", "md_file": "knowledge_base/domains/RP/examples.md", "md_atom_type": "TABLE_ROW", "md_parent_section": "§RP.1 [Example 1]", "md_verbatim": "| 7 | STUDYX | RP | 2324-P0001 | 7 | CHILDPOT | Childbearing Potential | Y | | Y | | | | Y | 1 | SCREENING | 1 | 2008-03-09 | -10 |", "score": 0.9368, "match_basis": "verbatim_token+domain_route:RP"}, {"md_atom_id": "md_dmRP_ex_a025", "md_file": "knowledge_base/domains/RP/examples.md", "md_atom_type": "TABLE_ROW", "md_parent_section": "§RP.1 [Example 1]", "md_verbatim": "| 20 | STUDYX | RP | 2324-P0002 | 9 | CHILDPOT | Childbearing Potential | N | | N | | | | | 2 | Day 1 | 1 | 2009-03-19 | 1 |", "score": 0.8865, "match_basis": "verbatim_token+domain_route:RP"}, {"md_atom_id": "md_dmRP_ex_a026", "md_file": "knowledge_base/domains/RP/examples.md", "md_atom_type": "TABLE_ROW", "md_parent_section": "§RP.1 [Example 1]", "md_verbatim": "| 21 | STUDYX | RP | 2324-P0002 | 10 | CHILDPOT | Childbearing Potential | N | | N | | | | | 3 | Day 29 | 29 | 2009-04-16 | 29 |", "score": 0.8865, "match_basis": "verbatim_token+domain_route:RP"}, {"md_atom_id": "md_dmRP_ex_a013", "md_file": "knowledge_base/domains/RP/examples.md", "md_atom_type": "TABLE_ROW", "md_parent_section": "§RP.1 [Example 1]", "md_verbatim": "| 8 | STUDYX | RP | 2324-P0001 | 8 | CHILDPOT | Childbearing Potential | Y | | Y | | | | | 2 | Day 1 | 1 | 2008-03-19 | 1 |", "score": 0.8308, "match_basis": "verbatim_token+domain_route:RP"}], "candidate_count": 5, "zero_candidate": false}
{"pdf_atom_id": "ig34_p0307_a027", "pdf_atom_type": "TABLE_ROW", "pdf_source": "SDTMIG_v3.4", "pdf_page": 307, "pdf_parent_section": "§6.3.7.6 Reproductive System Findings (RP)", "pdf_verbatim": "| 20 | STUDYX | RP | 2324-P0002 | 9 | CHILDPOT | Childbearing Potential | N | | N | | | | | 2 | Day 1 | 1 | 2009-03-19 | 1 |", "figure_ref": null, "candidates": [{"md_atom_id": "md_dmRP_ex_a025", "md_file": "knowledge_base/domains/RP/examples.md", "md_atom_type": "TABLE_ROW", "md_parent_section": "§RP.1 [Example 1]", "md_verbatim": "| 20 | STUDYX | RP | 2324-P0002 | 9 | CHILDPOT | Childbearing Potential | N | | N | | | | | 2 | Day 1 | 1 | 2009-03-19 | 1 |", "score": 1.0, "match_basis": "verbatim_token+domain_route:RP"}, {"md_atom_id": "md_dmRP_ex_a026", "md_file": "knowledge_base/domains/RP/examples.md", "md_atom_type": "TABLE_ROW", "md_parent_section": "§RP.1 [Example 1]", "md_verbatim": "| 21 | STUDYX | RP | 2324-P0002 | 10 | CHILDPOT | Childbearing Potential | N | | N | | | | | 3 | Day 29 | 29 | 2009-04-16 | 29 |", "score": 1.0, "match_basis": "verbatim_token+domain_route:RP"}, {"md_atom_id": "md_dmRP_ex_a013", "md_file": "knowledge_base/domains/RP/examples.md", "md_atom_type": "TABLE_ROW", "md_parent_section": "§RP.1 [Example 1]", "md_verbatim": "| 8 | STUDYX | RP | 2324-P0001 | 8 | CHILDPOT | Childbearing Potential | Y | | Y | | | | | 2 | Day 1 | 1 | 2008-03-19 | 1 |", "score": 0.9273, "match_basis": "verbatim_token+domain_route:RP"}, {"md_atom_id": "md_dmRP_ex_a015", "md_file": "knowledge_base/domains/RP/examples.md", "md_atom_type": "TABLE_ROW", "md_parent_section": "§RP.1 [Example 1]", "md_verbatim": "| 10 | STUDYX | RP | 2324-P0001 | 10 | CHILDPOT | Childbearing Potential | Y | | Y | | | | | 3 | Day 29 | 29 | 2008-04-16 | 29 |", "score": 0.9273, "match_basis": "verbatim_token+domain_route:RP"}, {"md_atom_id": "md_dmRP_ex_a024", "md_file": "knowledge_base/domains/RP/examples.md", "md_atom_type": "TABLE_ROW", "md_parent_section": "§RP.1 [Example 1]", "md_verbatim": "| 19 | STUDYX | RP | 2324-P0002 | 8 | CHILDPOT | Childbearing Potential | N | | N | | | | Y | 1 | SCREENING | 1 | 2009-03-10 | -10 |", "score": 0.8865, "match_basis": "verbatim_token+domain_route:RP"}], "candidate_count": 5, "zero_candidate": false}
{"pdf_atom_id": "ig34_p0307_a028", "pdf_atom_type": "TABLE_ROW", "pdf_source": "SDTMIG_v3.4", "pdf_page": 307, "pdf_parent_section": "§6.3.7.6 Reproductive System Findings (RP)", "pdf_verbatim": "| 21 | STUDYX | RP | 2324-P0002 | 10 | CHILDPOT | Childbearing Potential | N | | N | | | | | 3 | Day 29 | 29 | 2009-04-16 | 29 |", "figure_ref": null, "candidates": [{"md_atom_id": "md_dmRP_ex_a025", "md_file": "knowledge_base/domains/RP/examples.md", "md_atom_type": "TABLE_ROW", "md_parent_section": "§RP.1 [Example 1]", "md_verbatim": "| 20 | STUDYX | RP | 2324-P0002 | 9 | CHILDPOT | Childbearing Potential | N | | N | | | | | 2 | Day 1 | 1 | 2009-03-19 | 1 |", "score": 1.0, "match_basis": "verbatim_token+domain_route:RP"}, {"md_atom_id": "md_dmRP_ex_a026", "md_file": "knowledge_base/domains/RP/examples.md", "md_atom_type": "TABLE_ROW", "md_parent_section": "§RP.1 [Example 1]", "md_verbatim": "| 21 | STUDYX | RP | 2324-P0002 | 10 | CHILDPOT | Childbearing Potential | N | | N | | | | | 3 | Day 29 | 29 | 2009-04-16 | 29 |", "score": 1.0, "match_basis": "verbatim_token+domain_route:RP"}, {"md_atom_id": "md_dmRP_ex_a013", "md_file": "knowledge_base/domains/RP/examples.md", "md_atom_type": "TABLE_ROW", "md_parent_section": "§RP.1 [Example 1]", "md_verbatim": "| 8 | STUDYX | RP | 2324-P0001 | 8 | CHILDPOT | Childbearing Potential | Y | | Y | | | | | 2 | Day 1 | 1 | 2008-03-19 | 1 |", "score": 0.9273, "match_basis": "verbatim_token+domain_route:RP"}, {"md_atom_id": "md_dmRP_ex_a015", "md_file": "knowledge_base/domains/RP/examples.md", "md_atom_type": "TABLE_ROW", "md_parent_section": "§RP.1 [Example 1]", "md_verbatim": "| 10 | STUDYX | RP | 2324-P0001 | 10 | CHILDPOT | Childbearing Potential | Y | | Y | | | | | 3 | Day 29 | 29 | 2008-04-16 | 29 |", "score": 0.9273, "match_basis": "verbatim_token+domain_route:RP"}, {"md_atom_id": "md_dmRP_ex_a024", "md_file": "knowledge_base/domains/RP/examples.md", "md_atom_type": "TABLE_ROW", "md_parent_section": "§RP.1 [Example 1]", "md_verbatim": "| 19 | STUDYX | RP | 2324-P0002 | 8 | CHILDPOT | Childbearing Potential | N | | N | | | | Y | 1 | SCREENING | 1 | 2009-03-10 | -10 |", "score": 0.8865, "match_basis": "verbatim_token+domain_route:RP"}], "candidate_count": 5, "zero_candidate": false}
{"pdf_atom_id": "ig34_p0308_a001", "pdf_atom_type": "HEADING", "pdf_source": "SDTMIG_v3.4", "pdf_page": 308, "pdf_parent_section": "§6.3.7 Morphology/Physiology Domains", "pdf_verbatim": "6.3.7.7  Respiratory System Findings (RE)", "figure_ref": null, "candidates": [{"md_atom_id": "md_varindex_a1241", "md_file": "knowledge_base/VARIABLE_INDEX.md", "md_atom_type": "HEADING", "md_parent_section": "§ 二、领域专属变量（仅 1 个域，共 1499 个），按域分组", "md_verbatim": "### RE — Respiratory System Findings (Findings)", "score": 0.9, "match_basis": "verbatim_token+global_search"}, {"md_atom_id": "md_varindex_a1005", "md_file": "knowledge_base/VARIABLE_INDEX.md", "md_atom_type": "HEADING", "md_parent_section": "§ 二、领域专属变量（仅 1 个域，共 1499 个），按域分组", "md_verbatim": "### NV — Nervous System Findings (Findings)", "score": 0.55, "match_basis": "verbatim_token+global_search"}, {"md_atom_id": "md_varindex_a1593", "md_file": "knowledge_base/VARIABLE_INDEX.md", "md_atom_type": "HEADING", "md_parent_section": "§ 二、领域专属变量（仅 1 个域，共 1499 个），按域分组", "md_verbatim": "### UR — Urinary System Findings (Findings)", "score": 0.55, "match_basis": "verbatim_token+global_search"}, {"md_atom_id": "md_varindex_a734", "md_file": "knowledge_base/VARIABLE_INDEX.md", "md_atom_type": "HEADING", "md_parent_section": "§ 二、领域专属变量（仅 1 个域，共 1499 个），按域分组", "md_verbatim": "### LB — Laboratory Test Results (Findings)", "score": 0.5276, "match_basis": "verbatim_token+global_search"}, {"md_atom_id": "md_varindex_a1296", "md_file": "knowledge_base/VARIABLE_INDEX.md", "md_atom_type": "HEADING", "md_parent_section": "§ 二、领域专属变量（仅 1 个域，共 1499 个），按域分组", "md_verbatim": "### RP — Reproductive System Findings (Findings)", "score": 0.5069, "match_basis": "verbatim_token+global_search"}], "candidate_count": 5, "zero_candidate": false}
{"pdf_atom_id": "ig34_p0308_a002", "pdf_atom_type": "HEADING", "pdf_source": "SDTMIG_v3.4", "pdf_page": 308, "pdf_parent_section": "§6.3.7.7 Respiratory System Findings (RE)", "pdf_verbatim": "RE – Description/Overview", "figure_ref": null, "candidates": [{"md_atom_id": "md_dmRE_assn_a001", "md_file": "knowledge_base/domains/RE/assumptions.md", "md_atom_type": "HEADING", "md_parent_section": "§RE [RE — Assumptions]", "md_verbatim": "# RE — Assumptions", "score": 0.4857, "match_basis": "verbatim_token+domain_route:RE"}, {"md_atom_id": "md_dmRE_ex_a001", "md_file": "knowledge_base/domains/RE/examples.md", "md_atom_type": "HEADING", "md_parent_section": "§RE [RE — Examples]", "md_verbatim": "# RE — Examples", "score": 0.4, "match_basis": "verbatim_token+domain_route:RE"}, {"md_atom_id": "md_dmRE_ex_a002", "md_file": "knowledge_base/domains/RE/examples.md", "md_atom_type": "HEADING", "md_parent_section": "§RE [RE — Examples]", "md_verbatim": "## Example 1", "score": 0.4, "match_basis": "verbatim_token+domain_route:RE"}, {"md_atom_id": "md_dmRE_ex_a024", "md_file": "knowledge_base/domains/RE/examples.md", "md_atom_type": "HEADING", "md_parent_section": "§RE [RE — Examples]", "md_verbatim": "## Example 2", "score": 0.4, "match_basis": "verbatim_token+domain_route:RE"}], "candidate_count": 4, "zero_candidate": false}
{"pdf_atom_id": "ig34_p0308_a003", "pdf_atom_type": "SENTENCE", "pdf_source": "SDTMIG_v3.4", "pdf_page": 308, "pdf_parent_section": "§6.3.7.7 Respiratory System Findings (RE)", "pdf_verbatim": "A findings domain that contains physiological and morphological findings related to the respiratory system, including the organs that are involved in breathing such as the nose, throat, larynx, trachea, bronchi and lungs.", "figure_ref": null, "candidates": [{"md_atom_id": "md_dmRE_ex_a025", "md_file": "knowledge_base/domains/RE/examples.md", "md_atom_type": "SENTENCE", "md_parent_section": "§RE.2 [Example 2]", "md_verbatim": "In this example, a subject made 4 attempts at the FEV1 pulmonary function test, and data about all attempts were collected. It is standard practice for multiple attempts to be made, and for the best result to be used in analyses. In this example, the spirometry report included an indicator of which was the best result. The spirometry report also included an indicator that 1 of the attempts was considered to have produced an inadequate result, with the reasons the result was considered inadequate.", "score": 0.4664, "match_basis": "verbatim_token+domain_route:RE"}, {"md_atom_id": "md_dmRE_ex_a036", "md_file": "knowledge_base/domains/RE/examples.md", "md_atom_type": "SENTENCE", "md_parent_section": "§RE.2 [Example 2]", "md_verbatim": "**Rows 2-4:** The presence of a flag, IRESFL, indicates that the data were inadequate. The 2 reasons why this was the case are represented by QNAM=\"IRREA1\" and \"IREEA2\".", "score": 0.4534, "match_basis": "verbatim_token+domain_route:RE"}, {"md_atom_id": "md_dmRE_ex_a034", "md_file": "knowledge_base/domains/RE/examples.md", "md_atom_type": "SENTENCE", "md_parent_section": "§RE.2 [Example 2]", "md_verbatim": "Supplemental qualifiers were used to indicate which was the best result and to provide information on the attempt that was considered to produce inadequate results.", "score": 0.4436, "match_basis": "verbatim_token+domain_route:RE"}, {"md_atom_id": "md_dmRE_ex_a027", "md_file": "knowledge_base/domains/RE/examples.md", "md_atom_type": "SENTENCE", "md_parent_section": "§RE.2 [Example 2]", "md_verbatim": "**Row 4:** Shows an individual test result for FEV1 as measured by spirometry. Note that this result is much less than the others.", "score": 0.4432, "match_basis": "verbatim_token+domain_route:RE"}, {"md_atom_id": "md_dmRE_ex_a004", "md_file": "knowledge_base/domains/RE/examples.md", "md_atom_type": "SENTENCE", "md_parent_section": "§RE.1 [Example 1]", "md_verbatim": "Because the original and standardized units of measure are identical in this example, RESTRESC, RESTRESN, RESTRESU, and RESTREFN are not shown. Instead, an ellipsis marks their place in the dataset. Spirometry test values are compared to a predicted value, rather than a normal range. Predicted values are represented in REORREF.", "score": 0.4427, "match_basis": "verbatim_token+domain_route:RE"}], "candidate_count": 5, "zero_candidate": false}
{"pdf_atom_id": "ig34_p0308_a004", "pdf_atom_type": "HEADING", "pdf_source": "SDTMIG_v3.4", "pdf_page": 308, "pdf_parent_section": "§6.3.7.7 Respiratory System Findings (RE)", "pdf_verbatim": "RE – Specification", "figure_ref": null, "candidates": [{"md_atom_id": "md_dmRE_assn_a001", "md_file": "knowledge_base/domains/RE/assumptions.md", "md_atom_type": "HEADING", "md_parent_section": "§RE [RE — Assumptions]", "md_verbatim": "# RE — Assumptions", "score": 0.4667, "match_basis": "verbatim_token+domain_route:RE"}, {"md_atom_id": "md_dmRE_ex_a001", "md_file": "knowledge_base/domains/RE/examples.md", "md_atom_type": "HEADING", "md_parent_section": "§RE [RE — Examples]", "md_verbatim": "# RE — Examples", "score": 0.4, "match_basis": "verbatim_token+domain_route:RE"}, {"md_atom_id": "md_dmRE_ex_a002", "md_file": "knowledge_base/domains/RE/examples.md", "md_atom_type": "HEADING", "md_parent_section": "§RE [RE — Examples]", "md_verbatim": "## Example 1", "score": 0.4, "match_basis": "verbatim_token+domain_route:RE"}, {"md_atom_id": "md_dmRE_ex_a024", "md_file": "knowledge_base/domains/RE/examples.md", "md_atom_type": "HEADING", "md_parent_section": "§RE [RE — Examples]", "md_verbatim": "## Example 2", "score": 0.4, "match_basis": "verbatim_token+domain_route:RE"}], "candidate_count": 4, "zero_candidate": false}
{"pdf_atom_id": "ig34_p0308_a005", "pdf_atom_type": "CODE_LITERAL", "pdf_source": "SDTMIG_v3.4", "pdf_page": 308, "pdf_parent_section": "§6.3.7.7 Respiratory System Findings (RE)", "pdf_verbatim": "re.xpt", "figure_ref": null, "candidates": [{"md_atom_id": "md_dmRE_ex_a008", "md_file": "knowledge_base/domains/RE/examples.md", "md_atom_type": "SENTENCE", "md_parent_section": "§RE.1 [Example 1]", "md_verbatim": "**re.xpt**", "score": 0.79, "match_basis": "verbatim_token+domain_route:RE"}, {"md_atom_id": "md_dmRE_ex_a016", "md_file": "knowledge_base/domains/RE/examples.md", "md_atom_type": "SENTENCE", "md_parent_section": "§RE.1 [Example 1]", "md_verbatim": "**di.xpt**", "score": 0.79, "match_basis": "verbatim_token+domain_route:RE"}, {"md_atom_id": "md_dmRE_ex_a021", "md_file": "knowledge_base/domains/RE/examples.md", "md_atom_type": "SENTENCE", "md_parent_section": "§RE.1 [Example 1]", "md_verbatim": "**du.xpt**", "score": 0.79, "match_basis": "verbatim_token+domain_route:RE"}, {"md_atom_id": "md_dmRE_ex_a028", "md_file": "knowledge_base/domains/RE/examples.md", "md_atom_type": "SENTENCE", "md_parent_section": "§RE.2 [Example 2]", "md_verbatim": "**re.xpt**", "score": 0.79, "match_basis": "verbatim_token+domain_route:RE"}, {"md_atom_id": "md_dmRE_ex_a044", "md_file": "knowledge_base/domains/RE/examples.md", "md_atom_type": "SENTENCE", "md_parent_section": "§RE.2 [Example 2]", "md_verbatim": "**di.xpt**", "score": 0.79, "match_basis": "verbatim_token+domain_route:RE"}, {"md_atom_id": "md_dmRE_ex_a037", "md_file": "knowledge_base/domains/RE/examples.md", "md_atom_type": "SENTENCE", "md_parent_section": "§RE.2 [Example 2]", "md_verbatim": "**suppre.xpt**", "score": 0.31, "match_basis": "verbatim_token+domain_route:RE"}, {"md_atom_id": "md_dmRE_assn_a001", "md_file": "knowledge_base/domains/RE/assumptions.md", "md_atom_type": "HEADING", "md_parent_section": "§RE [RE — Assumptions]", "md_verbatim": "# RE — Assumptions", "score": 0.19, "match_basis": "verbatim_token+domain_route:RE"}, {"md_atom_id": "md_dmRE_assn_a002", "md_file": "knowledge_base/domains/RE/assumptions.md", "md_atom_type": "LIST_ITEM", "md_parent_section": "§RE [RE — Assumptions]", "md_verbatim": "1. The Respiratory System Findings domain is used to represent the results/findings of respiratory diagnostic procedures (e.g., spirometry). Information about the conduct of the procedure(s), if collected, should be submitted in the Procedures (PR) domain.", "score": 0.19, "match_basis": "verbatim_token+domain_route:RE"}, {"md_atom_id": "md_dmRE_assn_a003", "md_file": "knowledge_base/domains/RE/assumptions.md", "md_atom_type": "LIST_ITEM", "md_parent_section": "§RE [RE — Assumptions]", "md_verbatim": "2. Many respiratory assessments require the use of a device. When data about the device used for an assessment or additional information about its use in the assessment are collected, SPDEVID should be included in the record. See the SDTMIG for Medical Devices (SDTMIG-MD, available at https://www.cdisc.org/standards/foundational/medical-devices-sdtmig/) for further information about SPDEVID and the Device domains.", "score": 0.19, "match_basis": "verbatim_token+domain_route:RE"}, {"md_atom_id": "md_dmRE_assn_a004", "md_file": "knowledge_base/domains/RE/assumptions.md", "md_atom_type": "LIST_ITEM", "md_parent_section": "§RE [RE — Assumptions]", "md_verbatim": "3. Any Identifier, Timing variables, or Findings general observation class qualifiers may be added to the RE domain, but the following qualifiers would generally not be used: --MODIFY, --BODSYS, and --FAST.", "score": 0.19, "match_basis": "verbatim_token+domain_route:RE"}], "candidate_count": 10, "zero_candidate": false}
{"pdf_atom_id": "ig34_p0308_a006", "pdf_atom_type": "SENTENCE", "pdf_source": "SDTMIG_v3.4", "pdf_page": 308, "pdf_parent_section": "§6.3.7.7 Respiratory System Findings (RE)", "pdf_verbatim": "re.xpt, Respiratory System Findings — Findings. One record per finding or result per time point per visit per subject, Tabulation.", "figure_ref": null, "candidates": [{"md_atom_id": "md_dmRE_ex_a035", "md_file": "knowledge_base/domains/RE/examples.md", "md_atom_type": "SENTENCE", "md_parent_section": "§RE.2 [Example 2]", "md_verbatim": "**Row 1:** Shows the record with RESEQ=\"1\" was the best test result, indicated by BRESFL=\"Y\".", "score": 0.4845, "match_basis": "verbatim_token+domain_route:RE"}, {"md_atom_id": "md_dmRE_ex_a025", "md_file": "knowledge_base/domains/RE/examples.md", "md_atom_type": "SENTENCE", "md_parent_section": "§RE.2 [Example 2]", "md_verbatim": "In this example, a subject made 4 attempts at the FEV1 pulmonary function test, and data about all attempts were collected. It is standard practice for multiple attempts to be made, and for the best result to be used in analyses. In this example, the spirometry report included an indicator of which was the best result. The spirometry report also included an indicator that 1 of the attempts was considered to have produced an inadequate result, with the reasons the result was considered inadequate.", "score": 0.4621, "match_basis": "verbatim_token+domain_route:RE"}, {"md_atom_id": "md_dmRE_ex_a026", "md_file": "knowledge_base/domains/RE/examples.md", "md_atom_type": "SENTENCE", "md_parent_section": "§RE.2 [Example 2]", "md_verbatim": "**Rows 1-3:** Show individual test results for FEV1 as measured by spirometry.", "score": 0.4615, "match_basis": "verbatim_token+domain_route:RE"}, {"md_atom_id": "md_dmRE_ex_a003", "md_file": "knowledge_base/domains/RE/examples.md", "md_atom_type": "SENTENCE", "md_parent_section": "§RE.1 [Example 1]", "md_verbatim": "This example shows results from several spirometry tests using either a spirometer or a peak flow meter. When spirometry tests are performed, the subject usually makes several efforts, each of which produces results, but only the best result for each test is used in analyses. In this study, the sponsor collected only the best results. The Device Identifiers (DI) domain was submitted for device identification, and the Device in Use (DU) domain was submitted to provide information about the use of the device.", "score": 0.4525, "match_basis": "verbatim_token+domain_route:RE"}, {"md_atom_id": "md_dmRE_ex_a027", "md_file": "knowledge_base/domains/RE/examples.md", "md_atom_type": "SENTENCE", "md_parent_section": "§RE.2 [Example 2]", "md_verbatim": "**Row 4:** Shows an individual test result for FEV1 as measured by spirometry. Note that this result is much less than the others.", "score": 0.4522, "match_basis": "verbatim_token+domain_route:RE"}], "candidate_count": 5, "zero_candidate": false}
{"pdf_atom_id": "ig34_p0308_a007", "pdf_atom_type": "TABLE_HEADER", "pdf_source": "SDTMIG_v3.4", "pdf_page": 308, "pdf_parent_section": "§6.3.7.7 Respiratory System Findings (RE)", "pdf_verbatim": "| Variable Name | Variable Label | Type | Controlled Terms, Codelist or Format1 | Role | CDISC Notes | Core |", "figure_ref": null, "candidates": [{"md_atom_id": "md_dmRE_ex_a038", "md_file": "knowledge_base/domains/RE/examples.md", "md_atom_type": "TABLE_HEADER", "md_parent_section": "§RE.2 [Example 2]", "md_verbatim": "| Row | STUDYID | RDOMAIN | USUBJID | IDVAR | IDVARVAL | QNAM | QLABEL | QVAL | QORIG | QEVAL |\n|-----|---------|---------|---------|-------|----------|------|--------|------|-------|-------|", "score": 0.4411, "match_basis": "verbatim_token+domain_route:RE"}, {"md_atom_id": "md_dmRE_ex_a017", "md_file": "knowledge_base/domains/RE/examples.md", "md_atom_type": "TABLE_HEADER", "md_parent_section": "§RE.1 [Example 1]", "md_verbatim": "| Row | STUDYID | DOMAIN | SPDEVID | DISEQ | DIPARMCD | DIPARM | DIVAL |\n|-----|---------|--------|---------|-------|----------|--------|-------|", "score": 0.4086, "match_basis": "verbatim_token+domain_route:RE"}, {"md_atom_id": "md_dmRE_ex_a045", "md_file": "knowledge_base/domains/RE/examples.md", "md_atom_type": "TABLE_HEADER", "md_parent_section": "§RE.2 [Example 2]", "md_verbatim": "| Row | STUDYID | DOMAIN | SPDEVID | DISEQ | DIPARMCD | DIPARM | DIVAL |\n|-----|---------|--------|---------|-------|----------|--------|-------|", "score": 0.4086, "match_basis": "verbatim_token+domain_route:RE"}, {"md_atom_id": "md_dmRE_ex_a022", "md_file": "knowledge_base/domains/RE/examples.md", "md_atom_type": "TABLE_HEADER", "md_parent_section": "§RE.1 [Example 1]", "md_verbatim": "| Row | STUDYID | DOMAIN | USUBJID | SPDEVID | DUSEQ | DUTESTCD | DUTEST | DUORRES |\n|-----|---------|--------|---------|---------|-------|----------|--------|---------|", "score": 0.4078, "match_basis": "verbatim_token+domain_route:RE"}, {"md_atom_id": "md_dmRE_ex_a009", "md_file": "knowledge_base/domains/RE/examples.md", "md_atom_type": "TABLE_HEADER", "md_parent_section": "§RE.1 [Example 1]", "md_verbatim": "| Row | STUDYID | DOMAIN | USUBJID | SPDEVID | RESEQ | RETESTCD | RETEST | REORRES | REORRESU | REORREF | ... | VISITNUM | VISIT | REDTC |\n|-----|---------|--------|---------|---------|-------|----------|--------|---------|----------|---------|-----|----------|-------|-------|", "score": 0.4069, "match_basis": "verbatim_token+domain_route:RE"}], "candidate_count": 5, "zero_candidate": false}
{"pdf_atom_id": "ig34_p0308_a008", "pdf_atom_type": "TABLE_ROW", "pdf_source": "SDTMIG_v3.4", "pdf_page": 308, "pdf_parent_section": "§6.3.7.7 Respiratory System Findings (RE)", "pdf_verbatim": "| STUDYID | Study Identifier | Char | | Identifier | Unique identifier for a study. | Req |", "figure_ref": null, "candidates": [{"md_atom_id": "md_dmRE_ex_a013", "md_file": "knowledge_base/domains/RE/examples.md", "md_atom_type": "TABLE_ROW", "md_parent_section": "§RE.1 [Example 1]", "md_verbatim": "| 4 | XYZ | RE | XYZ-001-001 | ABC001 | 4 | FVCPP | Percent Predicted Forced Vital Capacity | 101.3 | % | | ... | 2 | VISIT 2 | 2013-06-30 |", "score": 0.4211, "match_basis": "verbatim_token+domain_route:RE"}, {"md_atom_id": "md_dmRE_ex_a011", "md_file": "knowledge_base/domains/RE/examples.md", "md_atom_type": "TABLE_ROW", "md_parent_section": "§RE.1 [Example 1]", "md_verbatim": "| 2 | XYZ | RE | XYZ-001-001 | ABC001 | 2 | FVC | Forced Vital Capacity | 3.91 | L | 3.86 | ... | 2 | VISIT 2 | 2013-06-30 |", "score": 0.4136, "match_basis": "verbatim_token+domain_route:RE"}, {"md_atom_id": "md_dmRE_ex_a012", "md_file": "knowledge_base/domains/RE/examples.md", "md_atom_type": "TABLE_ROW", "md_parent_section": "§RE.1 [Example 1]", "md_verbatim": "| 3 | XYZ | RE | XYZ-001-001 | ABC001 | 3 | FEV1PP | Percent Predicted FEV1 | 81 | % | | ... | 2 | VISIT 2 | 2013-06-30 |", "score": 0.413, "match_basis": "verbatim_token+domain_route:RE"}, {"md_atom_id": "md_dmRE_ex_a010", "md_file": "knowledge_base/domains/RE/examples.md", "md_atom_type": "TABLE_ROW", "md_parent_section": "§RE.1 [Example 1]", "md_verbatim": "| 1 | XYZ | RE | XYZ-001-001 | ABC001 | 1 | FEV1 | Forced Expiratory Volume in 1 Second | 2.73 | L | 3.37 | ... | 2 | VISIT 2 | 2013-06-30 |", "score": 0.4115, "match_basis": "verbatim_token+domain_route:RE"}, {"md_atom_id": "md_dmRE_ex_a030", "md_file": "knowledge_base/domains/RE/examples.md", "md_atom_type": "TABLE_ROW", "md_parent_section": "§RE.2 [Example 2]", "md_verbatim": "| 1 | XYZ | RE | XYZ-001-001 | ABC001 | 1 | FEV1 | Forced Expiratory Volume in 1 Second | 1.94 | L | 1.94 | L | 1 | 2 | VISIT 2 | 2013-04-23 |", "score": 0.4115, "match_basis": "verbatim_token+domain_route:RE"}], "candidate_count": 5, "zero_candidate": false}
{"pdf_atom_id": "ig34_p0308_a009", "pdf_atom_type": "TABLE_ROW", "pdf_source": "SDTMIG_v3.4", "pdf_page": 308, "pdf_parent_section": "§6.3.7.7 Respiratory System Findings (RE)", "pdf_verbatim": "| DOMAIN | Domain Abbreviation | Char | RE | Identifier | Two-character abbreviation for the domain. | Req |", "figure_ref": null, "candidates": [{"md_atom_id": "md_dmRE_ex_a041", "md_file": "knowledge_base/domains/RE/examples.md", "md_atom_type": "TABLE_ROW", "md_parent_section": "§RE.2 [Example 2]", "md_verbatim": "| 3 | XYZ | RE | XYZ-001-001 | RESEQ | 4 | REIRREA1 | Inadequate Result Reason 1 | COUGHING WAS DETECTED IN THE FIRST PART OF THE EXPIRATION | CRF | |", "score": 0.437, "match_basis": "verbatim_token+domain_route:RE"}, {"md_atom_id": "md_dmRE_ex_a013", "md_file": "knowledge_base/domains/RE/examples.md", "md_atom_type": "TABLE_ROW", "md_parent_section": "§RE.1 [Example 1]", "md_verbatim": "| 4 | XYZ | RE | XYZ-001-001 | ABC001 | 4 | FVCPP | Percent Predicted Forced Vital Capacity | 101.3 | % | | ... | 2 | VISIT 2 | 2013-06-30 |", "score": 0.4265, "match_basis": "verbatim_token+domain_route:RE"}, {"md_atom_id": "md_dmRE_ex_a019", "md_file": "knowledge_base/domains/RE/examples.md", "md_atom_type": "TABLE_ROW", "md_parent_section": "§RE.1 [Example 1]", "md_verbatim": "| 2 | XYZ | DI | DEF999 | 1 | DEVTYPE | Device Type | PEAK FLOW METER |", "score": 0.4235, "match_basis": "verbatim_token+domain_route:RE"}, {"md_atom_id": "md_dmRE_ex_a018", "md_file": "knowledge_base/domains/RE/examples.md", "md_atom_type": "TABLE_ROW", "md_parent_section": "§RE.1 [Example 1]", "md_verbatim": "| 1 | XYZ | DI | ABC001 | 1 | DEVTYPE | Device Type | SPIROMETER |", "score": 0.4231, "match_basis": "verbatim_token+domain_route:RE"}, {"md_atom_id": "md_dmRE_ex_a046", "md_file": "knowledge_base/domains/RE/examples.md", "md_atom_type": "TABLE_ROW", "md_parent_section": "§RE.2 [Example 2]", "md_verbatim": "| 1 | XYZ | DI | ABC001 | 1 | DEVTYPE | Device Type | SPIROMETER |", "score": 0.4231, "match_basis": "verbatim_token+domain_route:RE"}], "candidate_count": 5, "zero_candidate": false}
{"pdf_atom_id": "ig34_p0308_a010", "pdf_atom_type": "TABLE_ROW", "pdf_source": "SDTMIG_v3.4", "pdf_page": 308, "pdf_parent_section": "§6.3.7.7 Respiratory System Findings (RE)", "pdf_verbatim": "| USUBJID | Unique Subject Identifier | Char | | Identifier | Identifier used to uniquely identify a subject across all studies for all applications or submissions including the product. | Req |", "figure_ref": null, "candidates": [{"md_atom_id": "md_dmRE_ex_a041", "md_file": "knowledge_base/domains/RE/examples.md", "md_atom_type": "TABLE_ROW", "md_parent_section": "§RE.2 [Example 2]", "md_verbatim": "| 3 | XYZ | RE | XYZ-001-001 | RESEQ | 4 | REIRREA1 | Inadequate Result Reason 1 | COUGHING WAS DETECTED IN THE FIRST PART OF THE EXPIRATION | CRF | |", "score": 0.4316, "match_basis": "verbatim_token+domain_route:RE"}, {"md_atom_id": "md_dmRE_ex_a023", "md_file": "knowledge_base/domains/RE/examples.md", "md_atom_type": "TABLE_ROW", "md_parent_section": "§RE.1 [Example 1]", "md_verbatim": "| 1 | XYZ | DU | | ABC001 | 1 | SPIREFEQ | Spirometric Reference Equation | NATIONAL HEALTH NUTRITION EXAMINATION SURVEY (NHANES) III |", "score": 0.4153, "match_basis": "verbatim_token+domain_route:RE"}, {"md_atom_id": "md_dmRE_ex_a013", "md_file": "knowledge_base/domains/RE/examples.md", "md_atom_type": "TABLE_ROW", "md_parent_section": "§RE.1 [Example 1]", "md_verbatim": "| 4 | XYZ | RE | XYZ-001-001 | ABC001 | 4 | FVCPP | Percent Predicted Forced Vital Capacity | 101.3 | % | | ... | 2 | VISIT 2 | 2013-06-30 |", "score": 0.4117, "match_basis": "verbatim_token+domain_route:RE"}, {"md_atom_id": "md_dmRE_ex_a011", "md_file": "knowledge_base/domains/RE/examples.md", "md_atom_type": "TABLE_ROW", "md_parent_section": "§RE.1 [Example 1]", "md_verbatim": "| 2 | XYZ | RE | XYZ-001-001 | ABC001 | 2 | FVC | Forced Vital Capacity | 3.91 | L | 3.86 | ... | 2 | VISIT 2 | 2013-06-30 |", "score": 0.4067, "match_basis": "verbatim_token+domain_route:RE"}, {"md_atom_id": "md_dmRE_ex_a012", "md_file": "knowledge_base/domains/RE/examples.md", "md_atom_type": "TABLE_ROW", "md_parent_section": "§RE.1 [Example 1]", "md_verbatim": "| 3 | XYZ | RE | XYZ-001-001 | ABC001 | 3 | FEV1PP | Percent Predicted FEV1 | 81 | % | | ... | 2 | VISIT 2 | 2013-06-30 |", "score": 0.4065, "match_basis": "verbatim_token+domain_route:RE"}], "candidate_count": 5, "zero_candidate": false}
{"pdf_atom_id": "ig34_p0308_a011", "pdf_atom_type": "TABLE_ROW", "pdf_source": "SDTMIG_v3.4", "pdf_page": 308, "pdf_parent_section": "§6.3.7.7 Respiratory System Findings (RE)", "pdf_verbatim": "| SPDEVID | Sponsor Device Identifier | Char | | Identifier | Sponsor-defined identifier for a device. | Perm |", "figure_ref": null, "candidates": [{"md_atom_id": "md_dmRE_ex_a019", "md_file": "knowledge_base/domains/RE/examples.md", "md_atom_type": "TABLE_ROW", "md_parent_section": "§RE.1 [Example 1]", "md_verbatim": "| 2 | XYZ | DI | DEF999 | 1 | DEVTYPE | Device Type | PEAK FLOW METER |", "score": 0.4667, "match_basis": "verbatim_token+domain_route:RE"}, {"md_atom_id": "md_dmRE_ex_a018", "md_file": "knowledge_base/domains/RE/examples.md", "md_atom_type": "TABLE_ROW", "md_parent_section": "§RE.1 [Example 1]", "md_verbatim": "| 1 | XYZ | DI | ABC001 | 1 | DEVTYPE | Device Type | SPIROMETER |", "score": 0.4511, "match_basis": "verbatim_token+domain_route:RE"}, {"md_atom_id": "md_dmRE_ex_a046", "md_file": "knowledge_base/domains/RE/examples.md", "md_atom_type": "TABLE_ROW", "md_parent_section": "§RE.2 [Example 2]", "md_verbatim": "| 1 | XYZ | DI | ABC001 | 1 | DEVTYPE | Device Type | SPIROMETER |", "score": 0.4511, "match_basis": "verbatim_token+domain_route:RE"}, {"md_atom_id": "md_dmRE_ex_a013", "md_file": "knowledge_base/domains/RE/examples.md", "md_atom_type": "TABLE_ROW", "md_parent_section": "§RE.1 [Example 1]", "md_verbatim": "| 4 | XYZ | RE | XYZ-001-001 | ABC001 | 4 | FVCPP | Percent Predicted Forced Vital Capacity | 101.3 | % | | ... | 2 | VISIT 2 | 2013-06-30 |", "score": 0.4277, "match_basis": "verbatim_token+domain_route:RE"}, {"md_atom_id": "md_dmRE_ex_a012", "md_file": "knowledge_base/domains/RE/examples.md", "md_atom_type": "TABLE_ROW", "md_parent_section": "§RE.1 [Example 1]", "md_verbatim": "| 3 | XYZ | RE | XYZ-001-001 | ABC001 | 3 | FEV1PP | Percent Predicted FEV1 | 81 | % | | ... | 2 | VISIT 2 | 2013-06-30 |", "score": 0.4222, "match_basis": "verbatim_token+domain_route:RE"}], "candidate_count": 5, "zero_candidate": false}
{"pdf_atom_id": "ig34_p0308_a012", "pdf_atom_type": "TABLE_ROW", "pdf_source": "SDTMIG_v3.4", "pdf_page": 308, "pdf_parent_section": "§6.3.7.7 Respiratory System Findings (RE)", "pdf_verbatim": "| RESEQ | Sequence Number | Num | | Identifier | Sequence number to ensure uniqueness of records within a dataset for a subject. May be any valid number (including decimals) and does not have to start at 1. | Req |", "figure_ref": null, "candidates": [{"md_atom_id": "md_dmRE_ex_a041", "md_file": "knowledge_base/domains/RE/examples.md", "md_atom_type": "TABLE_ROW", "md_parent_section": "§RE.2 [Example 2]", "md_verbatim": "| 3 | XYZ | RE | XYZ-001-001 | RESEQ | 4 | REIRREA1 | Inadequate Result Reason 1 | COUGHING WAS DETECTED IN THE FIRST PART OF THE EXPIRATION | CRF | |", "score": 0.439, "match_basis": "verbatim_token+domain_route:RE"}, {"md_atom_id": "md_dmRE_ex_a042", "md_file": "knowledge_base/domains/RE/examples.md", "md_atom_type": "TABLE_ROW", "md_parent_section": "§RE.2 [Example 2]", "md_verbatim": "| 4 | XYZ | RE | XYZ-001-001 | RESEQ | 4 | REIRREA2 | Inadequate Result Reason 2 | FEV1 REPEATABILITY IS UNACCEPTABLE | CRF | |", "score": 0.4248, "match_basis": "verbatim_token+domain_route:RE"}, {"md_atom_id": "md_dmRE_ex_a040", "md_file": "knowledge_base/domains/RE/examples.md", "md_atom_type": "TABLE_ROW", "md_parent_section": "§RE.2 [Example 2]", "md_verbatim": "| 2 | XYZ | RE | XYZ-001-001 | RESEQ | 4 | REIRESFL | Inadequate Results Flag | Y | CRF | |", "score": 0.4242, "match_basis": "verbatim_token+domain_route:RE"}, {"md_atom_id": "md_dmRE_ex_a023", "md_file": "knowledge_base/domains/RE/examples.md", "md_atom_type": "TABLE_ROW", "md_parent_section": "§RE.1 [Example 1]", "md_verbatim": "| 1 | XYZ | DU | | ABC001 | 1 | SPIREFEQ | Spirometric Reference Equation | NATIONAL HEALTH NUTRITION EXAMINATION SURVEY (NHANES) III |", "score": 0.4236, "match_basis": "verbatim_token+domain_route:RE"}, {"md_atom_id": "md_dmRE_ex_a039", "md_file": "knowledge_base/domains/RE/examples.md", "md_atom_type": "TABLE_ROW", "md_parent_section": "§RE.2 [Example 2]", "md_verbatim": "| 1 | XYZ | RE | XYZ-001-001 | RESEQ | 1 | REBRESFL | Best Result Flag | Y | CRF | |", "score": 0.4194, "match_basis": "verbatim_token+domain_route:RE"}], "candidate_count": 5, "zero_candidate": false}
