{"pdf_atom_id": "ig34_p0147_a028", "pdf_atom_type": "TABLE_ROW", "pdf_source": "SDTMIG_v3.4", "pdf_page": 147, "pdf_parent_section": "§6.2.2 [Biospecimen Events (BE)]", "pdf_verbatim": "| 6 | 3441271 | BS | MU-298 | 6 | 298R1-1R2 | VOLUME | Volume | SPECIMEN MEASUREMENT | 2 | mL | 2 | 2 | mL | RNA | 2 | 2010-04-01T11:50 |", "figure_ref": null, "candidates": [{"md_atom_id": "md_dmBE_ex_a097", "md_file": "knowledge_base/domains/BE/examples.md", "md_atom_type": "TABLE_ROW", "md_parent_section": "§BE.2 [Example 2]", "md_verbatim": "| 6 | 3441271 | BS | MU-298 | 6 | 298R1-1R2 | VOLUME | Volume | SPECIMEN MEASUREMENT | 2 | mL | 2 | 2 | mL | RNA | 2 | 2010-04-01T11:50 |", "score": 1.0, "match_basis": "verbatim_token+domain_route:BE"}, {"md_atom_id": "md_dmBE_ex_a094", "md_file": "knowledge_base/domains/BE/examples.md", "md_atom_type": "TABLE_ROW", "md_parent_section": "§BE.2 [Example 2]", "md_verbatim": "| 3 | 3441271 | BS | MU-298 | 3 | 298R1-1R0 | VOLUME | Volume | SPECIMEN MEASUREMENT | 6 | mL | 6 | 6 | mL | RNA | 2 | 2010-04-01T11:50 |", "score": 0.9647, "match_basis": "verbatim_token+domain_route:BE"}, {"md_atom_id": "md_dmBE_ex_a096", "md_file": "knowledge_base/domains/BE/examples.md", "md_atom_type": "TABLE_ROW", "md_parent_section": "§BE.2 [Example 2]", "md_verbatim": "| 5 | 3441271 | BS | MU-298 | 5 | 298R1-1R1 | VOLUME | Volume | SPECIMEN MEASUREMENT | 2 | mL | 2 | 2 | mL | RNA | 2 | 2010-04-01T11:50 |", "score": 0.9647, "match_basis": "verbatim_token+domain_route:BE"}, {"md_atom_id": "md_dmBE_ex_a098", "md_file": "knowledge_base/domains/BE/examples.md", "md_atom_type": "TABLE_ROW", "md_parent_section": "§BE.2 [Example 2]", "md_verbatim": "| 7 | 3441271 | BS | MU-298 | 7 | 298R1-1R3 | VOLUME | Volume | SPECIMEN MEASUREMENT | 2 | mL | 2 | 2 | mL | RNA | 2 | 2010-04-01T11:50 |", "score": 0.9647, "match_basis": "verbatim_token+domain_route:BE"}, {"md_atom_id": "md_dmBE_ex_a092", "md_file": "knowledge_base/domains/BE/examples.md", "md_atom_type": "TABLE_ROW", "md_parent_section": "§BE.2 [Example 2]", "md_verbatim": "| 1 | 3441271 | BS | MU-298 | 1 | 298B1 | VOLUME | Volume | SPECIMEN MEASUREMENT | 12 | mL | 6 | 6 | mL | BLOOD | 2 | 2010-04-01T11:50 |", "score": 0.8579, "match_basis": "verbatim_token+domain_route:BE"}], "candidate_count": 5, "zero_candidate": false}
{"pdf_atom_id": "ig34_p0147_a029", "pdf_atom_type": "TABLE_ROW", "pdf_source": "SDTMIG_v3.4", "pdf_page": 147, "pdf_parent_section": "§6.2.2 [Biospecimen Events (BE)]", "pdf_verbatim": "| 7 | 3441271 | BS | MU-298 | 7 | 298R1-1R3 | VOLUME | Volume | SPECIMEN MEASUREMENT | 2 | mL | 2 | 2 | mL | RNA | 2 | 2010-04-01T11:50 |", "figure_ref": null, "candidates": [{"md_atom_id": "md_dmBE_ex_a098", "md_file": "knowledge_base/domains/BE/examples.md", "md_atom_type": "TABLE_ROW", "md_parent_section": "§BE.2 [Example 2]", "md_verbatim": "| 7 | 3441271 | BS | MU-298 | 7 | 298R1-1R3 | VOLUME | Volume | SPECIMEN MEASUREMENT | 2 | mL | 2 | 2 | mL | RNA | 2 | 2010-04-01T11:50 |", "score": 1.0, "match_basis": "verbatim_token+domain_route:BE"}, {"md_atom_id": "md_dmBE_ex_a094", "md_file": "knowledge_base/domains/BE/examples.md", "md_atom_type": "TABLE_ROW", "md_parent_section": "§BE.2 [Example 2]", "md_verbatim": "| 3 | 3441271 | BS | MU-298 | 3 | 298R1-1R0 | VOLUME | Volume | SPECIMEN MEASUREMENT | 6 | mL | 6 | 6 | mL | RNA | 2 | 2010-04-01T11:50 |", "score": 0.9647, "match_basis": "verbatim_token+domain_route:BE"}, {"md_atom_id": "md_dmBE_ex_a096", "md_file": "knowledge_base/domains/BE/examples.md", "md_atom_type": "TABLE_ROW", "md_parent_section": "§BE.2 [Example 2]", "md_verbatim": "| 5 | 3441271 | BS | MU-298 | 5 | 298R1-1R1 | VOLUME | Volume | SPECIMEN MEASUREMENT | 2 | mL | 2 | 2 | mL | RNA | 2 | 2010-04-01T11:50 |", "score": 0.9647, "match_basis": "verbatim_token+domain_route:BE"}, {"md_atom_id": "md_dmBE_ex_a097", "md_file": "knowledge_base/domains/BE/examples.md", "md_atom_type": "TABLE_ROW", "md_parent_section": "§BE.2 [Example 2]", "md_verbatim": "| 6 | 3441271 | BS | MU-298 | 6 | 298R1-1R2 | VOLUME | Volume | SPECIMEN MEASUREMENT | 2 | mL | 2 | 2 | mL | RNA | 2 | 2010-04-01T11:50 |", "score": 0.9647, "match_basis": "verbatim_token+domain_route:BE"}, {"md_atom_id": "md_dmBE_ex_a092", "md_file": "knowledge_base/domains/BE/examples.md", "md_atom_type": "TABLE_ROW", "md_parent_section": "§BE.2 [Example 2]", "md_verbatim": "| 1 | 3441271 | BS | MU-298 | 1 | 298B1 | VOLUME | Volume | SPECIMEN MEASUREMENT | 12 | mL | 6 | 6 | mL | BLOOD | 2 | 2010-04-01T11:50 |", "score": 0.8579, "match_basis": "verbatim_token+domain_route:BE"}], "candidate_count": 5, "zero_candidate": false}
{"pdf_atom_id": "ig34_p0147_a030", "pdf_atom_type": "SENTENCE", "pdf_source": "SDTMIG_v3.4", "pdf_page": 147, "pdf_parent_section": "§6.2.2 [Biospecimen Events (BE)]", "pdf_verbatim": "The results from the sequencing procedure are stored in the PF domain, which is not shown in this example. See GF examples for examples of GF datasets.", "figure_ref": null, "candidates": [{"md_atom_id": "md_dmBE_ex_a099", "md_file": "knowledge_base/domains/BE/examples.md", "md_atom_type": "SENTENCE", "md_parent_section": "§BE.2 [Example 2]", "md_verbatim": "The results from the sequencing procedure are stored in the PF domain, which is not shown in this example.", "score": 0.9018, "match_basis": "verbatim_token+domain_route:BE"}, {"md_atom_id": "md_dmBE_ex_a059", "md_file": "knowledge_base/domains/BE/examples.md", "md_atom_type": "SENTENCE", "md_parent_section": "§BE.2 [Example 2]", "md_verbatim": "(Not shown: results from sequencing, which would be stored in the Pharmacogenomics Findings (PF) domain.)", "score": 0.6416, "match_basis": "verbatim_token+domain_route:BE"}, {"md_atom_id": "md_dmBE_ex_a100", "md_file": "knowledge_base/domains/BE/examples.md", "md_atom_type": "SENTENCE", "md_parent_section": "§BE.2 [Example 2]", "md_verbatim": "See GF datasets for examples of GF datasets.", "score": 0.5527, "match_basis": "verbatim_token+domain_route:BE"}, {"md_atom_id": "md_dmBE_ex_a036", "md_file": "knowledge_base/domains/BE/examples.md", "md_atom_type": "SENTENCE", "md_parent_section": "§BE.1 [Example 1]", "md_verbatim": "The Device Identifiers (DI) dataset (required with the use of SPDEVID) is not shown in this example.", "score": 0.5462, "match_basis": "verbatim_token+domain_route:BE"}, {"md_atom_id": "md_dmBE_ex_a053", "md_file": "knowledge_base/domains/BE/examples.md", "md_atom_type": "SENTENCE", "md_parent_section": "§BE.2 [Example 2]", "md_verbatim": "(Not shown: any preservatives with which the container comes pretreated, which would be stored in the Device Properties (DO) domain.)", "score": 0.5102, "match_basis": "verbatim_token+domain_route:BE"}], "candidate_count": 5, "zero_candidate": false}
{"pdf_atom_id": "ig34_p0147_a031", "pdf_atom_type": "SENTENCE", "pdf_source": "SDTMIG_v3.4", "pdf_page": 147, "pdf_parent_section": "§6.2.2 [Biospecimen Events (BE)]", "pdf_verbatim": "The RELSPEC dataset preserves the specimen hierarchy.", "figure_ref": null, "candidates": [{"md_atom_id": "md_dmBE_ex_a101", "md_file": "knowledge_base/domains/BE/examples.md", "md_atom_type": "SENTENCE", "md_parent_section": "§BE.2 [Example 2]", "md_verbatim": "The RELSPEC dataset preserves the specimen hierarchy.", "score": 1.0, "match_basis": "verbatim_token+domain_route:BE"}, {"md_atom_id": "md_dmBE_ex_a029", "md_file": "knowledge_base/domains/BE/examples.md", "md_atom_type": "SENTENCE", "md_parent_section": "§BE.1 [Example 1]", "md_verbatim": "**Row 1:** Shows the volume of the biospecimen.", "score": 0.505, "match_basis": "verbatim_token+domain_route:BE"}, {"md_atom_id": "md_dmBE_ex_a102", "md_file": "knowledge_base/domains/BE/examples.md", "md_atom_type": "SENTENCE", "md_parent_section": "§BE.2 [Example 2]", "md_verbatim": "**relspec.xpt**", "score": 0.5, "match_basis": "verbatim_token+domain_route:BE"}, {"md_atom_id": "md_dmBE_ex_a076", "md_file": "knowledge_base/domains/BE/examples.md", "md_atom_type": "SENTENCE", "md_parent_section": "§BE.2 [Example 2]", "md_verbatim": "**Rows 3-6:** Give the specimen type for all subsequent specimens as RNA.", "score": 0.4894, "match_basis": "verbatim_token+domain_route:BE"}, {"md_atom_id": "md_dmBE_ex_a007", "md_file": "knowledge_base/domains/BE/examples.md", "md_atom_type": "SENTENCE", "md_parent_section": "§BE.1 [Example 1]", "md_verbatim": "**Row 1:** Shows specimen collection.", "score": 0.4878, "match_basis": "verbatim_token+domain_route:BE"}], "candidate_count": 5, "zero_candidate": false}
{"pdf_atom_id": "ig34_p0147_a032", "pdf_atom_type": "CODE_LITERAL", "pdf_source": "SDTMIG_v3.4", "pdf_page": 147, "pdf_parent_section": "§6.2.2 [Biospecimen Events (BE)]", "pdf_verbatim": "relspec.xpt", "figure_ref": null, "candidates": [{"md_atom_id": "md_dmBE_ex_a102", "md_file": "knowledge_base/domains/BE/examples.md", "md_atom_type": "SENTENCE", "md_parent_section": "§BE.2 [Example 2]", "md_verbatim": "**relspec.xpt**", "score": 0.79, "match_basis": "verbatim_token+domain_route:BE"}, {"md_atom_id": "md_dmBE_ex_a040", "md_file": "knowledge_base/domains/BE/examples.md", "md_atom_type": "SENTENCE", "md_parent_section": "§BE.1 [Example 1]", "md_verbatim": "**relrec.xpt**", "score": 0.3233, "match_basis": "verbatim_token+domain_route:BE"}, {"md_atom_id": "md_dmBE_ex_a111", "md_file": "knowledge_base/domains/BE/examples.md", "md_atom_type": "SENTENCE", "md_parent_section": "§BE.2 [Example 2]", "md_verbatim": "**relrec.xpt**", "score": 0.3233, "match_basis": "verbatim_token+domain_route:BE"}, {"md_atom_id": "md_dmBE_ex_a014", "md_file": "knowledge_base/domains/BE/examples.md", "md_atom_type": "SENTENCE", "md_parent_section": "§BE.1 [Example 1]", "md_verbatim": "**be.xpt**", "score": 0.29, "match_basis": "verbatim_token+domain_route:BE"}, {"md_atom_id": "md_dmBE_ex_a031", "md_file": "knowledge_base/domains/BE/examples.md", "md_atom_type": "SENTENCE", "md_parent_section": "§BE.1 [Example 1]", "md_verbatim": "**bs.xpt**", "score": 0.29, "match_basis": "verbatim_token+domain_route:BE"}], "candidate_count": 5, "zero_candidate": false}
{"pdf_atom_id": "ig34_p0147_a033", "pdf_atom_type": "TABLE_HEADER", "pdf_source": "SDTMIG_v3.4", "pdf_page": 147, "pdf_parent_section": "§6.2.2 [Biospecimen Events (BE)]", "pdf_verbatim": "| Row | STUDYID | USUBJID | REFID | SPEC | PARENT | LEVEL |", "figure_ref": null, "candidates": [{"md_atom_id": "md_dmBE_ex_a103", "md_file": "knowledge_base/domains/BE/examples.md", "md_atom_type": "TABLE_HEADER", "md_parent_section": "§BE.2 [Example 2]", "md_verbatim": "| Row | STUDYID | USUBJID | REFID | SPEC | PARENT | LEVEL |\n|-----|---------|---------|-------|------|--------|-------|", "score": 1.0, "match_basis": "verbatim_token+domain_route:BE"}, {"md_atom_id": "md_dmBE_ex_a041", "md_file": "knowledge_base/domains/BE/examples.md", "md_atom_type": "TABLE_HEADER", "md_parent_section": "§BE.1 [Example 1]", "md_verbatim": "| Row | STUDYID | RDOMAIN | USUBJID | IDVAR | IDVARVAL | RELTYPE | RELID |\n|-----|---------|---------|---------|-------|----------|---------|-------|", "score": 0.561, "match_basis": "verbatim_token+domain_route:BE"}, {"md_atom_id": "md_dmBE_ex_a112", "md_file": "knowledge_base/domains/BE/examples.md", "md_atom_type": "TABLE_HEADER", "md_parent_section": "§BE.2 [Example 2]", "md_verbatim": "| Row | STUDYID | RDOMAIN | USUBJID | IDVAR | IDVARVAL | RELTYPE | RELID |\n|-----|---------|---------|---------|-------|----------|---------|-------|", "score": 0.561, "match_basis": "verbatim_token+domain_route:BE"}, {"md_atom_id": "md_dmBE_ex_a091", "md_file": "knowledge_base/domains/BE/examples.md", "md_atom_type": "TABLE_HEADER", "md_parent_section": "§BE.2 [Example 2]", "md_verbatim": "| Row | STUDYID | DOMAIN | USUBJID | BSSEQ | BSREFID | BSTESTCD | BSTEST | BSCAT | BSORRES | BSORRESU | BSSTRESC | BSSTRESN | BSSTRESU | BSSPEC | VISITNUM | BSDTC |\n|-----|---------|--------|---------|-------|---------|----------|--------|-------|---------|----------|----------|----------|----------|--------|----------|-------|", "score": 0.5548, "match_basis": "verbatim_token+domain_route:BE"}, {"md_atom_id": "md_dmBE_ex_a022", "md_file": "knowledge_base/domains/BE/examples.md", "md_atom_type": "TABLE_HEADER", "md_parent_section": "§BE.1 [Example 1]", "md_verbatim": "| Row | STUDYID | RDOMAIN | USUBJID | IDVAR | IDVARVAL | QNAM | QLABEL | QVAL | QORIG | QEVAL |\n|-----|---------|---------|---------|-------|----------|------|--------|------|-------|-------|", "score": 0.5435, "match_basis": "verbatim_token+domain_route:BE"}], "candidate_count": 5, "zero_candidate": false}
{"pdf_atom_id": "ig34_p0147_a034", "pdf_atom_type": "TABLE_ROW", "pdf_source": "SDTMIG_v3.4", "pdf_page": 147, "pdf_parent_section": "§6.2.2 [Biospecimen Events (BE)]", "pdf_verbatim": "| 1 | 3441271 | MU-298 | 298B1 | BLOOD | | 1 |", "figure_ref": null, "candidates": [{"md_atom_id": "md_dmBE_ex_a104", "md_file": "knowledge_base/domains/BE/examples.md", "md_atom_type": "TABLE_ROW", "md_parent_section": "§BE.2 [Example 2]", "md_verbatim": "| 1 | 3441271 | MU-298 | 298B1 | BLOOD | 298B1 | 1 |", "score": 1.0, "match_basis": "verbatim_token+domain_route:BE"}, {"md_atom_id": "md_dmBE_ex_a105", "md_file": "knowledge_base/domains/BE/examples.md", "md_atom_type": "TABLE_ROW", "md_parent_section": "§BE.2 [Example 2]", "md_verbatim": "| 2 | 3441271 | MU-298 | 298B1-1 | PLASMA | 298B1 | 2 |", "score": 0.72, "match_basis": "verbatim_token+domain_route:BE"}, {"md_atom_id": "md_dmBE_ex_a106", "md_file": "knowledge_base/domains/BE/examples.md", "md_atom_type": "TABLE_ROW", "md_parent_section": "§BE.2 [Example 2]", "md_verbatim": "| 3 | 3441271 | MU-298 | 298R1-1R0 | RNA | 298B1-1 | 3 |", "score": 0.72, "match_basis": "verbatim_token+domain_route:BE"}, {"md_atom_id": "md_dmBE_ex_a115", "md_file": "knowledge_base/domains/BE/examples.md", "md_atom_type": "TABLE_ROW", "md_parent_section": "§BE.2 [Example 2]", "md_verbatim": "| 3 | 3441271 | BE | MU-298 | BESEQ | 8 | | 2 |", "score": 0.6571, "match_basis": "verbatim_token+domain_route:BE"}, {"md_atom_id": "md_dmBE_ex_a116", "md_file": "knowledge_base/domains/BE/examples.md", "md_atom_type": "TABLE_ROW", "md_parent_section": "§BE.2 [Example 2]", "md_verbatim": "| 4 | 3441271 | GF | MU-298 | GFSEQ | 1 | | 2 |", "score": 0.6571, "match_basis": "verbatim_token+domain_route:BE"}], "candidate_count": 5, "zero_candidate": false}
{"pdf_atom_id": "ig34_p0147_a035", "pdf_atom_type": "TABLE_ROW", "pdf_source": "SDTMIG_v3.4", "pdf_page": 147, "pdf_parent_section": "§6.2.2 [Biospecimen Events (BE)]", "pdf_verbatim": "| 2 | 3441271 | MU-298 | 298B1-1 | PLASMA | 298B1 | 2 |", "figure_ref": null, "candidates": [{"md_atom_id": "md_dmBE_ex_a105", "md_file": "knowledge_base/domains/BE/examples.md", "md_atom_type": "TABLE_ROW", "md_parent_section": "§BE.2 [Example 2]", "md_verbatim": "| 2 | 3441271 | MU-298 | 298B1-1 | PLASMA | 298B1 | 2 |", "score": 1.0, "match_basis": "verbatim_token+domain_route:BE"}, {"md_atom_id": "md_dmBE_ex_a104", "md_file": "knowledge_base/domains/BE/examples.md", "md_atom_type": "TABLE_ROW", "md_parent_section": "§BE.2 [Example 2]", "md_verbatim": "| 1 | 3441271 | MU-298 | 298B1 | BLOOD | 298B1 | 1 |", "score": 0.72, "match_basis": "verbatim_token+domain_route:BE"}, {"md_atom_id": "md_dmBE_ex_a106", "md_file": "knowledge_base/domains/BE/examples.md", "md_atom_type": "TABLE_ROW", "md_parent_section": "§BE.2 [Example 2]", "md_verbatim": "| 3 | 3441271 | MU-298 | 298R1-1R0 | RNA | 298B1-1 | 3 |", "score": 0.7, "match_basis": "verbatim_token+domain_route:BE"}, {"md_atom_id": "md_dmBE_ex_a081", "md_file": "knowledge_base/domains/BE/examples.md", "md_atom_type": "TABLE_ROW", "md_parent_section": "§BE.2 [Example 2]", "md_verbatim": "| 2 | 3441271 | BE | MU-298 | BEREFID | 298B1-1 | BESPEC | Specimen Type | PLASMA | CRF | |", "score": 0.6571, "match_basis": "verbatim_token+domain_route:BE"}, {"md_atom_id": "md_dmBE_ex_a115", "md_file": "knowledge_base/domains/BE/examples.md", "md_atom_type": "TABLE_ROW", "md_parent_section": "§BE.2 [Example 2]", "md_verbatim": "| 3 | 3441271 | BE | MU-298 | BESEQ | 8 | | 2 |", "score": 0.64, "match_basis": "verbatim_token+domain_route:BE"}], "candidate_count": 5, "zero_candidate": false}
{"pdf_atom_id": "ig34_p0147_a036", "pdf_atom_type": "TABLE_ROW", "pdf_source": "SDTMIG_v3.4", "pdf_page": 147, "pdf_parent_section": "§6.2.2 [Biospecimen Events (BE)]", "pdf_verbatim": "| 3 | 3441271 | MU-298 | 298R1-1R0 | RNA | 298B1-1 | 3 |", "figure_ref": null, "candidates": [{"md_atom_id": "md_dmBE_ex_a106", "md_file": "knowledge_base/domains/BE/examples.md", "md_atom_type": "TABLE_ROW", "md_parent_section": "§BE.2 [Example 2]", "md_verbatim": "| 3 | 3441271 | MU-298 | 298R1-1R0 | RNA | 298B1-1 | 3 |", "score": 1.0, "match_basis": "verbatim_token+domain_route:BE"}, {"md_atom_id": "md_dmBE_ex_a107", "md_file": "knowledge_base/domains/BE/examples.md", "md_atom_type": "TABLE_ROW", "md_parent_section": "§BE.2 [Example 2]", "md_verbatim": "| 4 | 3441271 | MU-298 | 298R1-1R1 | RNA | 298R1-1R0 | 4 |", "score": 0.8615, "match_basis": "verbatim_token+domain_route:BE"}, {"md_atom_id": "md_dmBE_ex_a108", "md_file": "knowledge_base/domains/BE/examples.md", "md_atom_type": "TABLE_ROW", "md_parent_section": "§BE.2 [Example 2]", "md_verbatim": "| 5 | 3441271 | MU-298 | 298R1-1R2 | RNA | 298R1-1R0 | 4 |", "score": 0.8615, "match_basis": "verbatim_token+domain_route:BE"}, {"md_atom_id": "md_dmBE_ex_a109", "md_file": "knowledge_base/domains/BE/examples.md", "md_atom_type": "TABLE_ROW", "md_parent_section": "§BE.2 [Example 2]", "md_verbatim": "| 6 | 3441271 | MU-298 | 298R1-1R3 | RNA | 298R1-1R0 | 4 |", "score": 0.8615, "match_basis": "verbatim_token+domain_route:BE"}, {"md_atom_id": "md_dmBE_ex_a104", "md_file": "knowledge_base/domains/BE/examples.md", "md_atom_type": "TABLE_ROW", "md_parent_section": "§BE.2 [Example 2]", "md_verbatim": "| 1 | 3441271 | MU-298 | 298B1 | BLOOD | 298B1 | 1 |", "score": 0.72, "match_basis": "verbatim_token+domain_route:BE"}], "candidate_count": 5, "zero_candidate": false}
{"pdf_atom_id": "ig34_p0147_a037", "pdf_atom_type": "TABLE_ROW", "pdf_source": "SDTMIG_v3.4", "pdf_page": 147, "pdf_parent_section": "§6.2.2 [Biospecimen Events (BE)]", "pdf_verbatim": "| 4 | 3441271 | MU-298 | 298R1-1R1 | RNA | 298R1-1R0 | 4 |", "figure_ref": null, "candidates": [{"md_atom_id": "md_dmBE_ex_a107", "md_file": "knowledge_base/domains/BE/examples.md", "md_atom_type": "TABLE_ROW", "md_parent_section": "§BE.2 [Example 2]", "md_verbatim": "| 4 | 3441271 | MU-298 | 298R1-1R1 | RNA | 298R1-1R0 | 4 |", "score": 1.0, "match_basis": "verbatim_token+domain_route:BE"}, {"md_atom_id": "md_dmBE_ex_a108", "md_file": "knowledge_base/domains/BE/examples.md", "md_atom_type": "TABLE_ROW", "md_parent_section": "§BE.2 [Example 2]", "md_verbatim": "| 5 | 3441271 | MU-298 | 298R1-1R2 | RNA | 298R1-1R0 | 4 |", "score": 0.9, "match_basis": "verbatim_token+domain_route:BE"}, {"md_atom_id": "md_dmBE_ex_a109", "md_file": "knowledge_base/domains/BE/examples.md", "md_atom_type": "TABLE_ROW", "md_parent_section": "§BE.2 [Example 2]", "md_verbatim": "| 6 | 3441271 | MU-298 | 298R1-1R3 | RNA | 298R1-1R0 | 4 |", "score": 0.9, "match_basis": "verbatim_token+domain_route:BE"}, {"md_atom_id": "md_dmBE_ex_a106", "md_file": "knowledge_base/domains/BE/examples.md", "md_atom_type": "TABLE_ROW", "md_parent_section": "§BE.2 [Example 2]", "md_verbatim": "| 3 | 3441271 | MU-298 | 298R1-1R0 | RNA | 298B1-1 | 3 |", "score": 0.8615, "match_basis": "verbatim_token+domain_route:BE"}, {"md_atom_id": "md_dmBE_ex_a115", "md_file": "knowledge_base/domains/BE/examples.md", "md_atom_type": "TABLE_ROW", "md_parent_section": "§BE.2 [Example 2]", "md_verbatim": "| 3 | 3441271 | BE | MU-298 | BESEQ | 8 | | 2 |", "score": 0.6571, "match_basis": "verbatim_token+domain_route:BE"}], "candidate_count": 5, "zero_candidate": false}
{"pdf_atom_id": "ig34_p0147_a038", "pdf_atom_type": "TABLE_ROW", "pdf_source": "SDTMIG_v3.4", "pdf_page": 147, "pdf_parent_section": "§6.2.2 [Biospecimen Events (BE)]", "pdf_verbatim": "| 5 | 3441271 | MU-298 | 298R1-1R2 | RNA | 298R1-1R0 | 4 |", "figure_ref": null, "candidates": [{"md_atom_id": "md_dmBE_ex_a108", "md_file": "knowledge_base/domains/BE/examples.md", "md_atom_type": "TABLE_ROW", "md_parent_section": "§BE.2 [Example 2]", "md_verbatim": "| 5 | 3441271 | MU-298 | 298R1-1R2 | RNA | 298R1-1R0 | 4 |", "score": 1.0, "match_basis": "verbatim_token+domain_route:BE"}, {"md_atom_id": "md_dmBE_ex_a107", "md_file": "knowledge_base/domains/BE/examples.md", "md_atom_type": "TABLE_ROW", "md_parent_section": "§BE.2 [Example 2]", "md_verbatim": "| 4 | 3441271 | MU-298 | 298R1-1R1 | RNA | 298R1-1R0 | 4 |", "score": 0.9, "match_basis": "verbatim_token+domain_route:BE"}, {"md_atom_id": "md_dmBE_ex_a109", "md_file": "knowledge_base/domains/BE/examples.md", "md_atom_type": "TABLE_ROW", "md_parent_section": "§BE.2 [Example 2]", "md_verbatim": "| 6 | 3441271 | MU-298 | 298R1-1R3 | RNA | 298R1-1R0 | 4 |", "score": 0.9, "match_basis": "verbatim_token+domain_route:BE"}, {"md_atom_id": "md_dmBE_ex_a106", "md_file": "knowledge_base/domains/BE/examples.md", "md_atom_type": "TABLE_ROW", "md_parent_section": "§BE.2 [Example 2]", "md_verbatim": "| 3 | 3441271 | MU-298 | 298R1-1R0 | RNA | 298B1-1 | 3 |", "score": 0.8615, "match_basis": "verbatim_token+domain_route:BE"}, {"md_atom_id": "md_dmBE_ex_a115", "md_file": "knowledge_base/domains/BE/examples.md", "md_atom_type": "TABLE_ROW", "md_parent_section": "§BE.2 [Example 2]", "md_verbatim": "| 3 | 3441271 | BE | MU-298 | BESEQ | 8 | | 2 |", "score": 0.6571, "match_basis": "verbatim_token+domain_route:BE"}], "candidate_count": 5, "zero_candidate": false}
{"pdf_atom_id": "ig34_p0147_a039", "pdf_atom_type": "TABLE_ROW", "pdf_source": "SDTMIG_v3.4", "pdf_page": 147, "pdf_parent_section": "§6.2.2 [Biospecimen Events (BE)]", "pdf_verbatim": "| 6 | 3441271 | MU-298 | 298R1-1R3 | RNA | 298R1-1R0 | 4 |", "figure_ref": null, "candidates": [{"md_atom_id": "md_dmBE_ex_a109", "md_file": "knowledge_base/domains/BE/examples.md", "md_atom_type": "TABLE_ROW", "md_parent_section": "§BE.2 [Example 2]", "md_verbatim": "| 6 | 3441271 | MU-298 | 298R1-1R3 | RNA | 298R1-1R0 | 4 |", "score": 1.0, "match_basis": "verbatim_token+domain_route:BE"}, {"md_atom_id": "md_dmBE_ex_a107", "md_file": "knowledge_base/domains/BE/examples.md", "md_atom_type": "TABLE_ROW", "md_parent_section": "§BE.2 [Example 2]", "md_verbatim": "| 4 | 3441271 | MU-298 | 298R1-1R1 | RNA | 298R1-1R0 | 4 |", "score": 0.9, "match_basis": "verbatim_token+domain_route:BE"}, {"md_atom_id": "md_dmBE_ex_a108", "md_file": "knowledge_base/domains/BE/examples.md", "md_atom_type": "TABLE_ROW", "md_parent_section": "§BE.2 [Example 2]", "md_verbatim": "| 5 | 3441271 | MU-298 | 298R1-1R2 | RNA | 298R1-1R0 | 4 |", "score": 0.9, "match_basis": "verbatim_token+domain_route:BE"}, {"md_atom_id": "md_dmBE_ex_a106", "md_file": "knowledge_base/domains/BE/examples.md", "md_atom_type": "TABLE_ROW", "md_parent_section": "§BE.2 [Example 2]", "md_verbatim": "| 3 | 3441271 | MU-298 | 298R1-1R0 | RNA | 298B1-1 | 3 |", "score": 0.8615, "match_basis": "verbatim_token+domain_route:BE"}, {"md_atom_id": "md_dmBE_ex_a115", "md_file": "knowledge_base/domains/BE/examples.md", "md_atom_type": "TABLE_ROW", "md_parent_section": "§BE.2 [Example 2]", "md_verbatim": "| 3 | 3441271 | BE | MU-298 | BESEQ | 8 | | 2 |", "score": 0.6571, "match_basis": "verbatim_token+domain_route:BE"}], "candidate_count": 5, "zero_candidate": false}
{"pdf_atom_id": "ig34_p0148_a001", "pdf_atom_type": "SENTENCE", "pdf_source": "SDTMIG_v3.4", "pdf_page": 148, "pdf_parent_section": "§6.2.2 [Biospecimen Events (BE)]", "pdf_verbatim": "The relationship between BE and BS is often many-to-many because any given biospecimen may have multiple findings about it and may undergo multiple events.", "figure_ref": null, "candidates": [{"md_atom_id": "md_dmBE_ex_a110", "md_file": "knowledge_base/domains/BE/examples.md", "md_atom_type": "SENTENCE", "md_parent_section": "§BE.2 [Example 2]", "md_verbatim": "The relationship between BE and BS is often many-to-many because any given biospecimen may have multiple findings about it and may undergo multiple events.", "score": 1.0, "match_basis": "verbatim_token+domain_route:BE"}, {"md_atom_id": "md_dmBE_ex_a024", "md_file": "knowledge_base/domains/BE/examples.md", "md_atom_type": "SENTENCE", "md_parent_section": "§BE.1 [Example 1]", "md_verbatim": "Findings related to specimen handling processes are stored in the Biospecimen (BS) domain.", "score": 0.5379, "match_basis": "verbatim_token+domain_route:BE"}, {"md_atom_id": "md_dmBE_ex_a011", "md_file": "knowledge_base/domains/BE/examples.md", "md_atom_type": "SENTENCE", "md_parent_section": "§BE.1 [Example 1]", "md_verbatim": "**Row 5:** Records the transportation of a biospecimen.", "score": 0.4975, "match_basis": "verbatim_token+domain_route:BE"}, {"md_atom_id": "md_dmBE_ex_a073", "md_file": "knowledge_base/domains/BE/examples.md", "md_atom_type": "SENTENCE", "md_parent_section": "§BE.2 [Example 2]", "md_verbatim": "The specimen type is given in a supplemental qualifier that mimics the standard findings variable --SPEC, and draws from the 2 codelists (GENSMP and SPECTYPE) for its values, depending on whether or not the biospecimen is a sample of the subject's genetic material.", "score": 0.4898, "match_basis": "verbatim_token+domain_route:BE"}, {"md_atom_id": "md_dmBE_ex_a003", "md_file": "knowledge_base/domains/BE/examples.md", "md_atom_type": "SENTENCE", "md_parent_section": "§BE.1 [Example 1]", "md_verbatim": "In this example, a specimen is collected, flash frozen, thawed, and shipped to another location.", "score": 0.4848, "match_basis": "verbatim_token+domain_route:BE"}], "candidate_count": 5, "zero_candidate": false}
{"pdf_atom_id": "ig34_p0148_a002", "pdf_atom_type": "CODE_LITERAL", "pdf_source": "SDTMIG_v3.4", "pdf_page": 148, "pdf_parent_section": "§6.2.2 [Biospecimen Events (BE)]", "pdf_verbatim": "relrec.xpt", "figure_ref": null, "candidates": [{"md_atom_id": "md_dmBE_ex_a040", "md_file": "knowledge_base/domains/BE/examples.md", "md_atom_type": "SENTENCE", "md_parent_section": "§BE.1 [Example 1]", "md_verbatim": "**relrec.xpt**", "score": 0.79, "match_basis": "verbatim_token+domain_route:BE"}, {"md_atom_id": "md_dmBE_ex_a111", "md_file": "knowledge_base/domains/BE/examples.md", "md_atom_type": "SENTENCE", "md_parent_section": "§BE.2 [Example 2]", "md_verbatim": "**relrec.xpt**", "score": 0.79, "match_basis": "verbatim_token+domain_route:BE"}, {"md_atom_id": "md_dmBE_ex_a102", "md_file": "knowledge_base/domains/BE/examples.md", "md_atom_type": "SENTENCE", "md_parent_section": "§BE.2 [Example 2]", "md_verbatim": "**relspec.xpt**", "score": 0.3233, "match_basis": "verbatim_token+domain_route:BE"}, {"md_atom_id": "md_dmBE_ex_a037", "md_file": "knowledge_base/domains/BE/examples.md", "md_atom_type": "SENTENCE", "md_parent_section": "§BE.1 [Example 1]", "md_verbatim": "RELREC relates the records in BE and BS to each other.", "score": 0.3163, "match_basis": "verbatim_token+domain_route:BE"}, {"md_atom_id": "md_dmBE_ex_a014", "md_file": "knowledge_base/domains/BE/examples.md", "md_atom_type": "SENTENCE", "md_parent_section": "§BE.1 [Example 1]", "md_verbatim": "**be.xpt**", "score": 0.31, "match_basis": "verbatim_token+domain_route:BE"}, {"md_atom_id": "md_dmBE_ex_a031", "md_file": "knowledge_base/domains/BE/examples.md", "md_atom_type": "SENTENCE", "md_parent_section": "§BE.1 [Example 1]", "md_verbatim": "**bs.xpt**", "score": 0.31, "match_basis": "verbatim_token+domain_route:BE"}, {"md_atom_id": "md_dmBE_ex_a061", "md_file": "knowledge_base/domains/BE/examples.md", "md_atom_type": "SENTENCE", "md_parent_section": "§BE.2 [Example 2]", "md_verbatim": "**be.xpt**", "score": 0.31, "match_basis": "verbatim_token+domain_route:BE"}, {"md_atom_id": "md_dmBE_ex_a090", "md_file": "knowledge_base/domains/BE/examples.md", "md_atom_type": "SENTENCE", "md_parent_section": "§BE.2 [Example 2]", "md_verbatim": "**bs.xpt**", "score": 0.31, "match_basis": "verbatim_token+domain_route:BE"}, {"md_atom_id": "md_dmBE_ex_a021", "md_file": "knowledge_base/domains/BE/examples.md", "md_atom_type": "SENTENCE", "md_parent_section": "§BE.1 [Example 1]", "md_verbatim": "**suppbe.xpt**", "score": 0.2567, "match_basis": "verbatim_token+domain_route:BE"}, {"md_atom_id": "md_dmBE_ex_a078", "md_file": "knowledge_base/domains/BE/examples.md", "md_atom_type": "SENTENCE", "md_parent_section": "§BE.2 [Example 2]", "md_verbatim": "**suppbe.xpt**", "score": 0.2567, "match_basis": "verbatim_token+domain_route:BE"}], "candidate_count": 10, "zero_candidate": false}
{"pdf_atom_id": "ig34_p0148_a003", "pdf_atom_type": "TABLE_HEADER", "pdf_source": "SDTMIG_v3.4", "pdf_page": 148, "pdf_parent_section": "§6.2.2 [Biospecimen Events (BE)]", "pdf_verbatim": "| Row | STUDYID | RDOMAIN | USUBJID | IDVAR | IDVARVAL | RELTYPE | RELID |", "figure_ref": null, "candidates": [{"md_atom_id": "md_dmBE_ex_a041", "md_file": "knowledge_base/domains/BE/examples.md", "md_atom_type": "TABLE_HEADER", "md_parent_section": "§BE.1 [Example 1]", "md_verbatim": "| Row | STUDYID | RDOMAIN | USUBJID | IDVAR | IDVARVAL | RELTYPE | RELID |\n|-----|---------|---------|---------|-------|----------|---------|-------|", "score": 1.0, "match_basis": "verbatim_token+domain_route:BE"}, {"md_atom_id": "md_dmBE_ex_a112", "md_file": "knowledge_base/domains/BE/examples.md", "md_atom_type": "TABLE_HEADER", "md_parent_section": "§BE.2 [Example 2]", "md_verbatim": "| Row | STUDYID | RDOMAIN | USUBJID | IDVAR | IDVARVAL | RELTYPE | RELID |\n|-----|---------|---------|---------|-------|----------|---------|-------|", "score": 1.0, "match_basis": "verbatim_token+domain_route:BE"}, {"md_atom_id": "md_dmBE_ex_a022", "md_file": "knowledge_base/domains/BE/examples.md", "md_atom_type": "TABLE_HEADER", "md_parent_section": "§BE.1 [Example 1]", "md_verbatim": "| Row | STUDYID | RDOMAIN | USUBJID | IDVAR | IDVARVAL | QNAM | QLABEL | QVAL | QORIG | QEVAL |\n|-----|---------|---------|---------|-------|----------|------|--------|------|-------|-------|", "score": 0.722, "match_basis": "verbatim_token+domain_route:BE"}, {"md_atom_id": "md_dmBE_ex_a079", "md_file": "knowledge_base/domains/BE/examples.md", "md_atom_type": "TABLE_HEADER", "md_parent_section": "§BE.2 [Example 2]", "md_verbatim": "| Row | STUDYID | RDOMAIN | USUBJID | IDVAR | IDVARVAL | QNAM | QLABEL | QVAL | QORIG | QEVAL |\n|-----|---------|---------|---------|-------|----------|------|--------|------|-------|-------|", "score": 0.722, "match_basis": "verbatim_token+domain_route:BE"}, {"md_atom_id": "md_dmBE_ex_a103", "md_file": "knowledge_base/domains/BE/examples.md", "md_atom_type": "TABLE_HEADER", "md_parent_section": "§BE.2 [Example 2]", "md_verbatim": "| Row | STUDYID | USUBJID | REFID | SPEC | PARENT | LEVEL |\n|-----|---------|---------|-------|------|--------|-------|", "score": 0.561, "match_basis": "verbatim_token+domain_route:BE"}], "candidate_count": 5, "zero_candidate": false}
{"pdf_atom_id": "ig34_p0148_a004", "pdf_atom_type": "TABLE_ROW", "pdf_source": "SDTMIG_v3.4", "pdf_page": 148, "pdf_parent_section": "§6.2.2 [Biospecimen Events (BE)]", "pdf_verbatim": "| 1 | 3441271 | BE | | BEREFID | | MANY | 1 |", "figure_ref": null, "candidates": [{"md_atom_id": "md_dmBE_ex_a113", "md_file": "knowledge_base/domains/BE/examples.md", "md_atom_type": "TABLE_ROW", "md_parent_section": "§BE.2 [Example 2]", "md_verbatim": "| 1 | 3441271 | BE | | BEREFID | | MANY | 1 |", "score": 1.0, "match_basis": "verbatim_token+domain_route:BE"}, {"md_atom_id": "md_dmBE_ex_a114", "md_file": "knowledge_base/domains/BE/examples.md", "md_atom_type": "TABLE_ROW", "md_parent_section": "§BE.2 [Example 2]", "md_verbatim": "| 2 | 3441271 | BS | | BSREFID | | MANY | 1 |", "score": 0.8286, "match_basis": "verbatim_token+domain_route:BE"}, {"md_atom_id": "md_dmBE_ex_a080", "md_file": "knowledge_base/domains/BE/examples.md", "md_atom_type": "TABLE_ROW", "md_parent_section": "§BE.2 [Example 2]", "md_verbatim": "| 1 | 3441271 | BE | MU-298 | BEREFID | 298B1 | BESPEC | Specimen Type | BLOOD | CRF | |", "score": 0.6069, "match_basis": "verbatim_token+domain_route:BE"}, {"md_atom_id": "md_dmBE_ex_a081", "md_file": "knowledge_base/domains/BE/examples.md", "md_atom_type": "TABLE_ROW", "md_parent_section": "§BE.2 [Example 2]", "md_verbatim": "| 2 | 3441271 | BE | MU-298 | BEREFID | 298B1-1 | BESPEC | Specimen Type | PLASMA | CRF | |", "score": 0.6, "match_basis": "verbatim_token+domain_route:BE"}, {"md_atom_id": "md_dmBE_ex_a115", "md_file": "knowledge_base/domains/BE/examples.md", "md_atom_type": "TABLE_ROW", "md_parent_section": "§BE.2 [Example 2]", "md_verbatim": "| 3 | 3441271 | BE | MU-298 | BESEQ | 8 | | 2 |", "score": 0.5875, "match_basis": "verbatim_token+domain_route:BE"}], "candidate_count": 5, "zero_candidate": false}
{"pdf_atom_id": "ig34_p0148_a005", "pdf_atom_type": "TABLE_ROW", "pdf_source": "SDTMIG_v3.4", "pdf_page": 148, "pdf_parent_section": "§6.2.2 [Biospecimen Events (BE)]", "pdf_verbatim": "| 2 | 3441271 | BS | | BSREFID | | MANY | 1 |", "figure_ref": null, "candidates": [{"md_atom_id": "md_dmBE_ex_a114", "md_file": "knowledge_base/domains/BE/examples.md", "md_atom_type": "TABLE_ROW", "md_parent_section": "§BE.2 [Example 2]", "md_verbatim": "| 2 | 3441271 | BS | | BSREFID | | MANY | 1 |", "score": 1.0, "match_basis": "verbatim_token+domain_route:BE"}, {"md_atom_id": "md_dmBE_ex_a113", "md_file": "knowledge_base/domains/BE/examples.md", "md_atom_type": "TABLE_ROW", "md_parent_section": "§BE.2 [Example 2]", "md_verbatim": "| 1 | 3441271 | BE | | BEREFID | | MANY | 1 |", "score": 0.8286, "match_basis": "verbatim_token+domain_route:BE"}, {"md_atom_id": "md_dmBE_ex_a115", "md_file": "knowledge_base/domains/BE/examples.md", "md_atom_type": "TABLE_ROW", "md_parent_section": "§BE.2 [Example 2]", "md_verbatim": "| 3 | 3441271 | BE | MU-298 | BESEQ | 8 | | 2 |", "score": 0.5875, "match_basis": "verbatim_token+domain_route:BE"}, {"md_atom_id": "md_dmBE_ex_a116", "md_file": "knowledge_base/domains/BE/examples.md", "md_atom_type": "TABLE_ROW", "md_parent_section": "§BE.2 [Example 2]", "md_verbatim": "| 4 | 3441271 | GF | MU-298 | GFSEQ | 1 | | 2 |", "score": 0.5875, "match_basis": "verbatim_token+domain_route:BE"}, {"md_atom_id": "md_dmBE_ex_a117", "md_file": "knowledge_base/domains/BE/examples.md", "md_atom_type": "TABLE_ROW", "md_parent_section": "§BE.2 [Example 2]", "md_verbatim": "| 5 | 3441271 | GF | MU-298 | GFSEQ | 2 | | 2 |", "score": 0.5875, "match_basis": "verbatim_token+domain_route:BE"}], "candidate_count": 5, "zero_candidate": false}
{"pdf_atom_id": "ig34_p0148_a006", "pdf_atom_type": "TABLE_ROW", "pdf_source": "SDTMIG_v3.4", "pdf_page": 148, "pdf_parent_section": "§6.2.2 [Biospecimen Events (BE)]", "pdf_verbatim": "| 3 | 3441271 | BE | MU-298 | BESEQ | 8 | | 2 |", "figure_ref": null, "candidates": [{"md_atom_id": "md_dmBE_ex_a115", "md_file": "knowledge_base/domains/BE/examples.md", "md_atom_type": "TABLE_ROW", "md_parent_section": "§BE.2 [Example 2]", "md_verbatim": "| 3 | 3441271 | BE | MU-298 | BESEQ | 8 | | 2 |", "score": 1.0, "match_basis": "verbatim_token+domain_route:BE"}, {"md_atom_id": "md_dmBE_ex_a116", "md_file": "knowledge_base/domains/BE/examples.md", "md_atom_type": "TABLE_ROW", "md_parent_section": "§BE.2 [Example 2]", "md_verbatim": "| 4 | 3441271 | GF | MU-298 | GFSEQ | 1 | | 2 |", "score": 0.7818, "match_basis": "verbatim_token+domain_route:BE"}, {"md_atom_id": "md_dmBE_ex_a117", "md_file": "knowledge_base/domains/BE/examples.md", "md_atom_type": "TABLE_ROW", "md_parent_section": "§BE.2 [Example 2]", "md_verbatim": "| 5 | 3441271 | GF | MU-298 | GFSEQ | 2 | | 2 |", "score": 0.7818, "match_basis": "verbatim_token+domain_route:BE"}, {"md_atom_id": "md_dmBE_ex_a118", "md_file": "knowledge_base/domains/BE/examples.md", "md_atom_type": "TABLE_ROW", "md_parent_section": "§BE.2 [Example 2]", "md_verbatim": "| 6 | 3441271 | GF | MU-298 | GFSEQ | 3 | | 2 |", "score": 0.7818, "match_basis": "verbatim_token+domain_route:BE"}, {"md_atom_id": "md_dmBE_ex_a104", "md_file": "knowledge_base/domains/BE/examples.md", "md_atom_type": "TABLE_ROW", "md_parent_section": "§BE.2 [Example 2]", "md_verbatim": "| 1 | 3441271 | MU-298 | 298B1 | BLOOD | 298B1 | 1 |", "score": 0.6571, "match_basis": "verbatim_token+domain_route:BE"}], "candidate_count": 5, "zero_candidate": false}
{"pdf_atom_id": "ig34_p0148_a007", "pdf_atom_type": "TABLE_ROW", "pdf_source": "SDTMIG_v3.4", "pdf_page": 148, "pdf_parent_section": "§6.2.2 [Biospecimen Events (BE)]", "pdf_verbatim": "| 4 | 3441271 | GF | MU-298 | GFSEQ | 1 | | 2 |", "figure_ref": null, "candidates": [{"md_atom_id": "md_dmBE_ex_a116", "md_file": "knowledge_base/domains/BE/examples.md", "md_atom_type": "TABLE_ROW", "md_parent_section": "§BE.2 [Example 2]", "md_verbatim": "| 4 | 3441271 | GF | MU-298 | GFSEQ | 1 | | 2 |", "score": 1.0, "match_basis": "verbatim_token+domain_route:BE"}, {"md_atom_id": "md_dmBE_ex_a117", "md_file": "knowledge_base/domains/BE/examples.md", "md_atom_type": "TABLE_ROW", "md_parent_section": "§BE.2 [Example 2]", "md_verbatim": "| 5 | 3441271 | GF | MU-298 | GFSEQ | 2 | | 2 |", "score": 1.0, "match_basis": "verbatim_token+domain_route:BE"}, {"md_atom_id": "md_dmBE_ex_a118", "md_file": "knowledge_base/domains/BE/examples.md", "md_atom_type": "TABLE_ROW", "md_parent_section": "§BE.2 [Example 2]", "md_verbatim": "| 6 | 3441271 | GF | MU-298 | GFSEQ | 3 | | 2 |", "score": 1.0, "match_basis": "verbatim_token+domain_route:BE"}, {"md_atom_id": "md_dmBE_ex_a115", "md_file": "knowledge_base/domains/BE/examples.md", "md_atom_type": "TABLE_ROW", "md_parent_section": "§BE.2 [Example 2]", "md_verbatim": "| 3 | 3441271 | BE | MU-298 | BESEQ | 8 | | 2 |", "score": 0.7818, "match_basis": "verbatim_token+domain_route:BE"}, {"md_atom_id": "md_dmBE_ex_a104", "md_file": "knowledge_base/domains/BE/examples.md", "md_atom_type": "TABLE_ROW", "md_parent_section": "§BE.2 [Example 2]", "md_verbatim": "| 1 | 3441271 | MU-298 | 298B1 | BLOOD | 298B1 | 1 |", "score": 0.6571, "match_basis": "verbatim_token+domain_route:BE"}], "candidate_count": 5, "zero_candidate": false}
{"pdf_atom_id": "ig34_p0148_a008", "pdf_atom_type": "TABLE_ROW", "pdf_source": "SDTMIG_v3.4", "pdf_page": 148, "pdf_parent_section": "§6.2.2 [Biospecimen Events (BE)]", "pdf_verbatim": "| 5 | 3441271 | GF | MU-298 | GFSEQ | 2 | | 2 |", "figure_ref": null, "candidates": [{"md_atom_id": "md_dmBE_ex_a116", "md_file": "knowledge_base/domains/BE/examples.md", "md_atom_type": "TABLE_ROW", "md_parent_section": "§BE.2 [Example 2]", "md_verbatim": "| 4 | 3441271 | GF | MU-298 | GFSEQ | 1 | | 2 |", "score": 1.0, "match_basis": "verbatim_token+domain_route:BE"}, {"md_atom_id": "md_dmBE_ex_a117", "md_file": "knowledge_base/domains/BE/examples.md", "md_atom_type": "TABLE_ROW", "md_parent_section": "§BE.2 [Example 2]", "md_verbatim": "| 5 | 3441271 | GF | MU-298 | GFSEQ | 2 | | 2 |", "score": 1.0, "match_basis": "verbatim_token+domain_route:BE"}, {"md_atom_id": "md_dmBE_ex_a118", "md_file": "knowledge_base/domains/BE/examples.md", "md_atom_type": "TABLE_ROW", "md_parent_section": "§BE.2 [Example 2]", "md_verbatim": "| 6 | 3441271 | GF | MU-298 | GFSEQ | 3 | | 2 |", "score": 1.0, "match_basis": "verbatim_token+domain_route:BE"}, {"md_atom_id": "md_dmBE_ex_a115", "md_file": "knowledge_base/domains/BE/examples.md", "md_atom_type": "TABLE_ROW", "md_parent_section": "§BE.2 [Example 2]", "md_verbatim": "| 3 | 3441271 | BE | MU-298 | BESEQ | 8 | | 2 |", "score": 0.7818, "match_basis": "verbatim_token+domain_route:BE"}, {"md_atom_id": "md_dmBE_ex_a104", "md_file": "knowledge_base/domains/BE/examples.md", "md_atom_type": "TABLE_ROW", "md_parent_section": "§BE.2 [Example 2]", "md_verbatim": "| 1 | 3441271 | MU-298 | 298B1 | BLOOD | 298B1 | 1 |", "score": 0.6571, "match_basis": "verbatim_token+domain_route:BE"}], "candidate_count": 5, "zero_candidate": false}
{"pdf_atom_id": "ig34_p0148_a009", "pdf_atom_type": "TABLE_ROW", "pdf_source": "SDTMIG_v3.4", "pdf_page": 148, "pdf_parent_section": "§6.2.2 [Biospecimen Events (BE)]", "pdf_verbatim": "| 6 | 3441271 | GF | MU-298 | GFSEQ | 3 | | 2 |", "figure_ref": null, "candidates": [{"md_atom_id": "md_dmBE_ex_a116", "md_file": "knowledge_base/domains/BE/examples.md", "md_atom_type": "TABLE_ROW", "md_parent_section": "§BE.2 [Example 2]", "md_verbatim": "| 4 | 3441271 | GF | MU-298 | GFSEQ | 1 | | 2 |", "score": 1.0, "match_basis": "verbatim_token+domain_route:BE"}, {"md_atom_id": "md_dmBE_ex_a117", "md_file": "knowledge_base/domains/BE/examples.md", "md_atom_type": "TABLE_ROW", "md_parent_section": "§BE.2 [Example 2]", "md_verbatim": "| 5 | 3441271 | GF | MU-298 | GFSEQ | 2 | | 2 |", "score": 1.0, "match_basis": "verbatim_token+domain_route:BE"}, {"md_atom_id": "md_dmBE_ex_a118", "md_file": "knowledge_base/domains/BE/examples.md", "md_atom_type": "TABLE_ROW", "md_parent_section": "§BE.2 [Example 2]", "md_verbatim": "| 6 | 3441271 | GF | MU-298 | GFSEQ | 3 | | 2 |", "score": 1.0, "match_basis": "verbatim_token+domain_route:BE"}, {"md_atom_id": "md_dmBE_ex_a115", "md_file": "knowledge_base/domains/BE/examples.md", "md_atom_type": "TABLE_ROW", "md_parent_section": "§BE.2 [Example 2]", "md_verbatim": "| 3 | 3441271 | BE | MU-298 | BESEQ | 8 | | 2 |", "score": 0.7818, "match_basis": "verbatim_token+domain_route:BE"}, {"md_atom_id": "md_dmBE_ex_a104", "md_file": "knowledge_base/domains/BE/examples.md", "md_atom_type": "TABLE_ROW", "md_parent_section": "§BE.2 [Example 2]", "md_verbatim": "| 1 | 3441271 | MU-298 | 298B1 | BLOOD | 298B1 | 1 |", "score": 0.6571, "match_basis": "verbatim_token+domain_route:BE"}], "candidate_count": 5, "zero_candidate": false}
{"pdf_atom_id": "ig34_p0148_a010", "pdf_atom_type": "HEADING", "pdf_source": "SDTMIG_v3.4", "pdf_page": 148, "pdf_parent_section": "§6.2.2 [Biospecimen Events (BE)]", "pdf_verbatim": "References", "figure_ref": null, "candidates": [{"md_atom_id": "md_dmBE_assn_a001", "md_file": "knowledge_base/domains/BE/assumptions.md", "md_atom_type": "HEADING", "md_parent_section": "§BE [BE — Assumptions]", "md_verbatim": "# BE — Assumptions", "score": 0.4, "match_basis": "verbatim_token+domain_route:BE"}, {"md_atom_id": "md_dmBE_ex_a001", "md_file": "knowledge_base/domains/BE/examples.md", "md_atom_type": "HEADING", "md_parent_section": "§BE [BE — Examples]", "md_verbatim": "# BE — Examples", "score": 0.4, "match_basis": "verbatim_token+domain_route:BE"}, {"md_atom_id": "md_dmBE_ex_a002", "md_file": "knowledge_base/domains/BE/examples.md", "md_atom_type": "HEADING", "md_parent_section": "§BE.1 [Example 1]", "md_verbatim": "## Example 1", "score": 0.4, "match_basis": "verbatim_token+domain_route:BE"}, {"md_atom_id": "md_dmBE_ex_a046", "md_file": "knowledge_base/domains/BE/examples.md", "md_atom_type": "HEADING", "md_parent_section": "§BE.2 [Example 2]", "md_verbatim": "## Example 2", "score": 0.4, "match_basis": "verbatim_token+domain_route:BE"}], "candidate_count": 4, "zero_candidate": false}
{"pdf_atom_id": "ig34_p0148_a011", "pdf_atom_type": "LIST_ITEM", "pdf_source": "SDTMIG_v3.4", "pdf_page": 148, "pdf_parent_section": "§6.2.2 [Biospecimen Events (BE)]", "pdf_verbatim": "Tsui NB, Ng EK, Lo YM. Molecular analysis of circulating RNA in plasma. Methods Mol Biol. 2006;336:123-134. doi:10.1385/1-59745-074-X:123", "figure_ref": null, "candidates": [{"md_atom_id": "md_dmBE_ex_a120", "md_file": "knowledge_base/domains/BE/examples.md", "md_atom_type": "LIST_ITEM", "md_parent_section": "§BE.2 [Example 2]", "md_verbatim": "1. Tsui NB, Ng EK, Lo YM. Molecular analysis of circulating RNA in plasma. Methods Mol Biol. 2006;336:123-134. doi:10.1385/1-59745-074-X:123", "score": 1.0, "match_basis": "verbatim_token+domain_route:BE"}, {"md_atom_id": "md_dmBE_ex_a121", "md_file": "knowledge_base/domains/BE/examples.md", "md_atom_type": "LIST_ITEM", "md_parent_section": "§BE.2 [Example 2]", "md_verbatim": "2. Cerkovnik P, Perhavec A, Zgajnar J, Novakovic S. Optimization of an RNA isolation procedure from plasma samples. Int J Mol Med. 2007;20(3):293-300. doi:10.3892/ijmm.20.3.293", "score": 0.4571, "match_basis": "verbatim_token+domain_route:BE"}, {"md_atom_id": "md_dmBE_assn_a004", "md_file": "knowledge_base/domains/BE/assumptions.md", "md_atom_type": "LIST_ITEM", "md_parent_section": "§BE [BE — Assumptions]", "md_verbatim": "3. BELOC holds the relevant anatomic location of the subject, so it should only be populated when the subject participates in and is directly affected by the event given in BETERM.", "score": 0.4211, "match_basis": "verbatim_token+domain_route:BE"}, {"md_atom_id": "md_dmBE_assn_a002", "md_file": "knowledge_base/domains/BE/assumptions.md", "md_atom_type": "LIST_ITEM", "md_parent_section": "§BE [BE — Assumptions]", "md_verbatim": "1. The BE domain contains data about actions taken that affect or may affect a specimen, such as specimen collection, freezing and thawing, aliquoting, and transportation. This domain is intended to be applicable to any specimen tracking data, regardless of the reason for specimen collection.", "score": 0.4166, "match_basis": "verbatim_token+domain_route:BE"}, {"md_atom_id": "md_dmBE_assn_a005", "md_file": "knowledge_base/domains/BE/assumptions.md", "md_atom_type": "LIST_ITEM", "md_parent_section": "§BE [BE — Assumptions]", "md_verbatim": "4. BEPARTY and BEPRTYID together identify the individual or organization that takes responsibility for the biospecimen as a result of the action in BETERM. For example, if BETERM is COLLECTED, BEPARTY would be a general term defining the type of responsible party, such as SITE, and BEPRTYID would contain the site identifier, such as 02. If BEPARTY is sufficient to uniquely identify the party (such as SPONSOR in a single-sponsor study), then BEPRTYID may be null.", "score": 0.4163, "match_basis": "verbatim_token+domain_route:BE"}], "candidate_count": 5, "zero_candidate": false}
{"pdf_atom_id": "ig34_p0148_a012", "pdf_atom_type": "LIST_ITEM", "pdf_source": "SDTMIG_v3.4", "pdf_page": 148, "pdf_parent_section": "§6.2.2 [Biospecimen Events (BE)]", "pdf_verbatim": "Cerkovnik P, Perhavec A, Zgajnar J, Novakovic S. Optimization of an RNA isolation procedure from plasma samples. Int J Mol Med. 2007;20(3):293-300. doi:10.3892/ijmm.20.3.293", "figure_ref": null, "candidates": [{"md_atom_id": "md_dmBE_ex_a121", "md_file": "knowledge_base/domains/BE/examples.md", "md_atom_type": "LIST_ITEM", "md_parent_section": "§BE.2 [Example 2]", "md_verbatim": "2. Cerkovnik P, Perhavec A, Zgajnar J, Novakovic S. Optimization of an RNA isolation procedure from plasma samples. Int J Mol Med. 2007;20(3):293-300. doi:10.3892/ijmm.20.3.293", "score": 1.0, "match_basis": "verbatim_token+domain_route:BE"}, {"md_atom_id": "md_dmBE_ex_a120", "md_file": "knowledge_base/domains/BE/examples.md", "md_atom_type": "LIST_ITEM", "md_parent_section": "§BE.2 [Example 2]", "md_verbatim": "1. Tsui NB, Ng EK, Lo YM. Molecular analysis of circulating RNA in plasma. Methods Mol Biol. 2006;336:123-134. doi:10.1385/1-59745-074-X:123", "score": 0.4571, "match_basis": "verbatim_token+domain_route:BE"}, {"md_atom_id": "md_dmBE_assn_a005", "md_file": "knowledge_base/domains/BE/assumptions.md", "md_atom_type": "LIST_ITEM", "md_parent_section": "§BE [BE — Assumptions]", "md_verbatim": "4. BEPARTY and BEPRTYID together identify the individual or organization that takes responsibility for the biospecimen as a result of the action in BETERM. For example, if BETERM is COLLECTED, BEPARTY would be a general term defining the type of responsible party, such as SITE, and BEPRTYID would contain the site identifier, such as 02. If BEPARTY is sufficient to uniquely identify the party (such as SPONSOR in a single-sponsor study), then BEPRTYID may be null.", "score": 0.4235, "match_basis": "verbatim_token+domain_route:BE"}, {"md_atom_id": "md_dmBE_assn_a007", "md_file": "knowledge_base/domains/BE/assumptions.md", "md_atom_type": "LIST_ITEM", "md_parent_section": "§BE [BE — Assumptions]", "md_verbatim": "6. Timing variables:", "score": 0.4234, "match_basis": "verbatim_token+domain_route:BE"}, {"md_atom_id": "md_dmBE_assn_a009", "md_file": "knowledge_base/domains/BE/assumptions.md", "md_atom_type": "LIST_ITEM", "md_parent_section": "§BE [BE — Assumptions]", "md_verbatim": "   b. Unlike other Events domains, BEDTC does not hold the date/time of data collection. Instead, it holds the date/time of specimen collection, in alignment with the use of --DTC for specimen-related findings. BEDTC values for extracted or otherwise derived specimens are copied from that of the parent specimen.", "score": 0.4225, "match_basis": "verbatim_token+domain_route:BE"}], "candidate_count": 5, "zero_candidate": false}
{"pdf_atom_id": "ig34_p0148_a013", "pdf_atom_type": "HEADING", "pdf_source": "SDTMIG_v3.4", "pdf_page": 148, "pdf_parent_section": "§6.2 [MODELS FOR EVENTS DOMAINS]", "pdf_verbatim": "6.2.3 Clinical Events (CE)", "figure_ref": null, "candidates": [{"md_atom_id": "md_varindex_a178", "md_file": "knowledge_base/VARIABLE_INDEX.md", "md_atom_type": "HEADING", "md_parent_section": "§ 二、领域专属变量（仅 1 个域，共 1499 个），按域分组", "md_verbatim": "### CE — Clinical Events (Events)", "score": 0.9, "match_basis": "verbatim_token+global_search"}, {"md_atom_id": "md_varindex_a830", "md_file": "knowledge_base/VARIABLE_INDEX.md", "md_atom_type": "HEADING", "md_parent_section": "§ 二、领域专属变量（仅 1 个域，共 1499 个），按域分组", "md_verbatim": "### MH — Medical History (Events)", "score": 0.5, "match_basis": "verbatim_token+global_search"}, {"md_atom_id": "md_index_a044", "md_file": "knowledge_base/INDEX.md", "md_atom_type": "HEADING", "md_parent_section": "§ Domains (63 domains)", "md_verbatim": "### Events Domains", "score": 0.46, "match_basis": "verbatim_token+global_search"}, {"md_atom_id": "md_varindex_a037", "md_file": "knowledge_base/VARIABLE_INDEX.md", "md_atom_type": "HEADING", "md_parent_section": "§ 二、领域专属变量（仅 1 个域，共 1499 个），按域分组", "md_verbatim": "### AE — Adverse Events (Events)", "score": 0.46, "match_basis": "verbatim_token+global_search"}, {"md_atom_id": "md_ch04_a605", "md_file": "knowledge_base/chapters/ch04_general_assumptions.md", "md_atom_type": "HEADING", "md_parent_section": "§4.4 [Actual and Relative Time Assumptions]", "md_verbatim": "### 4.4.5 Clinical Encounters and Visits", "score": 0.4565, "match_basis": "verbatim_token+global_search"}], "candidate_count": 5, "zero_candidate": false}
{"pdf_atom_id": "ig34_p0148_a014", "pdf_atom_type": "HEADING", "pdf_source": "SDTMIG_v3.4", "pdf_page": 148, "pdf_parent_section": "§6.2.3 [Clinical Events (CE)]", "pdf_verbatim": "CE – Description/Overview", "figure_ref": null, "candidates": [{"md_atom_id": "md_dmCE_assn_a001", "md_file": "knowledge_base/domains/CE/assumptions.md", "md_atom_type": "HEADING", "md_parent_section": "§CE [CE — Assumptions]", "md_verbatim": "# CE — Assumptions", "score": 0.4857, "match_basis": "verbatim_token+domain_route:CE"}, {"md_atom_id": "md_dmCE_ex_a001", "md_file": "knowledge_base/domains/CE/examples.md", "md_atom_type": "HEADING", "md_parent_section": "§CE [CE — Examples]", "md_verbatim": "# CE — Examples", "score": 0.4, "match_basis": "verbatim_token+domain_route:CE"}, {"md_atom_id": "md_dmCE_ex_a002", "md_file": "knowledge_base/domains/CE/examples.md", "md_atom_type": "HEADING", "md_parent_section": "§CE.1 [Example 1]", "md_verbatim": "## Example 1", "score": 0.4, "match_basis": "verbatim_token+domain_route:CE"}, {"md_atom_id": "md_dmCE_ex_a021", "md_file": "knowledge_base/domains/CE/examples.md", "md_atom_type": "HEADING", "md_parent_section": "§CE.2 [Example 2]", "md_verbatim": "## Example 2", "score": 0.4, "match_basis": "verbatim_token+domain_route:CE"}, {"md_atom_id": "md_dmCE_ex_a053", "md_file": "knowledge_base/domains/CE/examples.md", "md_atom_type": "HEADING", "md_parent_section": "§CE.3 [Example 3]", "md_verbatim": "## Example 3", "score": 0.4, "match_basis": "verbatim_token+domain_route:CE"}], "candidate_count": 5, "zero_candidate": false}
{"pdf_atom_id": "ig34_p0148_a015", "pdf_atom_type": "SENTENCE", "pdf_source": "SDTMIG_v3.4", "pdf_page": 148, "pdf_parent_section": "§6.2.3 [Clinical Events (CE)]", "pdf_verbatim": "An events domain that contains clinical events of interest that would not be classified as adverse events.", "figure_ref": null, "candidates": [{"md_atom_id": "md_dmCE_ex_a005", "md_file": "knowledge_base/domains/CE/examples.md", "md_atom_type": "SENTENCE", "md_parent_section": "§CE.1 [Example 1]", "md_verbatim": "**CRF: CE Example 1 — Prespecified Clinical Events**", "score": 0.55, "match_basis": "verbatim_token+domain_route:CE"}, {"md_atom_id": "md_dmCE_ex_a037", "md_file": "knowledge_base/domains/CE/examples.md", "md_atom_type": "SENTENCE", "md_parent_section": "§CE.2 [Example 2]", "md_verbatim": "**Row 3:** Shows a record for the prespecified clinical event, vomit.", "score": 0.5238, "match_basis": "verbatim_token+domain_route:CE"}, {"md_atom_id": "md_dmCE_ex_a033", "md_file": "knowledge_base/domains/CE/examples.md", "md_atom_type": "SENTENCE", "md_parent_section": "§CE.2 [Example 2]", "md_verbatim": "**Rows 1-2:** Show records for 2 instances of the prespecified clinical event, nausea.", "score": 0.5183, "match_basis": "verbatim_token+domain_route:CE"}, {"md_atom_id": "md_dmCE_ex_a040", "md_file": "knowledge_base/domains/CE/examples.md", "md_atom_type": "SENTENCE", "md_parent_section": "§CE.2 [Example 2]", "md_verbatim": "**Row 4:** Shows a record for the prespecified clinical event, diarrhea.", "score": 0.5182, "match_basis": "verbatim_token+domain_route:CE"}, {"md_atom_id": "md_dmCE_ex_a027", "md_file": "knowledge_base/domains/CE/examples.md", "md_atom_type": "SENTENCE", "md_parent_section": "§CE.2 [Example 2]", "md_verbatim": "**CRF: CE Example 2 — Clinical Events with Severity**", "score": 0.5179, "match_basis": "verbatim_token+domain_route:CE"}], "candidate_count": 5, "zero_candidate": false}
{"pdf_atom_id": "ig34_p0148_a016", "pdf_atom_type": "HEADING", "pdf_source": "SDTMIG_v3.4", "pdf_page": 148, "pdf_parent_section": "§6.2.3 [Clinical Events (CE)]", "pdf_verbatim": "CE – Specification", "figure_ref": null, "candidates": [{"md_atom_id": "md_dmCE_assn_a001", "md_file": "knowledge_base/domains/CE/assumptions.md", "md_atom_type": "HEADING", "md_parent_section": "§CE [CE — Assumptions]", "md_verbatim": "# CE — Assumptions", "score": 0.4667, "match_basis": "verbatim_token+domain_route:CE"}, {"md_atom_id": "md_dmCE_ex_a001", "md_file": "knowledge_base/domains/CE/examples.md", "md_atom_type": "HEADING", "md_parent_section": "§CE [CE — Examples]", "md_verbatim": "# CE — Examples", "score": 0.4, "match_basis": "verbatim_token+domain_route:CE"}, {"md_atom_id": "md_dmCE_ex_a002", "md_file": "knowledge_base/domains/CE/examples.md", "md_atom_type": "HEADING", "md_parent_section": "§CE.1 [Example 1]", "md_verbatim": "## Example 1", "score": 0.4, "match_basis": "verbatim_token+domain_route:CE"}, {"md_atom_id": "md_dmCE_ex_a021", "md_file": "knowledge_base/domains/CE/examples.md", "md_atom_type": "HEADING", "md_parent_section": "§CE.2 [Example 2]", "md_verbatim": "## Example 2", "score": 0.4, "match_basis": "verbatim_token+domain_route:CE"}, {"md_atom_id": "md_dmCE_ex_a053", "md_file": "knowledge_base/domains/CE/examples.md", "md_atom_type": "HEADING", "md_parent_section": "§CE.3 [Example 3]", "md_verbatim": "## Example 3", "score": 0.4, "match_basis": "verbatim_token+domain_route:CE"}], "candidate_count": 5, "zero_candidate": false}
{"pdf_atom_id": "ig34_p0148_a017", "pdf_atom_type": "SENTENCE", "pdf_source": "SDTMIG_v3.4", "pdf_page": 148, "pdf_parent_section": "§6.2.3 [Clinical Events (CE)]", "pdf_verbatim": "ce.xpt, Clinical Events — Events. One record per event per subject, Tabulation.", "figure_ref": null, "candidates": [{"md_atom_id": "md_dmCE_ex_a037", "md_file": "knowledge_base/domains/CE/examples.md", "md_atom_type": "SENTENCE", "md_parent_section": "§CE.2 [Example 2]", "md_verbatim": "**Row 3:** Shows a record for the prespecified clinical event, vomit.", "score": 0.5592, "match_basis": "verbatim_token+domain_route:CE"}, {"md_atom_id": "md_dmCE_ex_a043", "md_file": "knowledge_base/domains/CE/examples.md", "md_atom_type": "SENTENCE", "md_parent_section": "§CE.2 [Example 2]", "md_verbatim": "**Row 5:** Shows a record for a write-in clinical event recorded in the \"Other, Specify\" space.", "score": 0.5529, "match_basis": "verbatim_token+domain_route:CE"}, {"md_atom_id": "md_dmCE_ex_a040", "md_file": "knowledge_base/domains/CE/examples.md", "md_atom_type": "SENTENCE", "md_parent_section": "§CE.2 [Example 2]", "md_verbatim": "**Row 4:** Shows a record for the prespecified clinical event, diarrhea.", "score": 0.55, "match_basis": "verbatim_token+domain_route:CE"}, {"md_atom_id": "md_dmCE_ex_a027", "md_file": "knowledge_base/domains/CE/examples.md", "md_atom_type": "SENTENCE", "md_parent_section": "§CE.2 [Example 2]", "md_verbatim": "**CRF: CE Example 2 — Clinical Events with Severity**", "score": 0.5395, "match_basis": "verbatim_token+domain_route:CE"}, {"md_atom_id": "md_dmCE_ex_a033", "md_file": "knowledge_base/domains/CE/examples.md", "md_atom_type": "SENTENCE", "md_parent_section": "§CE.2 [Example 2]", "md_verbatim": "**Rows 1-2:** Show records for 2 instances of the prespecified clinical event, nausea.", "score": 0.5345, "match_basis": "verbatim_token+domain_route:CE"}], "candidate_count": 5, "zero_candidate": false}
{"pdf_atom_id": "ig34_p0148_a018", "pdf_atom_type": "CODE_LITERAL", "pdf_source": "SDTMIG_v3.4", "pdf_page": 148, "pdf_parent_section": "§6.2.3 [Clinical Events (CE)]", "pdf_verbatim": "ce.xpt", "figure_ref": null, "candidates": [{"md_atom_id": "md_dmCE_ex_a015", "md_file": "knowledge_base/domains/CE/examples.md", "md_atom_type": "SENTENCE", "md_parent_section": "§CE.1 [Example 1]", "md_verbatim": "**ce.xpt**", "score": 0.79, "match_basis": "verbatim_token+domain_route:CE"}, {"md_atom_id": "md_dmCE_ex_a046", "md_file": "knowledge_base/domains/CE/examples.md", "md_atom_type": "SENTENCE", "md_parent_section": "§CE.2 [Example 2]", "md_verbatim": "**ce.xpt**", "score": 0.79, "match_basis": "verbatim_token+domain_route:CE"}, {"md_atom_id": "md_dmCE_ex_a078", "md_file": "knowledge_base/domains/CE/examples.md", "md_atom_type": "SENTENCE", "md_parent_section": "§CE.3 [Example 3]", "md_verbatim": "**mh.xpt**", "score": 0.79, "match_basis": "verbatim_token+domain_route:CE"}, {"md_atom_id": "md_dmCE_ex_a092", "md_file": "knowledge_base/domains/CE/examples.md", "md_atom_type": "SENTENCE", "md_parent_section": "§CE.3 [Example 3]", "md_verbatim": "**ce.xpt**", "score": 0.79, "match_basis": "verbatim_token+domain_route:CE"}, {"md_atom_id": "md_dmCE_ex_a112", "md_file": "knowledge_base/domains/CE/examples.md", "md_atom_type": "SENTENCE", "md_parent_section": "§CE.3 [Example 3]", "md_verbatim": "**pr.xpt**", "score": 0.79, "match_basis": "verbatim_token+domain_route:CE"}, {"md_atom_id": "md_dmCE_ex_a083", "md_file": "knowledge_base/domains/CE/examples.md", "md_atom_type": "SENTENCE", "md_parent_section": "§CE.3 [Example 3]", "md_verbatim": "**suppmh.xpt**", "score": 0.31, "match_basis": "verbatim_token+domain_route:CE"}, {"md_atom_id": "md_dmCE_ex_a098", "md_file": "knowledge_base/domains/CE/examples.md", "md_atom_type": "SENTENCE", "md_parent_section": "§CE.3 [Example 3]", "md_verbatim": "**suppce.xpt**", "score": 0.31, "match_basis": "verbatim_token+domain_route:CE"}, {"md_atom_id": "md_dmCE_ex_a121", "md_file": "knowledge_base/domains/CE/examples.md", "md_atom_type": "SENTENCE", "md_parent_section": "§CE.3 [Example 3]", "md_verbatim": "**relrec.xpt**", "score": 0.31, "match_basis": "verbatim_token+domain_route:CE"}, {"md_atom_id": "md_dmCE_ex_a075", "md_file": "knowledge_base/domains/CE/examples.md", "md_atom_type": "SENTENCE", "md_parent_section": "§CE.3 [Example 3]", "md_verbatim": "**Row 2:** This subject had a complication (see supplemental qualifier MHCPLIND in suppmh.xpt dataset), which was represented as a separate medical history event.", "score": 0.1977, "match_basis": "verbatim_token+domain_route:CE"}, {"md_atom_id": "md_dmCE_assn_a001", "md_file": "knowledge_base/domains/CE/assumptions.md", "md_atom_type": "HEADING", "md_parent_section": "§CE [CE — Assumptions]", "md_verbatim": "# CE — Assumptions", "score": 0.19, "match_basis": "verbatim_token+domain_route:CE"}], "candidate_count": 10, "zero_candidate": false}
{"pdf_atom_id": "ig34_p0148_a019", "pdf_atom_type": "TABLE_HEADER", "pdf_source": "SDTMIG_v3.4", "pdf_page": 148, "pdf_parent_section": "§6.2.3 [Clinical Events (CE)]", "pdf_verbatim": "| Variable Name | Variable Label | Type | Controlled Terms, Codelist or Format1 | Role | CDISC Notes | Core |", "figure_ref": null, "candidates": [{"md_atom_id": "md_dmCE_ex_a084", "md_file": "knowledge_base/domains/CE/examples.md", "md_atom_type": "TABLE_HEADER", "md_parent_section": "§CE.3 [Example 3]", "md_verbatim": "| Row | STUDYID | RDOMAIN | USUBJID | IDVAR | IDVARVAL | QNAM | QLABEL | QVAL | QORIG | QEVAL |\n|-----|---------|---------|---------|-------|----------|------|--------|------|-------|-------|", "score": 0.4411, "match_basis": "verbatim_token+domain_route:CE"}, {"md_atom_id": "md_dmCE_ex_a099", "md_file": "knowledge_base/domains/CE/examples.md", "md_atom_type": "TABLE_HEADER", "md_parent_section": "§CE.3 [Example 3]", "md_verbatim": "| Row | STUDYID | RDOMAIN | USUBJID | IDVAR | IDVARVAL | QNAM | QLABEL | QVAL | QORIG | QEVAL |\n|-----|---------|---------|---------|-------|----------|------|--------|------|-------|-------|", "score": 0.4411, "match_basis": "verbatim_token+domain_route:CE"}, {"md_atom_id": "md_dmCE_ex_a122", "md_file": "knowledge_base/domains/CE/examples.md", "md_atom_type": "TABLE_HEADER", "md_parent_section": "§CE.3 [Example 3]", "md_verbatim": "| Row | STUDYID | RDOMAIN | USUBJID | IDVAR | IDVARVAL | RELTYPE | RELID |\n|-----|---------|---------|---------|-------|----------|---------|-------|", "score": 0.4348, "match_basis": "verbatim_token+domain_route:CE"}, {"md_atom_id": "md_dmCE_ex_a093", "md_file": "knowledge_base/domains/CE/examples.md", "md_atom_type": "TABLE_HEADER", "md_parent_section": "§CE.3 [Example 3]", "md_verbatim": "| Row | STUDYID | DOMAIN | USUBJID | CESEQ | CEGRPID | CESPID | CETERM | CECAT | CESCAT | CEPRESP | CEOCCUR | CELOC | CELAT | CECONTRT | CEDTC | CESTDTC |\n|-----|---------|--------|---------|-------|---------|--------|--------|-------|--------|---------|---------|-------|-------|----------|-------|---------|", "score": 0.4306, "match_basis": "verbatim_token+domain_route:CE"}, {"md_atom_id": "md_dmCE_ex_a079", "md_file": "knowledge_base/domains/CE/examples.md", "md_atom_type": "TABLE_HEADER", "md_parent_section": "§CE.3 [Example 3]", "md_verbatim": "| Row | STUDYID | DOMAIN | USUBJID | MHSEQ | MHGRPID | MHSPID | MHTERM | MHCAT | MHSCAT | MHPRESP | MHOCCUR | MHLOC | MHLAT | MHCONTRT | MHDTC | MHSTDTC | MHEVLINT |\n|-----|---------|--------|---------|-------|---------|--------|--------|-------|--------|---------|---------|-------|-------|----------|-------|---------|----------|", "score": 0.4286, "match_basis": "verbatim_token+domain_route:CE"}], "candidate_count": 5, "zero_candidate": false}
{"pdf_atom_id": "ig34_p0148_a020", "pdf_atom_type": "TABLE_ROW", "pdf_source": "SDTMIG_v3.4", "pdf_page": 148, "pdf_parent_section": "§6.2.3 [Clinical Events (CE)]", "pdf_verbatim": "| STUDYID | Study Identifier | Char | | Identifier | Unique identifier for a study. | Req |", "figure_ref": null, "candidates": [{"md_atom_id": "md_dmCE_assn_a010", "md_file": "knowledge_base/domains/CE/assumptions.md", "md_atom_type": "TABLE_ROW", "md_parent_section": "§CE [CE — Assumptions]", "md_verbatim": "   | Prespecified event did not occur | Y | N | |", "score": 0.45, "match_basis": "verbatim_token+domain_route:CE"}, {"md_atom_id": "md_dmCE_assn_a009", "md_file": "knowledge_base/domains/CE/assumptions.md", "md_atom_type": "TABLE_ROW", "md_parent_section": "§CE [CE — Assumptions]", "md_verbatim": "   | Prespecified event occurred | Y | Y | |", "score": 0.4486, "match_basis": "verbatim_token+domain_route:CE"}, {"md_atom_id": "md_dmCE_assn_a011", "md_file": "knowledge_base/domains/CE/assumptions.md", "md_atom_type": "TABLE_ROW", "md_parent_section": "§CE [CE — Assumptions]", "md_verbatim": "   | Prespecified event has no response | Y | | NOT DONE |", "score": 0.4462, "match_basis": "verbatim_token+domain_route:CE"}, {"md_atom_id": "md_dmCE_ex_a058", "md_file": "knowledge_base/domains/CE/examples.md", "md_atom_type": "TABLE_ROW", "md_parent_section": "§CE.3 [Example 3]", "md_verbatim": "| Which fracture? | ( ) Pre-study fracture, reference number ___  ( ) On-study fracture, reference number ___ |", "score": 0.4429, "match_basis": "verbatim_token+domain_route:CE"}, {"md_atom_id": "md_dmCE_ex_a100", "md_file": "knowledge_base/domains/CE/examples.md", "md_atom_type": "TABLE_ROW", "md_parent_section": "§CE.3 [Example 3]", "md_verbatim": "| 1 | ABC | CE | 001-001 | CESEQ | 1 | CECAUSE | Cause of Event | FALL | CRF | |", "score": 0.4167, "match_basis": "verbatim_token+domain_route:CE"}], "candidate_count": 5, "zero_candidate": false}
{"pdf_atom_id": "ig34_p0148_a021", "pdf_atom_type": "TABLE_ROW", "pdf_source": "SDTMIG_v3.4", "pdf_page": 148, "pdf_parent_section": "§6.2.3 [Clinical Events (CE)]", "pdf_verbatim": "| DOMAIN | Domain Abbreviation | Char | CE | Identifier | Two-character abbreviation for the domain. | Req |", "figure_ref": null, "candidates": [{"md_atom_id": "md_dmCE_ex_a062", "md_file": "knowledge_base/domains/CE/examples.md", "md_atom_type": "TABLE_ROW", "md_parent_section": "§CE.3 [Example 3]", "md_verbatim": "| What was the location of the fracture? | ___ |", "score": 0.4837, "match_basis": "verbatim_token+domain_route:CE"}, {"md_atom_id": "md_dmCE_ex_a066", "md_file": "knowledge_base/domains/CE/examples.md", "md_atom_type": "TABLE_ROW", "md_parent_section": "§CE.3 [Example 3]", "md_verbatim": "| Were there any complications of the fracture? | ( ) Yes  ( ) No  ( ) Unknown |", "score": 0.4655, "match_basis": "verbatim_token+domain_route:CE"}, {"md_atom_id": "md_dmCE_ex_a116", "md_file": "knowledge_base/domains/CE/examples.md", "md_atom_type": "TABLE_ROW", "md_parent_section": "§CE.3 [Example 3]", "md_verbatim": "| 3 | ABC | PR | ABC-US-701-002 | 3 | CE1 | Traction | FRACTURE TREATMENTS | Y | Y | 2006-07-09 | |", "score": 0.4577, "match_basis": "verbatim_token+domain_route:CE"}, {"md_atom_id": "md_dmCE_ex_a114", "md_file": "knowledge_base/domains/CE/examples.md", "md_atom_type": "TABLE_ROW", "md_parent_section": "§CE.3 [Example 3]", "md_verbatim": "| 1 | ABC | PR | ABC-US-701-002 | 1 | MH1 | Casting/Immobilization | FRACTURE TREATMENTS | Y | Y | 2006-05-13 | |", "score": 0.4562, "match_basis": "verbatim_token+domain_route:CE"}, {"md_atom_id": "md_dmCE_ex_a096", "md_file": "knowledge_base/domains/CE/examples.md", "md_atom_type": "TABLE_ROW", "md_parent_section": "§CE.3 [Example 3]", "md_verbatim": "| 3 | ABC | CE | ABC-US-701-002 | 3 | 1 | CE3 | Infection of fracture site | FRACTURE-RELATED EVENTS | COMPLICATIONS | Y | Y | | | | 2006-10-23 | |", "score": 0.4545, "match_basis": "verbatim_token+domain_route:CE"}], "candidate_count": 5, "zero_candidate": false}
{"pdf_atom_id": "ig34_p0148_a022", "pdf_atom_type": "TABLE_ROW", "pdf_source": "SDTMIG_v3.4", "pdf_page": 148, "pdf_parent_section": "§6.2.3 [Clinical Events (CE)]", "pdf_verbatim": "| USUBJID | Unique Subject Identifier | Char | | Identifier | Identifier used to uniquely identify a subject across all studies for all applications or submissions involving the product. | Req |", "figure_ref": null, "candidates": [{"md_atom_id": "md_dmCE_ex_a067", "md_file": "knowledge_base/domains/CE/examples.md", "md_atom_type": "TABLE_ROW", "md_parent_section": "§CE.3 [Example 3]", "md_verbatim": "| If there were complications, select all that apply. | [ ] Infection of fracture site  [ ] Improper healing requiring bone reset  [ ] Soft tissue damage, specify location ___ |", "score": 0.4857, "match_basis": "verbatim_token+domain_route:CE"}, {"md_atom_id": "md_dmCE_ex_a066", "md_file": "knowledge_base/domains/CE/examples.md", "md_atom_type": "TABLE_ROW", "md_parent_section": "§CE.3 [Example 3]", "md_verbatim": "| Were there any complications of the fracture? | ( ) Yes  ( ) No  ( ) Unknown |", "score": 0.4621, "match_basis": "verbatim_token+domain_route:CE"}, {"md_atom_id": "md_dmCE_ex_a096", "md_file": "knowledge_base/domains/CE/examples.md", "md_atom_type": "TABLE_ROW", "md_parent_section": "§CE.3 [Example 3]", "md_verbatim": "| 3 | ABC | CE | ABC-US-701-002 | 3 | 1 | CE3 | Infection of fracture site | FRACTURE-RELATED EVENTS | COMPLICATIONS | Y | Y | | | | 2006-10-23 | |", "score": 0.4619, "match_basis": "verbatim_token+domain_route:CE"}, {"md_atom_id": "md_dmCE_ex_a081", "md_file": "knowledge_base/domains/CE/examples.md", "md_atom_type": "TABLE_ROW", "md_parent_section": "§CE.3 [Example 3]", "md_verbatim": "| 2 | ABC | MH | ABC-US-701-002 | 2 | 1 | | Soft Tissue Damage | FRACTURE-RELATED EVENTS | COMPLICATIONS | Y | Y | LUNG | | | 2006-05-13 | | |", "score": 0.4594, "match_basis": "verbatim_token+domain_route:CE"}, {"md_atom_id": "md_dmCE_ex_a086", "md_file": "knowledge_base/domains/CE/examples.md", "md_atom_type": "TABLE_ROW", "md_parent_section": "§CE.3 [Example 3]", "md_verbatim": "| 2 | ABC | MH | 001-001 | MHSEQ | 1 | MHCPLIND | Complications Indicator | Y | CRF | |", "score": 0.4558, "match_basis": "verbatim_token+domain_route:CE"}], "candidate_count": 5, "zero_candidate": false}
{"pdf_atom_id": "ig34_p0148_a023", "pdf_atom_type": "TABLE_ROW", "pdf_source": "SDTMIG_v3.4", "pdf_page": 148, "pdf_parent_section": "§6.2.3 [Clinical Events (CE)]", "pdf_verbatim": "| CESEQ | Sequence Number | Num | | Identifier | Sequence number given to ensure uniqueness of subject records within a domain. May be any valid number. | Req |", "figure_ref": null, "candidates": [{"md_atom_id": "md_dmCE_ex_a058", "md_file": "knowledge_base/domains/CE/examples.md", "md_atom_type": "TABLE_ROW", "md_parent_section": "§CE.3 [Example 3]", "md_verbatim": "| Which fracture? | ( ) Pre-study fracture, reference number ___  ( ) On-study fracture, reference number ___ |", "score": 0.4568, "match_basis": "verbatim_token+domain_route:CE"}, {"md_atom_id": "md_dmCE_ex_a100", "md_file": "knowledge_base/domains/CE/examples.md", "md_atom_type": "TABLE_ROW", "md_parent_section": "§CE.3 [Example 3]", "md_verbatim": "| 1 | ABC | CE | 001-001 | CESEQ | 1 | CECAUSE | Cause of Event | FALL | CRF | |", "score": 0.4441, "match_basis": "verbatim_token+domain_route:CE"}, {"md_atom_id": "md_dmCE_ex_a102", "md_file": "knowledge_base/domains/CE/examples.md", "md_atom_type": "TABLE_ROW", "md_parent_section": "§CE.3 [Example 3]", "md_verbatim": "| 3 | ABC | CE | 001-001 | CESEQ | 2 | CECAUSE | Cause of Event | OTHER TRAUMA | CRF | |", "score": 0.4411, "match_basis": "verbatim_token+domain_route:CE"}, {"md_atom_id": "md_dmCE_assn_a010", "md_file": "knowledge_base/domains/CE/assumptions.md", "md_atom_type": "TABLE_ROW", "md_parent_section": "§CE [CE — Assumptions]", "md_verbatim": "   | Prespecified event did not occur | Y | N | |", "score": 0.4338, "match_basis": "verbatim_token+domain_route:CE"}, {"md_atom_id": "md_dmCE_assn_a009", "md_file": "knowledge_base/domains/CE/assumptions.md", "md_atom_type": "TABLE_ROW", "md_parent_section": "§CE [CE — Assumptions]", "md_verbatim": "   | Prespecified event occurred | Y | Y | |", "score": 0.4333, "match_basis": "verbatim_token+domain_route:CE"}], "candidate_count": 5, "zero_candidate": false}
{"pdf_atom_id": "ig34_p0148_a024", "pdf_atom_type": "TABLE_ROW", "pdf_source": "SDTMIG_v3.4", "pdf_page": 148, "pdf_parent_section": "§6.2.3 [Clinical Events (CE)]", "pdf_verbatim": "| CEGRPID | Group ID | Char | | Identifier | Used to link together a block of related records for a subject within a domain. | Perm |", "figure_ref": null, "candidates": [{"md_atom_id": "md_dmCE_ex_a096", "md_file": "knowledge_base/domains/CE/examples.md", "md_atom_type": "TABLE_ROW", "md_parent_section": "§CE.3 [Example 3]", "md_verbatim": "| 3 | ABC | CE | ABC-US-701-002 | 3 | 1 | CE3 | Infection of fracture site | FRACTURE-RELATED EVENTS | COMPLICATIONS | Y | Y | | | | 2006-10-23 | |", "score": 0.4472, "match_basis": "verbatim_token+domain_route:CE"}, {"md_atom_id": "md_dmCE_ex_a080", "md_file": "knowledge_base/domains/CE/examples.md", "md_atom_type": "TABLE_ROW", "md_parent_section": "§CE.3 [Example 3]", "md_verbatim": "| 1 | ABC | MH | ABC-US-701-002 | 1 | 1 | MH1 | Fracture | FRACTURE-RELATED EVENTS | | Y | Y | RIB 3 | RIGHT | Y | 2006-05-13 | 2005-08-18 | -P5Y |", "score": 0.4462, "match_basis": "verbatim_token+domain_route:CE"}, {"md_atom_id": "md_dmCE_ex_a095", "md_file": "knowledge_base/domains/CE/examples.md", "md_atom_type": "TABLE_ROW", "md_parent_section": "§CE.3 [Example 3]", "md_verbatim": "| 2 | ABC | CE | ABC-US-701-002 | 2 | 1 | CE2 | Fracture | FRACTURE-RELATED EVENTS | | Y | Y | FIBULA | LEFT | N | 2006-10-23 | 2006-10-15 |", "score": 0.4462, "match_basis": "verbatim_token+domain_route:CE"}, {"md_atom_id": "md_dmCE_ex_a094", "md_file": "knowledge_base/domains/CE/examples.md", "md_atom_type": "TABLE_ROW", "md_parent_section": "§CE.3 [Example 3]", "md_verbatim": "| 1 | ABC | CE | ABC-US-701-002 | 1 | | CE1 | Fracture | FRACTURE-RELATED EVENTS | | Y | Y | HUMERUS | RIGHT | Y | 2006-07-09 | 2006-07-03 |", "score": 0.445, "match_basis": "verbatim_token+domain_route:CE"}, {"md_atom_id": "md_dmCE_ex_a081", "md_file": "knowledge_base/domains/CE/examples.md", "md_atom_type": "TABLE_ROW", "md_parent_section": "§CE.3 [Example 3]", "md_verbatim": "| 2 | ABC | MH | ABC-US-701-002 | 2 | 1 | | Soft Tissue Damage | FRACTURE-RELATED EVENTS | COMPLICATIONS | Y | Y | LUNG | | | 2006-05-13 | | |", "score": 0.4383, "match_basis": "verbatim_token+domain_route:CE"}], "candidate_count": 5, "zero_candidate": false}
{"pdf_atom_id": "ig34_p0148_a025", "pdf_atom_type": "TABLE_ROW", "pdf_source": "SDTMIG_v3.4", "pdf_page": 148, "pdf_parent_section": "§6.2.3 [Clinical Events (CE)]", "pdf_verbatim": "| CEREFID | Reference ID | Char | | Identifier | Internal or external identifier (e.g., lab specimen ID, UUID for an ECG waveform or medical image). | Perm |", "figure_ref": null, "candidates": [{"md_atom_id": "md_dmCE_ex_a058", "md_file": "knowledge_base/domains/CE/examples.md", "md_atom_type": "TABLE_ROW", "md_parent_section": "§CE.3 [Example 3]", "md_verbatim": "| Which fracture? | ( ) Pre-study fracture, reference number ___  ( ) On-study fracture, reference number ___ |", "score": 0.4592, "match_basis": "verbatim_token+domain_route:CE"}, {"md_atom_id": "md_dmCE_assn_a010", "md_file": "knowledge_base/domains/CE/assumptions.md", "md_atom_type": "TABLE_ROW", "md_parent_section": "§CE [CE — Assumptions]", "md_verbatim": "   | Prespecified event did not occur | Y | N | |", "score": 0.4545, "match_basis": "verbatim_token+domain_route:CE"}, {"md_atom_id": "md_dmCE_assn_a009", "md_file": "knowledge_base/domains/CE/assumptions.md", "md_atom_type": "TABLE_ROW", "md_parent_section": "§CE [CE — Assumptions]", "md_verbatim": "   | Prespecified event occurred | Y | Y | |", "score": 0.4537, "match_basis": "verbatim_token+domain_route:CE"}, {"md_atom_id": "md_dmCE_assn_a011", "md_file": "knowledge_base/domains/CE/assumptions.md", "md_atom_type": "TABLE_ROW", "md_parent_section": "§CE [CE — Assumptions]", "md_verbatim": "   | Prespecified event has no response | Y | | NOT DONE |", "score": 0.4522, "match_basis": "verbatim_token+domain_route:CE"}, {"md_atom_id": "md_dmCE_ex_a067", "md_file": "knowledge_base/domains/CE/examples.md", "md_atom_type": "TABLE_ROW", "md_parent_section": "§CE.3 [Example 3]", "md_verbatim": "| If there were complications, select all that apply. | [ ] Infection of fracture site  [ ] Improper healing requiring bone reset  [ ] Soft tissue damage, specify location ___ |", "score": 0.4393, "match_basis": "verbatim_token+domain_route:CE"}], "candidate_count": 5, "zero_candidate": false}
{"pdf_atom_id": "ig34_p0148_a026", "pdf_atom_type": "TABLE_ROW", "pdf_source": "SDTMIG_v3.4", "pdf_page": 148, "pdf_parent_section": "§6.2.3 [Clinical Events (CE)]", "pdf_verbatim": "| CESPID | Sponsor-Defined Identifier | Char | | Identifier | Sponsor-defined identifier. | Perm |", "figure_ref": null, "candidates": [{"md_atom_id": "md_dmCE_assn_a011", "md_file": "knowledge_base/domains/CE/assumptions.md", "md_atom_type": "TABLE_ROW", "md_parent_section": "§CE [CE — Assumptions]", "md_verbatim": "   | Prespecified event has no response | Y | | NOT DONE |", "score": 0.505, "match_basis": "verbatim_token+domain_route:CE"}, {"md_atom_id": "md_dmCE_ex_a125", "md_file": "knowledge_base/domains/CE/examples.md", "md_atom_type": "TABLE_ROW", "md_parent_section": "§CE.3 [Example 3]", "md_verbatim": "| 3 | ABC | CE | | CESPID | | ONE | 2 |", "score": 0.4857, "match_basis": "verbatim_token+domain_route:CE"}, {"md_atom_id": "md_dmCE_assn_a010", "md_file": "knowledge_base/domains/CE/assumptions.md", "md_atom_type": "TABLE_ROW", "md_parent_section": "§CE [CE — Assumptions]", "md_verbatim": "   | Prespecified event did not occur | Y | N | |", "score": 0.46, "match_basis": "verbatim_token+domain_route:CE"}, {"md_atom_id": "md_dmCE_assn_a009", "md_file": "knowledge_base/domains/CE/assumptions.md", "md_atom_type": "TABLE_ROW", "md_parent_section": "§CE [CE — Assumptions]", "md_verbatim": "   | Prespecified event occurred | Y | Y | |", "score": 0.4585, "match_basis": "verbatim_token+domain_route:CE"}, {"md_atom_id": "md_dmCE_ex_a123", "md_file": "knowledge_base/domains/CE/examples.md", "md_atom_type": "TABLE_ROW", "md_parent_section": "§CE.3 [Example 3]", "md_verbatim": "| 1 | ABC | MH | | MHSPID | | ONE | 1 |", "score": 0.44, "match_basis": "verbatim_token+domain_route:CE"}], "candidate_count": 5, "zero_candidate": false}
{"pdf_atom_id": "ig34_p0148_a027", "pdf_atom_type": "TABLE_ROW", "pdf_source": "SDTMIG_v3.4", "pdf_page": 148, "pdf_parent_section": "§6.2.3 [Clinical Events (CE)]", "pdf_verbatim": "| CETERM | Reported Term for the Clinical Event | Char | | Topic | Term for the medical condition or event. Most likely preprinted on CRF. | Req |", "figure_ref": null, "candidates": [{"md_atom_id": "md_dmCE_assn_a008", "md_file": "knowledge_base/domains/CE/assumptions.md", "md_atom_type": "TABLE_ROW", "md_parent_section": "§CE [CE — Assumptions]", "md_verbatim": "   | Spontaneously reported event occurrence | | | |", "score": 0.4783, "match_basis": "verbatim_token+domain_route:CE"}, {"md_atom_id": "md_dmCE_ex_a086", "md_file": "knowledge_base/domains/CE/examples.md", "md_atom_type": "TABLE_ROW", "md_parent_section": "§CE.3 [Example 3]", "md_verbatim": "| 2 | ABC | MH | 001-001 | MHSEQ | 1 | MHCPLIND | Complications Indicator | Y | CRF | |", "score": 0.4609, "match_basis": "verbatim_token+domain_route:CE"}, {"md_atom_id": "md_dmCE_ex_a101", "md_file": "knowledge_base/domains/CE/examples.md", "md_atom_type": "TABLE_ROW", "md_parent_section": "§CE.3 [Example 3]", "md_verbatim": "| 2 | ABC | CE | 001-001 | CESEQ | 1 | CECPLIND | Complications Indicator | N | CRF | |", "score": 0.4609, "match_basis": "verbatim_token+domain_route:CE"}, {"md_atom_id": "md_dmCE_ex_a103", "md_file": "knowledge_base/domains/CE/examples.md", "md_atom_type": "TABLE_ROW", "md_parent_section": "§CE.3 [Example 3]", "md_verbatim": "| 4 | ABC | CE | 001-001 | CESEQ | 2 | CECPLIND | Complications Indicator | Y | CRF | |", "score": 0.4609, "match_basis": "verbatim_token+domain_route:CE"}, {"md_atom_id": "md_dmCE_ex_a096", "md_file": "knowledge_base/domains/CE/examples.md", "md_atom_type": "TABLE_ROW", "md_parent_section": "§CE.3 [Example 3]", "md_verbatim": "| 3 | ABC | CE | ABC-US-701-002 | 3 | 1 | CE3 | Infection of fracture site | FRACTURE-RELATED EVENTS | COMPLICATIONS | Y | Y | | | | 2006-10-23 | |", "score": 0.4512, "match_basis": "verbatim_token+domain_route:CE"}], "candidate_count": 5, "zero_candidate": false}
{"pdf_atom_id": "ig34_p0148_a028", "pdf_atom_type": "TABLE_ROW", "pdf_source": "SDTMIG_v3.4", "pdf_page": 148, "pdf_parent_section": "§6.2.3 [Clinical Events (CE)]", "pdf_verbatim": "| CEDECOD | Dictionary-Derived Term | Char | * | Synonym Qualifier | Controlled terminology for the name of the clinical event. The sponsor is expected to provide the dictionary name and version used to map the terms utilizing the external codelist element in the Define-XML document. | Perm |", "figure_ref": null, "candidates": [{"md_atom_id": "md_dmCE_ex_a067", "md_file": "knowledge_base/domains/CE/examples.md", "md_atom_type": "TABLE_ROW", "md_parent_section": "§CE.3 [Example 3]", "md_verbatim": "| If there were complications, select all that apply. | [ ] Infection of fracture site  [ ] Improper healing requiring bone reset  [ ] Soft tissue damage, specify location ___ |", "score": 0.4467, "match_basis": "verbatim_token+domain_route:CE"}, {"md_atom_id": "md_dmCE_assn_a011", "md_file": "knowledge_base/domains/CE/assumptions.md", "md_atom_type": "TABLE_ROW", "md_parent_section": "§CE [CE — Assumptions]", "md_verbatim": "   | Prespecified event has no response | Y | | NOT DONE |", "score": 0.4415, "match_basis": "verbatim_token+domain_route:CE"}, {"md_atom_id": "md_dmCE_ex_a096", "md_file": "knowledge_base/domains/CE/examples.md", "md_atom_type": "TABLE_ROW", "md_parent_section": "§CE.3 [Example 3]", "md_verbatim": "| 3 | ABC | CE | ABC-US-701-002 | 3 | 1 | CE3 | Infection of fracture site | FRACTURE-RELATED EVENTS | COMPLICATIONS | Y | Y | | | | 2006-10-23 | |", "score": 0.4408, "match_basis": "verbatim_token+domain_route:CE"}, {"md_atom_id": "md_dmCE_ex_a065", "md_file": "knowledge_base/domains/CE/examples.md", "md_atom_type": "TABLE_ROW", "md_parent_section": "§CE.3 [Example 3]", "md_verbatim": "| If therapeutic measures were required, select all that apply. | [ ] Casting/immobilization  [ ] Traction  [ ] Surgery |", "score": 0.4361, "match_basis": "verbatim_token+domain_route:CE"}, {"md_atom_id": "md_dmCE_ex_a081", "md_file": "knowledge_base/domains/CE/examples.md", "md_atom_type": "TABLE_ROW", "md_parent_section": "§CE.3 [Example 3]", "md_verbatim": "| 2 | ABC | MH | ABC-US-701-002 | 2 | 1 | | Soft Tissue Damage | FRACTURE-RELATED EVENTS | COMPLICATIONS | Y | Y | LUNG | | | 2006-05-13 | | |", "score": 0.4314, "match_basis": "verbatim_token+domain_route:CE"}], "candidate_count": 5, "zero_candidate": false}
{"pdf_atom_id": "ig34_p0148_a029", "pdf_atom_type": "TABLE_ROW", "pdf_source": "SDTMIG_v3.4", "pdf_page": 148, "pdf_parent_section": "§6.2.3 [Clinical Events (CE)]", "pdf_verbatim": "| CECAT | Category for the Clinical Event | Char | * | Grouping Qualifier | Used to define a category of related records. | Perm |", "figure_ref": null, "candidates": [{"md_atom_id": "md_dmCE_ex_a096", "md_file": "knowledge_base/domains/CE/examples.md", "md_atom_type": "TABLE_ROW", "md_parent_section": "§CE.3 [Example 3]", "md_verbatim": "| 3 | ABC | CE | ABC-US-701-002 | 3 | 1 | CE3 | Infection of fracture site | FRACTURE-RELATED EVENTS | COMPLICATIONS | Y | Y | | | | 2006-10-23 | |", "score": 0.475, "match_basis": "verbatim_token+domain_route:CE"}, {"md_atom_id": "md_dmCE_ex_a081", "md_file": "knowledge_base/domains/CE/examples.md", "md_atom_type": "TABLE_ROW", "md_parent_section": "§CE.3 [Example 3]", "md_verbatim": "| 2 | ABC | MH | ABC-US-701-002 | 2 | 1 | | Soft Tissue Damage | FRACTURE-RELATED EVENTS | COMPLICATIONS | Y | Y | LUNG | | | 2006-05-13 | | |", "score": 0.4714, "match_basis": "verbatim_token+domain_route:CE"}, {"md_atom_id": "md_dmCE_ex_a080", "md_file": "knowledge_base/domains/CE/examples.md", "md_atom_type": "TABLE_ROW", "md_parent_section": "§CE.3 [Example 3]", "md_verbatim": "| 1 | ABC | MH | ABC-US-701-002 | 1 | 1 | MH1 | Fracture | FRACTURE-RELATED EVENTS | | Y | Y | RIB 3 | RIGHT | Y | 2006-05-13 | 2005-08-18 | -P5Y |", "score": 0.4686, "match_basis": "verbatim_token+domain_route:CE"}, {"md_atom_id": "md_dmCE_ex_a095", "md_file": "knowledge_base/domains/CE/examples.md", "md_atom_type": "TABLE_ROW", "md_parent_section": "§CE.3 [Example 3]", "md_verbatim": "| 2 | ABC | CE | ABC-US-701-002 | 2 | 1 | CE2 | Fracture | FRACTURE-RELATED EVENTS | | Y | Y | FIBULA | LEFT | N | 2006-10-23 | 2006-10-15 |", "score": 0.4686, "match_basis": "verbatim_token+domain_route:CE"}, {"md_atom_id": "md_dmCE_ex_a094", "md_file": "knowledge_base/domains/CE/examples.md", "md_atom_type": "TABLE_ROW", "md_parent_section": "§CE.3 [Example 3]", "md_verbatim": "| 1 | ABC | CE | ABC-US-701-002 | 1 | | CE1 | Fracture | FRACTURE-RELATED EVENTS | | Y | Y | HUMERUS | RIGHT | Y | 2006-07-09 | 2006-07-03 |", "score": 0.4667, "match_basis": "verbatim_token+domain_route:CE"}], "candidate_count": 5, "zero_candidate": false}
{"pdf_atom_id": "ig34_p0149_a001", "pdf_atom_type": "TABLE_ROW", "pdf_source": "SDTMIG_v3.4", "pdf_page": 149, "pdf_parent_section": "§6.2.3 [Clinical Events (CE)]", "pdf_verbatim": "| CESCAT | Subcategory for the Clinical Event | Char | * | Grouping Qualifier | A further categorization of the condition or event. | Perm |", "figure_ref": null, "candidates": [{"md_atom_id": "md_dmCE_ex_a101", "md_file": "knowledge_base/domains/CE/examples.md", "md_atom_type": "TABLE_ROW", "md_parent_section": "§CE.3 [Example 3]", "md_verbatim": "| 2 | ABC | CE | 001-001 | CESEQ | 1 | CECPLIND | Complications Indicator | N | CRF | |", "score": 0.4649, "match_basis": "verbatim_token+domain_route:CE"}, {"md_atom_id": "md_dmCE_ex_a103", "md_file": "knowledge_base/domains/CE/examples.md", "md_atom_type": "TABLE_ROW", "md_parent_section": "§CE.3 [Example 3]", "md_verbatim": "| 4 | ABC | CE | 001-001 | CESEQ | 2 | CECPLIND | Complications Indicator | Y | CRF | |", "score": 0.4649, "match_basis": "verbatim_token+domain_route:CE"}, {"md_atom_id": "md_dmCE_ex_a096", "md_file": "knowledge_base/domains/CE/examples.md", "md_atom_type": "TABLE_ROW", "md_parent_section": "§CE.3 [Example 3]", "md_verbatim": "| 3 | ABC | CE | ABC-US-701-002 | 3 | 1 | CE3 | Infection of fracture site | FRACTURE-RELATED EVENTS | COMPLICATIONS | Y | Y | | | | 2006-10-23 | |", "score": 0.4628, "match_basis": "verbatim_token+domain_route:CE"}, {"md_atom_id": "md_dmCE_ex_a081", "md_file": "knowledge_base/domains/CE/examples.md", "md_atom_type": "TABLE_ROW", "md_parent_section": "§CE.3 [Example 3]", "md_verbatim": "| 2 | ABC | MH | ABC-US-701-002 | 2 | 1 | | Soft Tissue Damage | FRACTURE-RELATED EVENTS | COMPLICATIONS | Y | Y | LUNG | | | 2006-05-13 | | |", "score": 0.46, "match_basis": "verbatim_token+domain_route:CE"}, {"md_atom_id": "md_dmCE_ex_a086", "md_file": "knowledge_base/domains/CE/examples.md", "md_atom_type": "TABLE_ROW", "md_parent_section": "§CE.3 [Example 3]", "md_verbatim": "| 2 | ABC | MH | 001-001 | MHSEQ | 1 | MHCPLIND | Complications Indicator | Y | CRF | |", "score": 0.456, "match_basis": "verbatim_token+domain_route:CE"}], "candidate_count": 5, "zero_candidate": false}
{"pdf_atom_id": "ig34_p0149_a002", "pdf_atom_type": "TABLE_ROW", "pdf_source": "SDTMIG_v3.4", "pdf_page": 149, "pdf_parent_section": "§6.2.3 [Clinical Events (CE)]", "pdf_verbatim": "| CEPRESP | Clinical Event Pre-specified | Char | (NY) | Variable Qualifier | Used to indicate whether the event in CETERM was prespecified. Value is \"Y\" for prespecified events and null for spontaneously reported events. | Perm |", "figure_ref": null, "candidates": [{"md_atom_id": "md_dmCE_assn_a008", "md_file": "knowledge_base/domains/CE/assumptions.md", "md_atom_type": "TABLE_ROW", "md_parent_section": "§CE [CE — Assumptions]", "md_verbatim": "   | Spontaneously reported event occurrence | | | |", "score": 0.5412, "match_basis": "verbatim_token+domain_route:CE"}, {"md_atom_id": "md_dmCE_assn_a011", "md_file": "knowledge_base/domains/CE/assumptions.md", "md_atom_type": "TABLE_ROW", "md_parent_section": "§CE [CE — Assumptions]", "md_verbatim": "   | Prespecified event has no response | Y | | NOT DONE |", "score": 0.5084, "match_basis": "verbatim_token+domain_route:CE"}, {"md_atom_id": "md_dmCE_assn_a010", "md_file": "knowledge_base/domains/CE/assumptions.md", "md_atom_type": "TABLE_ROW", "md_parent_section": "§CE [CE — Assumptions]", "md_verbatim": "   | Prespecified event did not occur | Y | N | |", "score": 0.4951, "match_basis": "verbatim_token+domain_route:CE"}, {"md_atom_id": "md_dmCE_assn_a009", "md_file": "knowledge_base/domains/CE/assumptions.md", "md_atom_type": "TABLE_ROW", "md_parent_section": "§CE [CE — Assumptions]", "md_verbatim": "   | Prespecified event occurred | Y | Y | |", "score": 0.494, "match_basis": "verbatim_token+domain_route:CE"}, {"md_atom_id": "md_dmCE_ex_a032", "md_file": "knowledge_base/domains/CE/examples.md", "md_atom_type": "TABLE_ROW", "md_parent_section": "§CE.2 [Example 2]", "md_verbatim": "| Other, Specify: ___ | | ___ / ___ / ___ (dd/mmm/yyyy) | ___ / ___ / ___ (dd/mmm/yyyy) | ( ) Mild  ( ) Moderate  ( ) Severe |", "score": 0.4527, "match_basis": "verbatim_token+domain_route:CE"}], "candidate_count": 5, "zero_candidate": false}
{"pdf_atom_id": "ig34_p0149_a003", "pdf_atom_type": "TABLE_ROW", "pdf_source": "SDTMIG_v3.4", "pdf_page": 149, "pdf_parent_section": "§6.2.3 [Clinical Events (CE)]", "pdf_verbatim": "| CEOCCUR | Clinical Event Occurrence | Char | (NY) | Qualifier | Used to specify whether or not a clinical event occurred. Values are null for spontaneously reported events. | Perm |", "figure_ref": null, "candidates": [{"md_atom_id": "md_dmCE_assn_a008", "md_file": "knowledge_base/domains/CE/assumptions.md", "md_atom_type": "TABLE_ROW", "md_parent_section": "§CE [CE — Assumptions]", "md_verbatim": "   | Spontaneously reported event occurrence | | | |", "score": 0.64, "match_basis": "verbatim_token+domain_route:CE"}, {"md_atom_id": "md_dmCE_assn_a009", "md_file": "knowledge_base/domains/CE/assumptions.md", "md_atom_type": "TABLE_ROW", "md_parent_section": "§CE [CE — Assumptions]", "md_verbatim": "   | Prespecified event occurred | Y | Y | |", "score": 0.5216, "match_basis": "verbatim_token+domain_route:CE"}, {"md_atom_id": "md_dmCE_assn_a010", "md_file": "knowledge_base/domains/CE/assumptions.md", "md_atom_type": "TABLE_ROW", "md_parent_section": "§CE [CE — Assumptions]", "md_verbatim": "   | Prespecified event did not occur | Y | N | |", "score": 0.504, "match_basis": "verbatim_token+domain_route:CE"}, {"md_atom_id": "md_dmCE_assn_a011", "md_file": "knowledge_base/domains/CE/assumptions.md", "md_atom_type": "TABLE_ROW", "md_parent_section": "§CE [CE — Assumptions]", "md_verbatim": "   | Prespecified event has no response | Y | | NOT DONE |", "score": 0.4911, "match_basis": "verbatim_token+domain_route:CE"}, {"md_atom_id": "md_dmCE_ex_a032", "md_file": "knowledge_base/domains/CE/examples.md", "md_atom_type": "TABLE_ROW", "md_parent_section": "§CE.2 [Example 2]", "md_verbatim": "| Other, Specify: ___ | | ___ / ___ / ___ (dd/mmm/yyyy) | ___ / ___ / ___ (dd/mmm/yyyy) | ( ) Mild  ( ) Moderate  ( ) Severe |", "score": 0.4571, "match_basis": "verbatim_token+domain_route:CE"}], "candidate_count": 5, "zero_candidate": false}
{"pdf_atom_id": "ig34_p0149_a004", "pdf_atom_type": "TABLE_ROW", "pdf_source": "SDTMIG_v3.4", "pdf_page": 149, "pdf_parent_section": "§6.2.3 [Clinical Events (CE)]", "pdf_verbatim": "| CESTAT | Completion Status | Char | | Record Qualifier | The status indicates that a question had a projected occurrence. Values are null for spontaneously reported events. | Perm |", "figure_ref": null, "candidates": [{"md_atom_id": "md_dmCE_assn_a008", "md_file": "knowledge_base/domains/CE/assumptions.md", "md_atom_type": "TABLE_ROW", "md_parent_section": "§CE [CE — Assumptions]", "md_verbatim": "   | Spontaneously reported event occurrence | | | |", "score": 0.5976, "match_basis": "verbatim_token+domain_route:CE"}, {"md_atom_id": "md_dmCE_ex_a096", "md_file": "knowledge_base/domains/CE/examples.md", "md_atom_type": "TABLE_ROW", "md_parent_section": "§CE.3 [Example 3]", "md_verbatim": "| 3 | ABC | CE | ABC-US-701-002 | 3 | 1 | CE3 | Infection of fracture site | FRACTURE-RELATED EVENTS | COMPLICATIONS | Y | Y | | | | 2006-10-23 | |", "score": 0.4764, "match_basis": "verbatim_token+domain_route:CE"}, {"md_atom_id": "md_dmCE_ex_a081", "md_file": "knowledge_base/domains/CE/examples.md", "md_atom_type": "TABLE_ROW", "md_parent_section": "§CE.3 [Example 3]", "md_verbatim": "| 2 | ABC | MH | ABC-US-701-002 | 2 | 1 | | Soft Tissue Damage | FRACTURE-RELATED EVENTS | COMPLICATIONS | Y | Y | LUNG | | | 2006-05-13 | | |", "score": 0.4678, "match_basis": "verbatim_token+domain_route:CE"}, {"md_atom_id": "md_dmCE_ex_a101", "md_file": "knowledge_base/domains/CE/examples.md", "md_atom_type": "TABLE_ROW", "md_parent_section": "§CE.3 [Example 3]", "md_verbatim": "| 2 | ABC | CE | 001-001 | CESEQ | 1 | CECPLIND | Complications Indicator | N | CRF | |", "score": 0.466, "match_basis": "verbatim_token+domain_route:CE"}, {"md_atom_id": "md_dmCE_ex_a103", "md_file": "knowledge_base/domains/CE/examples.md", "md_atom_type": "TABLE_ROW", "md_parent_section": "§CE.3 [Example 3]", "md_verbatim": "| 4 | ABC | CE | 001-001 | CESEQ | 2 | CECPLIND | Complications Indicator | Y | CRF | |", "score": 0.466, "match_basis": "verbatim_token+domain_route:CE"}], "candidate_count": 5, "zero_candidate": false}
{"pdf_atom_id": "ig34_p0149_a005", "pdf_atom_type": "TABLE_ROW", "pdf_source": "SDTMIG_v3.4", "pdf_page": 149, "pdf_parent_section": "§6.2.3 [Clinical Events (CE)]", "pdf_verbatim": "| CEREASND | Reason Clinical Event Not Collected | Char | | Record Qualifier | Describes the reason clinical event data was not collected. Used in conjunction with CESTAT when value is \"NOT DONE\". | Perm |", "figure_ref": null, "candidates": [{"md_atom_id": "md_dmCE_ex_a059", "md_file": "knowledge_base/domains/CE/examples.md", "md_atom_type": "TABLE_ROW", "md_parent_section": "§CE.3 [Example 3]", "md_verbatim": "| Date of collection | -- / --- / -- |", "score": 0.4711, "match_basis": "verbatim_token+domain_route:CE"}, {"md_atom_id": "md_dmCE_assn_a011", "md_file": "knowledge_base/domains/CE/assumptions.md", "md_atom_type": "TABLE_ROW", "md_parent_section": "§CE [CE — Assumptions]", "md_verbatim": "   | Prespecified event has no response | Y | | NOT DONE |", "score": 0.4545, "match_basis": "verbatim_token+domain_route:CE"}, {"md_atom_id": "md_dmCE_ex_a011", "md_file": "knowledge_base/domains/CE/examples.md", "md_atom_type": "TABLE_ROW", "md_parent_section": "§CE.1 [Example 1]", "md_verbatim": "| Conjunctivitis | ( ) No  ( ) Yes | ___ / ___ / ___ |", "score": 0.4519, "match_basis": "verbatim_token+domain_route:CE"}, {"md_atom_id": "md_dmCE_ex_a067", "md_file": "knowledge_base/domains/CE/examples.md", "md_atom_type": "TABLE_ROW", "md_parent_section": "§CE.3 [Example 3]", "md_verbatim": "| If there were complications, select all that apply. | [ ] Infection of fracture site  [ ] Improper healing requiring bone reset  [ ] Soft tissue damage, specify location ___ |", "score": 0.4518, "match_basis": "verbatim_token+domain_route:CE"}, {"md_atom_id": "md_dmCE_ex_a096", "md_file": "knowledge_base/domains/CE/examples.md", "md_atom_type": "TABLE_ROW", "md_parent_section": "§CE.3 [Example 3]", "md_verbatim": "| 3 | ABC | CE | ABC-US-701-002 | 3 | 1 | CE3 | Infection of fracture site | FRACTURE-RELATED EVENTS | COMPLICATIONS | Y | Y | | | | 2006-10-23 | |", "score": 0.4514, "match_basis": "verbatim_token+domain_route:CE"}], "candidate_count": 5, "zero_candidate": false}
{"pdf_atom_id": "ig34_p0149_a006", "pdf_atom_type": "TABLE_ROW", "pdf_source": "SDTMIG_v3.4", "pdf_page": 149, "pdf_parent_section": "§6.2.3 [Clinical Events (CE)]", "pdf_verbatim": "| CEBODYSYS | Body System or Organ Class | Char | | Record Qualifier | Dictionary-derived. Body system or organ class that is involved in an event or measurement from a coding dictionary (e.g., MedDRA). When using a multi-level dictionary such as MedDRA, this should contain the SOC used for the sponsor's analyses and summary tables, whichever approach produces the more meaningful results. | Perm |", "figure_ref": null, "candidates": [{"md_atom_id": "md_dmCE_ex_a065", "md_file": "knowledge_base/domains/CE/examples.md", "md_atom_type": "TABLE_ROW", "md_parent_section": "§CE.3 [Example 3]", "md_verbatim": "| If therapeutic measures were required, select all that apply. | [ ] Casting/immobilization  [ ] Traction  [ ] Surgery |", "score": 0.4437, "match_basis": "verbatim_token+domain_route:CE"}, {"md_atom_id": "md_dmCE_ex_a067", "md_file": "knowledge_base/domains/CE/examples.md", "md_atom_type": "TABLE_ROW", "md_parent_section": "§CE.3 [Example 3]", "md_verbatim": "| If there were complications, select all that apply. | [ ] Infection of fracture site  [ ] Improper healing requiring bone reset  [ ] Soft tissue damage, specify location ___ |", "score": 0.44, "match_basis": "verbatim_token+domain_route:CE"}, {"md_atom_id": "md_dmCE_assn_a011", "md_file": "knowledge_base/domains/CE/assumptions.md", "md_atom_type": "TABLE_ROW", "md_parent_section": "§CE [CE — Assumptions]", "md_verbatim": "   | Prespecified event has no response | Y | | NOT DONE |", "score": 0.4337, "match_basis": "verbatim_token+domain_route:CE"}, {"md_atom_id": "md_dmCE_ex_a096", "md_file": "knowledge_base/domains/CE/examples.md", "md_atom_type": "TABLE_ROW", "md_parent_section": "§CE.3 [Example 3]", "md_verbatim": "| 3 | ABC | CE | ABC-US-701-002 | 3 | 1 | CE3 | Infection of fracture site | FRACTURE-RELATED EVENTS | COMPLICATIONS | Y | Y | | | | 2006-10-23 | |", "score": 0.4268, "match_basis": "verbatim_token+domain_route:CE"}, {"md_atom_id": "md_dmCE_assn_a008", "md_file": "knowledge_base/domains/CE/assumptions.md", "md_atom_type": "TABLE_ROW", "md_parent_section": "§CE [CE — Assumptions]", "md_verbatim": "   | Spontaneously reported event occurrence | | | |", "score": 0.4249, "match_basis": "verbatim_token+domain_route:CE"}], "candidate_count": 5, "zero_candidate": false}
{"pdf_atom_id": "ig34_p0149_a007", "pdf_atom_type": "TABLE_ROW", "pdf_source": "SDTMIG_v3.4", "pdf_page": 149, "pdf_parent_section": "§6.2.3 [Clinical Events (CE)]", "pdf_verbatim": "| CESEV | Severity/Intensity | Char | (SEVYRS) | Record Qualifier | The severity or intensity of the event. Examples: \"MILD\", \"MODERATE\", \"SEVERE\". | Perm |", "figure_ref": null, "candidates": [{"md_atom_id": "md_dmCE_ex_a032", "md_file": "knowledge_base/domains/CE/examples.md", "md_atom_type": "TABLE_ROW", "md_parent_section": "§CE.2 [Example 2]", "md_verbatim": "| Other, Specify: ___ | | ___ / ___ / ___ (dd/mmm/yyyy) | ___ / ___ / ___ (dd/mmm/yyyy) | ( ) Mild  ( ) Moderate  ( ) Severe |", "score": 0.5322, "match_basis": "verbatim_token+domain_route:CE"}, {"md_atom_id": "md_dmCE_ex_a030", "md_file": "knowledge_base/domains/CE/examples.md", "md_atom_type": "TABLE_ROW", "md_parent_section": "§CE.2 [Example 2]", "md_verbatim": "| Vomit | ( ) Yes  ( ) No | ___ / ___ / ___ (dd/mmm/yyyy) | ___ / ___ / ___ (dd/mmm/yyyy) | ( ) Mild  ( ) Moderate  ( ) Severe |", "score": 0.5286, "match_basis": "verbatim_token+domain_route:CE"}, {"md_atom_id": "md_dmCE_ex_a029", "md_file": "knowledge_base/domains/CE/examples.md", "md_atom_type": "TABLE_ROW", "md_parent_section": "§CE.2 [Example 2]", "md_verbatim": "| Nausea | ( ) Yes  ( ) No | ___ / ___ / ___ (dd/mmm/yyyy) | ___ / ___ / ___ (dd/mmm/yyyy) | ( ) Mild  ( ) Moderate  ( ) Severe |", "score": 0.5263, "match_basis": "verbatim_token+domain_route:CE"}, {"md_atom_id": "md_dmCE_ex_a031", "md_file": "knowledge_base/domains/CE/examples.md", "md_atom_type": "TABLE_ROW", "md_parent_section": "§CE.2 [Example 2]", "md_verbatim": "| Diarrhea | ( ) Yes  ( ) No | ___ / ___ / ___ (dd/mmm/yyyy) | ___ / ___ / ___ (dd/mmm/yyyy) | ( ) Mild  ( ) Moderate  ( ) Severe |", "score": 0.522, "match_basis": "verbatim_token+domain_route:CE"}, {"md_atom_id": "md_dmCE_ex_a048", "md_file": "knowledge_base/domains/CE/examples.md", "md_atom_type": "TABLE_ROW", "md_parent_section": "§CE.2 [Example 2]", "md_verbatim": "| 1 | ABC123 | CE | 123 | 1 | NAUSEA | Nausea | Y | Y | | MODERATE | 2005-10-12 | |", "score": 0.46, "match_basis": "verbatim_token+domain_route:CE"}], "candidate_count": 5, "zero_candidate": false}
{"pdf_atom_id": "ig34_p0149_a008", "pdf_atom_type": "TABLE_ROW", "pdf_source": "SDTMIG_v3.4", "pdf_page": 149, "pdf_parent_section": "§6.2.3 [Clinical Events (CE)]", "pdf_verbatim": "| CETOXGR | Standard Toxicity Grade | Char | * | Record Qualifier | Toxicity grade according to a standard toxicity scale (e.g., Common Terminology Criteria for Adverse Events (CTCAEv5.0)). Sponsor should specify grade numbering scheme and whether a text grade value is from a numeric scale, represented only by the numeric scale, or both. | Perm |", "figure_ref": null, "candidates": [{"md_atom_id": "md_dmCE_assn_a011", "md_file": "knowledge_base/domains/CE/assumptions.md", "md_atom_type": "TABLE_ROW", "md_parent_section": "§CE [CE — Assumptions]", "md_verbatim": "   | Prespecified event has no response | Y | | NOT DONE |", "score": 0.4641, "match_basis": "verbatim_token+domain_route:CE"}, {"md_atom_id": "md_dmCE_ex_a067", "md_file": "knowledge_base/domains/CE/examples.md", "md_atom_type": "TABLE_ROW", "md_parent_section": "§CE.3 [Example 3]", "md_verbatim": "| If there were complications, select all that apply. | [ ] Infection of fracture site  [ ] Improper healing requiring bone reset  [ ] Soft tissue damage, specify location ___ |", "score": 0.4522, "match_basis": "verbatim_token+domain_route:CE"}, {"md_atom_id": "md_dmCE_assn_a010", "md_file": "knowledge_base/domains/CE/assumptions.md", "md_atom_type": "TABLE_ROW", "md_parent_section": "§CE [CE — Assumptions]", "md_verbatim": "   | Prespecified event did not occur | Y | N | |", "score": 0.4504, "match_basis": "verbatim_token+domain_route:CE"}, {"md_atom_id": "md_dmCE_assn_a009", "md_file": "knowledge_base/domains/CE/assumptions.md", "md_atom_type": "TABLE_ROW", "md_parent_section": "§CE [CE — Assumptions]", "md_verbatim": "   | Prespecified event occurred | Y | Y | |", "score": 0.45, "match_basis": "verbatim_token+domain_route:CE"}, {"md_atom_id": "md_dmCE_ex_a032", "md_file": "knowledge_base/domains/CE/examples.md", "md_atom_type": "TABLE_ROW", "md_parent_section": "§CE.2 [Example 2]", "md_verbatim": "| Other, Specify: ___ | | ___ / ___ / ___ (dd/mmm/yyyy) | ___ / ___ / ___ (dd/mmm/yyyy) | ( ) Mild  ( ) Moderate  ( ) Severe |", "score": 0.4441, "match_basis": "verbatim_token+domain_route:CE"}], "candidate_count": 5, "zero_candidate": false}
{"pdf_atom_id": "ig34_p0149_a009", "pdf_atom_type": "TABLE_ROW", "pdf_source": "SDTMIG_v3.4", "pdf_page": 149, "pdf_parent_section": "§6.2.3 [Clinical Events (CE)]", "pdf_verbatim": "| TAEFORD | Planned Order of Element within Arm | Num | | Timing | Number that gives the planned order of the element within the arm for the element in the study arm. | Perm |", "figure_ref": null, "candidates": [{"md_atom_id": "md_dmCE_ex_a058", "md_file": "knowledge_base/domains/CE/examples.md", "md_atom_type": "TABLE_ROW", "md_parent_section": "§CE.3 [Example 3]", "md_verbatim": "| Which fracture? | ( ) Pre-study fracture, reference number ___  ( ) On-study fracture, reference number ___ |", "score": 0.4724, "match_basis": "verbatim_token+domain_route:CE"}, {"md_atom_id": "md_dmCE_ex_a067", "md_file": "knowledge_base/domains/CE/examples.md", "md_atom_type": "TABLE_ROW", "md_parent_section": "§CE.3 [Example 3]", "md_verbatim": "| If there were complications, select all that apply. | [ ] Infection of fracture site  [ ] Improper healing requiring bone reset  [ ] Soft tissue damage, specify location ___ |", "score": 0.4324, "match_basis": "verbatim_token+domain_route:CE"}, {"md_atom_id": "md_dmCE_ex_a065", "md_file": "knowledge_base/domains/CE/examples.md", "md_atom_type": "TABLE_ROW", "md_parent_section": "§CE.3 [Example 3]", "md_verbatim": "| If therapeutic measures were required, select all that apply. | [ ] Casting/immobilization  [ ] Traction  [ ] Surgery |", "score": 0.4319, "match_basis": "verbatim_token+domain_route:CE"}, {"md_atom_id": "md_dmCE_ex_a114", "md_file": "knowledge_base/domains/CE/examples.md", "md_atom_type": "TABLE_ROW", "md_parent_section": "§CE.3 [Example 3]", "md_verbatim": "| 1 | ABC | PR | ABC-US-701-002 | 1 | MH1 | Casting/Immobilization | FRACTURE TREATMENTS | Y | Y | 2006-05-13 | |", "score": 0.424, "match_basis": "verbatim_token+domain_route:CE"}, {"md_atom_id": "md_dmCE_ex_a062", "md_file": "knowledge_base/domains/CE/examples.md", "md_atom_type": "TABLE_ROW", "md_parent_section": "§CE.3 [Example 3]", "md_verbatim": "| What was the location of the fracture? | ___ |", "score": 0.4218, "match_basis": "verbatim_token+domain_route:CE"}], "candidate_count": 5, "zero_candidate": false}
{"pdf_atom_id": "ig34_p0149_a010", "pdf_atom_type": "TABLE_ROW", "pdf_source": "SDTMIG_v3.4", "pdf_page": 149, "pdf_parent_section": "§6.2.3 [Clinical Events (CE)]", "pdf_verbatim": "| EPOCH | Epoch | Char | (EPOCH) | Timing | Epoch associated with the start date/time of the clinical event. | Perm |", "figure_ref": null, "candidates": [{"md_atom_id": "md_dmCE_ex_a007", "md_file": "knowledge_base/domains/CE/examples.md", "md_atom_type": "TABLE_HEADER", "md_parent_section": "§CE.1 [Example 1]", "md_verbatim": "| Clinical Sign | Did it occur? | Start Date of First Episode |\n|---------------|--------------|---------------------------|", "score": 0.472, "match_basis": "verbatim_token+domain_route:CE"}, {"md_atom_id": "md_dmCE_ex_a028", "md_file": "knowledge_base/domains/CE/examples.md", "md_atom_type": "TABLE_HEADER", "md_parent_section": "§CE.2 [Example 2]", "md_verbatim": "| Event | | Date Started | Date Ended | Severity |\n|-------|---|-------------|-----------|----------|", "score": 0.46, "match_basis": "verbatim_token+domain_route:CE"}, {"md_atom_id": "md_dmCE_ex_a096", "md_file": "knowledge_base/domains/CE/examples.md", "md_atom_type": "TABLE_ROW", "md_parent_section": "§CE.3 [Example 3]", "md_verbatim": "| 3 | ABC | CE | ABC-US-701-002 | 3 | 1 | CE3 | Infection of fracture site | FRACTURE-RELATED EVENTS | COMPLICATIONS | Y | Y | | | | 2006-10-23 | |", "score": 0.4522, "match_basis": "verbatim_token+domain_route:CE"}, {"md_atom_id": "md_dmCE_ex_a080", "md_file": "knowledge_base/domains/CE/examples.md", "md_atom_type": "TABLE_ROW", "md_parent_section": "§CE.3 [Example 3]", "md_verbatim": "| 1 | ABC | MH | ABC-US-701-002 | 1 | 1 | MH1 | Fracture | FRACTURE-RELATED EVENTS | | Y | Y | RIB 3 | RIGHT | Y | 2006-05-13 | 2005-08-18 | -P5Y |", "score": 0.4517, "match_basis": "verbatim_token+domain_route:CE"}, {"md_atom_id": "md_dmCE_ex_a095", "md_file": "knowledge_base/domains/CE/examples.md", "md_atom_type": "TABLE_ROW", "md_parent_section": "§CE.3 [Example 3]", "md_verbatim": "| 2 | ABC | CE | ABC-US-701-002 | 2 | 1 | CE2 | Fracture | FRACTURE-RELATED EVENTS | | Y | Y | FIBULA | LEFT | N | 2006-10-23 | 2006-10-15 |", "score": 0.4517, "match_basis": "verbatim_token+domain_route:CE"}], "candidate_count": 5, "zero_candidate": false}
{"pdf_atom_id": "ig34_p0149_a011", "pdf_atom_type": "TABLE_ROW", "pdf_source": "SDTMIG_v3.4", "pdf_page": 149, "pdf_parent_section": "§6.2.3 [Clinical Events (CE)]", "pdf_verbatim": "| CEDTC | Date/Time of Event Collection | Char | ISO 8601 datetime | Timing | Collection date and time for the clinical event observation record in ISO 8601 character format. | Perm |", "figure_ref": null, "candidates": [{"md_atom_id": "md_dmCE_ex_a059", "md_file": "knowledge_base/domains/CE/examples.md", "md_atom_type": "TABLE_ROW", "md_parent_section": "§CE.3 [Example 3]", "md_verbatim": "| Date of collection | -- / --- / -- |", "score": 0.5034, "match_basis": "verbatim_token+domain_route:CE"}, {"md_atom_id": "md_dmCE_ex_a096", "md_file": "knowledge_base/domains/CE/examples.md", "md_atom_type": "TABLE_ROW", "md_parent_section": "§CE.3 [Example 3]", "md_verbatim": "| 3 | ABC | CE | ABC-US-701-002 | 3 | 1 | CE3 | Infection of fracture site | FRACTURE-RELATED EVENTS | COMPLICATIONS | Y | Y | | | | 2006-10-23 | |", "score": 0.4847, "match_basis": "verbatim_token+domain_route:CE"}, {"md_atom_id": "md_dmCE_ex_a081", "md_file": "knowledge_base/domains/CE/examples.md", "md_atom_type": "TABLE_ROW", "md_parent_section": "§CE.3 [Example 3]", "md_verbatim": "| 2 | ABC | MH | ABC-US-701-002 | 2 | 1 | | Soft Tissue Damage | FRACTURE-RELATED EVENTS | COMPLICATIONS | Y | Y | LUNG | | | 2006-05-13 | | |", "score": 0.4659, "match_basis": "verbatim_token+domain_route:CE"}, {"md_atom_id": "md_dmCE_ex_a067", "md_file": "knowledge_base/domains/CE/examples.md", "md_atom_type": "TABLE_ROW", "md_parent_section": "§CE.3 [Example 3]", "md_verbatim": "| If there were complications, select all that apply. | [ ] Infection of fracture site  [ ] Improper healing requiring bone reset  [ ] Soft tissue damage, specify location ___ |", "score": 0.4645, "match_basis": "verbatim_token+domain_route:CE"}, {"md_atom_id": "md_dmCE_ex_a065", "md_file": "knowledge_base/domains/CE/examples.md", "md_atom_type": "TABLE_ROW", "md_parent_section": "§CE.3 [Example 3]", "md_verbatim": "| If therapeutic measures were required, select all that apply. | [ ] Casting/immobilization  [ ] Traction  [ ] Surgery |", "score": 0.4566, "match_basis": "verbatim_token+domain_route:CE"}], "candidate_count": 5, "zero_candidate": false}
{"pdf_atom_id": "ig34_p0149_a012", "pdf_atom_type": "TABLE_ROW", "pdf_source": "SDTMIG_v3.4", "pdf_page": 149, "pdf_parent_section": "§6.2.3 [Clinical Events (CE)]", "pdf_verbatim": "| CESTDTC | Start Date/Time of Clinical Event | Char | ISO 8601 datetime or interval | Timing | Start datetime of the clinical event represented in ISO 8601 character format. | Perm |", "figure_ref": null, "candidates": [{"md_atom_id": "md_dmCE_ex_a080", "md_file": "knowledge_base/domains/CE/examples.md", "md_atom_type": "TABLE_ROW", "md_parent_section": "§CE.3 [Example 3]", "md_verbatim": "| 1 | ABC | MH | ABC-US-701-002 | 1 | 1 | MH1 | Fracture | FRACTURE-RELATED EVENTS | | Y | Y | RIB 3 | RIGHT | Y | 2006-05-13 | 2005-08-18 | -P5Y |", "score": 0.456, "match_basis": "verbatim_token+domain_route:CE"}, {"md_atom_id": "md_dmCE_ex_a095", "md_file": "knowledge_base/domains/CE/examples.md", "md_atom_type": "TABLE_ROW", "md_parent_section": "§CE.3 [Example 3]", "md_verbatim": "| 2 | ABC | CE | ABC-US-701-002 | 2 | 1 | CE2 | Fracture | FRACTURE-RELATED EVENTS | | Y | Y | FIBULA | LEFT | N | 2006-10-23 | 2006-10-15 |", "score": 0.456, "match_basis": "verbatim_token+domain_route:CE"}, {"md_atom_id": "md_dmCE_ex_a096", "md_file": "knowledge_base/domains/CE/examples.md", "md_atom_type": "TABLE_ROW", "md_parent_section": "§CE.3 [Example 3]", "md_verbatim": "| 3 | ABC | CE | ABC-US-701-002 | 3 | 1 | CE3 | Infection of fracture site | FRACTURE-RELATED EVENTS | COMPLICATIONS | Y | Y | | | | 2006-10-23 | |", "score": 0.4558, "match_basis": "verbatim_token+domain_route:CE"}, {"md_atom_id": "md_dmCE_ex_a094", "md_file": "knowledge_base/domains/CE/examples.md", "md_atom_type": "TABLE_ROW", "md_parent_section": "§CE.3 [Example 3]", "md_verbatim": "| 1 | ABC | CE | ABC-US-701-002 | 1 | | CE1 | Fracture | FRACTURE-RELATED EVENTS | | Y | Y | HUMERUS | RIGHT | Y | 2006-07-09 | 2006-07-03 |", "score": 0.4545, "match_basis": "verbatim_token+domain_route:CE"}, {"md_atom_id": "md_dmCE_ex_a081", "md_file": "knowledge_base/domains/CE/examples.md", "md_atom_type": "TABLE_ROW", "md_parent_section": "§CE.3 [Example 3]", "md_verbatim": "| 2 | ABC | MH | ABC-US-701-002 | 2 | 1 | | Soft Tissue Damage | FRACTURE-RELATED EVENTS | COMPLICATIONS | Y | Y | LUNG | | | 2006-05-13 | | |", "score": 0.4533, "match_basis": "verbatim_token+domain_route:CE"}], "candidate_count": 5, "zero_candidate": false}
{"pdf_atom_id": "ig34_p0149_a013", "pdf_atom_type": "TABLE_ROW", "pdf_source": "SDTMIG_v3.4", "pdf_page": 149, "pdf_parent_section": "§6.2.3 [Clinical Events (CE)]", "pdf_verbatim": "| CEENDTC | End Date/Time of the Clinical Event | Char | ISO 8601 datetime or interval | Timing | End datetime of the clinical event, represented in ISO 8601 character format. | Perm |", "figure_ref": null, "candidates": [{"md_atom_id": "md_dmCE_ex_a080", "md_file": "knowledge_base/domains/CE/examples.md", "md_atom_type": "TABLE_ROW", "md_parent_section": "§CE.3 [Example 3]", "md_verbatim": "| 1 | ABC | MH | ABC-US-701-002 | 1 | 1 | MH1 | Fracture | FRACTURE-RELATED EVENTS | | Y | Y | RIB 3 | RIGHT | Y | 2006-05-13 | 2005-08-18 | -P5Y |", "score": 0.4583, "match_basis": "verbatim_token+domain_route:CE"}, {"md_atom_id": "md_dmCE_ex_a095", "md_file": "knowledge_base/domains/CE/examples.md", "md_atom_type": "TABLE_ROW", "md_parent_section": "§CE.3 [Example 3]", "md_verbatim": "| 2 | ABC | CE | ABC-US-701-002 | 2 | 1 | CE2 | Fracture | FRACTURE-RELATED EVENTS | | Y | Y | FIBULA | LEFT | N | 2006-10-23 | 2006-10-15 |", "score": 0.4583, "match_basis": "verbatim_token+domain_route:CE"}, {"md_atom_id": "md_dmCE_ex_a096", "md_file": "knowledge_base/domains/CE/examples.md", "md_atom_type": "TABLE_ROW", "md_parent_section": "§CE.3 [Example 3]", "md_verbatim": "| 3 | ABC | CE | ABC-US-701-002 | 3 | 1 | CE3 | Infection of fracture site | FRACTURE-RELATED EVENTS | COMPLICATIONS | Y | Y | | | | 2006-10-23 | |", "score": 0.4578, "match_basis": "verbatim_token+domain_route:CE"}, {"md_atom_id": "md_dmCE_ex_a094", "md_file": "knowledge_base/domains/CE/examples.md", "md_atom_type": "TABLE_ROW", "md_parent_section": "§CE.3 [Example 3]", "md_verbatim": "| 1 | ABC | CE | ABC-US-701-002 | 1 | | CE1 | Fracture | FRACTURE-RELATED EVENTS | | Y | Y | HUMERUS | RIGHT | Y | 2006-07-09 | 2006-07-03 |", "score": 0.4568, "match_basis": "verbatim_token+domain_route:CE"}, {"md_atom_id": "md_dmCE_ex_a081", "md_file": "knowledge_base/domains/CE/examples.md", "md_atom_type": "TABLE_ROW", "md_parent_section": "§CE.3 [Example 3]", "md_verbatim": "| 2 | ABC | MH | ABC-US-701-002 | 2 | 1 | | Soft Tissue Damage | FRACTURE-RELATED EVENTS | COMPLICATIONS | Y | Y | LUNG | | | 2006-05-13 | | |", "score": 0.4552, "match_basis": "verbatim_token+domain_route:CE"}], "candidate_count": 5, "zero_candidate": false}
{"pdf_atom_id": "ig34_p0149_a014", "pdf_atom_type": "TABLE_ROW", "pdf_source": "SDTMIG_v3.4", "pdf_page": 149, "pdf_parent_section": "§6.2.3 [Clinical Events (CE)]", "pdf_verbatim": "| CEDY | Study Day of Event Collection | Num | | Timing | Study day of clinical event collection, measured as integer days. Algorithm for calculations must be relative to the sponsor-defined RFSTDTC variable in Demographics. This formula must be consistent across the submission. | Perm |", "figure_ref": null, "candidates": [{"md_atom_id": "md_dmCE_ex_a065", "md_file": "knowledge_base/domains/CE/examples.md", "md_atom_type": "TABLE_ROW", "md_parent_section": "§CE.3 [Example 3]", "md_verbatim": "| If therapeutic measures were required, select all that apply. | [ ] Casting/immobilization  [ ] Traction  [ ] Surgery |", "score": 0.4608, "match_basis": "verbatim_token+domain_route:CE"}, {"md_atom_id": "md_dmCE_ex_a096", "md_file": "knowledge_base/domains/CE/examples.md", "md_atom_type": "TABLE_ROW", "md_parent_section": "§CE.3 [Example 3]", "md_verbatim": "| 3 | ABC | CE | ABC-US-701-002 | 3 | 1 | CE3 | Infection of fracture site | FRACTURE-RELATED EVENTS | COMPLICATIONS | Y | Y | | | | 2006-10-23 | |", "score": 0.4596, "match_basis": "verbatim_token+domain_route:CE"}, {"md_atom_id": "md_dmCE_ex_a081", "md_file": "knowledge_base/domains/CE/examples.md", "md_atom_type": "TABLE_ROW", "md_parent_section": "§CE.3 [Example 3]", "md_verbatim": "| 2 | ABC | MH | ABC-US-701-002 | 2 | 1 | | Soft Tissue Damage | FRACTURE-RELATED EVENTS | COMPLICATIONS | Y | Y | LUNG | | | 2006-05-13 | | |", "score": 0.4534, "match_basis": "verbatim_token+domain_route:CE"}, {"md_atom_id": "md_dmCE_ex_a067", "md_file": "knowledge_base/domains/CE/examples.md", "md_atom_type": "TABLE_ROW", "md_parent_section": "§CE.3 [Example 3]", "md_verbatim": "| If there were complications, select all that apply. | [ ] Infection of fracture site  [ ] Improper healing requiring bone reset  [ ] Soft tissue damage, specify location ___ |", "score": 0.4472, "match_basis": "verbatim_token+domain_route:CE"}, {"md_atom_id": "md_dmCE_ex_a059", "md_file": "knowledge_base/domains/CE/examples.md", "md_atom_type": "TABLE_ROW", "md_parent_section": "§CE.3 [Example 3]", "md_verbatim": "| Date of collection | -- / --- / -- |", "score": 0.4407, "match_basis": "verbatim_token+domain_route:CE"}], "candidate_count": 5, "zero_candidate": false}
{"pdf_atom_id": "ig34_p0149_a015", "pdf_atom_type": "TABLE_ROW", "pdf_source": "SDTMIG_v3.4", "pdf_page": 149, "pdf_parent_section": "§6.2.3 [Clinical Events (CE)]", "pdf_verbatim": "| CESTDY | Study Day of Start of Event | Num | | Timing | Actual study day of start of the clinical event expressed in integer days relative to the sponsor-defined RFSTDTC in Demographics. | Perm |", "figure_ref": null, "candidates": [{"md_atom_id": "md_dmCE_ex_a096", "md_file": "knowledge_base/domains/CE/examples.md", "md_atom_type": "TABLE_ROW", "md_parent_section": "§CE.3 [Example 3]", "md_verbatim": "| 3 | ABC | CE | ABC-US-701-002 | 3 | 1 | CE3 | Infection of fracture site | FRACTURE-RELATED EVENTS | COMPLICATIONS | Y | Y | | | | 2006-10-23 | |", "score": 0.4641, "match_basis": "verbatim_token+domain_route:CE"}, {"md_atom_id": "md_dmCE_ex_a081", "md_file": "knowledge_base/domains/CE/examples.md", "md_atom_type": "TABLE_ROW", "md_parent_section": "§CE.3 [Example 3]", "md_verbatim": "| 2 | ABC | MH | ABC-US-701-002 | 2 | 1 | | Soft Tissue Damage | FRACTURE-RELATED EVENTS | COMPLICATIONS | Y | Y | LUNG | | | 2006-05-13 | | |", "score": 0.4617, "match_basis": "verbatim_token+domain_route:CE"}, {"md_atom_id": "md_dmCE_assn_a011", "md_file": "knowledge_base/domains/CE/assumptions.md", "md_atom_type": "TABLE_ROW", "md_parent_section": "§CE [CE — Assumptions]", "md_verbatim": "   | Prespecified event has no response | Y | | NOT DONE |", "score": 0.4545, "match_basis": "verbatim_token+domain_route:CE"}, {"md_atom_id": "md_dmCE_ex_a058", "md_file": "knowledge_base/domains/CE/examples.md", "md_atom_type": "TABLE_ROW", "md_parent_section": "§CE.3 [Example 3]", "md_verbatim": "| Which fracture? | ( ) Pre-study fracture, reference number ___  ( ) On-study fracture, reference number ___ |", "score": 0.4527, "match_basis": "verbatim_token+domain_route:CE"}, {"md_atom_id": "md_dmCE_ex_a080", "md_file": "knowledge_base/domains/CE/examples.md", "md_atom_type": "TABLE_ROW", "md_parent_section": "§CE.3 [Example 3]", "md_verbatim": "| 1 | ABC | MH | ABC-US-701-002 | 1 | 1 | MH1 | Fracture | FRACTURE-RELATED EVENTS | | Y | Y | RIB 3 | RIGHT | Y | 2006-05-13 | 2005-08-18 | -P5Y |", "score": 0.4511, "match_basis": "verbatim_token+domain_route:CE"}], "candidate_count": 5, "zero_candidate": false}
{"pdf_atom_id": "ig34_p0149_a016", "pdf_atom_type": "TABLE_ROW", "pdf_source": "SDTMIG_v3.4", "pdf_page": 149, "pdf_parent_section": "§6.2.3 [Clinical Events (CE)]", "pdf_verbatim": "| CEEDDY | Study Day of End of Event | Num | | Timing | Actual study day of end of the clinical event expressed in integer days relative to the sponsor-defined RFSTDTC in Demographics. | Perm |", "figure_ref": null, "candidates": [{"md_atom_id": "md_dmCE_ex_a096", "md_file": "knowledge_base/domains/CE/examples.md", "md_atom_type": "TABLE_ROW", "md_parent_section": "§CE.3 [Example 3]", "md_verbatim": "| 3 | ABC | CE | ABC-US-701-002 | 3 | 1 | CE3 | Infection of fracture site | FRACTURE-RELATED EVENTS | COMPLICATIONS | Y | Y | | | | 2006-10-23 | |", "score": 0.4647, "match_basis": "verbatim_token+domain_route:CE"}, {"md_atom_id": "md_dmCE_ex_a081", "md_file": "knowledge_base/domains/CE/examples.md", "md_atom_type": "TABLE_ROW", "md_parent_section": "§CE.3 [Example 3]", "md_verbatim": "| 2 | ABC | MH | ABC-US-701-002 | 2 | 1 | | Soft Tissue Damage | FRACTURE-RELATED EVENTS | COMPLICATIONS | Y | Y | LUNG | | | 2006-05-13 | | |", "score": 0.4623, "match_basis": "verbatim_token+domain_route:CE"}, {"md_atom_id": "md_dmCE_assn_a011", "md_file": "knowledge_base/domains/CE/assumptions.md", "md_atom_type": "TABLE_ROW", "md_parent_section": "§CE [CE — Assumptions]", "md_verbatim": "   | Prespecified event has no response | Y | | NOT DONE |", "score": 0.4552, "match_basis": "verbatim_token+domain_route:CE"}, {"md_atom_id": "md_dmCE_ex_a058", "md_file": "knowledge_base/domains/CE/examples.md", "md_atom_type": "TABLE_ROW", "md_parent_section": "§CE.3 [Example 3]", "md_verbatim": "| Which fracture? | ( ) Pre-study fracture, reference number ___  ( ) On-study fracture, reference number ___ |", "score": 0.4533, "match_basis": "verbatim_token+domain_route:CE"}, {"md_atom_id": "md_dmCE_ex_a080", "md_file": "knowledge_base/domains/CE/examples.md", "md_atom_type": "TABLE_ROW", "md_parent_section": "§CE.3 [Example 3]", "md_verbatim": "| 1 | ABC | MH | ABC-US-701-002 | 1 | 1 | MH1 | Fracture | FRACTURE-RELATED EVENTS | | Y | Y | RIB 3 | RIGHT | Y | 2006-05-13 | 2005-08-18 | -P5Y |", "score": 0.4516, "match_basis": "verbatim_token+domain_route:CE"}], "candidate_count": 5, "zero_candidate": false}
{"pdf_atom_id": "ig34_p0149_a017", "pdf_atom_type": "TABLE_ROW", "pdf_source": "SDTMIG_v3.4", "pdf_page": 149, "pdf_parent_section": "§6.2.3 [Clinical Events (CE)]", "pdf_verbatim": "| CESTRF | Start Relative to Reference Period | Char | (STNREF) | Timing | Describes the start of the observation as being before or after the reference time point and a discrete starting point and a discrete ending point (represented by RFSTDTC and RFENDTC in Demographics). Not all values of the codelist are allowable for this variable. See Section 4.4.7, Use of Relative Timing Variables. | Perm |", "figure_ref": null, "candidates": [{"md_atom_id": "md_dmCE_ex_a065", "md_file": "knowledge_base/domains/CE/examples.md", "md_atom_type": "TABLE_ROW", "md_parent_section": "§CE.3 [Example 3]", "md_verbatim": "| If therapeutic measures were required, select all that apply. | [ ] Casting/immobilization  [ ] Traction  [ ] Surgery |", "score": 0.4404, "match_basis": "verbatim_token+domain_route:CE"}, {"md_atom_id": "md_dmCE_assn_a015", "md_file": "knowledge_base/domains/CE/assumptions.md", "md_atom_type": "LIST_ITEM", "md_parent_section": "§CE [CE — Assumptions]", "md_verbatim": "   a. Relative timing assessments \"Prior\" or \"Ongoing\" are common in the collection of CE information. CESTRF or CEENRF may be used when this timing assessment is relative to the study reference period for the subject represented in the Demographics (DM) dataset (RFENDTC). CESTRTPT with CESTTPT and/or CEENRTPT with CEENTPT may be used when \"Prior\" or \"Ongoing\" are relative to specific dates other than the start and end of the study reference period. See Section 4.4.7, Use of Relative Timing Variables.", "score": 0.4401, "match_basis": "verbatim_token+domain_route:CE"}, {"md_atom_id": "md_dmCE_ex_a096", "md_file": "knowledge_base/domains/CE/examples.md", "md_atom_type": "TABLE_ROW", "md_parent_section": "§CE.3 [Example 3]", "md_verbatim": "| 3 | ABC | CE | ABC-US-701-002 | 3 | 1 | CE3 | Infection of fracture site | FRACTURE-RELATED EVENTS | COMPLICATIONS | Y | Y | | | | 2006-10-23 | |", "score": 0.4373, "match_basis": "verbatim_token+domain_route:CE"}, {"md_atom_id": "md_dmCE_ex_a058", "md_file": "knowledge_base/domains/CE/examples.md", "md_atom_type": "TABLE_ROW", "md_parent_section": "§CE.3 [Example 3]", "md_verbatim": "| Which fracture? | ( ) Pre-study fracture, reference number ___  ( ) On-study fracture, reference number ___ |", "score": 0.4367, "match_basis": "verbatim_token+domain_route:CE"}, {"md_atom_id": "md_dmCE_ex_a067", "md_file": "knowledge_base/domains/CE/examples.md", "md_atom_type": "TABLE_ROW", "md_parent_section": "§CE.3 [Example 3]", "md_verbatim": "| If there were complications, select all that apply. | [ ] Infection of fracture site  [ ] Improper healing requiring bone reset  [ ] Soft tissue damage, specify location ___ |", "score": 0.4367, "match_basis": "verbatim_token+domain_route:CE"}], "candidate_count": 5, "zero_candidate": false}
{"pdf_atom_id": "ig34_p0149_a018", "pdf_atom_type": "TABLE_ROW", "pdf_source": "SDTMIG_v3.4", "pdf_page": 149, "pdf_parent_section": "§6.2.3 [Clinical Events (CE)]", "pdf_verbatim": "| CEENRF | End Relative to Reference Period | Char | (STNREF) | Timing | Describes the end of the event relative to the sponsor-defined reference period. The sponsor-defined reference period is a continuous period of time defined by a discrete starting point and a discrete ending point (represented by RFSTDTC and RFENDTC in Demographics). Not all values of the codelist are allowable for this variable. See Section 4.4.7, Use of Relative Timing Variables. | Perm |", "figure_ref": null, "candidates": [{"md_atom_id": "md_dmCE_ex_a096", "md_file": "knowledge_base/domains/CE/examples.md", "md_atom_type": "TABLE_ROW", "md_parent_section": "§CE.3 [Example 3]", "md_verbatim": "| 3 | ABC | CE | ABC-US-701-002 | 3 | 1 | CE3 | Infection of fracture site | FRACTURE-RELATED EVENTS | COMPLICATIONS | Y | Y | | | | 2006-10-23 | |", "score": 0.4479, "match_basis": "verbatim_token+domain_route:CE"}, {"md_atom_id": "md_dmCE_assn_a008", "md_file": "knowledge_base/domains/CE/assumptions.md", "md_atom_type": "TABLE_ROW", "md_parent_section": "§CE [CE — Assumptions]", "md_verbatim": "   | Spontaneously reported event occurrence | | | |", "score": 0.4471, "match_basis": "verbatim_token+domain_route:CE"}, {"md_atom_id": "md_dmCE_ex_a065", "md_file": "knowledge_base/domains/CE/examples.md", "md_atom_type": "TABLE_ROW", "md_parent_section": "§CE.3 [Example 3]", "md_verbatim": "| If therapeutic measures were required, select all that apply. | [ ] Casting/immobilization  [ ] Traction  [ ] Surgery |", "score": 0.4393, "match_basis": "verbatim_token+domain_route:CE"}, {"md_atom_id": "md_dmCE_ex_a081", "md_file": "knowledge_base/domains/CE/examples.md", "md_atom_type": "TABLE_ROW", "md_parent_section": "§CE.3 [Example 3]", "md_verbatim": "| 2 | ABC | MH | ABC-US-701-002 | 2 | 1 | | Soft Tissue Damage | FRACTURE-RELATED EVENTS | COMPLICATIONS | Y | Y | LUNG | | | 2006-05-13 | | |", "score": 0.4391, "match_basis": "verbatim_token+domain_route:CE"}, {"md_atom_id": "md_dmCE_ex_a067", "md_file": "knowledge_base/domains/CE/examples.md", "md_atom_type": "TABLE_ROW", "md_parent_section": "§CE.3 [Example 3]", "md_verbatim": "| If there were complications, select all that apply. | [ ] Infection of fracture site  [ ] Improper healing requiring bone reset  [ ] Soft tissue damage, specify location ___ |", "score": 0.439, "match_basis": "verbatim_token+domain_route:CE"}], "candidate_count": 5, "zero_candidate": false}
{"pdf_atom_id": "ig34_p0149_a019", "pdf_atom_type": "TABLE_ROW", "pdf_source": "SDTMIG_v3.4", "pdf_page": 149, "pdf_parent_section": "§6.2.3 [Clinical Events (CE)]", "pdf_verbatim": "| CESTRPT | Start Relative to Reference Time Point | Char | (STNREF) | Timing | Identifies the start of the observation as being before or after the reference time point defined by variable CETRPT. Not all values of the codelist are allowable for this variable. See Section 4.4.7, Use of Relative Timing Variables. | Perm |", "figure_ref": null, "candidates": [{"md_atom_id": "md_dmCE_ex_a096", "md_file": "knowledge_base/domains/CE/examples.md", "md_atom_type": "TABLE_ROW", "md_parent_section": "§CE.3 [Example 3]", "md_verbatim": "| 3 | ABC | CE | ABC-US-701-002 | 3 | 1 | CE3 | Infection of fracture site | FRACTURE-RELATED EVENTS | COMPLICATIONS | Y | Y | | | | 2006-10-23 | |", "score": 0.4415, "match_basis": "verbatim_token+domain_route:CE"}, {"md_atom_id": "md_dmCE_ex_a065", "md_file": "knowledge_base/domains/CE/examples.md", "md_atom_type": "TABLE_ROW", "md_parent_section": "§CE.3 [Example 3]", "md_verbatim": "| If therapeutic measures were required, select all that apply. | [ ] Casting/immobilization  [ ] Traction  [ ] Surgery |", "score": 0.4362, "match_basis": "verbatim_token+domain_route:CE"}, {"md_atom_id": "md_dmCE_ex_a067", "md_file": "knowledge_base/domains/CE/examples.md", "md_atom_type": "TABLE_ROW", "md_parent_section": "§CE.3 [Example 3]", "md_verbatim": "| If there were complications, select all that apply. | [ ] Infection of fracture site  [ ] Improper healing requiring bone reset  [ ] Soft tissue damage, specify location ___ |", "score": 0.4361, "match_basis": "verbatim_token+domain_route:CE"}, {"md_atom_id": "md_dmCE_ex_a058", "md_file": "knowledge_base/domains/CE/examples.md", "md_atom_type": "TABLE_ROW", "md_parent_section": "§CE.3 [Example 3]", "md_verbatim": "| Which fracture? | ( ) Pre-study fracture, reference number ___  ( ) On-study fracture, reference number ___ |", "score": 0.4359, "match_basis": "verbatim_token+domain_route:CE"}, {"md_atom_id": "md_dmCE_ex_a081", "md_file": "knowledge_base/domains/CE/examples.md", "md_atom_type": "TABLE_ROW", "md_parent_section": "§CE.3 [Example 3]", "md_verbatim": "| 2 | ABC | MH | ABC-US-701-002 | 2 | 1 | | Soft Tissue Damage | FRACTURE-RELATED EVENTS | COMPLICATIONS | Y | Y | LUNG | | | 2006-05-13 | | |", "score": 0.4309, "match_basis": "verbatim_token+domain_route:CE"}], "candidate_count": 5, "zero_candidate": false}
{"pdf_atom_id": "ig34_p0150_a001", "pdf_atom_type": "TABLE_ROW", "pdf_source": "SDTMIG_v3.4", "pdf_page": 150, "pdf_parent_section": "§6.2.3 [Clinical Events (CE)]", "pdf_verbatim": "| CETRPT | Start Reference Time Point | Char | | Timing | Description of datetime in ISO 8601 character format of the sponsor-defined reference point referred to by --STRPT. Examples: \"2003-12-15\", \"VISIT 2\". | Perm |", "figure_ref": null, "candidates": [{"md_atom_id": "md_dmCE_ex_a058", "md_file": "knowledge_base/domains/CE/examples.md", "md_atom_type": "TABLE_ROW", "md_parent_section": "§CE.3 [Example 3]", "md_verbatim": "| Which fracture? | ( ) Pre-study fracture, reference number ___  ( ) On-study fracture, reference number ___ |", "score": 0.4587, "match_basis": "verbatim_token+domain_route:CE"}, {"md_atom_id": "md_dmCE_ex_a096", "md_file": "knowledge_base/domains/CE/examples.md", "md_atom_type": "TABLE_ROW", "md_parent_section": "§CE.3 [Example 3]", "md_verbatim": "| 3 | ABC | CE | ABC-US-701-002 | 3 | 1 | CE3 | Infection of fracture site | FRACTURE-RELATED EVENTS | COMPLICATIONS | Y | Y | | | | 2006-10-23 | |", "score": 0.4505, "match_basis": "verbatim_token+domain_route:CE"}, {"md_atom_id": "md_dmCE_ex_a066", "md_file": "knowledge_base/domains/CE/examples.md", "md_atom_type": "TABLE_ROW", "md_parent_section": "§CE.3 [Example 3]", "md_verbatim": "| Were there any complications of the fracture? | ( ) Yes  ( ) No  ( ) Unknown |", "score": 0.4495, "match_basis": "verbatim_token+domain_route:CE"}, {"md_atom_id": "md_dmCE_ex_a067", "md_file": "knowledge_base/domains/CE/examples.md", "md_atom_type": "TABLE_ROW", "md_parent_section": "§CE.3 [Example 3]", "md_verbatim": "| If there were complications, select all that apply. | [ ] Infection of fracture site  [ ] Improper healing requiring bone reset  [ ] Soft tissue damage, specify location ___ |", "score": 0.4465, "match_basis": "verbatim_token+domain_route:CE"}, {"md_atom_id": "md_dmCE_ex_a081", "md_file": "knowledge_base/domains/CE/examples.md", "md_atom_type": "TABLE_ROW", "md_parent_section": "§CE.3 [Example 3]", "md_verbatim": "| 2 | ABC | MH | ABC-US-701-002 | 2 | 1 | | Soft Tissue Damage | FRACTURE-RELATED EVENTS | COMPLICATIONS | Y | Y | LUNG | | | 2006-05-13 | | |", "score": 0.4429, "match_basis": "verbatim_token+domain_route:CE"}], "candidate_count": 5, "zero_candidate": false}
{"pdf_atom_id": "ig34_p0150_a002", "pdf_atom_type": "TABLE_ROW", "pdf_source": "SDTMIG_v3.4", "pdf_page": 150, "pdf_parent_section": "§6.2.3 [Clinical Events (CE)]", "pdf_verbatim": "| CEENRPT | End Relative to Reference Time Point | Char | (STNREF) | Timing | Describes the end of the observation as being before or after the sponsor-defined reference time point defined by variable CEENTRPT. Not all values of the codelist are allowable for this variable. See Section 4.4.7, Use of Relative Timing Variables. | Perm |", "figure_ref": null, "candidates": [{"md_atom_id": "md_dmCE_ex_a096", "md_file": "knowledge_base/domains/CE/examples.md", "md_atom_type": "TABLE_ROW", "md_parent_section": "§CE.3 [Example 3]", "md_verbatim": "| 3 | ABC | CE | ABC-US-701-002 | 3 | 1 | CE3 | Infection of fracture site | FRACTURE-RELATED EVENTS | COMPLICATIONS | Y | Y | | | | 2006-10-23 | |", "score": 0.4455, "match_basis": "verbatim_token+domain_route:CE"}, {"md_atom_id": "md_dmCE_ex_a067", "md_file": "knowledge_base/domains/CE/examples.md", "md_atom_type": "TABLE_ROW", "md_parent_section": "§CE.3 [Example 3]", "md_verbatim": "| If there were complications, select all that apply. | [ ] Infection of fracture site  [ ] Improper healing requiring bone reset  [ ] Soft tissue damage, specify location ___ |", "score": 0.4393, "match_basis": "verbatim_token+domain_route:CE"}, {"md_atom_id": "md_dmCE_ex_a065", "md_file": "knowledge_base/domains/CE/examples.md", "md_atom_type": "TABLE_ROW", "md_parent_section": "§CE.3 [Example 3]", "md_verbatim": "| If therapeutic measures were required, select all that apply. | [ ] Casting/immobilization  [ ] Traction  [ ] Surgery |", "score": 0.4355, "match_basis": "verbatim_token+domain_route:CE"}, {"md_atom_id": "md_dmCE_ex_a058", "md_file": "knowledge_base/domains/CE/examples.md", "md_atom_type": "TABLE_ROW", "md_parent_section": "§CE.3 [Example 3]", "md_verbatim": "| Which fracture? | ( ) Pre-study fracture, reference number ___  ( ) On-study fracture, reference number ___ |", "score": 0.435, "match_basis": "verbatim_token+domain_route:CE"}, {"md_atom_id": "md_dmCE_ex_a081", "md_file": "knowledge_base/domains/CE/examples.md", "md_atom_type": "TABLE_ROW", "md_parent_section": "§CE.3 [Example 3]", "md_verbatim": "| 2 | ABC | MH | ABC-US-701-002 | 2 | 1 | | Soft Tissue Damage | FRACTURE-RELATED EVENTS | COMPLICATIONS | Y | Y | LUNG | | | 2006-05-13 | | |", "score": 0.4348, "match_basis": "verbatim_token+domain_route:CE"}], "candidate_count": 5, "zero_candidate": false}
{"pdf_atom_id": "ig34_p0150_a003", "pdf_atom_type": "TABLE_ROW", "pdf_source": "SDTMIG_v3.4", "pdf_page": 150, "pdf_parent_section": "§6.2.3 [Clinical Events (CE)]", "pdf_verbatim": "| CEENTRPT | End Reference Time Point | Char | | Timing | Description of datetime in ISO 8601 character format of the reference point referred to by CEENTRPT. Examples: \"2003-12-25\", \"VISIT 2\". | Perm |", "figure_ref": null, "candidates": [{"md_atom_id": "md_dmCE_ex_a058", "md_file": "knowledge_base/domains/CE/examples.md", "md_atom_type": "TABLE_ROW", "md_parent_section": "§CE.3 [Example 3]", "md_verbatim": "| Which fracture? | ( ) Pre-study fracture, reference number ___  ( ) On-study fracture, reference number ___ |", "score": 0.4667, "match_basis": "verbatim_token+domain_route:CE"}, {"md_atom_id": "md_dmCE_ex_a096", "md_file": "knowledge_base/domains/CE/examples.md", "md_atom_type": "TABLE_ROW", "md_parent_section": "§CE.3 [Example 3]", "md_verbatim": "| 3 | ABC | CE | ABC-US-701-002 | 3 | 1 | CE3 | Infection of fracture site | FRACTURE-RELATED EVENTS | COMPLICATIONS | Y | Y | | | | 2006-10-23 | |", "score": 0.4562, "match_basis": "verbatim_token+domain_route:CE"}, {"md_atom_id": "md_dmCE_ex_a066", "md_file": "knowledge_base/domains/CE/examples.md", "md_atom_type": "TABLE_ROW", "md_parent_section": "§CE.3 [Example 3]", "md_verbatim": "| Were there any complications of the fracture? | ( ) Yes  ( ) No  ( ) Unknown |", "score": 0.4483, "match_basis": "verbatim_token+domain_route:CE"}, {"md_atom_id": "md_dmCE_ex_a081", "md_file": "knowledge_base/domains/CE/examples.md", "md_atom_type": "TABLE_ROW", "md_parent_section": "§CE.3 [Example 3]", "md_verbatim": "| 2 | ABC | MH | ABC-US-701-002 | 2 | 1 | | Soft Tissue Damage | FRACTURE-RELATED EVENTS | COMPLICATIONS | Y | Y | LUNG | | | 2006-05-13 | | |", "score": 0.4475, "match_basis": "verbatim_token+domain_route:CE"}, {"md_atom_id": "md_dmCE_ex_a067", "md_file": "knowledge_base/domains/CE/examples.md", "md_atom_type": "TABLE_ROW", "md_parent_section": "§CE.3 [Example 3]", "md_verbatim": "| If there were complications, select all that apply. | [ ] Infection of fracture site  [ ] Improper healing requiring bone reset  [ ] Soft tissue damage, specify location ___ |", "score": 0.4455, "match_basis": "verbatim_token+domain_route:CE"}], "candidate_count": 5, "zero_candidate": false}
{"pdf_atom_id": "ig34_p0150_a004", "pdf_atom_type": "SENTENCE", "pdf_source": "SDTMIG_v3.4", "pdf_page": 150, "pdf_parent_section": "§6.2.3 [Clinical Events (CE)]", "pdf_verbatim": "In this column, an asterisk (*) indicates that the variable may be subject to controlled terminology. CDISC/NCI codelist values are enclosed in parentheses.", "figure_ref": null, "candidates": [{"md_atom_id": "md_dmCE_ex_a042", "md_file": "knowledge_base/domains/CE/examples.md", "md_atom_type": "SENTENCE", "md_parent_section": "§CE.2 [Example 2]", "md_verbatim": "The CESTAT value of NOT DONE indicates that the probing question was not asked or that there was no answer.", "score": 0.4808, "match_basis": "verbatim_token+domain_route:CE"}, {"md_atom_id": "md_dmCE_ex_a038", "md_file": "knowledge_base/domains/CE/examples.md", "md_atom_type": "SENTENCE", "md_parent_section": "§CE.2 [Example 2]", "md_verbatim": "The CEPRESP value of \"Y\" indicates that there was a probing question; the response to the question (CEOCCUR) was \"No\".", "score": 0.48, "match_basis": "verbatim_token+domain_route:CE"}, {"md_atom_id": "md_dmCE_ex_a034", "md_file": "knowledge_base/domains/CE/examples.md", "md_atom_type": "SENTENCE", "md_parent_section": "§CE.2 [Example 2]", "md_verbatim": "The CEPRESP value of \"Y\" indicates that there was a probing question; the response to the probe (CEOCCUR) was \"Yes\".", "score": 0.4785, "match_basis": "verbatim_token+domain_route:CE"}, {"md_atom_id": "md_dmCE_ex_a105", "md_file": "knowledge_base/domains/CE/examples.md", "md_atom_type": "SENTENCE", "md_parent_section": "§CE.3 [Example 3]", "md_verbatim": "PRSTDTC is an expected variable, so it is included in the dataset, although it was not collected in this study.", "score": 0.4764, "match_basis": "verbatim_token+domain_route:CE"}, {"md_atom_id": "md_dmCE_ex_a072", "md_file": "knowledge_base/domains/CE/examples.md", "md_atom_type": "SENTENCE", "md_parent_section": "§CE.3 [Example 3]", "md_verbatim": "The codelist used for AECONTRT (NY) was used for MHCONTRT and CECONTRT.", "score": 0.475, "match_basis": "verbatim_token+domain_route:CE"}], "candidate_count": 5, "zero_candidate": false}
{"pdf_atom_id": "ig34_p0150_a005", "pdf_atom_type": "HEADING", "pdf_source": "SDTMIG_v3.4", "pdf_page": 150, "pdf_parent_section": "§6.2.3 [Clinical Events (CE)]", "pdf_verbatim": "CE – Assumptions", "figure_ref": null, "candidates": [{"md_atom_id": "md_dmCE_assn_a001", "md_file": "knowledge_base/domains/CE/assumptions.md", "md_atom_type": "HEADING", "md_parent_section": "§CE [CE — Assumptions]", "md_verbatim": "# CE — Assumptions", "score": 1.0, "match_basis": "verbatim_token+domain_route:CE"}, {"md_atom_id": "md_dmCE_ex_a001", "md_file": "knowledge_base/domains/CE/examples.md", "md_atom_type": "HEADING", "md_parent_section": "§CE [CE — Examples]", "md_verbatim": "# CE — Examples", "score": 0.4, "match_basis": "verbatim_token+domain_route:CE"}, {"md_atom_id": "md_dmCE_ex_a002", "md_file": "knowledge_base/domains/CE/examples.md", "md_atom_type": "HEADING", "md_parent_section": "§CE.1 [Example 1]", "md_verbatim": "## Example 1", "score": 0.4, "match_basis": "verbatim_token+domain_route:CE"}, {"md_atom_id": "md_dmCE_ex_a021", "md_file": "knowledge_base/domains/CE/examples.md", "md_atom_type": "HEADING", "md_parent_section": "§CE.2 [Example 2]", "md_verbatim": "## Example 2", "score": 0.4, "match_basis": "verbatim_token+domain_route:CE"}, {"md_atom_id": "md_dmCE_ex_a053", "md_file": "knowledge_base/domains/CE/examples.md", "md_atom_type": "HEADING", "md_parent_section": "§CE.3 [Example 3]", "md_verbatim": "## Example 3", "score": 0.4, "match_basis": "verbatim_token+domain_route:CE"}], "candidate_count": 5, "zero_candidate": false}
{"pdf_atom_id": "ig34_p0150_a006", "pdf_atom_type": "LIST_ITEM", "pdf_source": "SDTMIG_v3.4", "pdf_page": 150, "pdf_parent_section": "§6.2.3 [Clinical Events (CE)]", "pdf_verbatim": "1. The determination of events to be considered clinical events versus adverse events should be done carefully and with reference to regulatory guidelines or consultation with a regulatory review division. Events of clinical interest as defined by the protocol that are not considered AEs should be reflected as CEs.", "figure_ref": null, "candidates": [{"md_atom_id": "md_dmCE_assn_a002", "md_file": "knowledge_base/domains/CE/assumptions.md", "md_atom_type": "LIST_ITEM", "md_parent_section": "§CE [CE — Assumptions]", "md_verbatim": "1. The determination of events to be considered clinical events versus adverse events should be done carefully and with reference to regulatory guidelines or consultation with a regulatory review division. Events of clinical interest as defined by the protocol that are not considered AEs should be reflected as CEs.", "score": 1.0, "match_basis": "verbatim_token+domain_route:CE"}, {"md_atom_id": "md_dmCE_assn_a012", "md_file": "knowledge_base/domains/CE/assumptions.md", "md_atom_type": "LIST_ITEM", "md_parent_section": "§CE [CE — Assumptions]", "md_verbatim": "3. The collection of write-in events on a CE CRF should be considered with caution. Sponsors must ensure that all adverse events are recorded in the AE domain.", "score": 0.5394, "match_basis": "verbatim_token+domain_route:CE"}, {"md_atom_id": "md_dmCE_assn_a003", "md_file": "knowledge_base/domains/CE/assumptions.md", "md_atom_type": "LIST_ITEM", "md_parent_section": "§CE [CE — Assumptions]", "md_verbatim": "   a. Events considered to be clinical events may include episodes of symptoms of the disease under study (often known as \"signs and symptoms\"), or events that do not constitute adverse events in themselves, though they might lead to the identification of an adverse event. For example, in a study of an investigational treatment for migraine headaches, migraine headaches may not be considered to be adverse events per protocol. The occurrence of migraines or associated signs and symptoms might be reported in CE.", "score": 0.5211, "match_basis": "verbatim_token+domain_route:CE"}, {"md_atom_id": "md_dmCE_assn_a004", "md_file": "knowledge_base/domains/CE/assumptions.md", "md_atom_type": "LIST_ITEM", "md_parent_section": "§CE [CE — Assumptions]", "md_verbatim": "   b. In vaccine trials, certain adverse events may be considered to be signs or symptoms and accordingly determined to be clinical events. If any event is considered serious, then the serious variable (--SER) and the serious adverse event flags (--SCAN, --SCONG, --SDISAB, --SDTH, --SHOSP, --SLIFE, --SOD, --SMIE) would be required in the CE domain.", "score": 0.5174, "match_basis": "verbatim_token+domain_route:CE"}, {"md_atom_id": "md_dmCE_assn_a015", "md_file": "knowledge_base/domains/CE/assumptions.md", "md_atom_type": "LIST_ITEM", "md_parent_section": "§CE [CE — Assumptions]", "md_verbatim": "   a. Relative timing assessments \"Prior\" or \"Ongoing\" are common in the collection of CE information. CESTRF or CEENRF may be used when this timing assessment is relative to the study reference period for the subject represented in the Demographics (DM) dataset (RFENDTC). CESTRTPT with CESTTPT and/or CEENRTPT with CEENTPT may be used when \"Prior\" or \"Ongoing\" are relative to specific dates other than the start and end of the study reference period. See Section 4.4.7, Use of Relative Timing Variables.", "score": 0.4753, "match_basis": "verbatim_token+domain_route:CE"}], "candidate_count": 5, "zero_candidate": false}
{"pdf_atom_id": "ig34_p0150_a007", "pdf_atom_type": "LIST_ITEM", "pdf_source": "SDTMIG_v3.4", "pdf_page": 150, "pdf_parent_section": "§6.2.3 [Clinical Events (CE)]", "pdf_verbatim": "(a) Events considered to be clinical events may include episodes of symptoms of the disease under study (often known as \"signs and symptoms\"), or events that do not constitute adverse events in themselves, though they might lead to the identification of an adverse event. For example, in a study of an investigational treatment for migraine headaches, migraine headaches may not be considered as adverse events per protocol. The occurrence of migraines or associated signs and symptoms might be reported in CE.", "figure_ref": null, "candidates": [{"md_atom_id": "md_dmCE_assn_a003", "md_file": "knowledge_base/domains/CE/assumptions.md", "md_atom_type": "LIST_ITEM", "md_parent_section": "§CE [CE — Assumptions]", "md_verbatim": "   a. Events considered to be clinical events may include episodes of symptoms of the disease under study (often known as \"signs and symptoms\"), or events that do not constitute adverse events in themselves, though they might lead to the identification of an adverse event. For example, in a study of an investigational treatment for migraine headaches, migraine headaches may not be considered to be adverse events per protocol. The occurrence of migraines or associated signs and symptoms might be reported in CE.", "score": 1.0, "match_basis": "verbatim_token+domain_route:CE"}, {"md_atom_id": "md_dmCE_assn_a005", "md_file": "knowledge_base/domains/CE/assumptions.md", "md_atom_type": "LIST_ITEM", "md_parent_section": "§CE [CE — Assumptions]", "md_verbatim": "   c. Other studies might track the occurrence of specific events as efficacy endpoints. For example, in a study of an investigational treatment for prevention of ischemic stroke, all occurrences of TIA, stroke, and death might be captured as clinical events and assessed as to whether they meet endpoint criteria. Note that other information about these events may be reported in other datasets. For example, the event leading to death would also be reported as a reason for study discontinuation in the Disposition (DS) domain.", "score": 0.5819, "match_basis": "verbatim_token+domain_route:CE"}, {"md_atom_id": "md_dmCE_assn_a002", "md_file": "knowledge_base/domains/CE/assumptions.md", "md_atom_type": "LIST_ITEM", "md_parent_section": "§CE [CE — Assumptions]", "md_verbatim": "1. The determination of events to be considered clinical events versus adverse events should be done carefully and with reference to regulatory guidelines or consultation with a regulatory review division. Events of clinical interest as defined by the protocol that are not considered AEs should be reflected as CEs.", "score": 0.5211, "match_basis": "verbatim_token+domain_route:CE"}, {"md_atom_id": "md_dmCE_assn_a004", "md_file": "knowledge_base/domains/CE/assumptions.md", "md_atom_type": "LIST_ITEM", "md_parent_section": "§CE [CE — Assumptions]", "md_verbatim": "   b. In vaccine trials, certain adverse events may be considered to be signs or symptoms and accordingly determined to be clinical events. If any event is considered serious, then the serious variable (--SER) and the serious adverse event flags (--SCAN, --SCONG, --SDISAB, --SDTH, --SHOSP, --SLIFE, --SOD, --SMIE) would be required in the CE domain.", "score": 0.5031, "match_basis": "verbatim_token+domain_route:CE"}, {"md_atom_id": "md_dmCE_assn_a006", "md_file": "knowledge_base/domains/CE/assumptions.md", "md_atom_type": "LIST_ITEM", "md_parent_section": "§CE [CE — Assumptions]", "md_verbatim": "2. CEOCCUR and CEPRESP are used together to indicate whether the event in CETERM was prespecified and whether it occurred. CEPRESP can be used to separate records that correspond to probing questions for prespecified events from those that represent spontaneously reported events, whereas CEOCCUR contains the responses to such questions. The following table shows how these variables are populated in various situations.", "score": 0.4934, "match_basis": "verbatim_token+domain_route:CE"}], "candidate_count": 5, "zero_candidate": false}
{"pdf_atom_id": "ig34_p0150_a008", "pdf_atom_type": "LIST_ITEM", "pdf_source": "SDTMIG_v3.4", "pdf_page": 150, "pdf_parent_section": "§6.2.3 [Clinical Events (CE)]", "pdf_verbatim": "(b) In vaccine trials, certain adverse events may be considered to be signs of symptomatology and accordingly determined to be clinical events. If any event is considered serious, then the serious adverse event flag (--SER) and the serious adverse event flags (--SCAT, --SCOD, --SDTH, --SDHSP, --SLIFE, --SOD, --SMIE) would be required in the CE domain.", "figure_ref": null, "candidates": [{"md_atom_id": "md_dmCE_assn_a004", "md_file": "knowledge_base/domains/CE/assumptions.md", "md_atom_type": "LIST_ITEM", "md_parent_section": "§CE [CE — Assumptions]", "md_verbatim": "   b. In vaccine trials, certain adverse events may be considered to be signs or symptoms and accordingly determined to be clinical events. If any event is considered serious, then the serious variable (--SER) and the serious adverse event flags (--SCAN, --SCONG, --SDISAB, --SDTH, --SHOSP, --SLIFE, --SOD, --SMIE) would be required in the CE domain.", "score": 0.87, "match_basis": "verbatim_token+domain_route:CE"}, {"md_atom_id": "md_dmCE_assn_a002", "md_file": "knowledge_base/domains/CE/assumptions.md", "md_atom_type": "LIST_ITEM", "md_parent_section": "§CE [CE — Assumptions]", "md_verbatim": "1. The determination of events to be considered clinical events versus adverse events should be done carefully and with reference to regulatory guidelines or consultation with a regulatory review division. Events of clinical interest as defined by the protocol that are not considered AEs should be reflected as CEs.", "score": 0.52, "match_basis": "verbatim_token+domain_route:CE"}, {"md_atom_id": "md_dmCE_assn_a012", "md_file": "knowledge_base/domains/CE/assumptions.md", "md_atom_type": "LIST_ITEM", "md_parent_section": "§CE [CE — Assumptions]", "md_verbatim": "3. The collection of write-in events on a CE CRF should be considered with caution. Sponsors must ensure that all adverse events are recorded in the AE domain.", "score": 0.5091, "match_basis": "verbatim_token+domain_route:CE"}, {"md_atom_id": "md_dmCE_assn_a003", "md_file": "knowledge_base/domains/CE/assumptions.md", "md_atom_type": "LIST_ITEM", "md_parent_section": "§CE [CE — Assumptions]", "md_verbatim": "   a. Events considered to be clinical events may include episodes of symptoms of the disease under study (often known as \"signs and symptoms\"), or events that do not constitute adverse events in themselves, though they might lead to the identification of an adverse event. For example, in a study of an investigational treatment for migraine headaches, migraine headaches may not be considered to be adverse events per protocol. The occurrence of migraines or associated signs and symptoms might be reported in CE.", "score": 0.5018, "match_basis": "verbatim_token+domain_route:CE"}, {"md_atom_id": "md_dmCE_assn_a017", "md_file": "knowledge_base/domains/CE/assumptions.md", "md_atom_type": "LIST_ITEM", "md_parent_section": "§CE [CE — Assumptions]", "md_verbatim": "6. The clinical events domain is based on the Events general observation class and thus can use any variables in the Events class, including those found in the AE domain specification table.", "score": 0.4868, "match_basis": "verbatim_token+domain_route:CE"}], "candidate_count": 5, "zero_candidate": false}
{"pdf_atom_id": "ig34_p0150_a009", "pdf_atom_type": "LIST_ITEM", "pdf_source": "SDTMIG_v3.4", "pdf_page": 150, "pdf_parent_section": "§6.2.3 [Clinical Events (CE)]", "pdf_verbatim": "(c) Other studies might track the occurrence of specific events as efficacy endpoints. For example, in a study of an investigational treatment for prevention of ischemic stroke, all occurrences of TIA, stroke, and death might be captured as clinical events and assessed as to whether they meet endpoint criteria. Note that other information about these events may be reported in other datasets. For example, the event leading to death would be reported in AE; death would also be a record in the Disposition (DS) domain.", "figure_ref": null, "candidates": [{"md_atom_id": "md_dmCE_assn_a005", "md_file": "knowledge_base/domains/CE/assumptions.md", "md_atom_type": "LIST_ITEM", "md_parent_section": "§CE [CE — Assumptions]", "md_verbatim": "   c. Other studies might track the occurrence of specific events as efficacy endpoints. For example, in a study of an investigational treatment for prevention of ischemic stroke, all occurrences of TIA, stroke, and death might be captured as clinical events and assessed as to whether they meet endpoint criteria. Note that other information about these events may be reported in other datasets. For example, the event leading to death would also be reported as a reason for study discontinuation in the Disposition (DS) domain.", "score": 0.9528, "match_basis": "verbatim_token+domain_route:CE"}, {"md_atom_id": "md_dmCE_assn_a003", "md_file": "knowledge_base/domains/CE/assumptions.md", "md_atom_type": "LIST_ITEM", "md_parent_section": "§CE [CE — Assumptions]", "md_verbatim": "   a. Events considered to be clinical events may include episodes of symptoms of the disease under study (often known as \"signs and symptoms\"), or events that do not constitute adverse events in themselves, though they might lead to the identification of an adverse event. For example, in a study of an investigational treatment for migraine headaches, migraine headaches may not be considered to be adverse events per protocol. The occurrence of migraines or associated signs and symptoms might be reported in CE.", "score": 0.58, "match_basis": "verbatim_token+domain_route:CE"}, {"md_atom_id": "md_dmCE_assn_a015", "md_file": "knowledge_base/domains/CE/assumptions.md", "md_atom_type": "LIST_ITEM", "md_parent_section": "§CE [CE — Assumptions]", "md_verbatim": "   a. Relative timing assessments \"Prior\" or \"Ongoing\" are common in the collection of CE information. CESTRF or CEENRF may be used when this timing assessment is relative to the study reference period for the subject represented in the Demographics (DM) dataset (RFENDTC). CESTRTPT with CESTTPT and/or CEENRTPT with CEENTPT may be used when \"Prior\" or \"Ongoing\" are relative to specific dates other than the start and end of the study reference period. See Section 4.4.7, Use of Relative Timing Variables.", "score": 0.5247, "match_basis": "verbatim_token+domain_route:CE"}, {"md_atom_id": "md_dmCE_assn_a006", "md_file": "knowledge_base/domains/CE/assumptions.md", "md_atom_type": "LIST_ITEM", "md_parent_section": "§CE [CE — Assumptions]", "md_verbatim": "2. CEOCCUR and CEPRESP are used together to indicate whether the event in CETERM was prespecified and whether it occurred. CEPRESP can be used to separate records that correspond to probing questions for prespecified events from those that represent spontaneously reported events, whereas CEOCCUR contains the responses to such questions. The following table shows how these variables are populated in various situations.", "score": 0.5219, "match_basis": "verbatim_token+domain_route:CE"}, {"md_atom_id": "md_dmCE_assn_a017", "md_file": "knowledge_base/domains/CE/assumptions.md", "md_atom_type": "LIST_ITEM", "md_parent_section": "§CE [CE — Assumptions]", "md_verbatim": "6. The clinical events domain is based on the Events general observation class and thus can use any variables in the Events class, including those found in the AE domain specification table.", "score": 0.4937, "match_basis": "verbatim_token+domain_route:CE"}], "candidate_count": 5, "zero_candidate": false}
{"pdf_atom_id": "ig34_p0150_a010", "pdf_atom_type": "LIST_ITEM", "pdf_source": "SDTMIG_v3.4", "pdf_page": 150, "pdf_parent_section": "§6.2.3 [Clinical Events (CE)]", "pdf_verbatim": "2. CEOCCUR and CEPRESP are used together to indicate whether the event in CETERM was prespecified and whether it occurred. CEPRESP can be used to separate records that correspond to probing questions for prespecified events from those that represent spontaneously reported events, whereas CEOCCUR contains the responses to such questions. The following table shows how these variables are populated in various situations.", "figure_ref": null, "candidates": [{"md_atom_id": "md_dmCE_assn_a006", "md_file": "knowledge_base/domains/CE/assumptions.md", "md_atom_type": "LIST_ITEM", "md_parent_section": "§CE [CE — Assumptions]", "md_verbatim": "2. CEOCCUR and CEPRESP are used together to indicate whether the event in CETERM was prespecified and whether it occurred. CEPRESP can be used to separate records that correspond to probing questions for prespecified events from those that represent spontaneously reported events, whereas CEOCCUR contains the responses to such questions. The following table shows how these variables are populated in various situations.", "score": 1.0, "match_basis": "verbatim_token+domain_route:CE"}, {"md_atom_id": "md_dmCE_assn_a005", "md_file": "knowledge_base/domains/CE/assumptions.md", "md_atom_type": "LIST_ITEM", "md_parent_section": "§CE [CE — Assumptions]", "md_verbatim": "   c. Other studies might track the occurrence of specific events as efficacy endpoints. For example, in a study of an investigational treatment for prevention of ischemic stroke, all occurrences of TIA, stroke, and death might be captured as clinical events and assessed as to whether they meet endpoint criteria. Note that other information about these events may be reported in other datasets. For example, the event leading to death would also be reported as a reason for study discontinuation in the Disposition (DS) domain.", "score": 0.5191, "match_basis": "verbatim_token+domain_route:CE"}, {"md_atom_id": "md_dmCE_assn_a017", "md_file": "knowledge_base/domains/CE/assumptions.md", "md_atom_type": "LIST_ITEM", "md_parent_section": "§CE [CE — Assumptions]", "md_verbatim": "6. The clinical events domain is based on the Events general observation class and thus can use any variables in the Events class, including those found in the AE domain specification table.", "score": 0.5085, "match_basis": "verbatim_token+domain_route:CE"}, {"md_atom_id": "md_dmCE_assn_a015", "md_file": "knowledge_base/domains/CE/assumptions.md", "md_atom_type": "LIST_ITEM", "md_parent_section": "§CE [CE — Assumptions]", "md_verbatim": "   a. Relative timing assessments \"Prior\" or \"Ongoing\" are common in the collection of CE information. CESTRF or CEENRF may be used when this timing assessment is relative to the study reference period for the subject represented in the Demographics (DM) dataset (RFENDTC). CESTRTPT with CESTTPT and/or CEENRTPT with CEENTPT may be used when \"Prior\" or \"Ongoing\" are relative to specific dates other than the start and end of the study reference period. See Section 4.4.7, Use of Relative Timing Variables.", "score": 0.5029, "match_basis": "verbatim_token+domain_route:CE"}, {"md_atom_id": "md_dmCE_assn_a003", "md_file": "knowledge_base/domains/CE/assumptions.md", "md_atom_type": "LIST_ITEM", "md_parent_section": "§CE [CE — Assumptions]", "md_verbatim": "   a. Events considered to be clinical events may include episodes of symptoms of the disease under study (often known as \"signs and symptoms\"), or events that do not constitute adverse events in themselves, though they might lead to the identification of an adverse event. For example, in a study of an investigational treatment for migraine headaches, migraine headaches may not be considered to be adverse events per protocol. The occurrence of migraines or associated signs and symptoms might be reported in CE.", "score": 0.4934, "match_basis": "verbatim_token+domain_route:CE"}], "candidate_count": 5, "zero_candidate": false}
{"pdf_atom_id": "ig34_p0150_a011", "pdf_atom_type": "TABLE_HEADER", "pdf_source": "SDTMIG_v3.4", "pdf_page": 150, "pdf_parent_section": "§6.2.3 [Clinical Events (CE)]", "pdf_verbatim": "| Situation | Value of CEPRESP | Value of CEOCCUR | Value of CESTAT |", "figure_ref": null, "candidates": [{"md_atom_id": "md_dmCE_assn_a007", "md_file": "knowledge_base/domains/CE/assumptions.md", "md_atom_type": "TABLE_HEADER", "md_parent_section": "§CE [CE — Assumptions]", "md_verbatim": "   | Situation | Value of CEPRESP | Value of CEOCCUR | Value of CESTAT |\n   |-----------|-----------------|-----------------|----------------|", "score": 1.0, "match_basis": "verbatim_token+domain_route:CE"}, {"md_atom_id": "md_dmCE_ex_a016", "md_file": "knowledge_base/domains/CE/examples.md", "md_atom_type": "TABLE_HEADER", "md_parent_section": "§CE.1 [Example 1]", "md_verbatim": "| Row | STUDYID | DOMAIN | USUBJID | CESEQ | CETERM | CEPRESP | CEOCCUR | CESTDTC |\n|-----|---------|--------|---------|-------|--------|---------|---------|---------|", "score": 0.55, "match_basis": "verbatim_token+domain_route:CE"}, {"md_atom_id": "md_dmCE_ex_a047", "md_file": "knowledge_base/domains/CE/examples.md", "md_atom_type": "TABLE_HEADER", "md_parent_section": "§CE.2 [Example 2]", "md_verbatim": "| Row | STUDYID | DOMAIN | USUBJID | CESEQ | CETERM | CEDECOD | CEPRESP | CEOCCUR | CESTAT | CESEV | CESTDTC | CEENDTC |\n|-----|---------|--------|---------|-------|--------|---------|---------|---------|--------|-------|---------|---------|", "score": 0.5448, "match_basis": "verbatim_token+domain_route:CE"}, {"md_atom_id": "md_dmCE_ex_a093", "md_file": "knowledge_base/domains/CE/examples.md", "md_atom_type": "TABLE_HEADER", "md_parent_section": "§CE.3 [Example 3]", "md_verbatim": "| Row | STUDYID | DOMAIN | USUBJID | CESEQ | CEGRPID | CESPID | CETERM | CECAT | CESCAT | CEPRESP | CEOCCUR | CELOC | CELAT | CECONTRT | CEDTC | CESTDTC |\n|-----|---------|--------|---------|-------|---------|--------|--------|-------|--------|---------|---------|-------|-------|----------|-------|---------|", "score": 0.5014, "match_basis": "verbatim_token+domain_route:CE"}, {"md_atom_id": "md_dmCE_ex_a057", "md_file": "knowledge_base/domains/CE/examples.md", "md_atom_type": "TABLE_HEADER", "md_parent_section": "§CE.3 [Example 3]", "md_verbatim": "| Question | Response Options |\n|----------|-----------------|", "score": 0.4909, "match_basis": "verbatim_token+domain_route:CE"}], "candidate_count": 5, "zero_candidate": false}
{"pdf_atom_id": "ig34_p0150_a012", "pdf_atom_type": "TABLE_ROW", "pdf_source": "SDTMIG_v3.4", "pdf_page": 150, "pdf_parent_section": "§6.2.3 [Clinical Events (CE)]", "pdf_verbatim": "| Spontaneously reported event occurrence | | Y | |", "figure_ref": null, "candidates": [{"md_atom_id": "md_dmCE_assn_a008", "md_file": "knowledge_base/domains/CE/assumptions.md", "md_atom_type": "TABLE_ROW", "md_parent_section": "§CE [CE — Assumptions]", "md_verbatim": "   | Spontaneously reported event occurrence | | | |", "score": 1.0, "match_basis": "verbatim_token+domain_route:CE"}, {"md_atom_id": "md_dmCE_assn_a009", "md_file": "knowledge_base/domains/CE/assumptions.md", "md_atom_type": "TABLE_ROW", "md_parent_section": "§CE [CE — Assumptions]", "md_verbatim": "   | Prespecified event occurred | Y | Y | |", "score": 0.5231, "match_basis": "verbatim_token+domain_route:CE"}, {"md_atom_id": "md_dmCE_assn_a010", "md_file": "knowledge_base/domains/CE/assumptions.md", "md_atom_type": "TABLE_ROW", "md_parent_section": "§CE [CE — Assumptions]", "md_verbatim": "   | Prespecified event did not occur | Y | N | |", "score": 0.49, "match_basis": "verbatim_token+domain_route:CE"}, {"md_atom_id": "md_dmCE_assn_a011", "md_file": "knowledge_base/domains/CE/assumptions.md", "md_atom_type": "TABLE_ROW", "md_parent_section": "§CE [CE — Assumptions]", "md_verbatim": "   | Prespecified event has no response | Y | | NOT DONE |", "score": 0.4682, "match_basis": "verbatim_token+domain_route:CE"}, {"md_atom_id": "md_dmCE_ex_a080", "md_file": "knowledge_base/domains/CE/examples.md", "md_atom_type": "TABLE_ROW", "md_parent_section": "§CE.3 [Example 3]", "md_verbatim": "| 1 | ABC | MH | ABC-US-701-002 | 1 | 1 | MH1 | Fracture | FRACTURE-RELATED EVENTS | | Y | Y | RIB 3 | RIGHT | Y | 2006-05-13 | 2005-08-18 | -P5Y |", "score": 0.4471, "match_basis": "verbatim_token+domain_route:CE"}], "candidate_count": 5, "zero_candidate": false}
{"pdf_atom_id": "ig34_p0150_a013", "pdf_atom_type": "TABLE_ROW", "pdf_source": "SDTMIG_v3.4", "pdf_page": 150, "pdf_parent_section": "§6.2.3 [Clinical Events (CE)]", "pdf_verbatim": "| Prespecified event occurred | Y | Y | |", "figure_ref": null, "candidates": [{"md_atom_id": "md_dmCE_assn_a009", "md_file": "knowledge_base/domains/CE/assumptions.md", "md_atom_type": "TABLE_ROW", "md_parent_section": "§CE [CE — Assumptions]", "md_verbatim": "   | Prespecified event occurred | Y | Y | |", "score": 1.0, "match_basis": "verbatim_token+domain_route:CE"}, {"md_atom_id": "md_dmCE_assn_a010", "md_file": "knowledge_base/domains/CE/assumptions.md", "md_atom_type": "TABLE_ROW", "md_parent_section": "§CE [CE — Assumptions]", "md_verbatim": "   | Prespecified event did not occur | Y | N | |", "score": 0.8571, "match_basis": "verbatim_token+domain_route:CE"}, {"md_atom_id": "md_dmCE_assn_a011", "md_file": "knowledge_base/domains/CE/assumptions.md", "md_atom_type": "TABLE_ROW", "md_parent_section": "§CE [CE — Assumptions]", "md_verbatim": "   | Prespecified event has no response | Y | | NOT DONE |", "score": 0.6889, "match_basis": "verbatim_token+domain_route:CE"}, {"md_atom_id": "md_dmCE_assn_a008", "md_file": "knowledge_base/domains/CE/assumptions.md", "md_atom_type": "TABLE_ROW", "md_parent_section": "§CE [CE — Assumptions]", "md_verbatim": "   | Spontaneously reported event occurrence | | | |", "score": 0.5231, "match_basis": "verbatim_token+domain_route:CE"}, {"md_atom_id": "md_dmCE_ex_a044", "md_file": "knowledge_base/domains/CE/examples.md", "md_atom_type": "SENTENCE", "md_parent_section": "§CE.2 [Example 2]", "md_verbatim": "Because this event was not prespecified, CEPRESP and CEOCCUR are null.", "score": 0.4867, "match_basis": "verbatim_token+domain_route:CE"}], "candidate_count": 5, "zero_candidate": false}
{"pdf_atom_id": "ig34_p0150_a014", "pdf_atom_type": "TABLE_ROW", "pdf_source": "SDTMIG_v3.4", "pdf_page": 150, "pdf_parent_section": "§6.2.3 [Clinical Events (CE)]", "pdf_verbatim": "| Prespecified event did not occur | Y | N | |", "figure_ref": null, "candidates": [{"md_atom_id": "md_dmCE_assn_a010", "md_file": "knowledge_base/domains/CE/assumptions.md", "md_atom_type": "TABLE_ROW", "md_parent_section": "§CE [CE — Assumptions]", "md_verbatim": "   | Prespecified event did not occur | Y | N | |", "score": 1.0, "match_basis": "verbatim_token+domain_route:CE"}, {"md_atom_id": "md_dmCE_assn_a009", "md_file": "knowledge_base/domains/CE/assumptions.md", "md_atom_type": "TABLE_ROW", "md_parent_section": "§CE [CE — Assumptions]", "md_verbatim": "   | Prespecified event occurred | Y | Y | |", "score": 0.8571, "match_basis": "verbatim_token+domain_route:CE"}, {"md_atom_id": "md_dmCE_assn_a011", "md_file": "knowledge_base/domains/CE/assumptions.md", "md_atom_type": "TABLE_ROW", "md_parent_section": "§CE [CE — Assumptions]", "md_verbatim": "   | Prespecified event has no response | Y | | NOT DONE |", "score": 0.736, "match_basis": "verbatim_token+domain_route:CE"}, {"md_atom_id": "md_dmCE_ex_a044", "md_file": "knowledge_base/domains/CE/examples.md", "md_atom_type": "SENTENCE", "md_parent_section": "§CE.2 [Example 2]", "md_verbatim": "Because this event was not prespecified, CEPRESP and CEOCCUR are null.", "score": 0.52, "match_basis": "verbatim_token+domain_route:CE"}, {"md_atom_id": "md_dmCE_assn_a008", "md_file": "knowledge_base/domains/CE/assumptions.md", "md_atom_type": "TABLE_ROW", "md_parent_section": "§CE [CE — Assumptions]", "md_verbatim": "   | Spontaneously reported event occurrence | | | |", "score": 0.49, "match_basis": "verbatim_token+domain_route:CE"}], "candidate_count": 5, "zero_candidate": false}
{"pdf_atom_id": "ig34_p0150_a015", "pdf_atom_type": "TABLE_ROW", "pdf_source": "SDTMIG_v3.4", "pdf_page": 150, "pdf_parent_section": "§6.2.3 [Clinical Events (CE)]", "pdf_verbatim": "| Prespecified event has no response | Y | | NOT DONE |", "figure_ref": null, "candidates": [{"md_atom_id": "md_dmCE_assn_a011", "md_file": "knowledge_base/domains/CE/assumptions.md", "md_atom_type": "TABLE_ROW", "md_parent_section": "§CE [CE — Assumptions]", "md_verbatim": "   | Prespecified event has no response | Y | | NOT DONE |", "score": 1.0, "match_basis": "verbatim_token+domain_route:CE"}, {"md_atom_id": "md_dmCE_assn_a010", "md_file": "knowledge_base/domains/CE/assumptions.md", "md_atom_type": "TABLE_ROW", "md_parent_section": "§CE [CE — Assumptions]", "md_verbatim": "   | Prespecified event did not occur | Y | N | |", "score": 0.736, "match_basis": "verbatim_token+domain_route:CE"}, {"md_atom_id": "md_dmCE_assn_a009", "md_file": "knowledge_base/domains/CE/assumptions.md", "md_atom_type": "TABLE_ROW", "md_parent_section": "§CE [CE — Assumptions]", "md_verbatim": "   | Prespecified event occurred | Y | Y | |", "score": 0.6889, "match_basis": "verbatim_token+domain_route:CE"}, {"md_atom_id": "md_dmCE_ex_a032", "md_file": "knowledge_base/domains/CE/examples.md", "md_atom_type": "TABLE_ROW", "md_parent_section": "§CE.2 [Example 2]", "md_verbatim": "| Other, Specify: ___ | | ___ / ___ / ___ (dd/mmm/yyyy) | ___ / ___ / ___ (dd/mmm/yyyy) | ( ) Mild  ( ) Moderate  ( ) Severe |", "score": 0.4789, "match_basis": "verbatim_token+domain_route:CE"}, {"md_atom_id": "md_dmCE_assn_a008", "md_file": "knowledge_base/domains/CE/assumptions.md", "md_atom_type": "TABLE_ROW", "md_parent_section": "§CE [CE — Assumptions]", "md_verbatim": "   | Spontaneously reported event occurrence | | | |", "score": 0.4682, "match_basis": "verbatim_token+domain_route:CE"}], "candidate_count": 5, "zero_candidate": false}
{"pdf_atom_id": "ig34_p0150_a016", "pdf_atom_type": "LIST_ITEM", "pdf_source": "SDTMIG_v3.4", "pdf_page": 150, "pdf_parent_section": "§6.2.3 [Clinical Events (CE)]", "pdf_verbatim": "3. The collection of write-in events on a CE CRF should be considered with caution. Sponsors must ensure that all adverse events are recorded in the AE domain.", "figure_ref": null, "candidates": [{"md_atom_id": "md_dmCE_assn_a012", "md_file": "knowledge_base/domains/CE/assumptions.md", "md_atom_type": "LIST_ITEM", "md_parent_section": "§CE [CE — Assumptions]", "md_verbatim": "3. The collection of write-in events on a CE CRF should be considered with caution. Sponsors must ensure that all adverse events are recorded in the AE domain.", "score": 1.0, "match_basis": "verbatim_token+domain_route:CE"}, {"md_atom_id": "md_dmCE_assn_a002", "md_file": "knowledge_base/domains/CE/assumptions.md", "md_atom_type": "LIST_ITEM", "md_parent_section": "§CE [CE — Assumptions]", "md_verbatim": "1. The determination of events to be considered clinical events versus adverse events should be done carefully and with reference to regulatory guidelines or consultation with a regulatory review division. Events of clinical interest as defined by the protocol that are not considered AEs should be reflected as CEs.", "score": 0.5394, "match_basis": "verbatim_token+domain_route:CE"}, {"md_atom_id": "md_dmCE_assn_a004", "md_file": "knowledge_base/domains/CE/assumptions.md", "md_atom_type": "LIST_ITEM", "md_parent_section": "§CE [CE — Assumptions]", "md_verbatim": "   b. In vaccine trials, certain adverse events may be considered to be signs or symptoms and accordingly determined to be clinical events. If any event is considered serious, then the serious variable (--SER) and the serious adverse event flags (--SCAN, --SCONG, --SDISAB, --SDTH, --SHOSP, --SLIFE, --SOD, --SMIE) would be required in the CE domain.", "score": 0.511, "match_basis": "verbatim_token+domain_route:CE"}, {"md_atom_id": "md_dmCE_assn_a003", "md_file": "knowledge_base/domains/CE/assumptions.md", "md_atom_type": "LIST_ITEM", "md_parent_section": "§CE [CE — Assumptions]", "md_verbatim": "   a. Events considered to be clinical events may include episodes of symptoms of the disease under study (often known as \"signs and symptoms\"), or events that do not constitute adverse events in themselves, though they might lead to the identification of an adverse event. For example, in a study of an investigational treatment for migraine headaches, migraine headaches may not be considered to be adverse events per protocol. The occurrence of migraines or associated signs and symptoms might be reported in CE.", "score": 0.4765, "match_basis": "verbatim_token+domain_route:CE"}, {"md_atom_id": "md_dmCE_assn_a006", "md_file": "knowledge_base/domains/CE/assumptions.md", "md_atom_type": "LIST_ITEM", "md_parent_section": "§CE [CE — Assumptions]", "md_verbatim": "2. CEOCCUR and CEPRESP are used together to indicate whether the event in CETERM was prespecified and whether it occurred. CEPRESP can be used to separate records that correspond to probing questions for prespecified events from those that represent spontaneously reported events, whereas CEOCCUR contains the responses to such questions. The following table shows how these variables are populated in various situations.", "score": 0.4762, "match_basis": "verbatim_token+domain_route:CE"}], "candidate_count": 5, "zero_candidate": false}
{"pdf_atom_id": "ig34_p0150_a017", "pdf_atom_type": "LIST_ITEM", "pdf_source": "SDTMIG_v3.4", "pdf_page": 150, "pdf_parent_section": "§6.2.3 [Clinical Events (CE)]", "pdf_verbatim": "4. Any identifier variable may be added to the CE domain.", "figure_ref": null, "candidates": [{"md_atom_id": "md_dmCE_assn_a013", "md_file": "knowledge_base/domains/CE/assumptions.md", "md_atom_type": "LIST_ITEM", "md_parent_section": "§CE [CE — Assumptions]", "md_verbatim": "4. Any identifier variable may be added to the CE domain.", "score": 1.0, "match_basis": "verbatim_token+domain_route:CE"}, {"md_atom_id": "md_dmCE_assn_a014", "md_file": "knowledge_base/domains/CE/assumptions.md", "md_atom_type": "LIST_ITEM", "md_parent_section": "§CE [CE — Assumptions]", "md_verbatim": "5. Timing variables", "score": 0.5241, "match_basis": "verbatim_token+domain_route:CE"}, {"md_atom_id": "md_dmCE_assn_a017", "md_file": "knowledge_base/domains/CE/assumptions.md", "md_atom_type": "LIST_ITEM", "md_parent_section": "§CE [CE — Assumptions]", "md_verbatim": "6. The clinical events domain is based on the Events general observation class and thus can use any variables in the Events class, including those found in the AE domain specification table.", "score": 0.5063, "match_basis": "verbatim_token+domain_route:CE"}, {"md_atom_id": "md_dmCE_assn_a016", "md_file": "knowledge_base/domains/CE/assumptions.md", "md_atom_type": "LIST_ITEM", "md_parent_section": "§CE [CE — Assumptions]", "md_verbatim": "   b. Additional timing variables may be used when appropriate.", "score": 0.5, "match_basis": "verbatim_token+domain_route:CE"}, {"md_atom_id": "md_dmCE_assn_a004", "md_file": "knowledge_base/domains/CE/assumptions.md", "md_atom_type": "LIST_ITEM", "md_parent_section": "§CE [CE — Assumptions]", "md_verbatim": "   b. In vaccine trials, certain adverse events may be considered to be signs or symptoms and accordingly determined to be clinical events. If any event is considered serious, then the serious variable (--SER) and the serious adverse event flags (--SCAN, --SCONG, --SDISAB, --SDTH, --SHOSP, --SLIFE, --SOD, --SMIE) would be required in the CE domain.", "score": 0.4763, "match_basis": "verbatim_token+domain_route:CE"}], "candidate_count": 5, "zero_candidate": false}
{"pdf_atom_id": "ig34_p0151_a0001", "pdf_atom_type": "LIST_ITEM", "pdf_source": "SDTMIG_v3.4", "pdf_page": 151, "pdf_parent_section": "§6.2.3 [Clinical Events]", "pdf_verbatim": "5.\tTiming variables", "figure_ref": null, "candidates": [{"md_atom_id": "md_dmAE_assn_a016", "md_file": "knowledge_base/domains/AE/assumptions.md", "md_atom_type": "LIST_ITEM", "md_parent_section": "§AE [AE — Assumptions]", "md_verbatim": "5. **Timing variables**", "score": 0.9, "match_basis": "verbatim_token+global_search"}, {"md_atom_id": "md_dmBE_assn_a007", "md_file": "knowledge_base/domains/BE/assumptions.md", "md_atom_type": "LIST_ITEM", "md_parent_section": "§BE [BE — Assumptions]", "md_verbatim": "6. Timing variables:", "score": 0.9, "match_basis": "verbatim_token+global_search"}, {"md_atom_id": "md_dmCE_assn_a014", "md_file": "knowledge_base/domains/CE/assumptions.md", "md_atom_type": "LIST_ITEM", "md_parent_section": "§CE [CE — Assumptions]", "md_verbatim": "5. Timing variables", "score": 0.9, "match_basis": "verbatim_token+global_search"}, {"md_atom_id": "md_dmDS_assn_a022", "md_file": "knowledge_base/domains/DS/assumptions.md", "md_atom_type": "LIST_ITEM", "md_parent_section": "§DS [DS — Assumptions]", "md_verbatim": "4. **Timing variables**", "score": 0.9, "match_basis": "verbatim_token+global_search"}, {"md_atom_id": "md_dmEC_assn_a019", "md_file": "knowledge_base/domains/EC/assumptions.md", "md_atom_type": "LIST_ITEM", "md_parent_section": "§EC [EC — Assumptions]", "md_verbatim": "5. Timing variables", "score": 0.9, "match_basis": "verbatim_token+global_search"}], "candidate_count": 5, "zero_candidate": false}
{"pdf_atom_id": "ig34_p0151_a0002", "pdf_atom_type": "LIST_ITEM", "pdf_source": "SDTMIG_v3.4", "pdf_page": 151, "pdf_parent_section": "§6.2.3 [Clinical Events]", "pdf_verbatim": "a.\tRelative timing assessments \"Prior\" or \"Ongoing\" are common in the collection of CE information. CESTRF or CEENRF may be used when this timing assessment is relative to the study reference period for the subject represented in the Demographics (DM) dataset (RFENDTC). CESTRTPT with CESTTPT and/or CEENRTPT with CEENTPT may be used when \"Prior\" or \"Ongoing\" are relative to specific dates other than the start and end of the study reference period. See Section 4.4.7, Use of Relative Timing Variables.", "figure_ref": null, "candidates": [{"md_atom_id": "md_dmCE_assn_a015", "md_file": "knowledge_base/domains/CE/assumptions.md", "md_atom_type": "LIST_ITEM", "md_parent_section": "§CE [CE — Assumptions]", "md_verbatim": "   a. Relative timing assessments \"Prior\" or \"Ongoing\" are common in the collection of CE information. CESTRF or CEENRF may be used when this timing assessment is relative to the study reference period for the subject represented in the Demographics (DM) dataset (RFENDTC). CESTRTPT with CESTTPT and/or CEENRTPT with CEENTPT may be used when \"Prior\" or \"Ongoing\" are relative to specific dates other than the start and end of the study reference period. See Section 4.4.7, Use of Relative Timing Variables.", "score": 0.9, "match_basis": "verbatim_token+global_search"}, {"md_atom_id": "md_dmAE_assn_a017", "md_file": "knowledge_base/domains/AE/assumptions.md", "md_atom_type": "LIST_ITEM", "md_parent_section": "§AE [AE — Assumptions]", "md_verbatim": "   a. Relative timing assessment \"Ongoing\" is common in the collection of AE information. AEENRF may be used when this relative timing assessment is made coincident with the end of the study reference period for the subject represented in the Demographics (DM) dataset (RFENDTC). AEENRTPT with AEENTPT may be used when \"Ongoing\" is relative to another date (e.g., the final safety follow-up visit date). See Section 4.4.7, Use of Relative Timing Variables.", "score": 0.7207, "match_basis": "verbatim_token+global_search"}, {"md_atom_id": "md_dmMH_assn_a026", "md_file": "knowledge_base/domains/MH/assumptions.md", "md_atom_type": "LIST_ITEM", "md_parent_section": "§MH [MH — Assumptions]", "md_verbatim": "   a. Relative timing assessments such as \"Ongoing\" or \"Active\" are common in the collection of MH information. MHENRF may be used when this relative timing assessment is coincident with the start of the study reference period for the subject represented in the Demographics (DM) dataset (RFSTDTC). MHENRTPT and MHENTPT may be used when \"Ongoing\" is relative to another date such as the screening visit date. See the examples in this section and in Section 4.4.7, Use of Relative Timing Variables.", "score": 0.7154, "match_basis": "verbatim_token+global_search"}, {"md_atom_id": "md_ch04_a808", "md_file": "knowledge_base/chapters/ch04_general_assumptions.md", "md_atom_type": "LIST_ITEM", "md_parent_section": "§4.4.11 [Disease Milestones and Disease Milestone Timing Variables]", "md_verbatim": "- The timing variables for start and end of an event or intervention relative to the study reference period (--STRF and --ENRF) or relative to a reference time point (--STRTPT and --STTPT, --ENRTPT and --ENTPT) can be used in conjunction with disease milestone variables", "score": 0.5218, "match_basis": "verbatim_token+global_search"}, {"md_atom_id": "md_dmCM_assn_a005", "md_file": "knowledge_base/domains/CM/assumptions.md", "md_atom_type": "LIST_ITEM", "md_parent_section": "§CM [CM — Assumptions]", "md_verbatim": "4. Variables for timing relative to a time point\n   a. CMSTRTPT, CMSTTPT, CMENRTPT, and CMENTPT may be populated as necessary to indicate when a medication was used relative to specified time points. For example, assume a subject uses birth control medication. The subject has used the same medication for many years and continues to do so. The date the subject began using the medication (or at least a partial date) would be stored in CMSTDTC. CMENDTC is null because the end date is unknown/has not yet happened. This fact can be recorded by setting CMENTPT = \"2007-04-30\" (the date the assessment was made) and CMENRTPT = \"ONGOING\".", "score": 0.4687, "match_basis": "verbatim_token+global_search"}], "candidate_count": 5, "zero_candidate": false}
{"pdf_atom_id": "ig34_p0151_a0003", "pdf_atom_type": "LIST_ITEM", "pdf_source": "SDTMIG_v3.4", "pdf_page": 151, "pdf_parent_section": "§6.2.3 [Clinical Events]", "pdf_verbatim": "b.\tAdditional timing variables may be used when appropriate.", "figure_ref": null, "candidates": [{"md_atom_id": "md_dmCE_assn_a016", "md_file": "knowledge_base/domains/CE/assumptions.md", "md_atom_type": "LIST_ITEM", "md_parent_section": "§CE [CE — Assumptions]", "md_verbatim": "   b. Additional timing variables may be used when appropriate.", "score": 0.9, "match_basis": "verbatim_token+global_search"}, {"md_atom_id": "md_dmAE_assn_a018", "md_file": "knowledge_base/domains/AE/assumptions.md", "md_atom_type": "LIST_ITEM", "md_parent_section": "§AE [AE — Assumptions]", "md_verbatim": "   b. Additional timing variables (e.g., AEDTC) may be used when appropriate.", "score": 0.8486, "match_basis": "verbatim_token+global_search"}, {"md_atom_id": "md_dmMH_assn_a027", "md_file": "knowledge_base/domains/MH/assumptions.md", "md_atom_type": "LIST_ITEM", "md_parent_section": "§MH [MH — Assumptions]", "md_verbatim": "   b. Additional timing variables (e.g., MHSTRF) may be used when appropriate.", "score": 0.8333, "match_basis": "verbatim_token+global_search"}, {"md_atom_id": "md_dmML_assn_a008", "md_file": "knowledge_base/domains/ML/assumptions.md", "md_atom_type": "LIST_ITEM", "md_parent_section": "§ML [ML — Assumptions]", "md_verbatim": "2. Additional timing variables", "score": 0.6562, "match_basis": "verbatim_token+global_search"}, {"md_atom_id": "md_dmML_assn_a009", "md_file": "knowledge_base/domains/ML/assumptions.md", "md_atom_type": "LIST_ITEM", "md_parent_section": "§ML [ML — Assumptions]", "md_verbatim": "   a. Any additional timing variables may be added to this domain.", "score": 0.5927, "match_basis": "verbatim_token+global_search"}], "candidate_count": 5, "zero_candidate": false}
{"pdf_atom_id": "ig34_p0151_a0004", "pdf_atom_type": "LIST_ITEM", "pdf_source": "SDTMIG_v3.4", "pdf_page": 151, "pdf_parent_section": "§6.2.3 [Clinical Events]", "pdf_verbatim": "6.\tThe clinical events domain is based on the Events general observation class and thus can use any variables in the Events class, including those found in the AE domain specification table.", "figure_ref": null, "candidates": [{"md_atom_id": "md_dmCE_assn_a017", "md_file": "knowledge_base/domains/CE/assumptions.md", "md_atom_type": "LIST_ITEM", "md_parent_section": "§CE [CE — Assumptions]", "md_verbatim": "6. The clinical events domain is based on the Events general observation class and thus can use any variables in the Events class, including those found in the AE domain specification table.", "score": 0.9, "match_basis": "verbatim_token+global_search"}, {"md_atom_id": "md_dmIS_assn_a017", "md_file": "knowledge_base/domains/IS/assumptions.md", "md_atom_type": "LIST_ITEM", "md_parent_section": "§IS [IS — Assumptions]", "md_verbatim": "10. Any Identifier variables, Timing variables, or Findings general observation class qualifiers may be added to the IS domain.", "score": 0.5242, "match_basis": "verbatim_token+global_search"}, {"md_atom_id": "md_dmAG_assn_a018", "md_file": "knowledge_base/domains/AG/assumptions.md", "md_atom_type": "LIST_ITEM", "md_parent_section": "§AG [AG — Assumptions]", "md_verbatim": "5. Any identifier variables, timing variables, or interventions general observation-class qualifiers may be added to the AG domain.", "score": 0.5217, "match_basis": "verbatim_token+global_search"}, {"md_atom_id": "md_ch02_a072", "md_file": "knowledge_base/chapters/ch02_fundamentals.md", "md_atom_type": "LIST_ITEM", "md_parent_section": "§2.5 [The SDTM Standard Domain Models]", "md_verbatim": "1. The Identifier variables **STUDYID, DOMAIN, USUBJID, and --SEQ** are required in all domains based on a general observation class", "score": 0.5211, "match_basis": "verbatim_token+global_search"}, {"md_atom_id": "md_dmEC_assn_a025", "md_file": "knowledge_base/domains/EC/assumptions.md", "md_atom_type": "LIST_ITEM", "md_parent_section": "§EC [EC — Assumptions]", "md_verbatim": "   b. Any identifier variables, timing variables, or findings general observation-class qualifiers may be added to the EC domain, but the following qualifiers would generally not be used: --STAT and --REASND.", "score": 0.5018, "match_basis": "verbatim_token+global_search"}], "candidate_count": 5, "zero_candidate": false}
{"pdf_atom_id": "ig34_p0151_a0005", "pdf_atom_type": "HEADING", "pdf_source": "SDTMIG_v3.4", "pdf_page": 151, "pdf_parent_section": "§6.2.3 [Clinical Events]", "pdf_verbatim": "CE – Examples", "figure_ref": null, "candidates": [{"md_atom_id": "md_dmCM_ex_a001", "md_file": "knowledge_base/domains/CM/examples.md", "md_atom_type": "HEADING", "md_parent_section": "§CM [CM — Examples]", "md_verbatim": "# CM — Examples", "score": 0.9, "match_basis": "verbatim_token+global_search"}, {"md_atom_id": "md_ch08_a184", "md_file": "knowledge_base/chapters/ch08_relationships.md", "md_atom_type": "HEADING", "md_parent_section": "§8.4 [Relating Non-standard Variable Values to a Parent Domain]", "md_verbatim": "### 8.4.3 Examples", "score": 0.9, "match_basis": "verbatim_token+global_search"}, {"md_atom_id": "md_dmAE_ex_a001", "md_file": "knowledge_base/domains/AE/examples.md", "md_atom_type": "HEADING", "md_parent_section": "§AE [AE — Examples]", "md_verbatim": "# AE — Examples", "score": 0.9, "match_basis": "verbatim_token+global_search"}, {"md_atom_id": "md_dmAG_ex_a001", "md_file": "knowledge_base/domains/AG/examples.md", "md_atom_type": "HEADING", "md_parent_section": "§AG [AG — Examples]", "md_verbatim": "# AG — Examples", "score": 0.9, "match_basis": "verbatim_token+global_search"}, {"md_atom_id": "md_dmBE_ex_a001", "md_file": "knowledge_base/domains/BE/examples.md", "md_atom_type": "HEADING", "md_parent_section": "§BE [BE — Examples]", "md_verbatim": "# BE — Examples", "score": 0.9, "match_basis": "verbatim_token+global_search"}], "candidate_count": 5, "zero_candidate": false}
{"pdf_atom_id": "ig34_p0151_a0006", "pdf_atom_type": "HEADING", "pdf_source": "SDTMIG_v3.4", "pdf_page": 151, "pdf_parent_section": "§6.2.3 [Clinical Events]", "pdf_verbatim": "Example 1", "figure_ref": null, "candidates": [{"md_atom_id": "md_dmCM_ex_a002", "md_file": "knowledge_base/domains/CM/examples.md", "md_atom_type": "HEADING", "md_parent_section": "§CM.1 [Example 1]", "md_verbatim": "## Example 1", "score": 0.9, "match_basis": "verbatim_token+global_search"}, {"md_atom_id": "md_dmCM_ex_a022", "md_file": "knowledge_base/domains/CM/examples.md", "md_atom_type": "HEADING", "md_parent_section": "§CM.2 [Example 2]", "md_verbatim": "## Example 2", "score": 0.9, "match_basis": "verbatim_token+global_search"}, {"md_atom_id": "md_dmCM_ex_a029", "md_file": "knowledge_base/domains/CM/examples.md", "md_atom_type": "HEADING", "md_parent_section": "§CM.3 [Example 3]", "md_verbatim": "## Example 3", "score": 0.9, "match_basis": "verbatim_token+global_search"}, {"md_atom_id": "md_dmCM_ex_a047", "md_file": "knowledge_base/domains/CM/examples.md", "md_atom_type": "HEADING", "md_parent_section": "§CM.4 [Example 4]", "md_verbatim": "## Example 4", "score": 0.9, "match_basis": "verbatim_token+global_search"}, {"md_atom_id": "md_dmCM_ex_a060", "md_file": "knowledge_base/domains/CM/examples.md", "md_atom_type": "HEADING", "md_parent_section": "§CM.5 [Example 5]", "md_verbatim": "## Example 5", "score": 0.9, "match_basis": "verbatim_token+global_search"}, {"md_atom_id": "md_ch08_a292", "md_file": "knowledge_base/chapters/ch08_relationships.md", "md_atom_type": "HEADING", "md_parent_section": "§8.7 [Related Subjects (RELSUB)]", "md_verbatim": "### Example", "score": 0.9, "match_basis": "verbatim_token+global_search"}, {"md_atom_id": "md_ch08_a331", "md_file": "knowledge_base/chapters/ch08_relationships.md", "md_atom_type": "HEADING", "md_parent_section": "§8.8 [Related Specimens (RELSPEC)]", "md_verbatim": "### Example", "score": 0.9, "match_basis": "verbatim_token+global_search"}, {"md_atom_id": "md_dmAE_ex_a002", "md_file": "knowledge_base/domains/AE/examples.md", "md_atom_type": "HEADING", "md_parent_section": "§AE.1 [Example 1]", "md_verbatim": "## Example 1", "score": 0.9, "match_basis": "verbatim_token+global_search"}, {"md_atom_id": "md_dmAE_ex_a020", "md_file": "knowledge_base/domains/AE/examples.md", "md_atom_type": "HEADING", "md_parent_section": "§AE.2 [Example 2]", "md_verbatim": "## Example 2", "score": 0.9, "match_basis": "verbatim_token+global_search"}, {"md_atom_id": "md_dmAE_ex_a035", "md_file": "knowledge_base/domains/AE/examples.md", "md_atom_type": "HEADING", "md_parent_section": "§AE.3 [Example 3]", "md_verbatim": "## Example 3", "score": 0.9, "match_basis": "verbatim_token+global_search"}], "candidate_count": 10, "zero_candidate": false}
{"pdf_atom_id": "ig34_p0151_a0007", "pdf_atom_type": "SENTENCE", "pdf_source": "SDTMIG_v3.4", "pdf_page": 151, "pdf_parent_section": "§6.2.3 [Clinical Events]", "pdf_verbatim": "In this example, data were collected about prespecified events that, in the context of this study, were not reportable as AEs.", "figure_ref": null, "candidates": [{"md_atom_id": "md_dmCE_ex_a003", "md_file": "knowledge_base/domains/CE/examples.md", "md_atom_type": "SENTENCE", "md_parent_section": "§CE.1 [Example 1]", "md_verbatim": "In this example, data were collected about prespecified events that, in the context of this study, were not reportable as AEs.", "score": 0.9, "match_basis": "verbatim_token+global_search"}, {"md_atom_id": "md_dmCE_ex_a022", "md_file": "knowledge_base/domains/CE/examples.md", "md_atom_type": "SENTENCE", "md_parent_section": "§CE.2 [Example 2]", "md_verbatim": "In this example, the CRF included both questions about prespecified clinical events (events not reportable as AEs in the context of this study) and places for specifying additional clinical events.", "score": 0.5745, "match_basis": "verbatim_token+global_search"}, {"md_atom_id": "md_dmAE_ex_a037", "md_file": "knowledge_base/domains/AE/examples.md", "md_atom_type": "SENTENCE", "md_parent_section": "§AE.3 [Example 3]", "md_verbatim": "In the context of this study, the conditions that occurred were reportable as adverse events.", "score": 0.5189, "match_basis": "verbatim_token+global_search"}, {"md_atom_id": "md_ch04_a997", "md_file": "knowledge_base/chapters/ch04_general_assumptions.md", "md_atom_type": "SENTENCE", "md_parent_section": "§4.5.7 [Presence or Absence of Prespecified Interventions and Events]", "md_verbatim": "If a study collects both prespecified interventions and events as well as free-text events and interventions, the value of --OCCUR should be \"Y\" or \"N\" for all prespecified interventions and events, and null for those reported as free text.", "score": 0.5067, "match_basis": "verbatim_token+global_search"}, {"md_atom_id": "md_dmFA_ex_a083", "md_file": "knowledge_base/domains/FA/examples.md", "md_atom_type": "SENTENCE", "md_parent_section": "§FA.4 [Example 4]", "md_verbatim": "In this example, the occurrence of prespecified adverse events was solicited at every visit and the visit date was used as the date of collection. The data collected meet criterion 3 in Section 6.4.1, When to Use Findings About Events or Interventions; that is, data that indicate the occurrence of prespecified AEs.", "score": 0.5054, "match_basis": "verbatim_token+global_search"}], "candidate_count": 5, "zero_candidate": false}
{"pdf_atom_id": "ig34_p0151_a0008", "pdf_atom_type": "SENTENCE", "pdf_source": "SDTMIG_v3.4", "pdf_page": 151, "pdf_parent_section": "§6.2.3 [Clinical Events]", "pdf_verbatim": "The data were collected in a log independent of visits, rather than in visit-based CRF modules, so visit and date of collection (CEDTC) data were not collected.", "figure_ref": null, "candidates": [{"md_atom_id": "md_dmCE_ex_a004", "md_file": "knowledge_base/domains/CE/examples.md", "md_atom_type": "SENTENCE", "md_parent_section": "§CE.1 [Example 1]", "md_verbatim": "The data were collected in a log independent of visits, rather than in visit-based CRF modules, so visit and date of collection (CEDTC) data were not collected.", "score": 0.9, "match_basis": "verbatim_token+global_search"}, {"md_atom_id": "md_dmMH_ex_a056", "md_file": "knowledge_base/domains/MH/examples.md", "md_atom_type": "SENTENCE", "md_parent_section": "§MH.3 [Example 3]", "md_verbatim": "The data were collected as part of the screening visit.", "score": 0.4579, "match_basis": "verbatim_token+global_search"}, {"md_atom_id": "md_dmMH_ex_a025", "md_file": "knowledge_base/domains/MH/examples.md", "md_atom_type": "SENTENCE", "md_parent_section": "§MH.2 [Example 2]", "md_verbatim": "In this example, data from 3 CRF modules related to medical history were collected:", "score": 0.4565, "match_basis": "verbatim_token+global_search"}, {"md_atom_id": "md_ch02_a063", "md_file": "knowledge_base/chapters/ch02_fundamentals.md", "md_atom_type": "SENTENCE", "md_parent_section": "§2.5 [The SDTM Standard Domain Models]", "md_verbatim": "Decisions on what data to collect should be based on the scientific objectives of the study, rather than the SDTM.", "score": 0.4558, "match_basis": "verbatim_token+global_search"}, {"md_atom_id": "md_ch04_a544", "md_file": "knowledge_base/chapters/ch04_general_assumptions.md", "md_atom_type": "SENTENCE", "md_parent_section": "§4.4.2 [Date/Time Precision]", "md_verbatim": "Because most data are collected as part of a visit, when only a time appears on a CRF, it is expected that the date of the visit would usually be used as the date of collection.", "score": 0.4481, "match_basis": "verbatim_token+global_search"}], "candidate_count": 5, "zero_candidate": false}
{"pdf_atom_id": "ig34_p0151_a0009", "pdf_atom_type": "HEADING", "pdf_source": "SDTMIG_v3.4", "pdf_page": 151, "pdf_parent_section": "§6.2.3 [Clinical Events]", "pdf_verbatim": "CRF", "figure_ref": null, "candidates": [{"md_atom_id": "md_ch04_a257", "md_file": "knowledge_base/chapters/ch04_general_assumptions.md", "md_atom_type": "HEADING", "md_parent_section": "§4.2 [General Variable Assumptions]", "md_verbatim": "### 4.2.7 Submitting Free Text from the CRF", "score": 0.3375, "match_basis": "verbatim_token+global_search"}, {"md_atom_id": "md_model01_a001", "md_file": "knowledge_base/model/01_concepts_and_terms.md", "md_atom_type": "HEADING", "md_parent_section": "§2 [SDTM v2.0 — Chapter 2: Model Concepts and Terms]", "md_verbatim": "# SDTM v2.0 — Chapter 2: Model Concepts and Terms", "score": 0.3, "match_basis": "verbatim_token+global_search"}, {"md_atom_id": "md_model01_a003", "md_file": "knowledge_base/model/01_concepts_and_terms.md", "md_atom_type": "HEADING", "md_parent_section": "§2.1 [Model Concepts and Terms — Variables]", "md_verbatim": "## 2.1 Model Concepts and Terms — Variables", "score": 0.3, "match_basis": "verbatim_token+global_search"}, {"md_atom_id": "md_model01_a012", "md_file": "knowledge_base/model/01_concepts_and_terms.md", "md_atom_type": "HEADING", "md_parent_section": "§2.1 [Model Concepts and Terms — Variables]", "md_verbatim": "### Concept Map: Relationships Between SDTM Domains", "score": 0.3, "match_basis": "verbatim_token+global_search"}, {"md_atom_id": "md_model01_a015", "md_file": "knowledge_base/model/01_concepts_and_terms.md", "md_atom_type": "HEADING", "md_parent_section": "§2.1 [Model Concepts and Terms — Variables]", "md_verbatim": "### Variable Roles", "score": 0.3, "match_basis": "verbatim_token+global_search"}, {"md_atom_id": "md_model01_a032", "md_file": "knowledge_base/model/01_concepts_and_terms.md", "md_atom_type": "HEADING", "md_parent_section": "§2.1 [Model Concepts and Terms — Variables]", "md_verbatim": "### Qualifier Variable Subclasses", "score": 0.3, "match_basis": "verbatim_token+global_search"}, {"md_atom_id": "md_model01_a040", "md_file": "knowledge_base/model/01_concepts_and_terms.md", "md_atom_type": "HEADING", "md_parent_section": "§2.1 [Model Concepts and Terms — Variables]", "md_verbatim": "### Domain Codes", "score": 0.3, "match_basis": "verbatim_token+global_search"}, {"md_atom_id": "md_model01_a058", "md_file": "knowledge_base/model/01_concepts_and_terms.md", "md_atom_type": "HEADING", "md_parent_section": "§2.2 [Table Structure]", "md_verbatim": "## 2.2 Table Structure", "score": 0.3, "match_basis": "verbatim_token+global_search"}, {"md_atom_id": "md_model04_a001", "md_file": "knowledge_base/model/04_associated_persons.md", "md_atom_type": "HEADING", "md_parent_section": "§4 [SDTM v2.0 — Chapter 4: Associated Persons Data]", "md_verbatim": "# SDTM v2.0 — Chapter 4: Associated Persons Data", "score": 0.3, "match_basis": "verbatim_token+global_search"}, {"md_atom_id": "md_model04_a003", "md_file": "knowledge_base/model/04_associated_persons.md", "md_atom_type": "HEADING", "md_parent_section": "§4 [SDTM v2.0 — Chapter 4: Associated Persons Data]", "md_verbatim": "## Overview", "score": 0.3, "match_basis": "verbatim_token+global_search"}], "candidate_count": 10, "zero_candidate": false}
