{"pdf_atom_id": "ig34_p0048_a013", "pdf_atom_type": "TABLE_ROW", "pdf_source": "SDTMIG_v3.4", "pdf_page": 48, "pdf_parent_section": "§4.4.10 [Representing Time Points]", "pdf_verbatim": "PERIOD 1, DAY 5 | 4 | 1H | 2 | PM DOSE", "figure_ref": null, "candidates": [{"md_atom_id": "md_ch04_a737", "md_file": "knowledge_base/chapters/ch04_general_assumptions.md", "md_atom_type": "TABLE_ROW", "md_parent_section": "§4.4.10 [Representing Time Points]", "md_verbatim": "| PERIOD 1 | 3 | PRE-DOSE | 1 | DAY 1, AM DOSE |", "score": 0.825, "match_basis": "verbatim_token+chapter_route:ch04"}, {"md_atom_id": "md_ch04_a749", "md_file": "knowledge_base/chapters/ch04_general_assumptions.md", "md_atom_type": "TABLE_ROW", "md_parent_section": "§4.4.10 [Representing Time Points]", "md_verbatim": "| PERIOD 2 | 4 | PRE-DOSE | 1 | DAY 1, AM DOSE |", "score": 0.825, "match_basis": "verbatim_token+chapter_route:ch04"}, {"md_atom_id": "md_ch04_a757", "md_file": "knowledge_base/chapters/ch04_general_assumptions.md", "md_atom_type": "TABLE_ROW", "md_parent_section": "§4.4.10 [Representing Time Points]", "md_verbatim": "| PERIOD 1, DAY 1 | 3 | PRE-DOSE | 1 | AM DOSE |", "score": 0.825, "match_basis": "verbatim_token+chapter_route:ch04"}, {"md_atom_id": "md_ch04_a763", "md_file": "knowledge_base/chapters/ch04_general_assumptions.md", "md_atom_type": "TABLE_ROW", "md_parent_section": "§4.4.10 [Representing Time Points]", "md_verbatim": "| PERIOD 1, DAY 5 | 4 | PRE-DOSE | 1 | AM DOSE |", "score": 0.825, "match_basis": "verbatim_token+chapter_route:ch04"}, {"md_atom_id": "md_ch04_a769", "md_file": "knowledge_base/chapters/ch04_general_assumptions.md", "md_atom_type": "TABLE_ROW", "md_parent_section": "§4.4.10 [Representing Time Points]", "md_verbatim": "| PERIOD 2, DAY 1 | 5 | PRE-DOSE | 1 | AM DOSE |", "score": 0.825, "match_basis": "verbatim_token+chapter_route:ch04"}], "candidate_count": 5, "zero_candidate": false}
{"pdf_atom_id": "ig34_p0048_a014", "pdf_atom_type": "TABLE_ROW", "pdf_source": "SDTMIG_v3.4", "pdf_page": 48, "pdf_parent_section": "§4.4.10 [Representing Time Points]", "pdf_verbatim": "PERIOD 1, DAY 5 | 4 | 4H | 3 | PM DOSE", "figure_ref": null, "candidates": [{"md_atom_id": "md_ch04_a737", "md_file": "knowledge_base/chapters/ch04_general_assumptions.md", "md_atom_type": "TABLE_ROW", "md_parent_section": "§4.4.10 [Representing Time Points]", "md_verbatim": "| PERIOD 1 | 3 | PRE-DOSE | 1 | DAY 1, AM DOSE |", "score": 0.825, "match_basis": "verbatim_token+chapter_route:ch04"}, {"md_atom_id": "md_ch04_a749", "md_file": "knowledge_base/chapters/ch04_general_assumptions.md", "md_atom_type": "TABLE_ROW", "md_parent_section": "§4.4.10 [Representing Time Points]", "md_verbatim": "| PERIOD 2 | 4 | PRE-DOSE | 1 | DAY 1, AM DOSE |", "score": 0.825, "match_basis": "verbatim_token+chapter_route:ch04"}, {"md_atom_id": "md_ch04_a757", "md_file": "knowledge_base/chapters/ch04_general_assumptions.md", "md_atom_type": "TABLE_ROW", "md_parent_section": "§4.4.10 [Representing Time Points]", "md_verbatim": "| PERIOD 1, DAY 1 | 3 | PRE-DOSE | 1 | AM DOSE |", "score": 0.825, "match_basis": "verbatim_token+chapter_route:ch04"}, {"md_atom_id": "md_ch04_a763", "md_file": "knowledge_base/chapters/ch04_general_assumptions.md", "md_atom_type": "TABLE_ROW", "md_parent_section": "§4.4.10 [Representing Time Points]", "md_verbatim": "| PERIOD 1, DAY 5 | 4 | PRE-DOSE | 1 | AM DOSE |", "score": 0.825, "match_basis": "verbatim_token+chapter_route:ch04"}, {"md_atom_id": "md_ch04_a769", "md_file": "knowledge_base/chapters/ch04_general_assumptions.md", "md_atom_type": "TABLE_ROW", "md_parent_section": "§4.4.10 [Representing Time Points]", "md_verbatim": "| PERIOD 2, DAY 1 | 5 | PRE-DOSE | 1 | AM DOSE |", "score": 0.825, "match_basis": "verbatim_token+chapter_route:ch04"}], "candidate_count": 5, "zero_candidate": false}
{"pdf_atom_id": "ig34_p0048_a015", "pdf_atom_type": "TABLE_ROW", "pdf_source": "SDTMIG_v3.4", "pdf_page": 48, "pdf_parent_section": "§4.4.10 [Representing Time Points]", "pdf_verbatim": "PERIOD 2, DAY 1 | 5 | PRE-DOSE | 1 | AM DOSE", "figure_ref": null, "candidates": [{"md_atom_id": "md_ch04_a737", "md_file": "knowledge_base/chapters/ch04_general_assumptions.md", "md_atom_type": "TABLE_ROW", "md_parent_section": "§4.4.10 [Representing Time Points]", "md_verbatim": "| PERIOD 1 | 3 | PRE-DOSE | 1 | DAY 1, AM DOSE |", "score": 0.9, "match_basis": "verbatim_token+chapter_route:ch04"}, {"md_atom_id": "md_ch04_a749", "md_file": "knowledge_base/chapters/ch04_general_assumptions.md", "md_atom_type": "TABLE_ROW", "md_parent_section": "§4.4.10 [Representing Time Points]", "md_verbatim": "| PERIOD 2 | 4 | PRE-DOSE | 1 | DAY 1, AM DOSE |", "score": 0.9, "match_basis": "verbatim_token+chapter_route:ch04"}, {"md_atom_id": "md_ch04_a757", "md_file": "knowledge_base/chapters/ch04_general_assumptions.md", "md_atom_type": "TABLE_ROW", "md_parent_section": "§4.4.10 [Representing Time Points]", "md_verbatim": "| PERIOD 1, DAY 1 | 3 | PRE-DOSE | 1 | AM DOSE |", "score": 0.9, "match_basis": "verbatim_token+chapter_route:ch04"}, {"md_atom_id": "md_ch04_a763", "md_file": "knowledge_base/chapters/ch04_general_assumptions.md", "md_atom_type": "TABLE_ROW", "md_parent_section": "§4.4.10 [Representing Time Points]", "md_verbatim": "| PERIOD 1, DAY 5 | 4 | PRE-DOSE | 1 | AM DOSE |", "score": 0.9, "match_basis": "verbatim_token+chapter_route:ch04"}, {"md_atom_id": "md_ch04_a769", "md_file": "knowledge_base/chapters/ch04_general_assumptions.md", "md_atom_type": "TABLE_ROW", "md_parent_section": "§4.4.10 [Representing Time Points]", "md_verbatim": "| PERIOD 2, DAY 1 | 5 | PRE-DOSE | 1 | AM DOSE |", "score": 0.9, "match_basis": "verbatim_token+chapter_route:ch04"}], "candidate_count": 5, "zero_candidate": false}
{"pdf_atom_id": "ig34_p0048_a016", "pdf_atom_type": "TABLE_ROW", "pdf_source": "SDTMIG_v3.4", "pdf_page": 48, "pdf_parent_section": "§4.4.10 [Representing Time Points]", "pdf_verbatim": "PERIOD 2, DAY 1 | 5 | 1H | 2 | AM DOSE", "figure_ref": null, "candidates": [{"md_atom_id": "md_ch04_a737", "md_file": "knowledge_base/chapters/ch04_general_assumptions.md", "md_atom_type": "TABLE_ROW", "md_parent_section": "§4.4.10 [Representing Time Points]", "md_verbatim": "| PERIOD 1 | 3 | PRE-DOSE | 1 | DAY 1, AM DOSE |", "score": 0.825, "match_basis": "verbatim_token+chapter_route:ch04"}, {"md_atom_id": "md_ch04_a749", "md_file": "knowledge_base/chapters/ch04_general_assumptions.md", "md_atom_type": "TABLE_ROW", "md_parent_section": "§4.4.10 [Representing Time Points]", "md_verbatim": "| PERIOD 2 | 4 | PRE-DOSE | 1 | DAY 1, AM DOSE |", "score": 0.825, "match_basis": "verbatim_token+chapter_route:ch04"}, {"md_atom_id": "md_ch04_a757", "md_file": "knowledge_base/chapters/ch04_general_assumptions.md", "md_atom_type": "TABLE_ROW", "md_parent_section": "§4.4.10 [Representing Time Points]", "md_verbatim": "| PERIOD 1, DAY 1 | 3 | PRE-DOSE | 1 | AM DOSE |", "score": 0.825, "match_basis": "verbatim_token+chapter_route:ch04"}, {"md_atom_id": "md_ch04_a763", "md_file": "knowledge_base/chapters/ch04_general_assumptions.md", "md_atom_type": "TABLE_ROW", "md_parent_section": "§4.4.10 [Representing Time Points]", "md_verbatim": "| PERIOD 1, DAY 5 | 4 | PRE-DOSE | 1 | AM DOSE |", "score": 0.825, "match_basis": "verbatim_token+chapter_route:ch04"}, {"md_atom_id": "md_ch04_a769", "md_file": "knowledge_base/chapters/ch04_general_assumptions.md", "md_atom_type": "TABLE_ROW", "md_parent_section": "§4.4.10 [Representing Time Points]", "md_verbatim": "| PERIOD 2, DAY 1 | 5 | PRE-DOSE | 1 | AM DOSE |", "score": 0.825, "match_basis": "verbatim_token+chapter_route:ch04"}], "candidate_count": 5, "zero_candidate": false}
{"pdf_atom_id": "ig34_p0048_a017", "pdf_atom_type": "TABLE_ROW", "pdf_source": "SDTMIG_v3.4", "pdf_page": 48, "pdf_parent_section": "§4.4.10 [Representing Time Points]", "pdf_verbatim": "PERIOD 2, DAY 1 | 5 | 4H | 3 | AM DOSE", "figure_ref": null, "candidates": [{"md_atom_id": "md_ch04_a737", "md_file": "knowledge_base/chapters/ch04_general_assumptions.md", "md_atom_type": "TABLE_ROW", "md_parent_section": "§4.4.10 [Representing Time Points]", "md_verbatim": "| PERIOD 1 | 3 | PRE-DOSE | 1 | DAY 1, AM DOSE |", "score": 0.825, "match_basis": "verbatim_token+chapter_route:ch04"}, {"md_atom_id": "md_ch04_a749", "md_file": "knowledge_base/chapters/ch04_general_assumptions.md", "md_atom_type": "TABLE_ROW", "md_parent_section": "§4.4.10 [Representing Time Points]", "md_verbatim": "| PERIOD 2 | 4 | PRE-DOSE | 1 | DAY 1, AM DOSE |", "score": 0.825, "match_basis": "verbatim_token+chapter_route:ch04"}, {"md_atom_id": "md_ch04_a757", "md_file": "knowledge_base/chapters/ch04_general_assumptions.md", "md_atom_type": "TABLE_ROW", "md_parent_section": "§4.4.10 [Representing Time Points]", "md_verbatim": "| PERIOD 1, DAY 1 | 3 | PRE-DOSE | 1 | AM DOSE |", "score": 0.825, "match_basis": "verbatim_token+chapter_route:ch04"}, {"md_atom_id": "md_ch04_a763", "md_file": "knowledge_base/chapters/ch04_general_assumptions.md", "md_atom_type": "TABLE_ROW", "md_parent_section": "§4.4.10 [Representing Time Points]", "md_verbatim": "| PERIOD 1, DAY 5 | 4 | PRE-DOSE | 1 | AM DOSE |", "score": 0.825, "match_basis": "verbatim_token+chapter_route:ch04"}, {"md_atom_id": "md_ch04_a769", "md_file": "knowledge_base/chapters/ch04_general_assumptions.md", "md_atom_type": "TABLE_ROW", "md_parent_section": "§4.4.10 [Representing Time Points]", "md_verbatim": "| PERIOD 2, DAY 1 | 5 | PRE-DOSE | 1 | AM DOSE |", "score": 0.825, "match_basis": "verbatim_token+chapter_route:ch04"}], "candidate_count": 5, "zero_candidate": false}
{"pdf_atom_id": "ig34_p0048_a018", "pdf_atom_type": "TABLE_ROW", "pdf_source": "SDTMIG_v3.4", "pdf_page": 48, "pdf_parent_section": "§4.4.10 [Representing Time Points]", "pdf_verbatim": "PERIOD 2, DAY 1 | 5 | PRE-DOSE | 1 | PM DOSE", "figure_ref": null, "candidates": [{"md_atom_id": "md_ch04_a737", "md_file": "knowledge_base/chapters/ch04_general_assumptions.md", "md_atom_type": "TABLE_ROW", "md_parent_section": "§4.4.10 [Representing Time Points]", "md_verbatim": "| PERIOD 1 | 3 | PRE-DOSE | 1 | DAY 1, AM DOSE |", "score": 0.9, "match_basis": "verbatim_token+chapter_route:ch04"}, {"md_atom_id": "md_ch04_a749", "md_file": "knowledge_base/chapters/ch04_general_assumptions.md", "md_atom_type": "TABLE_ROW", "md_parent_section": "§4.4.10 [Representing Time Points]", "md_verbatim": "| PERIOD 2 | 4 | PRE-DOSE | 1 | DAY 1, AM DOSE |", "score": 0.9, "match_basis": "verbatim_token+chapter_route:ch04"}, {"md_atom_id": "md_ch04_a757", "md_file": "knowledge_base/chapters/ch04_general_assumptions.md", "md_atom_type": "TABLE_ROW", "md_parent_section": "§4.4.10 [Representing Time Points]", "md_verbatim": "| PERIOD 1, DAY 1 | 3 | PRE-DOSE | 1 | AM DOSE |", "score": 0.9, "match_basis": "verbatim_token+chapter_route:ch04"}, {"md_atom_id": "md_ch04_a763", "md_file": "knowledge_base/chapters/ch04_general_assumptions.md", "md_atom_type": "TABLE_ROW", "md_parent_section": "§4.4.10 [Representing Time Points]", "md_verbatim": "| PERIOD 1, DAY 5 | 4 | PRE-DOSE | 1 | AM DOSE |", "score": 0.9, "match_basis": "verbatim_token+chapter_route:ch04"}, {"md_atom_id": "md_ch04_a769", "md_file": "knowledge_base/chapters/ch04_general_assumptions.md", "md_atom_type": "TABLE_ROW", "md_parent_section": "§4.4.10 [Representing Time Points]", "md_verbatim": "| PERIOD 2, DAY 1 | 5 | PRE-DOSE | 1 | AM DOSE |", "score": 0.9, "match_basis": "verbatim_token+chapter_route:ch04"}], "candidate_count": 5, "zero_candidate": false}
{"pdf_atom_id": "ig34_p0048_a019", "pdf_atom_type": "TABLE_ROW", "pdf_source": "SDTMIG_v3.4", "pdf_page": 48, "pdf_parent_section": "§4.4.10 [Representing Time Points]", "pdf_verbatim": "PERIOD 2, DAY 1 | 5 | 1H | 2 | PM DOSE", "figure_ref": null, "candidates": [{"md_atom_id": "md_ch04_a737", "md_file": "knowledge_base/chapters/ch04_general_assumptions.md", "md_atom_type": "TABLE_ROW", "md_parent_section": "§4.4.10 [Representing Time Points]", "md_verbatim": "| PERIOD 1 | 3 | PRE-DOSE | 1 | DAY 1, AM DOSE |", "score": 0.825, "match_basis": "verbatim_token+chapter_route:ch04"}, {"md_atom_id": "md_ch04_a749", "md_file": "knowledge_base/chapters/ch04_general_assumptions.md", "md_atom_type": "TABLE_ROW", "md_parent_section": "§4.4.10 [Representing Time Points]", "md_verbatim": "| PERIOD 2 | 4 | PRE-DOSE | 1 | DAY 1, AM DOSE |", "score": 0.825, "match_basis": "verbatim_token+chapter_route:ch04"}, {"md_atom_id": "md_ch04_a757", "md_file": "knowledge_base/chapters/ch04_general_assumptions.md", "md_atom_type": "TABLE_ROW", "md_parent_section": "§4.4.10 [Representing Time Points]", "md_verbatim": "| PERIOD 1, DAY 1 | 3 | PRE-DOSE | 1 | AM DOSE |", "score": 0.825, "match_basis": "verbatim_token+chapter_route:ch04"}, {"md_atom_id": "md_ch04_a763", "md_file": "knowledge_base/chapters/ch04_general_assumptions.md", "md_atom_type": "TABLE_ROW", "md_parent_section": "§4.4.10 [Representing Time Points]", "md_verbatim": "| PERIOD 1, DAY 5 | 4 | PRE-DOSE | 1 | AM DOSE |", "score": 0.825, "match_basis": "verbatim_token+chapter_route:ch04"}, {"md_atom_id": "md_ch04_a769", "md_file": "knowledge_base/chapters/ch04_general_assumptions.md", "md_atom_type": "TABLE_ROW", "md_parent_section": "§4.4.10 [Representing Time Points]", "md_verbatim": "| PERIOD 2, DAY 1 | 5 | PRE-DOSE | 1 | AM DOSE |", "score": 0.825, "match_basis": "verbatim_token+chapter_route:ch04"}], "candidate_count": 5, "zero_candidate": false}
{"pdf_atom_id": "ig34_p0048_a020", "pdf_atom_type": "TABLE_ROW", "pdf_source": "SDTMIG_v3.4", "pdf_page": 48, "pdf_parent_section": "§4.4.10 [Representing Time Points]", "pdf_verbatim": "PERIOD 2, DAY 1 | 5 | 4H | 3 | PM DOSE", "figure_ref": null, "candidates": [{"md_atom_id": "md_ch04_a737", "md_file": "knowledge_base/chapters/ch04_general_assumptions.md", "md_atom_type": "TABLE_ROW", "md_parent_section": "§4.4.10 [Representing Time Points]", "md_verbatim": "| PERIOD 1 | 3 | PRE-DOSE | 1 | DAY 1, AM DOSE |", "score": 0.825, "match_basis": "verbatim_token+chapter_route:ch04"}, {"md_atom_id": "md_ch04_a749", "md_file": "knowledge_base/chapters/ch04_general_assumptions.md", "md_atom_type": "TABLE_ROW", "md_parent_section": "§4.4.10 [Representing Time Points]", "md_verbatim": "| PERIOD 2 | 4 | PRE-DOSE | 1 | DAY 1, AM DOSE |", "score": 0.825, "match_basis": "verbatim_token+chapter_route:ch04"}, {"md_atom_id": "md_ch04_a757", "md_file": "knowledge_base/chapters/ch04_general_assumptions.md", "md_atom_type": "TABLE_ROW", "md_parent_section": "§4.4.10 [Representing Time Points]", "md_verbatim": "| PERIOD 1, DAY 1 | 3 | PRE-DOSE | 1 | AM DOSE |", "score": 0.825, "match_basis": "verbatim_token+chapter_route:ch04"}, {"md_atom_id": "md_ch04_a763", "md_file": "knowledge_base/chapters/ch04_general_assumptions.md", "md_atom_type": "TABLE_ROW", "md_parent_section": "§4.4.10 [Representing Time Points]", "md_verbatim": "| PERIOD 1, DAY 5 | 4 | PRE-DOSE | 1 | AM DOSE |", "score": 0.825, "match_basis": "verbatim_token+chapter_route:ch04"}, {"md_atom_id": "md_ch04_a769", "md_file": "knowledge_base/chapters/ch04_general_assumptions.md", "md_atom_type": "TABLE_ROW", "md_parent_section": "§4.4.10 [Representing Time Points]", "md_verbatim": "| PERIOD 2, DAY 1 | 5 | PRE-DOSE | 1 | AM DOSE |", "score": 0.825, "match_basis": "verbatim_token+chapter_route:ch04"}], "candidate_count": 5, "zero_candidate": false}
{"pdf_atom_id": "ig34_p0048_a021", "pdf_atom_type": "SENTENCE", "pdf_source": "SDTMIG_v3.4", "pdf_page": 48, "pdf_parent_section": "§4.4.10 [Representing Time Points]", "pdf_verbatim": "Within the context that defines uniqueness for a time point (which may include domain, visit, and reference time point), there must be a one-to-one relationship between values of --TPT and --TPTNUM.", "figure_ref": null, "candidates": [{"md_atom_id": "md_ch04_a755", "md_file": "knowledge_base/chapters/ch04_general_assumptions.md", "md_atom_type": "SENTENCE", "md_parent_section": "§4.4.10 [Representing Time Points]", "md_verbatim": "Option 2 — VISITNUM designates period and day within period; --TPTREF designates dose within the day; --TPTNUM designates timing relative to reference time point:", "score": 0.4755, "match_basis": "verbatim_token+chapter_route:ch04"}, {"md_atom_id": "md_ch04_a735", "md_file": "knowledge_base/chapters/ch04_general_assumptions.md", "md_atom_type": "SENTENCE", "md_parent_section": "§4.4.10 [Representing Time Points]", "md_verbatim": "Option 1 — VISITNUM designates period; --TPTREF designates day and dose; --TPTNUM designates timing relative to reference time point:", "score": 0.4472, "match_basis": "verbatim_token+chapter_route:ch04"}, {"md_atom_id": "md_ch04_a1029", "md_file": "knowledge_base/chapters/ch04_general_assumptions.md", "md_atom_type": "SENTENCE", "md_parent_section": "§4.5.9 [Baseline Values]", "md_verbatim": "The variable --LOBXFL was introduced in SDTMIG v3.3 to address the need for a consistent definition of a value that can serve as a reference with which to compare post-treatment values.", "score": 0.4289, "match_basis": "verbatim_token+chapter_route:ch04"}, {"md_atom_id": "md_ch04_a026", "md_file": "knowledge_base/chapters/ch04_general_assumptions.md", "md_atom_type": "SENTENCE", "md_parent_section": "§4.1.3.1 [EPOCH Variable Guidance]", "md_verbatim": "Note that a subject's participation in a study includes screening, which generally occurs before the reference start date (RFSTDTC) in the Demographics (DM) domain.", "score": 0.4226, "match_basis": "verbatim_token+chapter_route:ch04"}, {"md_atom_id": "md_ch04_a009", "md_file": "knowledge_base/chapters/ch04_general_assumptions.md", "md_atom_type": "SENTENCE", "md_parent_section": "§4.1.1 [Review Study Data Tabulation Model and Implementation Guide]", "md_verbatim": "The SDTM describes the general conceptual framework, including the general observation classes (Interventions, Events, Findings), special-purpose domains, trial design model datasets, relationship datasets, and study references.", "score": 0.42, "match_basis": "verbatim_token+chapter_route:ch04"}], "candidate_count": 5, "zero_candidate": false}
{"pdf_atom_id": "ig34_p0048_a022", "pdf_atom_type": "SENTENCE", "pdf_source": "SDTMIG_v3.4", "pdf_page": 48, "pdf_parent_section": "§4.4.10 [Representing Time Points]", "pdf_verbatim": "In other words, if domain, visit, and reference time point uniquely identify subject data, then if 2 subjects have records with the same values of DOMAIN, VISITNUM, --TPTREF, and --TPTNUM, these records may not have different time point descriptions in --TPT.", "figure_ref": null, "candidates": [{"md_atom_id": "md_ch04_a729", "md_file": "knowledge_base/chapters/ch04_general_assumptions.md", "md_atom_type": "SENTENCE", "md_parent_section": "§4.4.10 [Representing Time Points]", "md_verbatim": "In some cases a time point may be uniquely identified without the use of VISIT, or without the use of --TPTREF, or without the use of either:", "score": 0.4732, "match_basis": "verbatim_token+chapter_route:ch04"}, {"md_atom_id": "md_ch04_a755", "md_file": "knowledge_base/chapters/ch04_general_assumptions.md", "md_atom_type": "SENTENCE", "md_parent_section": "§4.4.10 [Representing Time Points]", "md_verbatim": "Option 2 — VISITNUM designates period and day within period; --TPTREF designates dose within the day; --TPTNUM designates timing relative to reference time point:", "score": 0.4636, "match_basis": "verbatim_token+chapter_route:ch04"}, {"md_atom_id": "md_ch04_a735", "md_file": "knowledge_base/chapters/ch04_general_assumptions.md", "md_atom_type": "SENTENCE", "md_parent_section": "§4.4.10 [Representing Time Points]", "md_verbatim": "Option 1 — VISITNUM designates period; --TPTREF designates day and dose; --TPTNUM designates timing relative to reference time point:", "score": 0.45, "match_basis": "verbatim_token+chapter_route:ch04"}, {"md_atom_id": "md_ch04_a223", "md_file": "knowledge_base/chapters/ch04_general_assumptions.md", "md_atom_type": "SENTENCE", "md_parent_section": "§4.2.6 [Grouping Variables and Categorization]", "md_verbatim": "All records with the same USUBJID value are a group of records that describe that subject.", "score": 0.4375, "match_basis": "verbatim_token+chapter_route:ch04"}, {"md_atom_id": "md_ch04_a234", "md_file": "knowledge_base/chapters/ch04_general_assumptions.md", "md_atom_type": "SENTENCE", "md_parent_section": "§4.2.6 [Grouping Variables and Categorization]", "md_verbatim": "      In such cases, the data collected during the stress tests recorded in 3 separate domains may all have --CAT/--SCAT values (STRESS TEST) that identify that data were collected during the stress test.", "score": 0.435, "match_basis": "verbatim_token+chapter_route:ch04"}], "candidate_count": 5, "zero_candidate": false}
{"pdf_atom_id": "ig34_p0048_a023", "pdf_atom_type": "SENTENCE", "pdf_source": "SDTMIG_v3.4", "pdf_page": 48, "pdf_parent_section": "§4.4.10 [Representing Time Points]", "pdf_verbatim": "Within the context that defines uniqueness for a time point, there is likely to be a one-to-one relationship between most values of --TPT and --ELTM.", "figure_ref": null, "candidates": [{"md_atom_id": "md_ch04_a755", "md_file": "knowledge_base/chapters/ch04_general_assumptions.md", "md_atom_type": "SENTENCE", "md_parent_section": "§4.4.10 [Representing Time Points]", "md_verbatim": "Option 2 — VISITNUM designates period and day within period; --TPTREF designates dose within the day; --TPTNUM designates timing relative to reference time point:", "score": 0.4152, "match_basis": "verbatim_token+chapter_route:ch04"}, {"md_atom_id": "md_ch04_a795", "md_file": "knowledge_base/chapters/ch04_general_assumptions.md", "md_atom_type": "SENTENCE", "md_parent_section": "§4.4.11 [Disease Milestones and Disease Milestone Timing Variables]", "md_verbatim": "In such cases, RELMIDS should be used to describe the temporal relationship between the disease milestone and the subject of the question being asked in the finding, rather than as describing when the question was asked:", "score": 0.4131, "match_basis": "verbatim_token+chapter_route:ch04"}, {"md_atom_id": "md_ch04_a549", "md_file": "knowledge_base/chapters/ch04_general_assumptions.md", "md_atom_type": "SENTENCE", "md_parent_section": "§4.4.3.1 [Intervals of Time and Use of Duration]", "md_verbatim": "These variables represent the 2 instants that bound an interval of time; the duration is the quantity of time that is equal to the difference between these time points.", "score": 0.4075, "match_basis": "verbatim_token+chapter_route:ch04"}, {"md_atom_id": "md_ch04_a729", "md_file": "knowledge_base/chapters/ch04_general_assumptions.md", "md_atom_type": "SENTENCE", "md_parent_section": "§4.4.10 [Representing Time Points]", "md_verbatim": "In some cases a time point may be uniquely identified without the use of VISIT, or without the use of --TPTREF, or without the use of either:", "score": 0.4023, "match_basis": "verbatim_token+chapter_route:ch04"}, {"md_atom_id": "md_ch04_a1029", "md_file": "knowledge_base/chapters/ch04_general_assumptions.md", "md_atom_type": "SENTENCE", "md_parent_section": "§4.5.9 [Baseline Values]", "md_verbatim": "The variable --LOBXFL was introduced in SDTMIG v3.3 to address the need for a consistent definition of a value that can serve as a reference with which to compare post-treatment values.", "score": 0.4016, "match_basis": "verbatim_token+chapter_route:ch04"}], "candidate_count": 5, "zero_candidate": false}
{"pdf_atom_id": "ig34_p0048_a024", "pdf_atom_type": "SENTENCE", "pdf_source": "SDTMIG_v3.4", "pdf_page": 48, "pdf_parent_section": "§4.4.10 [Representing Time Points]", "pdf_verbatim": "However, because --ELTM can only be populated with ISO 8601 periods of time (as described in Section 4.4.3, Intervals of Time and Use of Duration for --DUR Variables), --ELTM may not be populated for all time points.", "figure_ref": null, "candidates": [{"md_atom_id": "md_ch04_a634", "md_file": "knowledge_base/chapters/ch04_general_assumptions.md", "md_atom_type": "SENTENCE", "md_parent_section": "§4.4.7 [Use of Relative Timing Variables]", "md_verbatim": "**Important restriction on --ENRF:** Although \"COINCIDENT\" and \"ONGOING\" are in the STENRF codelist, they describe timing relative to a point in time rather than an interval of time, so are **not appropriate for use with --ENRF variables**.", "score": 0.4636, "match_basis": "verbatim_token+chapter_route:ch04"}, {"md_atom_id": "md_ch04_a705", "md_file": "knowledge_base/chapters/ch04_general_assumptions.md", "md_atom_type": "SENTENCE", "md_parent_section": "§4.4.10 [Representing Time Points]", "md_verbatim": "Time points can be represented using the time point variables --TPT, --TPTNUM, --ELTM, and the time-point anchors --TPTREF (text description) and --RFTDTC (date/time).", "score": 0.4486, "match_basis": "verbatim_token+chapter_route:ch04"}, {"md_atom_id": "md_ch04_a015", "md_file": "knowledge_base/chapters/ch04_general_assumptions.md", "md_atom_type": "SENTENCE", "md_parent_section": "§4.1.3 [Additional Timing Variables]", "md_verbatim": "Timing variables cannot be added to SUPPQUAL datasets or to RELREC (described in Section 8, Representing Relationships and Data).", "score": 0.4351, "match_basis": "verbatim_token+chapter_route:ch04"}, {"md_atom_id": "md_ch04_a031", "md_file": "knowledge_base/chapters/ch04_general_assumptions.md", "md_atom_type": "SENTENCE", "md_parent_section": "§4.1.4 [Order of the Variables]", "md_verbatim": "Within each role, variables must be ordered as shown in SDTM Sections 3.1.1, The Interventions Observation Class; 3.1.2, The Events Observation Class; 3.1.3, The Findings Observation Class; 3.1.3.1, Findings About Events or Interventions; 3.1.4, Identifiers for All Classes; and 3.1.5, Timing Variables for All Classes.", "score": 0.4328, "match_basis": "verbatim_token+chapter_route:ch04"}, {"md_atom_id": "md_ch04_a480", "md_file": "knowledge_base/chapters/ch04_general_assumptions.md", "md_atom_type": "SENTENCE", "md_parent_section": "§4.4 [Actual and Relative Time Assumptions]", "md_verbatim": "ISO 8601 provides a text-based representation of dates and/or times, intervals of time, and durations of time.", "score": 0.4326, "match_basis": "verbatim_token+chapter_route:ch04"}], "candidate_count": 5, "zero_candidate": false}
{"pdf_atom_id": "ig34_p0048_a025", "pdf_atom_type": "CROSS_REF", "pdf_source": "SDTMIG_v3.4", "pdf_page": 48, "pdf_parent_section": "§4.4.10 [Representing Time Points]", "pdf_verbatim": "Section 4.4.3, Intervals of Time and Use of Duration for --DUR Variables", "figure_ref": null, "candidates": [{"md_atom_id": "md_ch04_a546", "md_file": "knowledge_base/chapters/ch04_general_assumptions.md", "md_atom_type": "HEADING", "md_parent_section": "§4.4 [Actual and Relative Time Assumptions]", "md_verbatim": "### 4.4.3 Intervals of Time and Use of Duration for --DUR Variables", "score": 0.6257, "match_basis": "verbatim_token+chapter_route:ch04"}, {"md_atom_id": "md_ch04_a547", "md_file": "knowledge_base/chapters/ch04_general_assumptions.md", "md_atom_type": "HEADING", "md_parent_section": "§4.4.3 [Intervals of Time and Use of Duration for --DUR Variables]", "md_verbatim": "#### 4.4.3.1 Intervals of Time and Use of Duration", "score": 0.4543, "match_basis": "verbatim_token+chapter_route:ch04"}, {"md_atom_id": "md_ch04_a691", "md_file": "knowledge_base/chapters/ch04_general_assumptions.md", "md_atom_type": "TABLE_ROW", "md_parent_section": "§4.4.8 [Date and Time Reported in a Domain Based on Findings]", "md_verbatim": "| Interval Collection | X | | X |", "score": 0.2775, "match_basis": "verbatim_token+chapter_route:ch04"}, {"md_atom_id": "md_ch04_a347", "md_file": "knowledge_base/chapters/ch04_general_assumptions.md", "md_atom_type": "HEADING", "md_parent_section": "§4.2.8 [Multiple Values for a Variable]", "md_verbatim": "#### 4.2.8.1 Multiple Values for an Intervention or Event Topic Variable", "score": 0.2767, "match_basis": "verbatim_token+chapter_route:ch04"}, {"md_atom_id": "md_ch04_a455", "md_file": "knowledge_base/chapters/ch04_general_assumptions.md", "md_atom_type": "SENTENCE", "md_parent_section": "§4.3.6 [Storing Topic Variables for General Domain Models]", "md_verbatim": "For an Interventions domain, the topic variable is --TRT.", "score": 0.2757, "match_basis": "verbatim_token+chapter_route:ch04"}], "candidate_count": 5, "zero_candidate": false}
{"pdf_atom_id": "ig34_p0048_a026", "pdf_atom_type": "SENTENCE", "pdf_source": "SDTMIG_v3.4", "pdf_page": 48, "pdf_parent_section": "§4.4.10 [Representing Time Points]", "pdf_verbatim": "For example, --ELTM is likely to be null for time points described by text such as \"pre-dose\" or \"before breakfast.\"", "figure_ref": null, "candidates": [{"md_atom_id": "md_ch04_a715", "md_file": "knowledge_base/chapters/ch04_general_assumptions.md", "md_atom_type": "SENTENCE", "md_parent_section": "§4.4.10 [Representing Time Points]", "md_verbatim": "**Example: Vital Signs time points (30, 60, 90 minutes post-dose)**", "score": 0.4368, "match_basis": "verbatim_token+chapter_route:ch04"}, {"md_atom_id": "md_ch04_a267", "md_file": "knowledge_base/chapters/ch04_general_assumptions.md", "md_atom_type": "SENTENCE", "md_parent_section": "§4.2.7.1 [\"Specify\" Values for Non-Result Qualifier Variables]", "md_verbatim": "Another example is a CRF that collects reason for dose adjustment with additional free-text description:", "score": 0.4071, "match_basis": "verbatim_token+chapter_route:ch04"}, {"md_atom_id": "md_ch04_a705", "md_file": "knowledge_base/chapters/ch04_general_assumptions.md", "md_atom_type": "SENTENCE", "md_parent_section": "§4.4.10 [Representing Time Points]", "md_verbatim": "Time points can be represented using the time point variables --TPT, --TPTNUM, --ELTM, and the time-point anchors --TPTREF (text description) and --RFTDTC (date/time).", "score": 0.4023, "match_basis": "verbatim_token+chapter_route:ch04"}, {"md_atom_id": "md_ch04_a721", "md_file": "knowledge_base/chapters/ch04_general_assumptions.md", "md_atom_type": "SENTENCE", "md_parent_section": "§4.4.10 [Representing Time Points]", "md_verbatim": "**Example: LB timed urine collections (pre-dose, 0-12 hours, 12-24 hours post-dose)**", "score": 0.3968, "match_basis": "verbatim_token+chapter_route:ch04"}, {"md_atom_id": "md_ch04_a320", "md_file": "knowledge_base/chapters/ch04_general_assumptions.md", "md_atom_type": "SENTENCE", "md_parent_section": "§4.2.7.3 [\"Specify\" Values for Topic Variables]", "md_verbatim": "For example:", "score": 0.3818, "match_basis": "verbatim_token+chapter_route:ch04"}], "candidate_count": 5, "zero_candidate": false}
{"pdf_atom_id": "ig34_p0048_a027", "pdf_atom_type": "SENTENCE", "pdf_source": "SDTMIG_v3.4", "pdf_page": 48, "pdf_parent_section": "§4.4.10 [Representing Time Points]", "pdf_verbatim": "When --ELTM is populated, if 2 subjects have records with the same values of DOMAIN, VISITNUM, --TPTREF, and --TPTNUM, then these records may not have different values in --ELTM.", "figure_ref": null, "candidates": [{"md_atom_id": "md_ch04_a237", "md_file": "knowledge_base/chapters/ch04_general_assumptions.md", "md_atom_type": "SENTENCE", "md_parent_section": "§4.2.6 [Grouping Variables and Categorization]", "md_verbatim": "All records in the same domain with the same --GRPID value are a group of records within USUBJID.", "score": 0.4562, "match_basis": "verbatim_token+chapter_route:ch04"}, {"md_atom_id": "md_ch04_a223", "md_file": "knowledge_base/chapters/ch04_general_assumptions.md", "md_atom_type": "SENTENCE", "md_parent_section": "§4.2.6 [Grouping Variables and Categorization]", "md_verbatim": "All records with the same USUBJID value are a group of records that describe that subject.", "score": 0.4421, "match_basis": "verbatim_token+chapter_route:ch04"}, {"md_atom_id": "md_ch04_a234", "md_file": "knowledge_base/chapters/ch04_general_assumptions.md", "md_atom_type": "SENTENCE", "md_parent_section": "§4.2.6 [Grouping Variables and Categorization]", "md_verbatim": "      In such cases, the data collected during the stress tests recorded in 3 separate domains may all have --CAT/--SCAT values (STRESS TEST) that identify that data were collected during the stress test.", "score": 0.4307, "match_basis": "verbatim_token+chapter_route:ch04"}, {"md_atom_id": "md_ch04_a555", "md_file": "knowledge_base/chapters/ch04_general_assumptions.md", "md_atom_type": "SENTENCE", "md_parent_section": "§4.4.3.1 [Intervals of Time and Use of Duration]", "md_verbatim": "If both --STDTC and --ENDTC are collected, durations can be calculated by the difference in these 2 values, and need not be in the submission dataset.", "score": 0.426, "match_basis": "verbatim_token+chapter_route:ch04"}, {"md_atom_id": "md_ch04_a755", "md_file": "knowledge_base/chapters/ch04_general_assumptions.md", "md_atom_type": "SENTENCE", "md_parent_section": "§4.4.10 [Representing Time Points]", "md_verbatim": "Option 2 — VISITNUM designates period and day within period; --TPTREF designates dose within the day; --TPTNUM designates timing relative to reference time point:", "score": 0.425, "match_basis": "verbatim_token+chapter_route:ch04"}], "candidate_count": 5, "zero_candidate": false}
{"pdf_atom_id": "ig34_p0048_a028", "pdf_atom_type": "SENTENCE", "pdf_source": "SDTMIG_v3.4", "pdf_page": 48, "pdf_parent_section": "§4.4.10 [Representing Time Points]", "pdf_verbatim": "When the protocol describes a time point with text (e.g., \"4-6 hours after dose,\" \"12 hours +/- 2 hours after dose\"), the sponsor may choose whether and how to populate --ELTM.", "figure_ref": null, "candidates": [{"md_atom_id": "md_ch04_a336", "md_file": "knowledge_base/chapters/ch04_general_assumptions.md", "md_atom_type": "SENTENCE", "md_parent_section": "§4.2.7.3 [\"Specify\" Values for Topic Variables]", "md_verbatim": "--TESTCD and --TEST should be populated with the code and description of the test found in the specified text.", "score": 0.4275, "match_basis": "verbatim_token+chapter_route:ch04"}, {"md_atom_id": "md_ch04_a333", "md_file": "knowledge_base/chapters/ch04_general_assumptions.md", "md_atom_type": "SENTENCE", "md_parent_section": "§4.2.7.3 [\"Specify\" Values for Topic Variables]", "md_verbatim": "--TERM should be populated with the description of the event found in the specified text and --PRESP could be used to distinguish between prespecified and free-text responses.", "score": 0.4235, "match_basis": "verbatim_token+chapter_route:ch04"}, {"md_atom_id": "md_ch04_a389", "md_file": "knowledge_base/chapters/ch04_general_assumptions.md", "md_atom_type": "SENTENCE", "md_parent_section": "§4.2.8.3 [Multiple Values for a Non-result Qualifier Variable]", "md_verbatim": "If the sponsor has clearly documented that one response is of primary interest (e.g., in the CRF, protocol, or analysis plan), the standard domain variable may be populated with the primary response and SUPP-- may be used to store the secondary response(s).", "score": 0.4231, "match_basis": "verbatim_token+chapter_route:ch04"}, {"md_atom_id": "md_ch04_a705", "md_file": "knowledge_base/chapters/ch04_general_assumptions.md", "md_atom_type": "SENTENCE", "md_parent_section": "§4.4.10 [Representing Time Points]", "md_verbatim": "Time points can be represented using the time point variables --TPT, --TPTNUM, --ELTM, and the time-point anchors --TPTREF (text description) and --RFTDTC (date/time).", "score": 0.4052, "match_basis": "verbatim_token+chapter_route:ch04"}, {"md_atom_id": "md_ch04_a468", "md_file": "knowledge_base/chapters/ch04_general_assumptions.md", "md_atom_type": "SENTENCE", "md_parent_section": "§4.3.7 [Use of \"Yes\" and \"No\" Values]", "md_verbatim": "Variables where the response is \"Yes\" or \"No\" (\"Y\" or \"N\") should normally be populated for both \"Y\" and \"N\" responses.", "score": 0.4037, "match_basis": "verbatim_token+chapter_route:ch04"}], "candidate_count": 5, "zero_candidate": false}
{"pdf_atom_id": "ig34_p0048_a029", "pdf_atom_type": "SENTENCE", "pdf_source": "SDTMIG_v3.4", "pdf_page": 48, "pdf_parent_section": "§4.4.10 [Representing Time Points]", "pdf_verbatim": "For example, a time point described as \"4-6 hours after dose\" might be associated with an --ELTM value of PT4H.", "figure_ref": null, "candidates": [{"md_atom_id": "md_ch04_a706", "md_file": "knowledge_base/chapters/ch04_general_assumptions.md", "md_atom_type": "SENTENCE", "md_parent_section": "§4.4.10 [Representing Time Points]", "md_verbatim": "Time-point data will usually have an associated --DTC value.", "score": 0.4655, "match_basis": "verbatim_token+chapter_route:ch04"}, {"md_atom_id": "md_ch04_a435", "md_file": "knowledge_base/chapters/ch04_general_assumptions.md", "md_atom_type": "SENTENCE", "md_parent_section": "§4.3.3 [Controlled Terminology Values]", "md_verbatim": "For example, --PRESP variables are associated with the NY codelist, but only the value \"Y\" is allowed in --PRESP variables.", "score": 0.4583, "match_basis": "verbatim_token+chapter_route:ch04"}, {"md_atom_id": "md_ch04_a715", "md_file": "knowledge_base/chapters/ch04_general_assumptions.md", "md_atom_type": "SENTENCE", "md_parent_section": "§4.4.10 [Representing Time Points]", "md_verbatim": "**Example: Vital Signs time points (30, 60, 90 minutes post-dose)**", "score": 0.42, "match_basis": "verbatim_token+chapter_route:ch04"}, {"md_atom_id": "md_ch04_a721", "md_file": "knowledge_base/chapters/ch04_general_assumptions.md", "md_atom_type": "SENTENCE", "md_parent_section": "§4.4.10 [Representing Time Points]", "md_verbatim": "**Example: LB timed urine collections (pre-dose, 0-12 hours, 12-24 hours post-dose)**", "score": 0.4161, "match_basis": "verbatim_token+chapter_route:ch04"}, {"md_atom_id": "md_ch04_a339", "md_file": "knowledge_base/chapters/ch04_general_assumptions.md", "md_atom_type": "SENTENCE", "md_parent_section": "§4.2.7.3 [\"Specify\" Values for Topic Variables]", "md_verbatim": "The value the investigator wrote for \"Other, specify\" was \"Prothrombin time\" with an associated result and units.", "score": 0.4157, "match_basis": "verbatim_token+chapter_route:ch04"}], "candidate_count": 5, "zero_candidate": false}
{"pdf_atom_id": "ig34_p0048_a030", "pdf_atom_type": "CODE_LITERAL", "pdf_source": "SDTMIG_v3.4", "pdf_page": 48, "pdf_parent_section": "§4.4.10 [Representing Time Points]", "pdf_verbatim": "PT4H", "figure_ref": null, "candidates": [{"md_atom_id": "md_ch04_a586", "md_file": "knowledge_base/chapters/ch04_general_assumptions.md", "md_atom_type": "TABLE_ROW", "md_parent_section": "§4.4.3.1 [Intervals of Time and Use of Duration]", "md_verbatim": "| 42 minutes 18 seconds | PT42M18S |", "score": 0.1253, "match_basis": "verbatim_token+chapter_route:ch04"}, {"md_atom_id": "md_ch04_a001", "md_file": "knowledge_base/chapters/ch04_general_assumptions.md", "md_atom_type": "HEADING", "md_parent_section": "§4 [Assumptions for Domain Models]", "md_verbatim": "# SDTMIG v3.4 — Chapter 4: Assumptions for Domain Models", "score": 0.09, "match_basis": "verbatim_token+chapter_route:ch04"}, {"md_atom_id": "md_ch04_a002", "md_file": "knowledge_base/chapters/ch04_general_assumptions.md", "md_atom_type": "SENTENCE", "md_parent_section": "§4 [Assumptions for Domain Models]", "md_verbatim": "Source: SDTMIG v3.4, Section 4 (Pages 22-59)", "score": 0.09, "match_basis": "verbatim_token+chapter_route:ch04"}, {"md_atom_id": "md_ch04_a003", "md_file": "knowledge_base/chapters/ch04_general_assumptions.md", "md_atom_type": "HEADING", "md_parent_section": "§4 [Assumptions for Domain Models]", "md_verbatim": "## Overview", "score": 0.09, "match_basis": "verbatim_token+chapter_route:ch04"}, {"md_atom_id": "md_ch04_a004", "md_file": "knowledge_base/chapters/ch04_general_assumptions.md", "md_atom_type": "SENTENCE", "md_parent_section": "§4.0 [Overview]", "md_verbatim": "This section describes basic concepts, business rules, and assumptions that should be taken into consideration before applying the domain models.", "score": 0.09, "match_basis": "verbatim_token+chapter_route:ch04"}, {"md_atom_id": "md_ch04_a005", "md_file": "knowledge_base/chapters/ch04_general_assumptions.md", "md_atom_type": "SENTENCE", "md_parent_section": "§4.0 [Overview]", "md_verbatim": "It covers general domain assumptions, general variable assumptions, coding and controlled terminology assumptions, actual and relative time assumptions, and other assumptions.", "score": 0.09, "match_basis": "verbatim_token+chapter_route:ch04"}, {"md_atom_id": "md_ch04_a006", "md_file": "knowledge_base/chapters/ch04_general_assumptions.md", "md_atom_type": "HEADING", "md_parent_section": "§4 [Assumptions for Domain Models]", "md_verbatim": "## 4.1 General Domain Assumptions", "score": 0.09, "match_basis": "verbatim_token+chapter_route:ch04"}, {"md_atom_id": "md_ch04_a007", "md_file": "knowledge_base/chapters/ch04_general_assumptions.md", "md_atom_type": "HEADING", "md_parent_section": "§4.1 [General Domain Assumptions]", "md_verbatim": "### 4.1.1 Review Study Data Tabulation Model and Implementation Guide", "score": 0.09, "match_basis": "verbatim_token+chapter_route:ch04"}, {"md_atom_id": "md_ch04_a008", "md_file": "knowledge_base/chapters/ch04_general_assumptions.md", "md_atom_type": "SENTENCE", "md_parent_section": "§4.1.1 [Review Study Data Tabulation Model and Implementation Guide]", "md_verbatim": "Review the SDTM as well as this complete implementation guide before attempting to use any of the individual domain models.", "score": 0.09, "match_basis": "verbatim_token+chapter_route:ch04"}, {"md_atom_id": "md_ch04_a009", "md_file": "knowledge_base/chapters/ch04_general_assumptions.md", "md_atom_type": "SENTENCE", "md_parent_section": "§4.1.1 [Review Study Data Tabulation Model and Implementation Guide]", "md_verbatim": "The SDTM describes the general conceptual framework, including the general observation classes (Interventions, Events, Findings), special-purpose domains, trial design model datasets, relationship datasets, and study references.", "score": 0.09, "match_basis": "verbatim_token+chapter_route:ch04"}], "candidate_count": 10, "zero_candidate": false}
{"pdf_atom_id": "ig34_p0048_a031", "pdf_atom_type": "SENTENCE", "pdf_source": "SDTMIG_v3.4", "pdf_page": 48, "pdf_parent_section": "§4.4.10 [Representing Time Points]", "pdf_verbatim": "A time point described as \"12 hours +/- 2 hours after dose\" might be associated with an --ELTM value of PT12H.", "figure_ref": null, "candidates": [{"md_atom_id": "md_ch04_a706", "md_file": "knowledge_base/chapters/ch04_general_assumptions.md", "md_atom_type": "SENTENCE", "md_parent_section": "§4.4.10 [Representing Time Points]", "md_verbatim": "Time-point data will usually have an associated --DTC value.", "score": 0.4811, "match_basis": "verbatim_token+chapter_route:ch04"}, {"md_atom_id": "md_ch04_a339", "md_file": "knowledge_base/chapters/ch04_general_assumptions.md", "md_atom_type": "SENTENCE", "md_parent_section": "§4.2.7.3 [\"Specify\" Values for Topic Variables]", "md_verbatim": "The value the investigator wrote for \"Other, specify\" was \"Prothrombin time\" with an associated result and units.", "score": 0.4139, "match_basis": "verbatim_token+chapter_route:ch04"}, {"md_atom_id": "md_ch04_a435", "md_file": "knowledge_base/chapters/ch04_general_assumptions.md", "md_atom_type": "SENTENCE", "md_parent_section": "§4.3.3 [Controlled Terminology Values]", "md_verbatim": "For example, --PRESP variables are associated with the NY codelist, but only the value \"Y\" is allowed in --PRESP variables.", "score": 0.4068, "match_basis": "verbatim_token+chapter_route:ch04"}, {"md_atom_id": "md_ch04_a365", "md_file": "knowledge_base/chapters/ch04_general_assumptions.md", "md_atom_type": "SENTENCE", "md_parent_section": "§4.2.8.3 [Multiple Values for a Non-result Qualifier Variable]", "md_verbatim": "The values stored in QVAL should be consistent with the controlled terminology associated with the standard variable.", "score": 0.4047, "match_basis": "verbatim_token+chapter_route:ch04"}, {"md_atom_id": "md_ch04_a223", "md_file": "knowledge_base/chapters/ch04_general_assumptions.md", "md_atom_type": "SENTENCE", "md_parent_section": "§4.2.6 [Grouping Variables and Categorization]", "md_verbatim": "All records with the same USUBJID value are a group of records that describe that subject.", "score": 0.4031, "match_basis": "verbatim_token+chapter_route:ch04"}], "candidate_count": 5, "zero_candidate": false}
{"pdf_atom_id": "ig34_p0048_a032", "pdf_atom_type": "CODE_LITERAL", "pdf_source": "SDTMIG_v3.4", "pdf_page": 48, "pdf_parent_section": "§4.4.10 [Representing Time Points]", "pdf_verbatim": "PT12H", "figure_ref": null, "candidates": [{"md_atom_id": "md_ch04_a724", "md_file": "knowledge_base/chapters/ch04_general_assumptions.md", "md_atom_type": "TABLE_ROW", "md_parent_section": "§4.4.10 [Representing Time Points]", "md_verbatim": "| 2 | 0-12 HOURS | PT12H | DOSE ADMINISTRATION | 2006-08-01T08:00 | 2006-08-01T20:35 |", "score": 0.1567, "match_basis": "verbatim_token+chapter_route:ch04"}, {"md_atom_id": "md_ch04_a588", "md_file": "knowledge_base/chapters/ch04_general_assumptions.md", "md_atom_type": "TABLE_ROW", "md_parent_section": "§4.4.3.1 [Intervals of Time and Use of Duration]", "md_verbatim": "| 5 days 12 1/4 hours | P5DT12.25H |", "score": 0.14, "match_basis": "verbatim_token+chapter_route:ch04"}, {"md_atom_id": "md_ch04_a718", "md_file": "knowledge_base/chapters/ch04_general_assumptions.md", "md_atom_type": "TABLE_ROW", "md_parent_section": "§4.4.10 [Representing Time Points]", "md_verbatim": "| 2 | 60 MIN | PT1H | DOSE ADMINISTRATION | 2006-08-01T08:00 | 2006-08-01T09:01 |", "score": 0.115, "match_basis": "verbatim_token+chapter_route:ch04"}, {"md_atom_id": "md_ch04_a723", "md_file": "knowledge_base/chapters/ch04_general_assumptions.md", "md_atom_type": "TABLE_ROW", "md_parent_section": "§4.4.10 [Representing Time Points]", "md_verbatim": "| 1 | 15 MIN PRE-DOSE | -PT15M | DOSE ADMINISTRATION | 2006-08-01T08:00 | 2006-08-01T07:45 |", "score": 0.1131, "match_basis": "verbatim_token+chapter_route:ch04"}, {"md_atom_id": "md_ch04_a719", "md_file": "knowledge_base/chapters/ch04_general_assumptions.md", "md_atom_type": "TABLE_ROW", "md_parent_section": "§4.4.10 [Representing Time Points]", "md_verbatim": "| 3 | 90 MIN | PT1H30M | DOSE ADMINISTRATION | 2006-08-01T08:00 | 2006-08-01T09:32 |", "score": 0.1122, "match_basis": "verbatim_token+chapter_route:ch04"}, {"md_atom_id": "md_ch04_a001", "md_file": "knowledge_base/chapters/ch04_general_assumptions.md", "md_atom_type": "HEADING", "md_parent_section": "§4 [Assumptions for Domain Models]", "md_verbatim": "# SDTMIG v3.4 — Chapter 4: Assumptions for Domain Models", "score": 0.09, "match_basis": "verbatim_token+chapter_route:ch04"}, {"md_atom_id": "md_ch04_a002", "md_file": "knowledge_base/chapters/ch04_general_assumptions.md", "md_atom_type": "SENTENCE", "md_parent_section": "§4 [Assumptions for Domain Models]", "md_verbatim": "Source: SDTMIG v3.4, Section 4 (Pages 22-59)", "score": 0.09, "match_basis": "verbatim_token+chapter_route:ch04"}, {"md_atom_id": "md_ch04_a003", "md_file": "knowledge_base/chapters/ch04_general_assumptions.md", "md_atom_type": "HEADING", "md_parent_section": "§4 [Assumptions for Domain Models]", "md_verbatim": "## Overview", "score": 0.09, "match_basis": "verbatim_token+chapter_route:ch04"}, {"md_atom_id": "md_ch04_a004", "md_file": "knowledge_base/chapters/ch04_general_assumptions.md", "md_atom_type": "SENTENCE", "md_parent_section": "§4.0 [Overview]", "md_verbatim": "This section describes basic concepts, business rules, and assumptions that should be taken into consideration before applying the domain models.", "score": 0.09, "match_basis": "verbatim_token+chapter_route:ch04"}, {"md_atom_id": "md_ch04_a005", "md_file": "knowledge_base/chapters/ch04_general_assumptions.md", "md_atom_type": "SENTENCE", "md_parent_section": "§4.0 [Overview]", "md_verbatim": "It covers general domain assumptions, general variable assumptions, coding and controlled terminology assumptions, actual and relative time assumptions, and other assumptions.", "score": 0.09, "match_basis": "verbatim_token+chapter_route:ch04"}], "candidate_count": 10, "zero_candidate": false}
{"pdf_atom_id": "ig34_p0048_a033", "pdf_atom_type": "SENTENCE", "pdf_source": "SDTMIG_v3.4", "pdf_page": 48, "pdf_parent_section": "§4.4.10 [Representing Time Points]", "pdf_verbatim": "Conventions for populating --ELTM should be consistent (the examples just given would probably not both be used in the same trial).", "figure_ref": null, "candidates": [{"md_atom_id": "md_ch04_a468", "md_file": "knowledge_base/chapters/ch04_general_assumptions.md", "md_atom_type": "SENTENCE", "md_parent_section": "§4.3.7 [Use of \"Yes\" and \"No\" Values]", "md_verbatim": "Variables where the response is \"Yes\" or \"No\" (\"Y\" or \"N\") should normally be populated for both \"Y\" and \"N\" responses.", "score": 0.4275, "match_basis": "verbatim_token+chapter_route:ch04"}, {"md_atom_id": "md_ch04_a333", "md_file": "knowledge_base/chapters/ch04_general_assumptions.md", "md_atom_type": "SENTENCE", "md_parent_section": "§4.2.7.3 [\"Specify\" Values for Topic Variables]", "md_verbatim": "--TERM should be populated with the description of the event found in the specified text and --PRESP could be used to distinguish between prespecified and free-text responses.", "score": 0.4143, "match_basis": "verbatim_token+chapter_route:ch04"}, {"md_atom_id": "md_ch04_a906", "md_file": "knowledge_base/chapters/ch04_general_assumptions.md", "md_atom_type": "SENTENCE", "md_parent_section": "§4.5.3.2 [Text Strings Greater than 200 Characters in Other Variables]", "md_verbatim": "Therefore, the SDTMIG has defined conventions for storing long text strings using multiple variables.", "score": 0.4097, "match_basis": "verbatim_token+chapter_route:ch04"}, {"md_atom_id": "md_ch04_a687", "md_file": "knowledge_base/chapters/ch04_general_assumptions.md", "md_atom_type": "SENTENCE", "md_parent_section": "§4.4.8 [Date and Time Reported in a Domain Based on Findings]", "md_verbatim": "This approach allows the single-point and interval collections to use the same date/time variables consistently across all datasets for the Findings general observation class.", "score": 0.4033, "match_basis": "verbatim_token+chapter_route:ch04"}, {"md_atom_id": "md_ch04_a042", "md_file": "knowledge_base/chapters/ch04_general_assumptions.md", "md_atom_type": "SENTENCE", "md_parent_section": "§4.1.6 [Additional Guidance on Dataset Naming]", "md_verbatim": "SDTM datasets are normally named to be consistent with the domain code; for example, the Demographics dataset (DM) is named dm.xpt.", "score": 0.4032, "match_basis": "verbatim_token+chapter_route:ch04"}], "candidate_count": 5, "zero_candidate": false}
{"pdf_atom_id": "ig34_p0048_a034", "pdf_atom_type": "SENTENCE", "pdf_source": "SDTMIG_v3.4", "pdf_page": 48, "pdf_parent_section": "§4.4.10 [Representing Time Points]", "pdf_verbatim": "It would be good practice to indicate the range of intended timings by some convention in the values used to populate --TPT.", "figure_ref": null, "candidates": [{"md_atom_id": "md_ch04_a994", "md_file": "knowledge_base/chapters/ch04_general_assumptions.md", "md_atom_type": "SENTENCE", "md_parent_section": "§4.5.7 [Presence or Absence of Prespecified Interventions and Events]", "md_verbatim": "The --OCCUR variable is used to indicate whether a prespecified intervention or event occurred or did not occur.", "score": 0.4116, "match_basis": "verbatim_token+chapter_route:ch04"}, {"md_atom_id": "md_ch04_a990", "md_file": "knowledge_base/chapters/ch04_general_assumptions.md", "md_atom_type": "SENTENCE", "md_parent_section": "§4.5.7 [Presence or Absence of Prespecified Interventions and Events]", "md_verbatim": "The --PRESP variable is used to indicate whether a specific intervention (--TRT) or event (--TERM) was solicited.", "score": 0.4103, "match_basis": "verbatim_token+chapter_route:ch04"}, {"md_atom_id": "md_ch04_a469", "md_file": "knowledge_base/chapters/ch04_general_assumptions.md", "md_atom_type": "SENTENCE", "md_parent_section": "§4.3.7 [Use of \"Yes\" and \"No\" Values]", "md_verbatim": "This eliminates confusion regarding whether a blank response indicates \"N\" or is a missing value.", "score": 0.4011, "match_basis": "verbatim_token+chapter_route:ch04"}, {"md_atom_id": "md_ch04_a647", "md_file": "knowledge_base/chapters/ch04_general_assumptions.md", "md_atom_type": "SENTENCE", "md_parent_section": "§4.4.7 [Use of Relative Timing Variables]", "md_verbatim": "**Restriction on --STRTPT values:** If the reference time point corresponds to the date of collection or assessment, **AFTER is not a valid value** for --STRTPT because it would represent an event after the date of collection.", "score": 0.3982, "match_basis": "verbatim_token+chapter_route:ch04"}, {"md_atom_id": "md_ch04_a694", "md_file": "knowledge_base/chapters/ch04_general_assumptions.md", "md_atom_type": "SENTENCE", "md_parent_section": "§4.4.9 [Use of Dates as Result Variables]", "md_verbatim": "Dates are generally used only as timing variables to describe the timing of an event, intervention, or collection activity, but there may be occasions when it may be preferable to model a date as a result (--ORRES) in a Findings dataset.", "score": 0.3968, "match_basis": "verbatim_token+chapter_route:ch04"}], "candidate_count": 5, "zero_candidate": false}
{"pdf_atom_id": "ig34_p0048_a035", "pdf_atom_type": "SENTENCE", "pdf_source": "SDTMIG_v3.4", "pdf_page": 48, "pdf_parent_section": "§4.4.10 [Representing Time Points]", "pdf_verbatim": "Sponsors may, of course, use more stringent requirements for populating --TPTNUM, --TPT, and --ELTM.", "figure_ref": null, "candidates": [{"md_atom_id": "md_ch04_a615", "md_file": "knowledge_base/chapters/ch04_general_assumptions.md", "md_atom_type": "SENTENCE", "md_parent_section": "§4.4.5 [Clinical Encounters and Visits]", "md_verbatim": "Sponsor practices for populating visit variables for **unplanned visits** may vary:", "score": 0.4268, "match_basis": "verbatim_token+chapter_route:ch04"}, {"md_atom_id": "md_ch04_a905", "md_file": "knowledge_base/chapters/ch04_general_assumptions.md", "md_atom_type": "SENTENCE", "md_parent_section": "§4.5.3.2 [Text Strings Greater than 200 Characters in Other Variables]", "md_verbatim": "Because of the current requirement for the SAS V5 transport file format, it is not possible to store long text strings using only 1 variable.", "score": 0.4146, "match_basis": "verbatim_token+chapter_route:ch04"}, {"md_atom_id": "md_ch04_a293", "md_file": "knowledge_base/chapters/ch04_general_assumptions.md", "md_atom_type": "SENTENCE", "md_parent_section": "§4.2.7.1 [\"Specify\" Values for Non-Result Qualifier Variables]", "md_verbatim": "   Note that the sponsor might choose a different value for CMINDC (e.g., \"BONE FRACTURE\") depending on the sponsor's coding practice and analysis requirements.", "score": 0.4125, "match_basis": "verbatim_token+chapter_route:ch04"}, {"md_atom_id": "md_ch04_a297", "md_file": "knowledge_base/chapters/ch04_general_assumptions.md", "md_atom_type": "SENTENCE", "md_parent_section": "§4.2.7.2 [\"Specify\" Values for Result Qualifier Variables]", "md_verbatim": "When the CRF includes a list of values for a result field that includes \"Other\" and the \"Other\" is supplemented with a \"Specify\" free-text field, then the manner in which the free-text \"Specify\" value is submitted will vary based on the sponsor's coding practice and analysis requirements.", "score": 0.3864, "match_basis": "verbatim_token+chapter_route:ch04"}, {"md_atom_id": "md_ch04_a276", "md_file": "knowledge_base/chapters/ch04_general_assumptions.md", "md_atom_type": "SENTENCE", "md_parent_section": "§4.2.7.1 [\"Specify\" Values for Non-Result Qualifier Variables]", "md_verbatim": "When the CRF includes a list of values for a qualifier field that includes \"Other\" and the \"Other\" is supplemented with a \"Specify\" free-text field, then the manner in which the free-text \"Specify\" value is submitted will vary based on the sponsor's coding practice and analysis requirements.", "score": 0.385, "match_basis": "verbatim_token+chapter_route:ch04"}], "candidate_count": 5, "zero_candidate": false}
{"pdf_atom_id": "ig34_p0048_a036", "pdf_atom_type": "SENTENCE", "pdf_source": "SDTMIG_v3.4", "pdf_page": 48, "pdf_parent_section": "§4.4.10 [Representing Time Points]", "pdf_verbatim": "For instance, a sponsor could decide that all time points with a particular --ELTM value would have the same values of --TPTNUM, and --TPT, across all visits, reference time points, and domains.", "figure_ref": null, "candidates": [{"md_atom_id": "md_ch04_a362", "md_file": "knowledge_base/chapters/ch04_general_assumptions.md", "md_atom_type": "SENTENCE", "md_parent_section": "§4.2.8.3 [Multiple Values for a Non-result Qualifier Variable]", "md_verbatim": "It is recommended that the SUPP-- QNAM value reference the corresponding standard domain variable with an appended number or letter.", "score": 0.4316, "match_basis": "verbatim_token+chapter_route:ch04"}, {"md_atom_id": "md_ch04_a755", "md_file": "knowledge_base/chapters/ch04_general_assumptions.md", "md_atom_type": "SENTENCE", "md_parent_section": "§4.4.10 [Representing Time Points]", "md_verbatim": "Option 2 — VISITNUM designates period and day within period; --TPTREF designates dose within the day; --TPTNUM designates timing relative to reference time point:", "score": 0.4302, "match_basis": "verbatim_token+chapter_route:ch04"}, {"md_atom_id": "md_ch04_a977", "md_file": "knowledge_base/chapters/ch04_general_assumptions.md", "md_atom_type": "SENTENCE", "md_parent_section": "§4.5.6 [Supplemental Reason Variables]", "md_verbatim": "For Events and Interventions domains where prespecified occurrences have a reason for the \"Y\" or \"N\" value of --OCCUR, the reason can be represented with the variable --REASOC.", "score": 0.4179, "match_basis": "verbatim_token+chapter_route:ch04"}, {"md_atom_id": "md_ch04_a647", "md_file": "knowledge_base/chapters/ch04_general_assumptions.md", "md_atom_type": "SENTENCE", "md_parent_section": "§4.4.7 [Use of Relative Timing Variables]", "md_verbatim": "**Restriction on --STRTPT values:** If the reference time point corresponds to the date of collection or assessment, **AFTER is not a valid value** for --STRTPT because it would represent an event after the date of collection.", "score": 0.4171, "match_basis": "verbatim_token+chapter_route:ch04"}, {"md_atom_id": "md_ch04_a735", "md_file": "knowledge_base/chapters/ch04_general_assumptions.md", "md_atom_type": "SENTENCE", "md_parent_section": "§4.4.10 [Representing Time Points]", "md_verbatim": "Option 1 — VISITNUM designates period; --TPTREF designates day and dose; --TPTNUM designates timing relative to reference time point:", "score": 0.4154, "match_basis": "verbatim_token+chapter_route:ch04"}], "candidate_count": 5, "zero_candidate": false}
{"pdf_atom_id": "ig34_p0048_a037", "pdf_atom_type": "HEADING", "pdf_source": "SDTMIG_v3.4", "pdf_page": 48, "pdf_parent_section": "§4.4.11 [Disease Milestones and Disease Milestone Timing Variables]", "pdf_verbatim": "4.4.11  Disease Milestones and Disease Milestone Timing Variables", "figure_ref": null, "candidates": [{"md_atom_id": "md_ch04_a775", "md_file": "knowledge_base/chapters/ch04_general_assumptions.md", "md_atom_type": "HEADING", "md_parent_section": "§4.4 [Use of Timing Variables]", "md_verbatim": "### 4.4.11 Disease Milestones and Disease Milestone Timing Variables", "score": 0.9, "match_basis": "verbatim_token+chapter_route:ch04"}, {"md_atom_id": "md_ch04_a801", "md_file": "knowledge_base/chapters/ch04_general_assumptions.md", "md_atom_type": "HEADING", "md_parent_section": "§4.4.11 [Disease Milestones and Disease Milestone Timing Variables]", "md_verbatim": "#### Use of Disease Milestone Timing Variables with Other Timing Variables", "score": 0.74, "match_basis": "verbatim_token+chapter_route:ch04"}, {"md_atom_id": "md_ch04_a809", "md_file": "knowledge_base/chapters/ch04_general_assumptions.md", "md_atom_type": "HEADING", "md_parent_section": "§4.4.11 [Disease Milestones and Disease Milestone Timing Variables]", "md_verbatim": "#### Linking and Disease Milestones", "score": 0.6214, "match_basis": "verbatim_token+chapter_route:ch04"}, {"md_atom_id": "md_ch04_a781", "md_file": "knowledge_base/chapters/ch04_general_assumptions.md", "md_atom_type": "HEADING", "md_parent_section": "§4.4.11 [Disease Milestones and Disease Milestone Timing Variables]", "md_verbatim": "#### Disease Milestone Naming (MIDS)", "score": 0.6, "match_basis": "verbatim_token+chapter_route:ch04"}, {"md_atom_id": "md_ch04_a787", "md_file": "knowledge_base/chapters/ch04_general_assumptions.md", "md_atom_type": "HEADING", "md_parent_section": "§4.4.11 [Disease Milestones and Disease Milestone Timing Variables]", "md_verbatim": "#### Timing Relative to a Disease Milestone (MIDS, RELMIDS, MIDSDTC)", "score": 0.5595, "match_basis": "verbatim_token+chapter_route:ch04"}], "candidate_count": 5, "zero_candidate": false}
{"pdf_atom_id": "ig34_p0048_a038", "pdf_atom_type": "SENTENCE", "pdf_source": "SDTMIG_v3.4", "pdf_page": 48, "pdf_parent_section": "§4.4.11 [Disease Milestones and Disease Milestone Timing Variables]", "pdf_verbatim": "A disease milestone is an event or activity that can be anticipated in the course of a disease, but whose timing is not controlled by the study schedule.", "figure_ref": null, "candidates": [{"md_atom_id": "md_ch04_a776", "md_file": "knowledge_base/chapters/ch04_general_assumptions.md", "md_atom_type": "SENTENCE", "md_parent_section": "§4.4.11 [Disease Milestones and Disease Milestone Timing Variables]", "md_verbatim": "A disease milestone is an event or activity that can be anticipated in the course of a disease, but whose timing is not controlled by the study schedule.", "score": 0.9, "match_basis": "verbatim_token+chapter_route:ch04"}, {"md_atom_id": "md_ch04_a802", "md_file": "knowledge_base/chapters/ch04_general_assumptions.md", "md_atom_type": "SENTENCE", "md_parent_section": "§4.4.11 [Disease Milestones and Disease Milestone Timing Variables]", "md_verbatim": "The disease milestone timing variables provide timing relative to an activity or event that has been identified, for the particular study, as a disease milestone.", "score": 0.5062, "match_basis": "verbatim_token+chapter_route:ch04"}, {"md_atom_id": "md_ch04_a777", "md_file": "knowledge_base/chapters/ch04_general_assumptions.md", "md_atom_type": "SENTENCE", "md_parent_section": "§4.4.11 [Disease Milestones and Disease Milestone Timing Variables]", "md_verbatim": "A disease milestone may be something that occurred pre-study (e.g., diagnosis of the disease under study), or something anticipated to occur during the study (e.g., an adverse event of interest).", "score": 0.492, "match_basis": "verbatim_token+chapter_route:ch04"}, {"md_atom_id": "md_ch04_a803", "md_file": "knowledge_base/chapters/ch04_general_assumptions.md", "md_atom_type": "SENTENCE", "md_parent_section": "§4.4.11 [Disease Milestones and Disease Milestone Timing Variables]", "md_verbatim": "Their use does not preclude the use of variables that collect actual date/times or timing relative to the study schedule:", "score": 0.4453, "match_basis": "verbatim_token+chapter_route:ch04"}, {"md_atom_id": "md_ch04_a780", "md_file": "knowledge_base/chapters/ch04_general_assumptions.md", "md_atom_type": "SENTENCE", "md_parent_section": "§4.4.11 [Disease Milestones and Disease Milestone Timing Variables]", "md_verbatim": "If a study does not have disease milestones, the TM and SM domains will not be present and the disease milestone timing variables may not be included in other domains.", "score": 0.4375, "match_basis": "verbatim_token+chapter_route:ch04"}], "candidate_count": 5, "zero_candidate": false}
{"pdf_atom_id": "ig34_p0048_a039", "pdf_atom_type": "SENTENCE", "pdf_source": "SDTMIG_v3.4", "pdf_page": 48, "pdf_parent_section": "§4.4.11 [Disease Milestones and Disease Milestone Timing Variables]", "pdf_verbatim": "A disease milestone may be something that occurred pre-study, but which represents a time at which data would have been collected (e.g., diagnosis of the disease under study).", "figure_ref": null, "candidates": [{"md_atom_id": "md_ch04_a777", "md_file": "knowledge_base/chapters/ch04_general_assumptions.md", "md_atom_type": "SENTENCE", "md_parent_section": "§4.4.11 [Disease Milestones and Disease Milestone Timing Variables]", "md_verbatim": "A disease milestone may be something that occurred pre-study (e.g., diagnosis of the disease under study), or something anticipated to occur during the study (e.g., an adverse event of interest).", "score": 0.5936, "match_basis": "verbatim_token+chapter_route:ch04"}, {"md_atom_id": "md_ch04_a780", "md_file": "knowledge_base/chapters/ch04_general_assumptions.md", "md_atom_type": "SENTENCE", "md_parent_section": "§4.4.11 [Disease Milestones and Disease Milestone Timing Variables]", "md_verbatim": "If a study does not have disease milestones, the TM and SM domains will not be present and the disease milestone timing variables may not be included in other domains.", "score": 0.456, "match_basis": "verbatim_token+chapter_route:ch04"}, {"md_atom_id": "md_ch04_a789", "md_file": "knowledge_base/chapters/ch04_general_assumptions.md", "md_atom_type": "SENTENCE", "md_parent_section": "§4.4.11 [Disease Milestones and Disease Milestone Timing Variables]", "md_verbatim": "For an observation triggered by the occurrence of a disease milestone, the relationship of the observation to the disease milestone can be represented using the disease milestone timing variables MIDS, RELMIDS, and MIDSDTC:", "score": 0.4475, "match_basis": "verbatim_token+chapter_route:ch04"}, {"md_atom_id": "md_ch04_a778", "md_file": "knowledge_base/chapters/ch04_general_assumptions.md", "md_atom_type": "SENTENCE", "md_parent_section": "§4.4.11 [Disease Milestones and Disease Milestone Timing Variables]", "md_verbatim": "The types of disease milestones for a study are defined in the study-level Trial Disease Milestones (TM) dataset; the times at which disease milestones occurred for a particular subject are summarized in the special-purpose Subject Disease Milestones (SM) domain.", "score": 0.444, "match_basis": "verbatim_token+chapter_route:ch04"}, {"md_atom_id": "md_ch04_a776", "md_file": "knowledge_base/chapters/ch04_general_assumptions.md", "md_atom_type": "SENTENCE", "md_parent_section": "§4.4.11 [Disease Milestones and Disease Milestone Timing Variables]", "md_verbatim": "A disease milestone is an event or activity that can be anticipated in the course of a disease, but whose timing is not controlled by the study schedule.", "score": 0.4351, "match_basis": "verbatim_token+chapter_route:ch04"}], "candidate_count": 5, "zero_candidate": false}
{"pdf_atom_id": "ig34_p0048_a040", "pdf_atom_type": "SENTENCE", "pdf_source": "SDTMIG_v3.4", "pdf_page": 48, "pdf_parent_section": "§4.4.11 [Disease Milestones and Disease Milestone Timing Variables]", "pdf_verbatim": "A disease milestone may also be something which is anticipated to occur during a study and which, if it occurs, triggers the collection of related data outside the regular schedule of visits (e.g., adverse event of interest).", "figure_ref": null, "candidates": [{"md_atom_id": "md_ch04_a777", "md_file": "knowledge_base/chapters/ch04_general_assumptions.md", "md_atom_type": "SENTENCE", "md_parent_section": "§4.4.11 [Disease Milestones and Disease Milestone Timing Variables]", "md_verbatim": "A disease milestone may be something that occurred pre-study (e.g., diagnosis of the disease under study), or something anticipated to occur during the study (e.g., an adverse event of interest).", "score": 0.5761, "match_basis": "verbatim_token+chapter_route:ch04"}, {"md_atom_id": "md_ch04_a776", "md_file": "knowledge_base/chapters/ch04_general_assumptions.md", "md_atom_type": "SENTENCE", "md_parent_section": "§4.4.11 [Disease Milestones and Disease Milestone Timing Variables]", "md_verbatim": "A disease milestone is an event or activity that can be anticipated in the course of a disease, but whose timing is not controlled by the study schedule.", "score": 0.4983, "match_basis": "verbatim_token+chapter_route:ch04"}, {"md_atom_id": "md_ch04_a794", "md_file": "knowledge_base/chapters/ch04_general_assumptions.md", "md_atom_type": "SENTENCE", "md_parent_section": "§4.4.11 [Disease Milestones and Disease Milestone Timing Variables]", "md_verbatim": "**Special use of RELMIDS for findings about a disease milestone:** When a disease milestone is an event or intervention, some data triggered by the disease milestone may be modeled as findings about the disease milestone (i.e., FAOBJ is the disease milestone).", "score": 0.4688, "match_basis": "verbatim_token+chapter_route:ch04"}, {"md_atom_id": "md_ch04_a789", "md_file": "knowledge_base/chapters/ch04_general_assumptions.md", "md_atom_type": "SENTENCE", "md_parent_section": "§4.4.11 [Disease Milestones and Disease Milestone Timing Variables]", "md_verbatim": "For an observation triggered by the occurrence of a disease milestone, the relationship of the observation to the disease milestone can be represented using the disease milestone timing variables MIDS, RELMIDS, and MIDSDTC:", "score": 0.4424, "match_basis": "verbatim_token+chapter_route:ch04"}, {"md_atom_id": "md_ch04_a802", "md_file": "knowledge_base/chapters/ch04_general_assumptions.md", "md_atom_type": "SENTENCE", "md_parent_section": "§4.4.11 [Disease Milestones and Disease Milestone Timing Variables]", "md_verbatim": "The disease milestone timing variables provide timing relative to an activity or event that has been identified, for the particular study, as a disease milestone.", "score": 0.4308, "match_basis": "verbatim_token+chapter_route:ch04"}], "candidate_count": 5, "zero_candidate": false}
{"pdf_atom_id": "ig34_p0048_a041", "pdf_atom_type": "SENTENCE", "pdf_source": "SDTMIG_v3.4", "pdf_page": 48, "pdf_parent_section": "§4.4.11 [Disease Milestones and Disease Milestone Timing Variables]", "pdf_verbatim": "The types of disease milestones for a study are defined in the study-level Trial Disease Milestones (TM) dataset (see Section 7.3.3, Trial Disease Milestones).", "figure_ref": null, "candidates": [{"md_atom_id": "md_ch04_a778", "md_file": "knowledge_base/chapters/ch04_general_assumptions.md", "md_atom_type": "SENTENCE", "md_parent_section": "§4.4.11 [Disease Milestones and Disease Milestone Timing Variables]", "md_verbatim": "The types of disease milestones for a study are defined in the study-level Trial Disease Milestones (TM) dataset; the times at which disease milestones occurred for a particular subject are summarized in the special-purpose Subject Disease Milestones (SM) domain.", "score": 0.5591, "match_basis": "verbatim_token+chapter_route:ch04"}, {"md_atom_id": "md_ch04_a782", "md_file": "knowledge_base/chapters/ch04_general_assumptions.md", "md_atom_type": "SENTENCE", "md_parent_section": "§4.4.11 [Disease Milestones and Disease Milestone Timing Variables]", "md_verbatim": "Instances of disease milestones are given names at a subject level.", "score": 0.48, "match_basis": "verbatim_token+chapter_route:ch04"}, {"md_atom_id": "md_ch04_a779", "md_file": "knowledge_base/chapters/ch04_general_assumptions.md", "md_atom_type": "SENTENCE", "md_parent_section": "§4.4.11 [Disease Milestones and Disease Milestone Timing Variables]", "md_verbatim": "Not all studies will have disease milestones.", "score": 0.4731, "match_basis": "verbatim_token+chapter_route:ch04"}, {"md_atom_id": "md_ch04_a810", "md_file": "knowledge_base/chapters/ch04_general_assumptions.md", "md_atom_type": "SENTENCE", "md_parent_section": "§4.4.11 [Disease Milestones and Disease Milestone Timing Variables]", "md_verbatim": "When disease milestones have been defined for a study, the MIDS variable serves to link observations associated with a disease milestone in a way similar to how VISITNUM links observations collected at a visit.", "score": 0.4688, "match_basis": "verbatim_token+chapter_route:ch04"}, {"md_atom_id": "md_ch04_a784", "md_file": "knowledge_base/chapters/ch04_general_assumptions.md", "md_atom_type": "SENTENCE", "md_parent_section": "§4.4.11 [Disease Milestones and Disease Milestone Timing Variables]", "md_verbatim": "The character string used in the name of a disease milestone is usually a short form of the disease milestone type.", "score": 0.4545, "match_basis": "verbatim_token+chapter_route:ch04"}], "candidate_count": 5, "zero_candidate": false}
{"pdf_atom_id": "ig34_p0048_a042", "pdf_atom_type": "CROSS_REF", "pdf_source": "SDTMIG_v3.4", "pdf_page": 48, "pdf_parent_section": "§4.4.11 [Disease Milestones and Disease Milestone Timing Variables]", "pdf_verbatim": "Section 7.3.3, Trial Disease Milestones", "figure_ref": null, "candidates": [{"md_atom_id": "md_ch04_a809", "md_file": "knowledge_base/chapters/ch04_general_assumptions.md", "md_atom_type": "HEADING", "md_parent_section": "§4.4.11 [Disease Milestones and Disease Milestone Timing Variables]", "md_verbatim": "#### Linking and Disease Milestones", "score": 0.3789, "match_basis": "verbatim_token+chapter_route:ch04"}, {"md_atom_id": "md_ch04_a775", "md_file": "knowledge_base/chapters/ch04_general_assumptions.md", "md_atom_type": "HEADING", "md_parent_section": "§4.4 [Use of Timing Variables]", "md_verbatim": "### 4.4.11 Disease Milestones and Disease Milestone Timing Variables", "score": 0.361, "match_basis": "verbatim_token+chapter_route:ch04"}, {"md_atom_id": "md_ch04_a781", "md_file": "knowledge_base/chapters/ch04_general_assumptions.md", "md_atom_type": "HEADING", "md_parent_section": "§4.4.11 [Disease Milestones and Disease Milestone Timing Variables]", "md_verbatim": "#### Disease Milestone Naming (MIDS)", "score": 0.3567, "match_basis": "verbatim_token+chapter_route:ch04"}, {"md_atom_id": "md_ch04_a779", "md_file": "knowledge_base/chapters/ch04_general_assumptions.md", "md_atom_type": "SENTENCE", "md_parent_section": "§4.4.11 [Disease Milestones and Disease Milestone Timing Variables]", "md_verbatim": "Not all studies will have disease milestones.", "score": 0.3337, "match_basis": "verbatim_token+chapter_route:ch04"}, {"md_atom_id": "md_ch04_a801", "md_file": "knowledge_base/chapters/ch04_general_assumptions.md", "md_atom_type": "HEADING", "md_parent_section": "§4.4.11 [Disease Milestones and Disease Milestone Timing Variables]", "md_verbatim": "#### Use of Disease Milestone Timing Variables with Other Timing Variables", "score": 0.3067, "match_basis": "verbatim_token+chapter_route:ch04"}], "candidate_count": 5, "zero_candidate": false}
{"pdf_atom_id": "ig34_p0048_a043", "pdf_atom_type": "SENTENCE", "pdf_source": "SDTMIG_v3.4", "pdf_page": 48, "pdf_parent_section": "§4.4.11 [Disease Milestones and Disease Milestone Timing Variables]", "pdf_verbatim": "The times at which disease milestones occurred for a particular subject are summarized in the special-purpose Subject Disease Milestones (SM) domain (see Section 5.4, Subject Disease Milestones), a domain similar in structure to the Subject Visits (SV) and Subject Elements (SE) domains.", "figure_ref": null, "candidates": [{"md_atom_id": "md_ch04_a778", "md_file": "knowledge_base/chapters/ch04_general_assumptions.md", "md_atom_type": "SENTENCE", "md_parent_section": "§4.4.11 [Disease Milestones and Disease Milestone Timing Variables]", "md_verbatim": "The types of disease milestones for a study are defined in the study-level Trial Disease Milestones (TM) dataset; the times at which disease milestones occurred for a particular subject are summarized in the special-purpose Subject Disease Milestones (SM) domain.", "score": 0.6436, "match_basis": "verbatim_token+chapter_route:ch04"}, {"md_atom_id": "md_ch04_a802", "md_file": "knowledge_base/chapters/ch04_general_assumptions.md", "md_atom_type": "SENTENCE", "md_parent_section": "§4.4.11 [Disease Milestones and Disease Milestone Timing Variables]", "md_verbatim": "The disease milestone timing variables provide timing relative to an activity or event that has been identified, for the particular study, as a disease milestone.", "score": 0.4266, "match_basis": "verbatim_token+chapter_route:ch04"}, {"md_atom_id": "md_ch04_a782", "md_file": "knowledge_base/chapters/ch04_general_assumptions.md", "md_atom_type": "SENTENCE", "md_parent_section": "§4.4.11 [Disease Milestones and Disease Milestone Timing Variables]", "md_verbatim": "Instances of disease milestones are given names at a subject level.", "score": 0.4212, "match_basis": "verbatim_token+chapter_route:ch04"}, {"md_atom_id": "md_ch04_a780", "md_file": "knowledge_base/chapters/ch04_general_assumptions.md", "md_atom_type": "SENTENCE", "md_parent_section": "§4.4.11 [Disease Milestones and Disease Milestone Timing Variables]", "md_verbatim": "If a study does not have disease milestones, the TM and SM domains will not be present and the disease milestone timing variables may not be included in other domains.", "score": 0.42, "match_basis": "verbatim_token+chapter_route:ch04"}, {"md_atom_id": "md_ch04_a789", "md_file": "knowledge_base/chapters/ch04_general_assumptions.md", "md_atom_type": "SENTENCE", "md_parent_section": "§4.4.11 [Disease Milestones and Disease Milestone Timing Variables]", "md_verbatim": "For an observation triggered by the occurrence of a disease milestone, the relationship of the observation to the disease milestone can be represented using the disease milestone timing variables MIDS, RELMIDS, and MIDSDTC:", "score": 0.4174, "match_basis": "verbatim_token+chapter_route:ch04"}], "candidate_count": 5, "zero_candidate": false}
{"pdf_atom_id": "ig34_p0048_a044", "pdf_atom_type": "CROSS_REF", "pdf_source": "SDTMIG_v3.4", "pdf_page": 48, "pdf_parent_section": "§4.4.11 [Disease Milestones and Disease Milestone Timing Variables]", "pdf_verbatim": "Section 5.4, Subject Disease Milestones", "figure_ref": null, "candidates": [{"md_atom_id": "md_ch04_a809", "md_file": "knowledge_base/chapters/ch04_general_assumptions.md", "md_atom_type": "HEADING", "md_parent_section": "§4.4.11 [Disease Milestones and Disease Milestone Timing Variables]", "md_verbatim": "#### Linking and Disease Milestones", "score": 0.3686, "match_basis": "verbatim_token+chapter_route:ch04"}, {"md_atom_id": "md_ch04_a782", "md_file": "knowledge_base/chapters/ch04_general_assumptions.md", "md_atom_type": "SENTENCE", "md_parent_section": "§4.4.11 [Disease Milestones and Disease Milestone Timing Variables]", "md_verbatim": "Instances of disease milestones are given names at a subject level.", "score": 0.3669, "match_basis": "verbatim_token+chapter_route:ch04"}, {"md_atom_id": "md_ch04_a781", "md_file": "knowledge_base/chapters/ch04_general_assumptions.md", "md_atom_type": "HEADING", "md_parent_section": "§4.4.11 [Disease Milestones and Disease Milestone Timing Variables]", "md_verbatim": "#### Disease Milestone Naming (MIDS)", "score": 0.3471, "match_basis": "verbatim_token+chapter_route:ch04"}, {"md_atom_id": "md_ch04_a775", "md_file": "knowledge_base/chapters/ch04_general_assumptions.md", "md_atom_type": "HEADING", "md_parent_section": "§4.4 [Use of Timing Variables]", "md_verbatim": "### 4.4.11 Disease Milestones and Disease Milestone Timing Variables", "score": 0.3264, "match_basis": "verbatim_token+chapter_route:ch04"}, {"md_atom_id": "md_ch04_a779", "md_file": "knowledge_base/chapters/ch04_general_assumptions.md", "md_atom_type": "SENTENCE", "md_parent_section": "§4.4.11 [Disease Milestones and Disease Milestone Timing Variables]", "md_verbatim": "Not all studies will have disease milestones.", "score": 0.3264, "match_basis": "verbatim_token+chapter_route:ch04"}], "candidate_count": 5, "zero_candidate": false}
{"pdf_atom_id": "ig34_p0048_a045", "pdf_atom_type": "SENTENCE", "pdf_source": "SDTMIG_v3.4", "pdf_page": 48, "pdf_parent_section": "§4.4.11 [Disease Milestones and Disease Milestone Timing Variables]", "pdf_verbatim": "Not all studies will have disease milestones.", "figure_ref": null, "candidates": [{"md_atom_id": "md_ch04_a779", "md_file": "knowledge_base/chapters/ch04_general_assumptions.md", "md_atom_type": "SENTENCE", "md_parent_section": "§4.4.11 [Disease Milestones and Disease Milestone Timing Variables]", "md_verbatim": "Not all studies will have disease milestones.", "score": 0.9, "match_basis": "verbatim_token+chapter_route:ch04"}, {"md_atom_id": "md_ch04_a780", "md_file": "knowledge_base/chapters/ch04_general_assumptions.md", "md_atom_type": "SENTENCE", "md_parent_section": "§4.4.11 [Disease Milestones and Disease Milestone Timing Variables]", "md_verbatim": "If a study does not have disease milestones, the TM and SM domains will not be present and the disease milestone timing variables may not be included in other domains.", "score": 0.5069, "match_basis": "verbatim_token+chapter_route:ch04"}, {"md_atom_id": "md_ch04_a782", "md_file": "knowledge_base/chapters/ch04_general_assumptions.md", "md_atom_type": "SENTENCE", "md_parent_section": "§4.4.11 [Disease Milestones and Disease Milestone Timing Variables]", "md_verbatim": "Instances of disease milestones are given names at a subject level.", "score": 0.4696, "match_basis": "verbatim_token+chapter_route:ch04"}, {"md_atom_id": "md_ch04_a784", "md_file": "knowledge_base/chapters/ch04_general_assumptions.md", "md_atom_type": "SENTENCE", "md_parent_section": "§4.4.11 [Disease Milestones and Disease Milestone Timing Variables]", "md_verbatim": "The character string used in the name of a disease milestone is usually a short form of the disease milestone type.", "score": 0.4529, "match_basis": "verbatim_token+chapter_route:ch04"}, {"md_atom_id": "md_ch04_a776", "md_file": "knowledge_base/chapters/ch04_general_assumptions.md", "md_atom_type": "SENTENCE", "md_parent_section": "§4.4.11 [Disease Milestones and Disease Milestone Timing Variables]", "md_verbatim": "A disease milestone is an event or activity that can be anticipated in the course of a disease, but whose timing is not controlled by the study schedule.", "score": 0.4233, "match_basis": "verbatim_token+chapter_route:ch04"}], "candidate_count": 5, "zero_candidate": false}
{"pdf_atom_id": "ig34_p0048_a046", "pdf_atom_type": "SENTENCE", "pdf_source": "SDTMIG_v3.4", "pdf_page": 48, "pdf_parent_section": "§4.4.11 [Disease Milestones and Disease Milestone Timing Variables]", "pdf_verbatim": "If a study does not have disease milestones, the TM and SM domains will not be present and the disease milestones timing variables may not be included in other domains.", "figure_ref": null, "candidates": [{"md_atom_id": "md_ch04_a780", "md_file": "knowledge_base/chapters/ch04_general_assumptions.md", "md_atom_type": "SENTENCE", "md_parent_section": "§4.4.11 [Disease Milestones and Disease Milestone Timing Variables]", "md_verbatim": "If a study does not have disease milestones, the TM and SM domains will not be present and the disease milestone timing variables may not be included in other domains.", "score": 0.9, "match_basis": "verbatim_token+chapter_route:ch04"}, {"md_atom_id": "md_ch04_a779", "md_file": "knowledge_base/chapters/ch04_general_assumptions.md", "md_atom_type": "SENTENCE", "md_parent_section": "§4.4.11 [Disease Milestones and Disease Milestone Timing Variables]", "md_verbatim": "Not all studies will have disease milestones.", "score": 0.5069, "match_basis": "verbatim_token+chapter_route:ch04"}, {"md_atom_id": "md_ch04_a802", "md_file": "knowledge_base/chapters/ch04_general_assumptions.md", "md_atom_type": "SENTENCE", "md_parent_section": "§4.4.11 [Disease Milestones and Disease Milestone Timing Variables]", "md_verbatim": "The disease milestone timing variables provide timing relative to an activity or event that has been identified, for the particular study, as a disease milestone.", "score": 0.4761, "match_basis": "verbatim_token+chapter_route:ch04"}, {"md_atom_id": "md_ch04_a789", "md_file": "knowledge_base/chapters/ch04_general_assumptions.md", "md_atom_type": "SENTENCE", "md_parent_section": "§4.4.11 [Disease Milestones and Disease Milestone Timing Variables]", "md_verbatim": "For an observation triggered by the occurrence of a disease milestone, the relationship of the observation to the disease milestone can be represented using the disease milestone timing variables MIDS, RELMIDS, and MIDSDTC:", "score": 0.474, "match_basis": "verbatim_token+chapter_route:ch04"}, {"md_atom_id": "md_ch04_a803", "md_file": "knowledge_base/chapters/ch04_general_assumptions.md", "md_atom_type": "SENTENCE", "md_parent_section": "§4.4.11 [Disease Milestones and Disease Milestone Timing Variables]", "md_verbatim": "Their use does not preclude the use of variables that collect actual date/times or timing relative to the study schedule:", "score": 0.4535, "match_basis": "verbatim_token+chapter_route:ch04"}], "candidate_count": 5, "zero_candidate": false}
{"pdf_atom_id": "ig34_p0049_a001", "pdf_atom_type": "HEADING", "pdf_source": "SDTMIG_v3.4", "pdf_page": 49, "pdf_parent_section": "§4.4.11 [Disease Milestones and Disease Milestone Timing Variables]", "pdf_verbatim": "Disease Milestone Naming", "figure_ref": null, "candidates": [{"md_atom_id": "md_ch04_a781", "md_file": "knowledge_base/chapters/ch04_general_assumptions.md", "md_atom_type": "HEADING", "md_parent_section": "§4.4.11 [Disease Milestones and Disease Milestone Timing Variables]", "md_verbatim": "#### Disease Milestone Naming (MIDS)", "score": 0.8333, "match_basis": "verbatim_token+chapter_route:ch04"}, {"md_atom_id": "md_ch04_a809", "md_file": "knowledge_base/chapters/ch04_general_assumptions.md", "md_atom_type": "HEADING", "md_parent_section": "§4.4.11 [Disease Milestones and Disease Milestone Timing Variables]", "md_verbatim": "#### Linking and Disease Milestones", "score": 0.6545, "match_basis": "verbatim_token+chapter_route:ch04"}, {"md_atom_id": "md_ch04_a775", "md_file": "knowledge_base/chapters/ch04_general_assumptions.md", "md_atom_type": "HEADING", "md_parent_section": "§4.4 [Use of Timing Variables]", "md_verbatim": "### 4.4.11 Disease Milestones and Disease Milestone Timing Variables", "score": 0.6231, "match_basis": "verbatim_token+chapter_route:ch04"}, {"md_atom_id": "md_ch04_a801", "md_file": "knowledge_base/chapters/ch04_general_assumptions.md", "md_atom_type": "HEADING", "md_parent_section": "§4.4.11 [Disease Milestones and Disease Milestone Timing Variables]", "md_verbatim": "#### Use of Disease Milestone Timing Variables with Other Timing Variables", "score": 0.58, "match_basis": "verbatim_token+chapter_route:ch04"}, {"md_atom_id": "md_ch04_a787", "md_file": "knowledge_base/chapters/ch04_general_assumptions.md", "md_atom_type": "HEADING", "md_parent_section": "§4.4.11 [Disease Milestones and Disease Milestone Timing Variables]", "md_verbatim": "#### Timing Relative to a Disease Milestone (MIDS, RELMIDS, MIDSDTC)", "score": 0.571, "match_basis": "verbatim_token+chapter_route:ch04"}], "candidate_count": 5, "zero_candidate": false}
{"pdf_atom_id": "ig34_p0049_a002", "pdf_atom_type": "SENTENCE", "pdf_source": "SDTMIG_v3.4", "pdf_page": 49, "pdf_parent_section": "§4.4.11 [Disease Milestones and Disease Milestone Timing Variables]", "pdf_verbatim": "Instances of disease milestones are given names at a subject level.", "figure_ref": null, "candidates": [{"md_atom_id": "md_ch04_a782", "md_file": "knowledge_base/chapters/ch04_general_assumptions.md", "md_atom_type": "SENTENCE", "md_parent_section": "§4.4.11 [Disease Milestones and Disease Milestone Timing Variables]", "md_verbatim": "Instances of disease milestones are given names at a subject level.", "score": 0.9, "match_basis": "verbatim_token+chapter_route:ch04"}, {"md_atom_id": "md_ch04_a779", "md_file": "knowledge_base/chapters/ch04_general_assumptions.md", "md_atom_type": "SENTENCE", "md_parent_section": "§4.4.11 [Disease Milestones and Disease Milestone Timing Variables]", "md_verbatim": "Not all studies will have disease milestones.", "score": 0.4696, "match_basis": "verbatim_token+chapter_route:ch04"}, {"md_atom_id": "md_ch04_a785", "md_file": "knowledge_base/chapters/ch04_general_assumptions.md", "md_atom_type": "SENTENCE", "md_parent_section": "§4.4.11 [Disease Milestones and Disease Milestone Timing Variables]", "md_verbatim": "For example, if the type of disease milestone is \"EPISODE OF DISEASE UNDER STUDY\", the values of MIDS for instances of this type of event could include \"EPISODE1\", \"EPISODE2\"; or \"EPISODE01\", \"EPISODE02\", and so on.", "score": 0.4615, "match_basis": "verbatim_token+chapter_route:ch04"}, {"md_atom_id": "md_ch04_a783", "md_file": "knowledge_base/chapters/ch04_general_assumptions.md", "md_atom_type": "SENTENCE", "md_parent_section": "§4.4.11 [Disease Milestones and Disease Milestone Timing Variables]", "md_verbatim": "The name of a disease milestone is composed of a character string that depends on the disease milestone type (MIDSTYPE in TM and SM) and, if the type of disease milestone is one that may occur multiple times, a chronological sequence number for this disease milestone among other instances of the same type for the subject.", "score": 0.45, "match_basis": "verbatim_token+chapter_route:ch04"}, {"md_atom_id": "md_ch04_a778", "md_file": "knowledge_base/chapters/ch04_general_assumptions.md", "md_atom_type": "SENTENCE", "md_parent_section": "§4.4.11 [Disease Milestones and Disease Milestone Timing Variables]", "md_verbatim": "The types of disease milestones for a study are defined in the study-level Trial Disease Milestones (TM) dataset; the times at which disease milestones occurred for a particular subject are summarized in the special-purpose Subject Disease Milestones (SM) domain.", "score": 0.4453, "match_basis": "verbatim_token+chapter_route:ch04"}], "candidate_count": 5, "zero_candidate": false}
{"pdf_atom_id": "ig34_p0049_a003", "pdf_atom_type": "SENTENCE", "pdf_source": "SDTMIG_v3.4", "pdf_page": 49, "pdf_parent_section": "§4.4.11 [Disease Milestones and Disease Milestone Timing Variables]", "pdf_verbatim": "The name of a disease milestone is composed of a character string that depends on the disease milestone type (MIDSTYPE in TM and SM) and, if the type of disease milestone is one that may occur multiple times, a chronological sequence number for this disease milestone among other instances of the same type for the subject.", "figure_ref": null, "candidates": [{"md_atom_id": "md_ch04_a783", "md_file": "knowledge_base/chapters/ch04_general_assumptions.md", "md_atom_type": "SENTENCE", "md_parent_section": "§4.4.11 [Disease Milestones and Disease Milestone Timing Variables]", "md_verbatim": "The name of a disease milestone is composed of a character string that depends on the disease milestone type (MIDSTYPE in TM and SM) and, if the type of disease milestone is one that may occur multiple times, a chronological sequence number for this disease milestone among other instances of the same type for the subject.", "score": 0.9, "match_basis": "verbatim_token+chapter_route:ch04"}, {"md_atom_id": "md_ch04_a784", "md_file": "knowledge_base/chapters/ch04_general_assumptions.md", "md_atom_type": "SENTENCE", "md_parent_section": "§4.4.11 [Disease Milestones and Disease Milestone Timing Variables]", "md_verbatim": "The character string used in the name of a disease milestone is usually a short form of the disease milestone type.", "score": 0.4636, "match_basis": "verbatim_token+chapter_route:ch04"}, {"md_atom_id": "md_ch04_a782", "md_file": "knowledge_base/chapters/ch04_general_assumptions.md", "md_atom_type": "SENTENCE", "md_parent_section": "§4.4.11 [Disease Milestones and Disease Milestone Timing Variables]", "md_verbatim": "Instances of disease milestones are given names at a subject level.", "score": 0.45, "match_basis": "verbatim_token+chapter_route:ch04"}, {"md_atom_id": "md_ch04_a785", "md_file": "knowledge_base/chapters/ch04_general_assumptions.md", "md_atom_type": "SENTENCE", "md_parent_section": "§4.4.11 [Disease Milestones and Disease Milestone Timing Variables]", "md_verbatim": "For example, if the type of disease milestone is \"EPISODE OF DISEASE UNDER STUDY\", the values of MIDS for instances of this type of event could include \"EPISODE1\", \"EPISODE2\"; or \"EPISODE01\", \"EPISODE02\", and so on.", "score": 0.4289, "match_basis": "verbatim_token+chapter_route:ch04"}, {"md_atom_id": "md_ch04_a778", "md_file": "knowledge_base/chapters/ch04_general_assumptions.md", "md_atom_type": "SENTENCE", "md_parent_section": "§4.4.11 [Disease Milestones and Disease Milestone Timing Variables]", "md_verbatim": "The types of disease milestones for a study are defined in the study-level Trial Disease Milestones (TM) dataset; the times at which disease milestones occurred for a particular subject are summarized in the special-purpose Subject Disease Milestones (SM) domain.", "score": 0.4176, "match_basis": "verbatim_token+chapter_route:ch04"}], "candidate_count": 5, "zero_candidate": false}
{"pdf_atom_id": "ig34_p0049_a004", "pdf_atom_type": "SENTENCE", "pdf_source": "SDTMIG_v3.4", "pdf_page": 49, "pdf_parent_section": "§4.4.11 [Disease Milestones and Disease Milestone Timing Variables]", "pdf_verbatim": "The character string used in the name of a disease milestone is usually a short form of the disease milestone type.", "figure_ref": null, "candidates": [{"md_atom_id": "md_ch04_a784", "md_file": "knowledge_base/chapters/ch04_general_assumptions.md", "md_atom_type": "SENTENCE", "md_parent_section": "§4.4.11 [Disease Milestones and Disease Milestone Timing Variables]", "md_verbatim": "The character string used in the name of a disease milestone is usually a short form of the disease milestone type.", "score": 0.9, "match_basis": "verbatim_token+chapter_route:ch04"}, {"md_atom_id": "md_ch04_a783", "md_file": "knowledge_base/chapters/ch04_general_assumptions.md", "md_atom_type": "SENTENCE", "md_parent_section": "§4.4.11 [Disease Milestones and Disease Milestone Timing Variables]", "md_verbatim": "The name of a disease milestone is composed of a character string that depends on the disease milestone type (MIDSTYPE in TM and SM) and, if the type of disease milestone is one that may occur multiple times, a chronological sequence number for this disease milestone among other instances of the same type for the subject.", "score": 0.4636, "match_basis": "verbatim_token+chapter_route:ch04"}, {"md_atom_id": "md_ch04_a779", "md_file": "knowledge_base/chapters/ch04_general_assumptions.md", "md_atom_type": "SENTENCE", "md_parent_section": "§4.4.11 [Disease Milestones and Disease Milestone Timing Variables]", "md_verbatim": "Not all studies will have disease milestones.", "score": 0.4529, "match_basis": "verbatim_token+chapter_route:ch04"}, {"md_atom_id": "md_ch04_a782", "md_file": "knowledge_base/chapters/ch04_general_assumptions.md", "md_atom_type": "SENTENCE", "md_parent_section": "§4.4.11 [Disease Milestones and Disease Milestone Timing Variables]", "md_verbatim": "Instances of disease milestones are given names at a subject level.", "score": 0.4377, "match_basis": "verbatim_token+chapter_route:ch04"}, {"md_atom_id": "md_ch04_a794", "md_file": "knowledge_base/chapters/ch04_general_assumptions.md", "md_atom_type": "SENTENCE", "md_parent_section": "§4.4.11 [Disease Milestones and Disease Milestone Timing Variables]", "md_verbatim": "**Special use of RELMIDS for findings about a disease milestone:** When a disease milestone is an event or intervention, some data triggered by the disease milestone may be modeled as findings about the disease milestone (i.e., FAOBJ is the disease milestone).", "score": 0.4213, "match_basis": "verbatim_token+chapter_route:ch04"}], "candidate_count": 5, "zero_candidate": false}
{"pdf_atom_id": "ig34_p0049_a005", "pdf_atom_type": "SENTENCE", "pdf_source": "SDTMIG_v3.4", "pdf_page": 49, "pdf_parent_section": "§4.4.11 [Disease Milestones and Disease Milestone Timing Variables]", "pdf_verbatim": "For example, if the type of disease milestone is \"EPISODE OF DISEASE UNDER STUDY\", the values of MIDS for instances of this type of event could include \"EPISODE1\", \"EPISODE2\"; or \"EPISODE01\", \"EPISODE02\", and so on.", "figure_ref": null, "candidates": [{"md_atom_id": "md_ch04_a785", "md_file": "knowledge_base/chapters/ch04_general_assumptions.md", "md_atom_type": "SENTENCE", "md_parent_section": "§4.4.11 [Disease Milestones and Disease Milestone Timing Variables]", "md_verbatim": "For example, if the type of disease milestone is \"EPISODE OF DISEASE UNDER STUDY\", the values of MIDS for instances of this type of event could include \"EPISODE1\", \"EPISODE2\"; or \"EPISODE01\", \"EPISODE02\", and so on.", "score": 0.9, "match_basis": "verbatim_token+chapter_route:ch04"}, {"md_atom_id": "md_ch04_a782", "md_file": "knowledge_base/chapters/ch04_general_assumptions.md", "md_atom_type": "SENTENCE", "md_parent_section": "§4.4.11 [Disease Milestones and Disease Milestone Timing Variables]", "md_verbatim": "Instances of disease milestones are given names at a subject level.", "score": 0.4615, "match_basis": "verbatim_token+chapter_route:ch04"}, {"md_atom_id": "md_ch04_a780", "md_file": "knowledge_base/chapters/ch04_general_assumptions.md", "md_atom_type": "SENTENCE", "md_parent_section": "§4.4.11 [Disease Milestones and Disease Milestone Timing Variables]", "md_verbatim": "If a study does not have disease milestones, the TM and SM domains will not be present and the disease milestone timing variables may not be included in other domains.", "score": 0.4532, "match_basis": "verbatim_token+chapter_route:ch04"}, {"md_atom_id": "md_ch04_a783", "md_file": "knowledge_base/chapters/ch04_general_assumptions.md", "md_atom_type": "SENTENCE", "md_parent_section": "§4.4.11 [Disease Milestones and Disease Milestone Timing Variables]", "md_verbatim": "The name of a disease milestone is composed of a character string that depends on the disease milestone type (MIDSTYPE in TM and SM) and, if the type of disease milestone is one that may occur multiple times, a chronological sequence number for this disease milestone among other instances of the same type for the subject.", "score": 0.4289, "match_basis": "verbatim_token+chapter_route:ch04"}, {"md_atom_id": "md_ch04_a777", "md_file": "knowledge_base/chapters/ch04_general_assumptions.md", "md_atom_type": "SENTENCE", "md_parent_section": "§4.4.11 [Disease Milestones and Disease Milestone Timing Variables]", "md_verbatim": "A disease milestone may be something that occurred pre-study (e.g., diagnosis of the disease under study), or something anticipated to occur during the study (e.g., an adverse event of interest).", "score": 0.4266, "match_basis": "verbatim_token+chapter_route:ch04"}], "candidate_count": 5, "zero_candidate": false}
{"pdf_atom_id": "ig34_p0049_a006", "pdf_atom_type": "SENTENCE", "pdf_source": "SDTMIG_v3.4", "pdf_page": 49, "pdf_parent_section": "§4.4.11 [Disease Milestones and Disease Milestone Timing Variables]", "pdf_verbatim": "The association between the longer text in MIDSTYPE and the shorter text in MIDS can be seen in SM, which includes both variables.", "figure_ref": null, "candidates": [{"md_atom_id": "md_ch04_a786", "md_file": "knowledge_base/chapters/ch04_general_assumptions.md", "md_atom_type": "SENTENCE", "md_parent_section": "§4.4.11 [Disease Milestones and Disease Milestone Timing Variables]", "md_verbatim": "The association between the longer text in MIDSTYPE and the shorter text in MIDS can be seen in SM, which includes both variables.", "score": 0.9, "match_basis": "verbatim_token+chapter_route:ch04"}, {"md_atom_id": "md_ch04_a174", "md_file": "knowledge_base/chapters/ch04_general_assumptions.md", "md_atom_type": "SENTENCE", "md_parent_section": "§4.2.1 [Variable-Naming Conventions]", "md_verbatim": "SDTM variables are named according to a set of conventions, using fragment names (see Appendix D, CDISC Variable-naming Fragments). Variables with names ending in \"CD\" are \"short\" versions of associated variables that do not include the \"CD\" suffix (e.g., --TESTCD is the short version of --TEST).", "score": 0.4327, "match_basis": "verbatim_token+chapter_route:ch04"}, {"md_atom_id": "md_ch04_a953", "md_file": "knowledge_base/chapters/ch04_general_assumptions.md", "md_atom_type": "SENTENCE", "md_parent_section": "§4.5.4 [Evaluators in the Interventions and Events Observation Classes]", "md_verbatim": "For the Interventions and Events observation classes, which do not include the --EVAL variable, all data are assumed to be attributed to the principal investigator.", "score": 0.4167, "match_basis": "verbatim_token+chapter_route:ch04"}, {"md_atom_id": "md_ch04_a507", "md_file": "knowledge_base/chapters/ch04_general_assumptions.md", "md_atom_type": "SENTENCE", "md_parent_section": "§4.4.1 [Formats for Date/Time Variables]", "md_verbatim": "Implementation of the ISO 8601 standard means that date/time variables are character/text data types.", "score": 0.4159, "match_basis": "verbatim_token+chapter_route:ch04"}, {"md_atom_id": "md_ch04_a703", "md_file": "knowledge_base/chapters/ch04_general_assumptions.md", "md_atom_type": "SENTENCE", "md_parent_section": "§4.4.9 [Use of Dates as Result Variables]", "md_verbatim": "Remember, in most cases, these dates should be timing variables associated with a record in an Intervention or Events dataset.", "score": 0.4137, "match_basis": "verbatim_token+chapter_route:ch04"}], "candidate_count": 5, "zero_candidate": false}
{"pdf_atom_id": "ig34_p0049_a007", "pdf_atom_type": "HEADING", "pdf_source": "SDTMIG_v3.4", "pdf_page": 49, "pdf_parent_section": "§4.4.11 [Disease Milestones and Disease Milestone Timing Variables]", "pdf_verbatim": "Disease Milestone Name (MIDS)", "figure_ref": null, "candidates": [{"md_atom_id": "md_ch04_a781", "md_file": "knowledge_base/chapters/ch04_general_assumptions.md", "md_atom_type": "HEADING", "md_parent_section": "§4.4.11 [Disease Milestones and Disease Milestone Timing Variables]", "md_verbatim": "#### Disease Milestone Naming (MIDS)", "score": 0.7737, "match_basis": "verbatim_token+chapter_route:ch04"}, {"md_atom_id": "md_ch04_a809", "md_file": "knowledge_base/chapters/ch04_general_assumptions.md", "md_atom_type": "HEADING", "md_parent_section": "§4.4.11 [Disease Milestones and Disease Milestone Timing Variables]", "md_verbatim": "#### Linking and Disease Milestones", "score": 0.613, "match_basis": "verbatim_token+chapter_route:ch04"}, {"md_atom_id": "md_ch04_a787", "md_file": "knowledge_base/chapters/ch04_general_assumptions.md", "md_atom_type": "HEADING", "md_parent_section": "§4.4.11 [Disease Milestones and Disease Milestone Timing Variables]", "md_verbatim": "#### Timing Relative to a Disease Milestone (MIDS, RELMIDS, MIDSDTC)", "score": 0.571, "match_basis": "verbatim_token+chapter_route:ch04"}, {"md_atom_id": "md_ch04_a775", "md_file": "knowledge_base/chapters/ch04_general_assumptions.md", "md_atom_type": "HEADING", "md_parent_section": "§4.4 [Use of Timing Variables]", "md_verbatim": "### 4.4.11 Disease Milestones and Disease Milestone Timing Variables", "score": 0.5571, "match_basis": "verbatim_token+chapter_route:ch04"}, {"md_atom_id": "md_ch04_a801", "md_file": "knowledge_base/chapters/ch04_general_assumptions.md", "md_atom_type": "HEADING", "md_parent_section": "§4.4.11 [Disease Milestones and Disease Milestone Timing Variables]", "md_verbatim": "#### Use of Disease Milestone Timing Variables with Other Timing Variables", "score": 0.525, "match_basis": "verbatim_token+chapter_route:ch04"}], "candidate_count": 5, "zero_candidate": false}
{"pdf_atom_id": "ig34_p0049_a008", "pdf_atom_type": "SENTENCE", "pdf_source": "SDTMIG_v3.4", "pdf_page": 49, "pdf_parent_section": "§4.4.11 [Disease Milestones and Disease Milestone Timing Variables]", "pdf_verbatim": "If something that has been defined as a disease milestone for a particular study occurrs for a particular subject, it is represented as usual: in the appropriate findings, intervention, or events class record.", "figure_ref": null, "candidates": [{"md_atom_id": "md_ch04_a777", "md_file": "knowledge_base/chapters/ch04_general_assumptions.md", "md_atom_type": "SENTENCE", "md_parent_section": "§4.4.11 [Disease Milestones and Disease Milestone Timing Variables]", "md_verbatim": "A disease milestone may be something that occurred pre-study (e.g., diagnosis of the disease under study), or something anticipated to occur during the study (e.g., an adverse event of interest).", "score": 0.5033, "match_basis": "verbatim_token+chapter_route:ch04"}, {"md_atom_id": "md_ch04_a802", "md_file": "knowledge_base/chapters/ch04_general_assumptions.md", "md_atom_type": "SENTENCE", "md_parent_section": "§4.4.11 [Disease Milestones and Disease Milestone Timing Variables]", "md_verbatim": "The disease milestone timing variables provide timing relative to an activity or event that has been identified, for the particular study, as a disease milestone.", "score": 0.482, "match_basis": "verbatim_token+chapter_route:ch04"}, {"md_atom_id": "md_ch04_a778", "md_file": "knowledge_base/chapters/ch04_general_assumptions.md", "md_atom_type": "SENTENCE", "md_parent_section": "§4.4.11 [Disease Milestones and Disease Milestone Timing Variables]", "md_verbatim": "The types of disease milestones for a study are defined in the study-level Trial Disease Milestones (TM) dataset; the times at which disease milestones occurred for a particular subject are summarized in the special-purpose Subject Disease Milestones (SM) domain.", "score": 0.4809, "match_basis": "verbatim_token+chapter_route:ch04"}, {"md_atom_id": "md_ch04_a024", "md_file": "knowledge_base/chapters/ch04_general_assumptions.md", "md_atom_type": "SENTENCE", "md_parent_section": "§4.1.3.1 [EPOCH Variable Guidance]", "md_verbatim": "Because EPOCH is a study-design construct, it is not applicable to interventions or events that started before the subject's participation in a study, nor to findings performed before participation in a study.", "score": 0.4554, "match_basis": "verbatim_token+chapter_route:ch04"}, {"md_atom_id": "md_ch04_a794", "md_file": "knowledge_base/chapters/ch04_general_assumptions.md", "md_atom_type": "SENTENCE", "md_parent_section": "§4.4.11 [Disease Milestones and Disease Milestone Timing Variables]", "md_verbatim": "**Special use of RELMIDS for findings about a disease milestone:** When a disease milestone is an event or intervention, some data triggered by the disease milestone may be modeled as findings about the disease milestone (i.e., FAOBJ is the disease milestone).", "score": 0.4547, "match_basis": "verbatim_token+chapter_route:ch04"}], "candidate_count": 5, "zero_candidate": false}
{"pdf_atom_id": "ig34_p0049_a009", "pdf_atom_type": "SENTENCE", "pdf_source": "SDTMIG_v3.4", "pdf_page": 49, "pdf_parent_section": "§4.4.11 [Disease Milestones and Disease Milestone Timing Variables]", "pdf_verbatim": "In addition, this record will include the MIDS timing variable, populated with the name of the disease milestone.", "figure_ref": null, "candidates": [{"md_atom_id": "md_ch04_a780", "md_file": "knowledge_base/chapters/ch04_general_assumptions.md", "md_atom_type": "SENTENCE", "md_parent_section": "§4.4.11 [Disease Milestones and Disease Milestone Timing Variables]", "md_verbatim": "If a study does not have disease milestones, the TM and SM domains will not be present and the disease milestone timing variables may not be included in other domains.", "score": 0.5278, "match_basis": "verbatim_token+chapter_route:ch04"}, {"md_atom_id": "md_ch04_a789", "md_file": "knowledge_base/chapters/ch04_general_assumptions.md", "md_atom_type": "SENTENCE", "md_parent_section": "§4.4.11 [Disease Milestones and Disease Milestone Timing Variables]", "md_verbatim": "For an observation triggered by the occurrence of a disease milestone, the relationship of the observation to the disease milestone can be represented using the disease milestone timing variables MIDS, RELMIDS, and MIDSDTC:", "score": 0.4723, "match_basis": "verbatim_token+chapter_route:ch04"}, {"md_atom_id": "md_ch04_a802", "md_file": "knowledge_base/chapters/ch04_general_assumptions.md", "md_atom_type": "SENTENCE", "md_parent_section": "§4.4.11 [Disease Milestones and Disease Milestone Timing Variables]", "md_verbatim": "The disease milestone timing variables provide timing relative to an activity or event that has been identified, for the particular study, as a disease milestone.", "score": 0.4579, "match_basis": "verbatim_token+chapter_route:ch04"}, {"md_atom_id": "md_ch04_a810", "md_file": "knowledge_base/chapters/ch04_general_assumptions.md", "md_atom_type": "SENTENCE", "md_parent_section": "§4.4.11 [Disease Milestones and Disease Milestone Timing Variables]", "md_verbatim": "When disease milestones have been defined for a study, the MIDS variable serves to link observations associated with a disease milestone in a way similar to how VISITNUM links observations collected at a visit.", "score": 0.457, "match_basis": "verbatim_token+chapter_route:ch04"}, {"md_atom_id": "md_ch04_a703", "md_file": "knowledge_base/chapters/ch04_general_assumptions.md", "md_atom_type": "SENTENCE", "md_parent_section": "§4.4.9 [Use of Dates as Result Variables]", "md_verbatim": "Remember, in most cases, these dates should be timing variables associated with a record in an Intervention or Events dataset.", "score": 0.45, "match_basis": "verbatim_token+chapter_route:ch04"}], "candidate_count": 5, "zero_candidate": false}
{"pdf_atom_id": "ig34_p0049_a010", "pdf_atom_type": "SENTENCE", "pdf_source": "SDTMIG_v3.4", "pdf_page": 49, "pdf_parent_section": "§4.4.11 [Disease Milestones and Disease Milestone Timing Variables]", "pdf_verbatim": "The timing of a disease milestone is also represented in the special-purpose SM domain.", "figure_ref": null, "candidates": [{"md_atom_id": "md_ch04_a780", "md_file": "knowledge_base/chapters/ch04_general_assumptions.md", "md_atom_type": "SENTENCE", "md_parent_section": "§4.4.11 [Disease Milestones and Disease Milestone Timing Variables]", "md_verbatim": "If a study does not have disease milestones, the TM and SM domains will not be present and the disease milestone timing variables may not be included in other domains.", "score": 0.5229, "match_basis": "verbatim_token+chapter_route:ch04"}, {"md_atom_id": "md_ch04_a778", "md_file": "knowledge_base/chapters/ch04_general_assumptions.md", "md_atom_type": "SENTENCE", "md_parent_section": "§4.4.11 [Disease Milestones and Disease Milestone Timing Variables]", "md_verbatim": "The types of disease milestones for a study are defined in the study-level Trial Disease Milestones (TM) dataset; the times at which disease milestones occurred for a particular subject are summarized in the special-purpose Subject Disease Milestones (SM) domain.", "score": 0.4732, "match_basis": "verbatim_token+chapter_route:ch04"}, {"md_atom_id": "md_ch04_a789", "md_file": "knowledge_base/chapters/ch04_general_assumptions.md", "md_atom_type": "SENTENCE", "md_parent_section": "§4.4.11 [Disease Milestones and Disease Milestone Timing Variables]", "md_verbatim": "For an observation triggered by the occurrence of a disease milestone, the relationship of the observation to the disease milestone can be represented using the disease milestone timing variables MIDS, RELMIDS, and MIDSDTC:", "score": 0.4714, "match_basis": "verbatim_token+chapter_route:ch04"}, {"md_atom_id": "md_ch04_a014", "md_file": "knowledge_base/chapters/ch04_general_assumptions.md", "md_atom_type": "SENTENCE", "md_parent_section": "§4.1.3 [Additional Timing Variables]", "md_verbatim": "Timing variables can be added to special-purpose domains only where specified in the SDTMIG domain model assumptions.", "score": 0.4538, "match_basis": "verbatim_token+chapter_route:ch04"}, {"md_atom_id": "md_ch04_a794", "md_file": "knowledge_base/chapters/ch04_general_assumptions.md", "md_atom_type": "SENTENCE", "md_parent_section": "§4.4.11 [Disease Milestones and Disease Milestone Timing Variables]", "md_verbatim": "**Special use of RELMIDS for findings about a disease milestone:** When a disease milestone is an event or intervention, some data triggered by the disease milestone may be modeled as findings about the disease milestone (i.e., FAOBJ is the disease milestone).", "score": 0.4432, "match_basis": "verbatim_token+chapter_route:ch04"}], "candidate_count": 5, "zero_candidate": false}
{"pdf_atom_id": "ig34_p0049_a011", "pdf_atom_type": "SENTENCE", "pdf_source": "SDTMIG_v3.4", "pdf_page": 49, "pdf_parent_section": "§4.4.11 [Disease Milestones and Disease Milestone Timing Variables]", "pdf_verbatim": "The record that represents a disease milestone does not include values for the timing variables RELMIDS and MIDSDTC, which are used to represent the timing of other observations relative to a disease milestone.", "figure_ref": null, "candidates": [{"md_atom_id": "md_ch04_a789", "md_file": "knowledge_base/chapters/ch04_general_assumptions.md", "md_atom_type": "SENTENCE", "md_parent_section": "§4.4.11 [Disease Milestones and Disease Milestone Timing Variables]", "md_verbatim": "For an observation triggered by the occurrence of a disease milestone, the relationship of the observation to the disease milestone can be represented using the disease milestone timing variables MIDS, RELMIDS, and MIDSDTC:", "score": 0.6, "match_basis": "verbatim_token+chapter_route:ch04"}, {"md_atom_id": "md_ch04_a780", "md_file": "knowledge_base/chapters/ch04_general_assumptions.md", "md_atom_type": "SENTENCE", "md_parent_section": "§4.4.11 [Disease Milestones and Disease Milestone Timing Variables]", "md_verbatim": "If a study does not have disease milestones, the TM and SM domains will not be present and the disease milestone timing variables may not be included in other domains.", "score": 0.5437, "match_basis": "verbatim_token+chapter_route:ch04"}, {"md_atom_id": "md_ch04_a802", "md_file": "knowledge_base/chapters/ch04_general_assumptions.md", "md_atom_type": "SENTENCE", "md_parent_section": "§4.4.11 [Disease Milestones and Disease Milestone Timing Variables]", "md_verbatim": "The disease milestone timing variables provide timing relative to an activity or event that has been identified, for the particular study, as a disease milestone.", "score": 0.4752, "match_basis": "verbatim_token+chapter_route:ch04"}, {"md_atom_id": "md_ch04_a976", "md_file": "knowledge_base/chapters/ch04_general_assumptions.md", "md_atom_type": "SENTENCE", "md_parent_section": "§4.5.6 [Supplemental Reason Variables]", "md_verbatim": "The SDTM general observation classes include the --REASND variable to submit the reason a response is not present (a result in a findings class or an --OCCUR value in an events or interventions variable).", "score": 0.4707, "match_basis": "verbatim_token+chapter_route:ch04"}, {"md_atom_id": "md_ch04_a803", "md_file": "knowledge_base/chapters/ch04_general_assumptions.md", "md_atom_type": "SENTENCE", "md_parent_section": "§4.4.11 [Disease Milestones and Disease Milestone Timing Variables]", "md_verbatim": "Their use does not preclude the use of variables that collect actual date/times or timing relative to the study schedule:", "score": 0.4642, "match_basis": "verbatim_token+chapter_route:ch04"}], "candidate_count": 5, "zero_candidate": false}
{"pdf_atom_id": "ig34_p0049_a012", "pdf_atom_type": "SENTENCE", "pdf_source": "SDTMIG_v3.4", "pdf_page": 49, "pdf_parent_section": "§4.4.11 [Disease Milestones and Disease Milestone Timing Variables]", "pdf_verbatim": "The usual timing variables in the record for a disease milestone (e.g., --DTC, --STDTC, --ENDTC) provide the needed timing for this observation and for the timing information represented in the SM domain.", "figure_ref": null, "candidates": [{"md_atom_id": "md_ch04_a789", "md_file": "knowledge_base/chapters/ch04_general_assumptions.md", "md_atom_type": "SENTENCE", "md_parent_section": "§4.4.11 [Disease Milestones and Disease Milestone Timing Variables]", "md_verbatim": "For an observation triggered by the occurrence of a disease milestone, the relationship of the observation to the disease milestone can be represented using the disease milestone timing variables MIDS, RELMIDS, and MIDSDTC:", "score": 0.5491, "match_basis": "verbatim_token+chapter_route:ch04"}, {"md_atom_id": "md_ch04_a780", "md_file": "knowledge_base/chapters/ch04_general_assumptions.md", "md_atom_type": "SENTENCE", "md_parent_section": "§4.4.11 [Disease Milestones and Disease Milestone Timing Variables]", "md_verbatim": "If a study does not have disease milestones, the TM and SM domains will not be present and the disease milestone timing variables may not be included in other domains.", "score": 0.5147, "match_basis": "verbatim_token+chapter_route:ch04"}, {"md_atom_id": "md_ch04_a788", "md_file": "knowledge_base/chapters/ch04_general_assumptions.md", "md_atom_type": "SENTENCE", "md_parent_section": "§4.4.11 [Disease Milestones and Disease Milestone Timing Variables]", "md_verbatim": "Disease Milestones (defined in TM, recorded in SM) provide a way to anchor observations to clinically significant time points.", "score": 0.4761, "match_basis": "verbatim_token+chapter_route:ch04"}, {"md_atom_id": "md_ch04_a683", "md_file": "knowledge_base/chapters/ch04_general_assumptions.md", "md_atom_type": "SENTENCE", "md_parent_section": "§4.4.8 [Date and Time Reported in a Domain Based on Findings]", "md_verbatim": "In order to ensure that the critical timing information is always represented in the same variable, the --DTC variable is used to represent the time of specimen collection.", "score": 0.4706, "match_basis": "verbatim_token+chapter_route:ch04"}, {"md_atom_id": "md_ch04_a802", "md_file": "knowledge_base/chapters/ch04_general_assumptions.md", "md_atom_type": "SENTENCE", "md_parent_section": "§4.4.11 [Disease Milestones and Disease Milestone Timing Variables]", "md_verbatim": "The disease milestone timing variables provide timing relative to an activity or event that has been identified, for the particular study, as a disease milestone.", "score": 0.4706, "match_basis": "verbatim_token+chapter_route:ch04"}], "candidate_count": 5, "zero_candidate": false}
{"pdf_atom_id": "ig34_p0049_a013", "pdf_atom_type": "HEADING", "pdf_source": "SDTMIG_v3.4", "pdf_page": 49, "pdf_parent_section": "§4.4.11 [Disease Milestones and Disease Milestone Timing Variables]", "pdf_verbatim": "Timing Relative to a Disease Milestone (MIDS, RELMIDS, MIDSDTC)", "figure_ref": null, "candidates": [{"md_atom_id": "md_ch04_a787", "md_file": "knowledge_base/chapters/ch04_general_assumptions.md", "md_atom_type": "HEADING", "md_parent_section": "§4.4.11 [Disease Milestones and Disease Milestone Timing Variables]", "md_verbatim": "#### Timing Relative to a Disease Milestone (MIDS, RELMIDS, MIDSDTC)", "score": 0.9, "match_basis": "verbatim_token+chapter_route:ch04"}, {"md_atom_id": "md_ch04_a781", "md_file": "knowledge_base/chapters/ch04_general_assumptions.md", "md_atom_type": "HEADING", "md_parent_section": "§4.4.11 [Disease Milestones and Disease Milestone Timing Variables]", "md_verbatim": "#### Disease Milestone Naming (MIDS)", "score": 0.6097, "match_basis": "verbatim_token+chapter_route:ch04"}, {"md_atom_id": "md_ch04_a775", "md_file": "knowledge_base/chapters/ch04_general_assumptions.md", "md_atom_type": "HEADING", "md_parent_section": "§4.4 [Use of Timing Variables]", "md_verbatim": "### 4.4.11 Disease Milestones and Disease Milestone Timing Variables", "score": 0.5595, "match_basis": "verbatim_token+chapter_route:ch04"}, {"md_atom_id": "md_ch04_a801", "md_file": "knowledge_base/chapters/ch04_general_assumptions.md", "md_atom_type": "HEADING", "md_parent_section": "§4.4.11 [Disease Milestones and Disease Milestone Timing Variables]", "md_verbatim": "#### Use of Disease Milestone Timing Variables with Other Timing Variables", "score": 0.5341, "match_basis": "verbatim_token+chapter_route:ch04"}, {"md_atom_id": "md_ch04_a809", "md_file": "knowledge_base/chapters/ch04_general_assumptions.md", "md_atom_type": "HEADING", "md_parent_section": "§4.4.11 [Disease Milestones and Disease Milestone Timing Variables]", "md_verbatim": "#### Linking and Disease Milestones", "score": 0.5229, "match_basis": "verbatim_token+chapter_route:ch04"}], "candidate_count": 5, "zero_candidate": false}
{"pdf_atom_id": "ig34_p0049_a014", "pdf_atom_type": "SENTENCE", "pdf_source": "SDTMIG_v3.4", "pdf_page": 49, "pdf_parent_section": "§4.4.11 [Disease Milestones and Disease Milestone Timing Variables]", "pdf_verbatim": "For an observation triggered by the occurrence of a disease milestone, the relationship of the observation to the disease milestone can be represented using the disease milestones timing variables MIDS, RELMIDS, and MIDSDTC to describe the timing of the observation.", "figure_ref": null, "candidates": [{"md_atom_id": "md_ch04_a789", "md_file": "knowledge_base/chapters/ch04_general_assumptions.md", "md_atom_type": "SENTENCE", "md_parent_section": "§4.4.11 [Disease Milestones and Disease Milestone Timing Variables]", "md_verbatim": "For an observation triggered by the occurrence of a disease milestone, the relationship of the observation to the disease milestone can be represented using the disease milestone timing variables MIDS, RELMIDS, and MIDSDTC:", "score": 0.8488, "match_basis": "verbatim_token+chapter_route:ch04"}, {"md_atom_id": "md_ch04_a015", "md_file": "knowledge_base/chapters/ch04_general_assumptions.md", "md_atom_type": "SENTENCE", "md_parent_section": "§4.1.3 [Additional Timing Variables]", "md_verbatim": "Timing variables cannot be added to SUPPQUAL datasets or to RELREC (described in Section 8, Representing Relationships and Data).", "score": 0.5037, "match_basis": "verbatim_token+chapter_route:ch04"}, {"md_atom_id": "md_ch04_a977", "md_file": "knowledge_base/chapters/ch04_general_assumptions.md", "md_atom_type": "SENTENCE", "md_parent_section": "§4.5.6 [Supplemental Reason Variables]", "md_verbatim": "For Events and Interventions domains where prespecified occurrences have a reason for the \"Y\" or \"N\" value of --OCCUR, the reason can be represented with the variable --REASOC.", "score": 0.4707, "match_basis": "verbatim_token+chapter_route:ch04"}, {"md_atom_id": "md_ch04_a780", "md_file": "knowledge_base/chapters/ch04_general_assumptions.md", "md_atom_type": "SENTENCE", "md_parent_section": "§4.4.11 [Disease Milestones and Disease Milestone Timing Variables]", "md_verbatim": "If a study does not have disease milestones, the TM and SM domains will not be present and the disease milestone timing variables may not be included in other domains.", "score": 0.4698, "match_basis": "verbatim_token+chapter_route:ch04"}, {"md_atom_id": "md_ch04_a810", "md_file": "knowledge_base/chapters/ch04_general_assumptions.md", "md_atom_type": "SENTENCE", "md_parent_section": "§4.4.11 [Disease Milestones and Disease Milestone Timing Variables]", "md_verbatim": "When disease milestones have been defined for a study, the MIDS variable serves to link observations associated with a disease milestone in a way similar to how VISITNUM links observations collected at a visit.", "score": 0.4654, "match_basis": "verbatim_token+chapter_route:ch04"}], "candidate_count": 5, "zero_candidate": false}
{"pdf_atom_id": "ig34_p0049_a015", "pdf_atom_type": "LIST_ITEM", "pdf_source": "SDTMIG_v3.4", "pdf_page": 49, "pdf_parent_section": "§4.4.11 [Disease Milestones and Disease Milestone Timing Variables]", "pdf_verbatim": "MIDS is populated with the name of a disease milestone for this subject. MIDS is the \"anchor\" for describing the timing of the observation relative to the disease milestone. In this sense, its function is similar to --TPTREF for time points.", "figure_ref": null, "candidates": [{"md_atom_id": "md_ch04_a791", "md_file": "knowledge_base/chapters/ch04_general_assumptions.md", "md_atom_type": "TABLE_ROW", "md_parent_section": "§4.4.11 [Disease Milestones and Disease Milestone Timing Variables]", "md_verbatim": "| MIDS | Disease Milestone Instance Name (e.g., EPISODE1, EPISODE2). MIDS is the \"anchor\" for describing the timing of the observation relative to the disease milestone — its function is similar to --TPTREF for time points. |", "score": 0.5585, "match_basis": "verbatim_token+chapter_route:ch04"}, {"md_atom_id": "md_ch04_a797", "md_file": "knowledge_base/chapters/ch04_general_assumptions.md", "md_atom_type": "LIST_ITEM", "md_parent_section": "§4.4.11 [Disease Milestones and Disease Milestone Timing Variables]", "md_verbatim": "- When the subject of the question is a question about the occurrence of some activity or event related to the disease milestone, RELMIDS acts like an evaluation interval, describing the period of time on which the question is focused:", "score": 0.4969, "match_basis": "verbatim_token+chapter_route:ch04"}, {"md_atom_id": "md_ch04_a796", "md_file": "knowledge_base/chapters/ch04_general_assumptions.md", "md_atom_type": "LIST_ITEM", "md_parent_section": "§4.4.11 [Disease Milestones and Disease Milestone Timing Variables]", "md_verbatim": "- When the subject of the question is the disease milestone itself, RELMIDS may be populated with a value such as **\"ENTIRE EVENT\"** or **\"ENTIRE TREATMENT\"**", "score": 0.4872, "match_basis": "verbatim_token+chapter_route:ch04"}, {"md_atom_id": "md_ch04_a806", "md_file": "knowledge_base/chapters/ch04_general_assumptions.md", "md_atom_type": "LIST_ITEM", "md_parent_section": "§4.4.11 [Disease Milestones and Disease Milestone Timing Variables]", "md_verbatim": "- The timing variables EPOCH and TAETORD may be populated for on-study observations associated with disease milestones; however, pre-study disease milestones do not have an associated EPOCH or TAETORD", "score": 0.4831, "match_basis": "verbatim_token+chapter_route:ch04"}, {"md_atom_id": "md_ch04_a808", "md_file": "knowledge_base/chapters/ch04_general_assumptions.md", "md_atom_type": "LIST_ITEM", "md_parent_section": "§4.4.11 [Disease Milestones and Disease Milestone Timing Variables]", "md_verbatim": "- The timing variables for start and end of an event or intervention relative to the study reference period (--STRF and --ENRF) or relative to a reference time point (--STRTPT and --STTPT, --ENRTPT and --ENTPT) can be used in conjunction with disease milestone variables", "score": 0.4754, "match_basis": "verbatim_token+chapter_route:ch04"}], "candidate_count": 5, "zero_candidate": false}
{"pdf_atom_id": "ig34_p0049_a016", "pdf_atom_type": "LIST_ITEM", "pdf_source": "SDTMIG_v3.4", "pdf_page": 49, "pdf_parent_section": "§4.4.11 [Disease Milestones and Disease Milestone Timing Variables]", "pdf_verbatim": "RELMIDS is usually populated with a textual description of the temporal relationship between the observation and the disease milestone named in MIDS. Controlled Terminology has not yet been developed for RELMIDS, but is likely to include terms such as \"IMMEDIATELY BEFORE\", \"AT START OF\", \"DURING\", \"AT END OF\", and \"SHORTLY AFTER\". It is similar to --ELTM, except that --ELTM is represented ISO 8601 duration.", "figure_ref": null, "candidates": [{"md_atom_id": "md_ch04_a792", "md_file": "knowledge_base/chapters/ch04_general_assumptions.md", "md_atom_type": "TABLE_ROW", "md_parent_section": "§4.4.11 [Disease Milestones and Disease Milestone Timing Variables]", "md_verbatim": "| RELMIDS | Relationship to Disease Milestone Instance. Usually populated with a textual description of the temporal relationship between the observation and the disease milestone named in MIDS. Its function is similar to --ELTM, except that RELMIDS is represented as ISO 8601 duration. CT has not yet been developed for RELMIDS, but is likely to include terms such as \"IMMEDIATELY BEFORE\", \"AT START OF\", \"DURING\", \"AT END OF\", and \"SHORTLY AFTER\". |", "score": 0.6633, "match_basis": "verbatim_token+chapter_route:ch04"}, {"md_atom_id": "md_ch04_a806", "md_file": "knowledge_base/chapters/ch04_general_assumptions.md", "md_atom_type": "LIST_ITEM", "md_parent_section": "§4.4.11 [Disease Milestones and Disease Milestone Timing Variables]", "md_verbatim": "- The timing variables EPOCH and TAETORD may be populated for on-study observations associated with disease milestones; however, pre-study disease milestones do not have an associated EPOCH or TAETORD", "score": 0.4268, "match_basis": "verbatim_token+chapter_route:ch04"}, {"md_atom_id": "md_ch04_a812", "md_file": "knowledge_base/chapters/ch04_general_assumptions.md", "md_atom_type": "LIST_ITEM", "md_parent_section": "§4.4.11 [Disease Milestones and Disease Milestone Timing Variables]", "md_verbatim": "- RELREC indicates that there is a relationship between records or datasets, but not the nature of the relationship; records with the same MIDS value are related to the same disease milestone", "score": 0.4219, "match_basis": "verbatim_token+chapter_route:ch04"}, {"md_atom_id": "md_ch04_a813", "md_file": "knowledge_base/chapters/ch04_general_assumptions.md", "md_atom_type": "LIST_ITEM", "md_parent_section": "§4.4.11 [Disease Milestones and Disease Milestone Timing Variables]", "md_verbatim": "- When disease milestones are defined, it is not necessary to create RELREC records to establish relationships between observations associated with a disease milestone", "score": 0.42, "match_basis": "verbatim_token+chapter_route:ch04"}, {"md_atom_id": "md_ch04_a445", "md_file": "knowledge_base/chapters/ch04_general_assumptions.md", "md_atom_type": "LIST_ITEM", "md_parent_section": "§4.3.5 [Storing Controlled Terminology for Synonym Qualifier Variables (MedDRA and WHODrug)]", "md_verbatim": "- If MedDRA is used to code events, the intermediate levels in the MedDRA hierarchy should also be represented in the dataset; a pair of variables has been defined for each of the levels of the hierarchy other than SOC and Preferred Term (PT): one to represent the text description and the other to represent the code value associated with it", "score": 0.4125, "match_basis": "verbatim_token+chapter_route:ch04"}], "candidate_count": 5, "zero_candidate": false}
{"pdf_atom_id": "ig34_p0049_a017", "pdf_atom_type": "LIST_ITEM", "pdf_source": "SDTMIG_v3.4", "pdf_page": 49, "pdf_parent_section": "§4.4.11 [Disease Milestones and Disease Milestone Timing Variables]", "pdf_verbatim": "MIDSDTC is populated with the date/time of the disease milestone. This is the --DTC for a finding, or the --STDTC for an event or intervention, and is the date recorded in SMSTDTC in the SM domain. Its function is similar to --RFTDTC for time points.", "figure_ref": null, "candidates": [{"md_atom_id": "md_ch04_a793", "md_file": "knowledge_base/chapters/ch04_general_assumptions.md", "md_atom_type": "TABLE_ROW", "md_parent_section": "§4.4.11 [Disease Milestones and Disease Milestone Timing Variables]", "md_verbatim": "| MIDSDTC | Disease Milestone Instance Date/Time. This is the --DTC for a finding, or the --STDTC for an event or intervention, and is the date recorded in SMSTDTC in the SM domain. Its function is similar to --RFTDTC for time points. |", "score": 0.65, "match_basis": "verbatim_token+chapter_route:ch04"}, {"md_atom_id": "md_ch04_a808", "md_file": "knowledge_base/chapters/ch04_general_assumptions.md", "md_atom_type": "LIST_ITEM", "md_parent_section": "§4.4.11 [Disease Milestones and Disease Milestone Timing Variables]", "md_verbatim": "- The timing variables for start and end of an event or intervention relative to the study reference period (--STRF and --ENRF) or relative to a reference time point (--STRTPT and --STTPT, --ENRTPT and --ENTPT) can be used in conjunction with disease milestone variables", "score": 0.481, "match_basis": "verbatim_token+chapter_route:ch04"}, {"md_atom_id": "md_ch04_a796", "md_file": "knowledge_base/chapters/ch04_general_assumptions.md", "md_atom_type": "LIST_ITEM", "md_parent_section": "§4.4.11 [Disease Milestones and Disease Milestone Timing Variables]", "md_verbatim": "- When the subject of the question is the disease milestone itself, RELMIDS may be populated with a value such as **\"ENTIRE EVENT\"** or **\"ENTIRE TREATMENT\"**", "score": 0.4722, "match_basis": "verbatim_token+chapter_route:ch04"}, {"md_atom_id": "md_ch04_a806", "md_file": "knowledge_base/chapters/ch04_general_assumptions.md", "md_atom_type": "LIST_ITEM", "md_parent_section": "§4.4.11 [Disease Milestones and Disease Milestone Timing Variables]", "md_verbatim": "- The timing variables EPOCH and TAETORD may be populated for on-study observations associated with disease milestones; however, pre-study disease milestones do not have an associated EPOCH or TAETORD", "score": 0.4627, "match_basis": "verbatim_token+chapter_route:ch04"}, {"md_atom_id": "md_ch04_a812", "md_file": "knowledge_base/chapters/ch04_general_assumptions.md", "md_atom_type": "LIST_ITEM", "md_parent_section": "§4.4.11 [Disease Milestones and Disease Milestone Timing Variables]", "md_verbatim": "- RELREC indicates that there is a relationship between records or datasets, but not the nature of the relationship; records with the same MIDS value are related to the same disease milestone", "score": 0.4487, "match_basis": "verbatim_token+chapter_route:ch04"}], "candidate_count": 5, "zero_candidate": false}
{"pdf_atom_id": "ig34_p0049_a018", "pdf_atom_type": "SENTENCE", "pdf_source": "SDTMIG_v3.4", "pdf_page": 49, "pdf_parent_section": "§4.4.11 [Disease Milestones and Disease Milestone Timing Variables]", "pdf_verbatim": "In some cases, data collected in conjunction with a disease milestone do not include the collection of a separate date for the related observation.", "figure_ref": null, "candidates": [{"md_atom_id": "md_ch04_a810", "md_file": "knowledge_base/chapters/ch04_general_assumptions.md", "md_atom_type": "SENTENCE", "md_parent_section": "§4.4.11 [Disease Milestones and Disease Milestone Timing Variables]", "md_verbatim": "When disease milestones have been defined for a study, the MIDS variable serves to link observations associated with a disease milestone in a way similar to how VISITNUM links observations collected at a visit.", "score": 0.485, "match_basis": "verbatim_token+chapter_route:ch04"}, {"md_atom_id": "md_ch04_a789", "md_file": "knowledge_base/chapters/ch04_general_assumptions.md", "md_atom_type": "SENTENCE", "md_parent_section": "§4.4.11 [Disease Milestones and Disease Milestone Timing Variables]", "md_verbatim": "For an observation triggered by the occurrence of a disease milestone, the relationship of the observation to the disease milestone can be represented using the disease milestone timing variables MIDS, RELMIDS, and MIDSDTC:", "score": 0.45, "match_basis": "verbatim_token+chapter_route:ch04"}, {"md_atom_id": "md_ch04_a794", "md_file": "knowledge_base/chapters/ch04_general_assumptions.md", "md_atom_type": "SENTENCE", "md_parent_section": "§4.4.11 [Disease Milestones and Disease Milestone Timing Variables]", "md_verbatim": "**Special use of RELMIDS for findings about a disease milestone:** When a disease milestone is an event or intervention, some data triggered by the disease milestone may be modeled as findings about the disease milestone (i.e., FAOBJ is the disease milestone).", "score": 0.4257, "match_basis": "verbatim_token+chapter_route:ch04"}, {"md_atom_id": "md_ch04_a573", "md_file": "knowledge_base/chapters/ch04_general_assumptions.md", "md_atom_type": "SENTENCE", "md_parent_section": "§4.4.3.1 [Intervals of Time and Use of Duration]", "md_verbatim": "As is the case with the date/time representation in --DTC, --STDTC, or --ENDTC, only the components of duration that are known or collected need to be represented.", "score": 0.42, "match_basis": "verbatim_token+chapter_route:ch04"}, {"md_atom_id": "md_ch04_a780", "md_file": "knowledge_base/chapters/ch04_general_assumptions.md", "md_atom_type": "SENTENCE", "md_parent_section": "§4.4.11 [Disease Milestones and Disease Milestone Timing Variables]", "md_verbatim": "If a study does not have disease milestones, the TM and SM domains will not be present and the disease milestone timing variables may not be included in other domains.", "score": 0.42, "match_basis": "verbatim_token+chapter_route:ch04"}], "candidate_count": 5, "zero_candidate": false}
{"pdf_atom_id": "ig34_p0049_a019", "pdf_atom_type": "SENTENCE", "pdf_source": "SDTMIG_v3.4", "pdf_page": 49, "pdf_parent_section": "§4.4.11 [Disease Milestones and Disease Milestone Timing Variables]", "pdf_verbatim": "This is particularly common for pre-study disease milestones, but may occur with on-study disease milestones as well.", "figure_ref": null, "candidates": [{"md_atom_id": "md_ch04_a779", "md_file": "knowledge_base/chapters/ch04_general_assumptions.md", "md_atom_type": "SENTENCE", "md_parent_section": "§4.4.11 [Disease Milestones and Disease Milestone Timing Variables]", "md_verbatim": "Not all studies will have disease milestones.", "score": 0.4731, "match_basis": "verbatim_token+chapter_route:ch04"}, {"md_atom_id": "md_ch04_a778", "md_file": "knowledge_base/chapters/ch04_general_assumptions.md", "md_atom_type": "SENTENCE", "md_parent_section": "§4.4.11 [Disease Milestones and Disease Milestone Timing Variables]", "md_verbatim": "The types of disease milestones for a study are defined in the study-level Trial Disease Milestones (TM) dataset; the times at which disease milestones occurred for a particular subject are summarized in the special-purpose Subject Disease Milestones (SM) domain.", "score": 0.4714, "match_basis": "verbatim_token+chapter_route:ch04"}, {"md_atom_id": "md_ch04_a802", "md_file": "knowledge_base/chapters/ch04_general_assumptions.md", "md_atom_type": "SENTENCE", "md_parent_section": "§4.4.11 [Disease Milestones and Disease Milestone Timing Variables]", "md_verbatim": "The disease milestone timing variables provide timing relative to an activity or event that has been identified, for the particular study, as a disease milestone.", "score": 0.4714, "match_basis": "verbatim_token+chapter_route:ch04"}, {"md_atom_id": "md_ch04_a777", "md_file": "knowledge_base/chapters/ch04_general_assumptions.md", "md_atom_type": "SENTENCE", "md_parent_section": "§4.4.11 [Disease Milestones and Disease Milestone Timing Variables]", "md_verbatim": "A disease milestone may be something that occurred pre-study (e.g., diagnosis of the disease under study), or something anticipated to occur during the study (e.g., an adverse event of interest).", "score": 0.4483, "match_basis": "verbatim_token+chapter_route:ch04"}, {"md_atom_id": "md_ch04_a780", "md_file": "knowledge_base/chapters/ch04_general_assumptions.md", "md_atom_type": "SENTENCE", "md_parent_section": "§4.4.11 [Disease Milestones and Disease Milestone Timing Variables]", "md_verbatim": "If a study does not have disease milestones, the TM and SM domains will not be present and the disease milestone timing variables may not be included in other domains.", "score": 0.4367, "match_basis": "verbatim_token+chapter_route:ch04"}], "candidate_count": 5, "zero_candidate": false}
{"pdf_atom_id": "ig34_p0049_a020", "pdf_atom_type": "SENTENCE", "pdf_source": "SDTMIG_v3.4", "pdf_page": 49, "pdf_parent_section": "§4.4.11 [Disease Milestones and Disease Milestone Timing Variables]", "pdf_verbatim": "In such cases, MIDSDTC provides a related date/time in records that would not otherwise contain any date.", "figure_ref": null, "candidates": [{"md_atom_id": "md_ch04_a137", "md_file": "knowledge_base/chapters/ch04_general_assumptions.md", "md_atom_type": "SENTENCE", "md_parent_section": "§4.1.9 [Assigning Natural Keys in the Metadata]", "md_verbatim": "In a case where a dataset includes a mix of records with different natural keys, the natural key that provides the most granularity is the one that should be provided.", "score": 0.4348, "match_basis": "verbatim_token+chapter_route:ch04"}, {"md_atom_id": "md_ch04_a234", "md_file": "knowledge_base/chapters/ch04_general_assumptions.md", "md_atom_type": "SENTENCE", "md_parent_section": "§4.2.6 [Grouping Variables and Categorization]", "md_verbatim": "      In such cases, the data collected during the stress tests recorded in 3 separate domains may all have --CAT/--SCAT values (STRESS TEST) that identify that data were collected during the stress test.", "score": 0.4085, "match_basis": "verbatim_token+chapter_route:ch04"}, {"md_atom_id": "md_ch04_a133", "md_file": "knowledge_base/chapters/ch04_general_assumptions.md", "md_atom_type": "SENTENCE", "md_parent_section": "§4.1.8.2 [Origin Metadata for Records]", "md_verbatim": "For example, some records in a Findings dataset such as Questionnaires (QS) contain values collected from the CRF; other records may contain derived values, such as a total score.", "score": 0.408, "match_basis": "verbatim_token+chapter_route:ch04"}, {"md_atom_id": "md_ch04_a1021", "md_file": "knowledge_base/chapters/ch04_general_assumptions.md", "md_atom_type": "SENTENCE", "md_parent_section": "§4.5.8 [Accounting for Long-term Follow-up]", "md_verbatim": "In SDTM, the data related to these follow-up telephone contacts should be stored as follows:", "score": 0.4068, "match_basis": "verbatim_token+chapter_route:ch04"}, {"md_atom_id": "md_ch04_a526", "md_file": "knowledge_base/chapters/ch04_general_assumptions.md", "md_atom_type": "SENTENCE", "md_parent_section": "§4.4.2 [Date/Time Precision]", "md_verbatim": "This date and date/time model also provides for imprecise or estimated dates, such as those commonly seen in Medical History.", "score": 0.4034, "match_basis": "verbatim_token+chapter_route:ch04"}], "candidate_count": 5, "zero_candidate": false}
{"pdf_atom_id": "ig34_p0049_a021", "pdf_atom_type": "SENTENCE", "pdf_source": "SDTMIG_v3.4", "pdf_page": 49, "pdf_parent_section": "§4.4.11 [Disease Milestones and Disease Milestone Timing Variables]", "pdf_verbatim": "In records that do contain date/time(s) of the observation, MIDSDTC allows easy comparison of the date(s) of the observation to the (start) date of the disease milestone.", "figure_ref": null, "candidates": [{"md_atom_id": "md_ch04_a788", "md_file": "knowledge_base/chapters/ch04_general_assumptions.md", "md_atom_type": "SENTENCE", "md_parent_section": "§4.4.11 [Disease Milestones and Disease Milestone Timing Variables]", "md_verbatim": "Disease Milestones (defined in TM, recorded in SM) provide a way to anchor observations to clinically significant time points.", "score": 0.4732, "match_basis": "verbatim_token+chapter_route:ch04"}, {"md_atom_id": "md_ch04_a789", "md_file": "knowledge_base/chapters/ch04_general_assumptions.md", "md_atom_type": "SENTENCE", "md_parent_section": "§4.4.11 [Disease Milestones and Disease Milestone Timing Variables]", "md_verbatim": "For an observation triggered by the occurrence of a disease milestone, the relationship of the observation to the disease milestone can be represented using the disease milestone timing variables MIDS, RELMIDS, and MIDSDTC:", "score": 0.4657, "match_basis": "verbatim_token+chapter_route:ch04"}, {"md_atom_id": "md_ch04_a810", "md_file": "knowledge_base/chapters/ch04_general_assumptions.md", "md_atom_type": "SENTENCE", "md_parent_section": "§4.4.11 [Disease Milestones and Disease Milestone Timing Variables]", "md_verbatim": "When disease milestones have been defined for a study, the MIDS variable serves to link observations associated with a disease milestone in a way similar to how VISITNUM links observations collected at a visit.", "score": 0.4381, "match_basis": "verbatim_token+chapter_route:ch04"}, {"md_atom_id": "md_ch04_a811", "md_file": "knowledge_base/chapters/ch04_general_assumptions.md", "md_atom_type": "SENTENCE", "md_parent_section": "§4.4.11 [Disease Milestones and Disease Milestone Timing Variables]", "md_verbatim": "If disease milestones were not defined for the study, it would be possible to link records associated with a disease milestone using RELREC, but the use of disease milestones has certain advantages over RELREC:", "score": 0.4168, "match_basis": "verbatim_token+chapter_route:ch04"}, {"md_atom_id": "md_ch04_a802", "md_file": "knowledge_base/chapters/ch04_general_assumptions.md", "md_atom_type": "SENTENCE", "md_parent_section": "§4.4.11 [Disease Milestones and Disease Milestone Timing Variables]", "md_verbatim": "The disease milestone timing variables provide timing relative to an activity or event that has been identified, for the particular study, as a disease milestone.", "score": 0.4154, "match_basis": "verbatim_token+chapter_route:ch04"}], "candidate_count": 5, "zero_candidate": false}
{"pdf_atom_id": "ig34_p0049_a022", "pdf_atom_type": "SENTENCE", "pdf_source": "SDTMIG_v3.4", "pdf_page": 49, "pdf_parent_section": "§4.4.11 [Disease Milestones and Disease Milestone Timing Variables]", "pdf_verbatim": "In such cases, it functions much like the reference time point date/time (--RFTDTC) in observations at time points.", "figure_ref": null, "candidates": [{"md_atom_id": "md_ch04_a648", "md_file": "knowledge_base/chapters/ch04_general_assumptions.md", "md_atom_type": "SENTENCE", "md_parent_section": "§4.4.7 [Use of Relative Timing Variables]", "md_verbatim": "If the reference time point is prior to the date of collection or assessment, AFTER is valid for --STRTPT.", "score": 0.4676, "match_basis": "verbatim_token+chapter_route:ch04"}, {"md_atom_id": "md_ch04_a607", "md_file": "knowledge_base/chapters/ch04_general_assumptions.md", "md_atom_type": "SENTENCE", "md_parent_section": "§4.4.5 [Clinical Encounters and Visits]", "md_verbatim": "For domains in the Events or Interventions observation classes, this could be the start date of the event or intervention.", "score": 0.4433, "match_basis": "verbatim_token+chapter_route:ch04"}, {"md_atom_id": "md_ch04_a477", "md_file": "knowledge_base/chapters/ch04_general_assumptions.md", "md_atom_type": "SENTENCE", "md_parent_section": "§4.4 [Actual and Relative Time Assumptions]", "md_verbatim": "In the Events or Interventions general observation class, this could be the start date of the event or intervention.", "score": 0.4385, "match_basis": "verbatim_token+chapter_route:ch04"}, {"md_atom_id": "md_ch04_a018", "md_file": "knowledge_base/chapters/ch04_general_assumptions.md", "md_atom_type": "SENTENCE", "md_parent_section": "§4.1.3.1 [EPOCH Variable Guidance]", "md_verbatim": "For observations in Interventions or Events class domains, EPOCH should be based on the --STDTC variable, since this is the start of the intervention or event.", "score": 0.4259, "match_basis": "verbatim_token+chapter_route:ch04"}, {"md_atom_id": "md_ch04_a755", "md_file": "knowledge_base/chapters/ch04_general_assumptions.md", "md_atom_type": "SENTENCE", "md_parent_section": "§4.4.10 [Representing Time Points]", "md_verbatim": "Option 2 — VISITNUM designates period and day within period; --TPTREF designates dose within the day; --TPTNUM designates timing relative to reference time point:", "score": 0.4259, "match_basis": "verbatim_token+chapter_route:ch04"}], "candidate_count": 5, "zero_candidate": false}
{"pdf_atom_id": "ig34_p0049_a023", "pdf_atom_type": "SENTENCE", "pdf_source": "SDTMIG_v3.4", "pdf_page": 49, "pdf_parent_section": "§4.4.11 [Disease Milestones and Disease Milestone Timing Variables]", "pdf_verbatim": "When a disease milestone is an event or intervention, some data triggered by the disease milestone may be modeled as findings about the disease milestone (i.e., FAOBJ is the disease milestone).", "figure_ref": null, "candidates": [{"md_atom_id": "md_ch04_a794", "md_file": "knowledge_base/chapters/ch04_general_assumptions.md", "md_atom_type": "SENTENCE", "md_parent_section": "§4.4.11 [Disease Milestones and Disease Milestone Timing Variables]", "md_verbatim": "**Special use of RELMIDS for findings about a disease milestone:** When a disease milestone is an event or intervention, some data triggered by the disease milestone may be modeled as findings about the disease milestone (i.e., FAOBJ is the disease milestone).", "score": 0.7925, "match_basis": "verbatim_token+chapter_route:ch04"}, {"md_atom_id": "md_ch04_a777", "md_file": "knowledge_base/chapters/ch04_general_assumptions.md", "md_atom_type": "SENTENCE", "md_parent_section": "§4.4.11 [Disease Milestones and Disease Milestone Timing Variables]", "md_verbatim": "A disease milestone may be something that occurred pre-study (e.g., diagnosis of the disease under study), or something anticipated to occur during the study (e.g., an adverse event of interest).", "score": 0.4608, "match_basis": "verbatim_token+chapter_route:ch04"}, {"md_atom_id": "md_ch04_a694", "md_file": "knowledge_base/chapters/ch04_general_assumptions.md", "md_atom_type": "SENTENCE", "md_parent_section": "§4.4.9 [Use of Dates as Result Variables]", "md_verbatim": "Dates are generally used only as timing variables to describe the timing of an event, intervention, or collection activity, but there may be occasions when it may be preferable to model a date as a result (--ORRES) in a Findings dataset.", "score": 0.45, "match_basis": "verbatim_token+chapter_route:ch04"}, {"md_atom_id": "md_ch04_a789", "md_file": "knowledge_base/chapters/ch04_general_assumptions.md", "md_atom_type": "SENTENCE", "md_parent_section": "§4.4.11 [Disease Milestones and Disease Milestone Timing Variables]", "md_verbatim": "For an observation triggered by the occurrence of a disease milestone, the relationship of the observation to the disease milestone can be represented using the disease milestone timing variables MIDS, RELMIDS, and MIDSDTC:", "score": 0.45, "match_basis": "verbatim_token+chapter_route:ch04"}, {"md_atom_id": "md_ch04_a031", "md_file": "knowledge_base/chapters/ch04_general_assumptions.md", "md_atom_type": "SENTENCE", "md_parent_section": "§4.1.4 [Order of the Variables]", "md_verbatim": "Within each role, variables must be ordered as shown in SDTM Sections 3.1.1, The Interventions Observation Class; 3.1.2, The Events Observation Class; 3.1.3, The Findings Observation Class; 3.1.3.1, Findings About Events or Interventions; 3.1.4, Identifiers for All Classes; and 3.1.5, Timing Variables for All Classes.", "score": 0.4333, "match_basis": "verbatim_token+chapter_route:ch04"}], "candidate_count": 5, "zero_candidate": false}
{"pdf_atom_id": "ig34_p0049_a024", "pdf_atom_type": "SENTENCE", "pdf_source": "SDTMIG_v3.4", "pdf_page": 49, "pdf_parent_section": "§4.4.11 [Disease Milestones and Disease Milestone Timing Variables]", "pdf_verbatim": "In such cases, RELMIDS should be used to describe the temporal relationship between the disease milestone and the subject of the question being asked in the finding, rather than as describing when the question was asked.", "figure_ref": null, "candidates": [{"md_atom_id": "md_ch04_a795", "md_file": "knowledge_base/chapters/ch04_general_assumptions.md", "md_atom_type": "SENTENCE", "md_parent_section": "§4.4.11 [Disease Milestones and Disease Milestone Timing Variables]", "md_verbatim": "In such cases, RELMIDS should be used to describe the temporal relationship between the disease milestone and the subject of the question being asked in the finding, rather than as describing when the question was asked:", "score": 0.9, "match_basis": "verbatim_token+chapter_route:ch04"}, {"md_atom_id": "md_ch04_a794", "md_file": "knowledge_base/chapters/ch04_general_assumptions.md", "md_atom_type": "SENTENCE", "md_parent_section": "§4.4.11 [Disease Milestones and Disease Milestone Timing Variables]", "md_verbatim": "**Special use of RELMIDS for findings about a disease milestone:** When a disease milestone is an event or intervention, some data triggered by the disease milestone may be modeled as findings about the disease milestone (i.e., FAOBJ is the disease milestone).", "score": 0.4377, "match_basis": "verbatim_token+chapter_route:ch04"}, {"md_atom_id": "md_ch04_a789", "md_file": "knowledge_base/chapters/ch04_general_assumptions.md", "md_atom_type": "SENTENCE", "md_parent_section": "§4.4.11 [Disease Milestones and Disease Milestone Timing Variables]", "md_verbatim": "For an observation triggered by the occurrence of a disease milestone, the relationship of the observation to the disease milestone can be represented using the disease milestone timing variables MIDS, RELMIDS, and MIDSDTC:", "score": 0.4349, "match_basis": "verbatim_token+chapter_route:ch04"}, {"md_atom_id": "md_ch04_a333", "md_file": "knowledge_base/chapters/ch04_general_assumptions.md", "md_atom_type": "SENTENCE", "md_parent_section": "§4.2.7.3 [\"Specify\" Values for Topic Variables]", "md_verbatim": "--TERM should be populated with the description of the event found in the specified text and --PRESP could be used to distinguish between prespecified and free-text responses.", "score": 0.419, "match_basis": "verbatim_token+chapter_route:ch04"}, {"md_atom_id": "md_ch04_a241", "md_file": "knowledge_base/chapters/ch04_general_assumptions.md", "md_atom_type": "SENTENCE", "md_parent_section": "§4.2.6 [Grouping Variables and Categorization]", "md_verbatim": "As such, these variables are often used in IDVAR in a RELREC relationship when there is a dataset-to-dataset relationship.", "score": 0.4143, "match_basis": "verbatim_token+chapter_route:ch04"}], "candidate_count": 5, "zero_candidate": false}
{"pdf_atom_id": "ig34_p0049_a025", "pdf_atom_type": "LIST_ITEM", "pdf_source": "SDTMIG_v3.4", "pdf_page": 49, "pdf_parent_section": "§4.4.11 [Disease Milestones and Disease Milestone Timing Variables]", "pdf_verbatim": "When the subject of the question is the disease milestone itself, RELMIDS may be populated with a value such as \"ENTIRE EVENT\" or \"ENTIRE TREATMENT\".", "figure_ref": null, "candidates": [{"md_atom_id": "md_ch04_a796", "md_file": "knowledge_base/chapters/ch04_general_assumptions.md", "md_atom_type": "LIST_ITEM", "md_parent_section": "§4.4.11 [Disease Milestones and Disease Milestone Timing Variables]", "md_verbatim": "- When the subject of the question is the disease milestone itself, RELMIDS may be populated with a value such as **\"ENTIRE EVENT\"** or **\"ENTIRE TREATMENT\"**", "score": 0.9, "match_basis": "verbatim_token+chapter_route:ch04"}, {"md_atom_id": "md_ch04_a797", "md_file": "knowledge_base/chapters/ch04_general_assumptions.md", "md_atom_type": "LIST_ITEM", "md_parent_section": "§4.4.11 [Disease Milestones and Disease Milestone Timing Variables]", "md_verbatim": "- When the subject of the question is a question about the occurrence of some activity or event related to the disease milestone, RELMIDS acts like an evaluation interval, describing the period of time on which the question is focused:", "score": 0.4983, "match_basis": "verbatim_token+chapter_route:ch04"}, {"md_atom_id": "md_ch04_a799", "md_file": "knowledge_base/chapters/ch04_general_assumptions.md", "md_atom_type": "LIST_ITEM", "md_parent_section": "§4.4.11 [Disease Milestones and Disease Milestone Timing Variables]", "md_verbatim": "  - RELMIDS would be \"DURING\" for questions about things that may have occurred while an event or intervention disease milestone was in progress", "score": 0.462, "match_basis": "verbatim_token+chapter_route:ch04"}, {"md_atom_id": "md_ch04_a800", "md_file": "knowledge_base/chapters/ch04_general_assumptions.md", "md_atom_type": "LIST_ITEM", "md_parent_section": "§4.4.11 [Disease Milestones and Disease Milestone Timing Variables]", "md_verbatim": "  - For sequelae of a disease milestone, RELMIDS would have a value such as \"AT DISCHARGE\" or \"WEEK AFTER\", or simply \"AFTER\"", "score": 0.4586, "match_basis": "verbatim_token+chapter_route:ch04"}, {"md_atom_id": "md_ch04_a798", "md_file": "knowledge_base/chapters/ch04_general_assumptions.md", "md_atom_type": "LIST_ITEM", "md_parent_section": "§4.4.11 [Disease Milestones and Disease Milestone Timing Variables]", "md_verbatim": "  - For questions about a possible cause of an event or about the indication for a treatment, RELMIDS would have a value such as \"WEEK PRIOR\" or \"IMMEDIATELY BEFORE\", or even just \"BEFORE\"", "score": 0.4558, "match_basis": "verbatim_token+chapter_route:ch04"}], "candidate_count": 5, "zero_candidate": false}
{"pdf_atom_id": "ig34_p0049_a026", "pdf_atom_type": "LIST_ITEM", "pdf_source": "SDTMIG_v3.4", "pdf_page": 49, "pdf_parent_section": "§4.4.11 [Disease Milestones and Disease Milestone Timing Variables]", "pdf_verbatim": "When the subject of the question is a question about the occurrence of some activity or event related to the disease milestone, RELMIDS acts like an evaluation interval, describing the period of time on which the question is focused.", "figure_ref": null, "candidates": [{"md_atom_id": "md_ch04_a797", "md_file": "knowledge_base/chapters/ch04_general_assumptions.md", "md_atom_type": "LIST_ITEM", "md_parent_section": "§4.4.11 [Disease Milestones and Disease Milestone Timing Variables]", "md_verbatim": "- When the subject of the question is a question about the occurrence of some activity or event related to the disease milestone, RELMIDS acts like an evaluation interval, describing the period of time on which the question is focused:", "score": 0.9, "match_basis": "verbatim_token+chapter_route:ch04"}, {"md_atom_id": "md_ch04_a796", "md_file": "knowledge_base/chapters/ch04_general_assumptions.md", "md_atom_type": "LIST_ITEM", "md_parent_section": "§4.4.11 [Disease Milestones and Disease Milestone Timing Variables]", "md_verbatim": "- When the subject of the question is the disease milestone itself, RELMIDS may be populated with a value such as **\"ENTIRE EVENT\"** or **\"ENTIRE TREATMENT\"**", "score": 0.4983, "match_basis": "verbatim_token+chapter_route:ch04"}, {"md_atom_id": "md_ch04_a799", "md_file": "knowledge_base/chapters/ch04_general_assumptions.md", "md_atom_type": "LIST_ITEM", "md_parent_section": "§4.4.11 [Disease Milestones and Disease Milestone Timing Variables]", "md_verbatim": "  - RELMIDS would be \"DURING\" for questions about things that may have occurred while an event or intervention disease milestone was in progress", "score": 0.4966, "match_basis": "verbatim_token+chapter_route:ch04"}, {"md_atom_id": "md_ch04_a808", "md_file": "knowledge_base/chapters/ch04_general_assumptions.md", "md_atom_type": "LIST_ITEM", "md_parent_section": "§4.4.11 [Disease Milestones and Disease Milestone Timing Variables]", "md_verbatim": "- The timing variables for start and end of an event or intervention relative to the study reference period (--STRF and --ENRF) or relative to a reference time point (--STRTPT and --STTPT, --ENRTPT and --ENTPT) can be used in conjunction with disease milestone variables", "score": 0.4739, "match_basis": "verbatim_token+chapter_route:ch04"}, {"md_atom_id": "md_ch04_a812", "md_file": "knowledge_base/chapters/ch04_general_assumptions.md", "md_atom_type": "LIST_ITEM", "md_parent_section": "§4.4.11 [Disease Milestones and Disease Milestone Timing Variables]", "md_verbatim": "- RELREC indicates that there is a relationship between records or datasets, but not the nature of the relationship; records with the same MIDS value are related to the same disease milestone", "score": 0.4111, "match_basis": "verbatim_token+chapter_route:ch04"}], "candidate_count": 5, "zero_candidate": false}
{"pdf_atom_id": "ig34_p0050_a001", "pdf_atom_type": "LIST_ITEM", "pdf_source": "SDTMIG_v3.4", "pdf_page": 50, "pdf_parent_section": "§4.4.11 [Disease Milestones and Disease Milestone Timing Variables]", "pdf_verbatim": "For questions about a possible cause of an event or about the indication for a treatment, RELMIDS would have a value such as \"WEEK PRIOR\" or \"IMMEDIATELY BEFORE\", or even just \"BEFORE\".", "figure_ref": null, "candidates": [{"md_atom_id": "md_ch04_a798", "md_file": "knowledge_base/chapters/ch04_general_assumptions.md", "md_atom_type": "LIST_ITEM", "md_parent_section": "§4.4.11 [Disease Milestones and Disease Milestone Timing Variables]", "md_verbatim": "  - For questions about a possible cause of an event or about the indication for a treatment, RELMIDS would have a value such as \"WEEK PRIOR\" or \"IMMEDIATELY BEFORE\", or even just \"BEFORE\"", "score": 0.9, "match_basis": "verbatim_token+chapter_route:ch04"}, {"md_atom_id": "md_ch04_a796", "md_file": "knowledge_base/chapters/ch04_general_assumptions.md", "md_atom_type": "LIST_ITEM", "md_parent_section": "§4.4.11 [Disease Milestones and Disease Milestone Timing Variables]", "md_verbatim": "- When the subject of the question is the disease milestone itself, RELMIDS may be populated with a value such as **\"ENTIRE EVENT\"** or **\"ENTIRE TREATMENT\"**", "score": 0.4558, "match_basis": "verbatim_token+chapter_route:ch04"}, {"md_atom_id": "md_ch04_a052", "md_file": "knowledge_base/chapters/ch04_general_assumptions.md", "md_atom_type": "LIST_ITEM", "md_parent_section": "§4.1.7 [Splitting Domains]", "md_verbatim": "- A Findings About (FA) domain (see Section 6.4.4, Findings About Events or Interventions) may alternatively be split based on the domain of the value in --OBJ. For example, FACM would store findings about Concomitant/Prior Medications (CM) records. See Section 6.4.2, Naming Findings About Domains, for more details.", "score": 0.4304, "match_basis": "verbatim_token+chapter_route:ch04"}, {"md_atom_id": "md_ch04_a799", "md_file": "knowledge_base/chapters/ch04_general_assumptions.md", "md_atom_type": "LIST_ITEM", "md_parent_section": "§4.4.11 [Disease Milestones and Disease Milestone Timing Variables]", "md_verbatim": "  - RELMIDS would be \"DURING\" for questions about things that may have occurred while an event or intervention disease milestone was in progress", "score": 0.4286, "match_basis": "verbatim_token+chapter_route:ch04"}, {"md_atom_id": "md_ch04_a800", "md_file": "knowledge_base/chapters/ch04_general_assumptions.md", "md_atom_type": "LIST_ITEM", "md_parent_section": "§4.4.11 [Disease Milestones and Disease Milestone Timing Variables]", "md_verbatim": "  - For sequelae of a disease milestone, RELMIDS would have a value such as \"AT DISCHARGE\" or \"WEEK AFTER\", or simply \"AFTER\"", "score": 0.4212, "match_basis": "verbatim_token+chapter_route:ch04"}], "candidate_count": 5, "zero_candidate": false}
{"pdf_atom_id": "ig34_p0050_a002", "pdf_atom_type": "LIST_ITEM", "pdf_source": "SDTMIG_v3.4", "pdf_page": 50, "pdf_parent_section": "§4.4.11 [Disease Milestones and Disease Milestone Timing Variables]", "pdf_verbatim": "RELMIDS would be \"DURING\" for questions about things that may have occurred while an event or intervention disease milestone was in progress.", "figure_ref": null, "candidates": [{"md_atom_id": "md_ch04_a799", "md_file": "knowledge_base/chapters/ch04_general_assumptions.md", "md_atom_type": "LIST_ITEM", "md_parent_section": "§4.4.11 [Disease Milestones and Disease Milestone Timing Variables]", "md_verbatim": "  - RELMIDS would be \"DURING\" for questions about things that may have occurred while an event or intervention disease milestone was in progress", "score": 0.9, "match_basis": "verbatim_token+chapter_route:ch04"}, {"md_atom_id": "md_ch04_a797", "md_file": "knowledge_base/chapters/ch04_general_assumptions.md", "md_atom_type": "LIST_ITEM", "md_parent_section": "§4.4.11 [Disease Milestones and Disease Milestone Timing Variables]", "md_verbatim": "- When the subject of the question is a question about the occurrence of some activity or event related to the disease milestone, RELMIDS acts like an evaluation interval, describing the period of time on which the question is focused:", "score": 0.4966, "match_basis": "verbatim_token+chapter_route:ch04"}, {"md_atom_id": "md_ch04_a800", "md_file": "knowledge_base/chapters/ch04_general_assumptions.md", "md_atom_type": "LIST_ITEM", "md_parent_section": "§4.4.11 [Disease Milestones and Disease Milestone Timing Variables]", "md_verbatim": "  - For sequelae of a disease milestone, RELMIDS would have a value such as \"AT DISCHARGE\" or \"WEEK AFTER\", or simply \"AFTER\"", "score": 0.4667, "match_basis": "verbatim_token+chapter_route:ch04"}, {"md_atom_id": "md_ch04_a796", "md_file": "knowledge_base/chapters/ch04_general_assumptions.md", "md_atom_type": "LIST_ITEM", "md_parent_section": "§4.4.11 [Disease Milestones and Disease Milestone Timing Variables]", "md_verbatim": "- When the subject of the question is the disease milestone itself, RELMIDS may be populated with a value such as **\"ENTIRE EVENT\"** or **\"ENTIRE TREATMENT\"**", "score": 0.462, "match_basis": "verbatim_token+chapter_route:ch04"}, {"md_atom_id": "md_ch04_a794", "md_file": "knowledge_base/chapters/ch04_general_assumptions.md", "md_atom_type": "SENTENCE", "md_parent_section": "§4.4.11 [Disease Milestones and Disease Milestone Timing Variables]", "md_verbatim": "**Special use of RELMIDS for findings about a disease milestone:** When a disease milestone is an event or intervention, some data triggered by the disease milestone may be modeled as findings about the disease milestone (i.e., FAOBJ is the disease milestone).", "score": 0.4327, "match_basis": "verbatim_token+chapter_route:ch04"}], "candidate_count": 5, "zero_candidate": false}
{"pdf_atom_id": "ig34_p0050_a003", "pdf_atom_type": "LIST_ITEM", "pdf_source": "SDTMIG_v3.4", "pdf_page": 50, "pdf_parent_section": "§4.4.11 [Disease Milestones and Disease Milestone Timing Variables]", "pdf_verbatim": "For sequelae of a disease milestone, RELMIDS would have a value such as \"AT DISCHARGE\" or \"WEEK AFTER\", or simply \"AFTER\".", "figure_ref": null, "candidates": [{"md_atom_id": "md_ch04_a800", "md_file": "knowledge_base/chapters/ch04_general_assumptions.md", "md_atom_type": "LIST_ITEM", "md_parent_section": "§4.4.11 [Disease Milestones and Disease Milestone Timing Variables]", "md_verbatim": "  - For sequelae of a disease milestone, RELMIDS would have a value such as \"AT DISCHARGE\" or \"WEEK AFTER\", or simply \"AFTER\"", "score": 0.9, "match_basis": "verbatim_token+chapter_route:ch04"}, {"md_atom_id": "md_ch04_a799", "md_file": "knowledge_base/chapters/ch04_general_assumptions.md", "md_atom_type": "LIST_ITEM", "md_parent_section": "§4.4.11 [Disease Milestones and Disease Milestone Timing Variables]", "md_verbatim": "  - RELMIDS would be \"DURING\" for questions about things that may have occurred while an event or intervention disease milestone was in progress", "score": 0.4667, "match_basis": "verbatim_token+chapter_route:ch04"}, {"md_atom_id": "md_ch04_a796", "md_file": "knowledge_base/chapters/ch04_general_assumptions.md", "md_atom_type": "LIST_ITEM", "md_parent_section": "§4.4.11 [Disease Milestones and Disease Milestone Timing Variables]", "md_verbatim": "- When the subject of the question is the disease milestone itself, RELMIDS may be populated with a value such as **\"ENTIRE EVENT\"** or **\"ENTIRE TREATMENT\"**", "score": 0.4586, "match_basis": "verbatim_token+chapter_route:ch04"}, {"md_atom_id": "md_ch04_a812", "md_file": "knowledge_base/chapters/ch04_general_assumptions.md", "md_atom_type": "LIST_ITEM", "md_parent_section": "§4.4.11 [Disease Milestones and Disease Milestone Timing Variables]", "md_verbatim": "- RELREC indicates that there is a relationship between records or datasets, but not the nature of the relationship; records with the same MIDS value are related to the same disease milestone", "score": 0.4237, "match_basis": "verbatim_token+chapter_route:ch04"}, {"md_atom_id": "md_ch04_a798", "md_file": "knowledge_base/chapters/ch04_general_assumptions.md", "md_atom_type": "LIST_ITEM", "md_parent_section": "§4.4.11 [Disease Milestones and Disease Milestone Timing Variables]", "md_verbatim": "  - For questions about a possible cause of an event or about the indication for a treatment, RELMIDS would have a value such as \"WEEK PRIOR\" or \"IMMEDIATELY BEFORE\", or even just \"BEFORE\"", "score": 0.4212, "match_basis": "verbatim_token+chapter_route:ch04"}], "candidate_count": 5, "zero_candidate": false}
{"pdf_atom_id": "ig34_p0050_a004", "pdf_atom_type": "HEADING", "pdf_source": "SDTMIG_v3.4", "pdf_page": 50, "pdf_parent_section": "§4.4.11 [Disease Milestones and Disease Milestone Timing Variables]", "pdf_verbatim": "Use of Disease Milestone Timing Variables with Other Timing Variables", "figure_ref": null, "candidates": [{"md_atom_id": "md_ch04_a801", "md_file": "knowledge_base/chapters/ch04_general_assumptions.md", "md_atom_type": "HEADING", "md_parent_section": "§4.4.11 [Disease Milestones and Disease Milestone Timing Variables]", "md_verbatim": "#### Use of Disease Milestone Timing Variables with Other Timing Variables", "score": 0.9, "match_basis": "verbatim_token+chapter_route:ch04"}, {"md_atom_id": "md_ch04_a775", "md_file": "knowledge_base/chapters/ch04_general_assumptions.md", "md_atom_type": "HEADING", "md_parent_section": "§4.4 [Use of Timing Variables]", "md_verbatim": "### 4.4.11 Disease Milestones and Disease Milestone Timing Variables", "score": 0.74, "match_basis": "verbatim_token+chapter_route:ch04"}, {"md_atom_id": "md_ch04_a781", "md_file": "knowledge_base/chapters/ch04_general_assumptions.md", "md_atom_type": "HEADING", "md_parent_section": "§4.4.11 [Disease Milestones and Disease Milestone Timing Variables]", "md_verbatim": "#### Disease Milestone Naming (MIDS)", "score": 0.5625, "match_basis": "verbatim_token+chapter_route:ch04"}, {"md_atom_id": "md_ch04_a787", "md_file": "knowledge_base/chapters/ch04_general_assumptions.md", "md_atom_type": "HEADING", "md_parent_section": "§4.4.11 [Disease Milestones and Disease Milestone Timing Variables]", "md_verbatim": "#### Timing Relative to a Disease Milestone (MIDS, RELMIDS, MIDSDTC)", "score": 0.5341, "match_basis": "verbatim_token+chapter_route:ch04"}, {"md_atom_id": "md_ch04_a809", "md_file": "knowledge_base/chapters/ch04_general_assumptions.md", "md_atom_type": "HEADING", "md_parent_section": "§4.4.11 [Disease Milestones and Disease Milestone Timing Variables]", "md_verbatim": "#### Linking and Disease Milestones", "score": 0.5294, "match_basis": "verbatim_token+chapter_route:ch04"}], "candidate_count": 5, "zero_candidate": false}
{"pdf_atom_id": "ig34_p0050_a005", "pdf_atom_type": "SENTENCE", "pdf_source": "SDTMIG_v3.4", "pdf_page": 50, "pdf_parent_section": "§4.4.11 [Disease Milestones and Disease Milestone Timing Variables]", "pdf_verbatim": "The disease milestone timing variables provide timing relative to an activity or event that has been identified, for the particular study, as a disease milestone.", "figure_ref": null, "candidates": [{"md_atom_id": "md_ch04_a802", "md_file": "knowledge_base/chapters/ch04_general_assumptions.md", "md_atom_type": "SENTENCE", "md_parent_section": "§4.4.11 [Disease Milestones and Disease Milestone Timing Variables]", "md_verbatim": "The disease milestone timing variables provide timing relative to an activity or event that has been identified, for the particular study, as a disease milestone.", "score": 0.9, "match_basis": "verbatim_token+chapter_route:ch04"}, {"md_atom_id": "md_ch04_a776", "md_file": "knowledge_base/chapters/ch04_general_assumptions.md", "md_atom_type": "SENTENCE", "md_parent_section": "§4.4.11 [Disease Milestones and Disease Milestone Timing Variables]", "md_verbatim": "A disease milestone is an event or activity that can be anticipated in the course of a disease, but whose timing is not controlled by the study schedule.", "score": 0.5062, "match_basis": "verbatim_token+chapter_route:ch04"}, {"md_atom_id": "md_ch04_a780", "md_file": "knowledge_base/chapters/ch04_general_assumptions.md", "md_atom_type": "SENTENCE", "md_parent_section": "§4.4.11 [Disease Milestones and Disease Milestone Timing Variables]", "md_verbatim": "If a study does not have disease milestones, the TM and SM domains will not be present and the disease milestone timing variables may not be included in other domains.", "score": 0.4761, "match_basis": "verbatim_token+chapter_route:ch04"}, {"md_atom_id": "md_ch04_a789", "md_file": "knowledge_base/chapters/ch04_general_assumptions.md", "md_atom_type": "SENTENCE", "md_parent_section": "§4.4.11 [Disease Milestones and Disease Milestone Timing Variables]", "md_verbatim": "For an observation triggered by the occurrence of a disease milestone, the relationship of the observation to the disease milestone can be represented using the disease milestone timing variables MIDS, RELMIDS, and MIDSDTC:", "score": 0.4568, "match_basis": "verbatim_token+chapter_route:ch04"}, {"md_atom_id": "md_ch04_a803", "md_file": "knowledge_base/chapters/ch04_general_assumptions.md", "md_atom_type": "SENTENCE", "md_parent_section": "§4.4.11 [Disease Milestones and Disease Milestone Timing Variables]", "md_verbatim": "Their use does not preclude the use of variables that collect actual date/times or timing relative to the study schedule:", "score": 0.4516, "match_basis": "verbatim_token+chapter_route:ch04"}], "candidate_count": 5, "zero_candidate": false}
{"pdf_atom_id": "ig34_p0050_a006", "pdf_atom_type": "SENTENCE", "pdf_source": "SDTMIG_v3.4", "pdf_page": 50, "pdf_parent_section": "§4.4.11 [Disease Milestones and Disease Milestone Timing Variables]", "pdf_verbatim": "Their use does not preclude the use of variables that collect actual date/times or timing relative to the study schedule.", "figure_ref": null, "candidates": [{"md_atom_id": "md_ch04_a803", "md_file": "knowledge_base/chapters/ch04_general_assumptions.md", "md_atom_type": "SENTENCE", "md_parent_section": "§4.4.11 [Disease Milestones and Disease Milestone Timing Variables]", "md_verbatim": "Their use does not preclude the use of variables that collect actual date/times or timing relative to the study schedule:", "score": 0.9, "match_basis": "verbatim_token+chapter_route:ch04"}, {"md_atom_id": "md_ch04_a780", "md_file": "knowledge_base/chapters/ch04_general_assumptions.md", "md_atom_type": "SENTENCE", "md_parent_section": "§4.4.11 [Disease Milestones and Disease Milestone Timing Variables]", "md_verbatim": "If a study does not have disease milestones, the TM and SM domains will not be present and the disease milestone timing variables may not be included in other domains.", "score": 0.4535, "match_basis": "verbatim_token+chapter_route:ch04"}, {"md_atom_id": "md_ch04_a802", "md_file": "knowledge_base/chapters/ch04_general_assumptions.md", "md_atom_type": "SENTENCE", "md_parent_section": "§4.4.11 [Disease Milestones and Disease Milestone Timing Variables]", "md_verbatim": "The disease milestone timing variables provide timing relative to an activity or event that has been identified, for the particular study, as a disease milestone.", "score": 0.4516, "match_basis": "verbatim_token+chapter_route:ch04"}, {"md_atom_id": "md_ch04_a776", "md_file": "knowledge_base/chapters/ch04_general_assumptions.md", "md_atom_type": "SENTENCE", "md_parent_section": "§4.4.11 [Disease Milestones and Disease Milestone Timing Variables]", "md_verbatim": "A disease milestone is an event or activity that can be anticipated in the course of a disease, but whose timing is not controlled by the study schedule.", "score": 0.4453, "match_basis": "verbatim_token+chapter_route:ch04"}, {"md_atom_id": "md_ch04_a005", "md_file": "knowledge_base/chapters/ch04_general_assumptions.md", "md_atom_type": "SENTENCE", "md_parent_section": "§4.0 [Overview]", "md_verbatim": "It covers general domain assumptions, general variable assumptions, coding and controlled terminology assumptions, actual and relative time assumptions, and other assumptions.", "score": 0.4437, "match_basis": "verbatim_token+chapter_route:ch04"}], "candidate_count": 5, "zero_candidate": false}
{"pdf_atom_id": "ig34_p0050_a007", "pdf_atom_type": "LIST_ITEM", "pdf_source": "SDTMIG_v3.4", "pdf_page": 50, "pdf_parent_section": "§4.4.11 [Disease Milestones and Disease Milestone Timing Variables]", "pdf_verbatim": "The use of actual date/times is unaffected. The disease milestone timing variables may provide timing information in cases where actual date/times are unavailable, particularly for pre-study disease milestones. When the question text for an observation references a disease milestone but a separate date for the observation is not collected, the disease milestone timing variables should be populated but the actual date/s should not be imputed by populating them with the date of the disease milestone. Examples of such questions include disease stage at initial diagnosis of disease under study, or treatment for most recent disease episode.", "figure_ref": null, "candidates": [{"md_atom_id": "md_ch04_a804", "md_file": "knowledge_base/chapters/ch04_general_assumptions.md", "md_atom_type": "LIST_ITEM", "md_parent_section": "§4.4.11 [Disease Milestones and Disease Milestone Timing Variables]", "md_verbatim": "- The use of actual date/times is unaffected — disease milestone timing variables may provide timing information in cases where actual date/times are unavailable, particularly for pre-study disease milestones", "score": 0.5811, "match_basis": "verbatim_token+chapter_route:ch04"}, {"md_atom_id": "md_ch04_a228", "md_file": "knowledge_base/chapters/ch04_general_assumptions.md", "md_atom_type": "LIST_ITEM", "md_parent_section": "§4.2.6 [Grouping Variables and Categorization]", "md_verbatim": "   a. Cases where different domains in the same general observation class contain similar conceptual information. Adverse Events (AE), Medical History (MH), and Clinical Events (CE), for example, are conceptually the same data, the only differences being when the event started relative to the study start and whether the event is considered a regulatory-reportable adverse event in the study. Neurotoxicities collected in oncology trials both as separate Medical History CRFs (MH domain) and Adverse Event CRFs (AE domain) could both identify/collect \"Paresthesia of the left arm\". In both domains, the --CAT variable could have the value of \"NEUROTOXICITY\".", "score": 0.4644, "match_basis": "verbatim_token+chapter_route:ch04"}, {"md_atom_id": "md_ch04_a805", "md_file": "knowledge_base/chapters/ch04_general_assumptions.md", "md_atom_type": "LIST_ITEM", "md_parent_section": "§4.4.11 [Disease Milestones and Disease Milestone Timing Variables]", "md_verbatim": "- Study-day variables should be populated wherever complete actual date/times are populated, including negative study days for pre-study observations", "score": 0.4634, "match_basis": "verbatim_token+chapter_route:ch04"}, {"md_atom_id": "md_ch04_a806", "md_file": "knowledge_base/chapters/ch04_general_assumptions.md", "md_atom_type": "LIST_ITEM", "md_parent_section": "§4.4.11 [Disease Milestones and Disease Milestone Timing Variables]", "md_verbatim": "- The timing variables EPOCH and TAETORD may be populated for on-study observations associated with disease milestones; however, pre-study disease milestones do not have an associated EPOCH or TAETORD", "score": 0.4523, "match_basis": "verbatim_token+chapter_route:ch04"}, {"md_atom_id": "md_ch04_a1024", "md_file": "knowledge_base/chapters/ch04_general_assumptions.md", "md_atom_type": "LIST_ITEM", "md_parent_section": "§4.5.8 [Accounting for Long-term Follow-up]", "md_verbatim": "3. The disposition of the subject at the time of the final follow-up contact should be stored in DS. Note that overall study conclusion is the point where any contact with the subject ceases, which in this example is also the conclusion of long-term follow-up. The disposition of the subject at the conclusion of the 2-month clinical treatment phase would be stored in DS as the conclusion to that epoch. Long-term follow-up would be represented as a separate epoch. Therefore, in this example the subject could have 3 disposition records in DS, with both the follow-up epoch disposition and the overall study conclusion disposition being collected at the final telephone contact. See Section 6.2.4, Disposition, for detailed assumptions and examples.", "score": 0.4396, "match_basis": "verbatim_token+chapter_route:ch04"}], "candidate_count": 5, "zero_candidate": false}
{"pdf_atom_id": "ig34_p0050_a008", "pdf_atom_type": "LIST_ITEM", "pdf_source": "SDTMIG_v3.4", "pdf_page": 50, "pdf_parent_section": "§4.4.11 [Disease Milestones and Disease Milestone Timing Variables]", "pdf_verbatim": "Study-day variables should be populated wherever complete actual date/times are populated. This includes negative study days for pre-study observations.", "figure_ref": null, "candidates": [{"md_atom_id": "md_ch04_a805", "md_file": "knowledge_base/chapters/ch04_general_assumptions.md", "md_atom_type": "LIST_ITEM", "md_parent_section": "§4.4.11 [Disease Milestones and Disease Milestone Timing Variables]", "md_verbatim": "- Study-day variables should be populated wherever complete actual date/times are populated, including negative study days for pre-study observations", "score": 0.8417, "match_basis": "verbatim_token+chapter_route:ch04"}, {"md_atom_id": "md_ch04_a806", "md_file": "knowledge_base/chapters/ch04_general_assumptions.md", "md_atom_type": "LIST_ITEM", "md_parent_section": "§4.4.11 [Disease Milestones and Disease Milestone Timing Variables]", "md_verbatim": "- The timing variables EPOCH and TAETORD may be populated for on-study observations associated with disease milestones; however, pre-study disease milestones do not have an associated EPOCH or TAETORD", "score": 0.4761, "match_basis": "verbatim_token+chapter_route:ch04"}, {"md_atom_id": "md_ch04_a804", "md_file": "knowledge_base/chapters/ch04_general_assumptions.md", "md_atom_type": "LIST_ITEM", "md_parent_section": "§4.4.11 [Disease Milestones and Disease Milestone Timing Variables]", "md_verbatim": "- The use of actual date/times is unaffected — disease milestone timing variables may provide timing information in cases where actual date/times are unavailable, particularly for pre-study disease milestones", "score": 0.4488, "match_basis": "verbatim_token+chapter_route:ch04"}, {"md_atom_id": "md_ch04_a618", "md_file": "knowledge_base/chapters/ch04_general_assumptions.md", "md_atom_type": "LIST_ITEM", "md_parent_section": "§4.4.5 [Clinical Encounters and Visits]", "md_verbatim": "- VISITDY must **not** be populated for unplanned visits; VISITDY is, by definition, the planned study day of visit. The actual study day of an unplanned visit belongs in a --DY variable.", "score": 0.4485, "match_basis": "verbatim_token+chapter_route:ch04"}, {"md_atom_id": "md_ch04_a731", "md_file": "knowledge_base/chapters/ch04_general_assumptions.md", "md_atom_type": "LIST_ITEM", "md_parent_section": "§4.4.10 [Representing Time Points]", "md_verbatim": "2. A trial might have time points that do not relate to any visit, such as time points relative to a dose of drug self-administered by the subject at home. (Visit variables would not be included, but --TPTREF and other time point variables would be populated.)", "score": 0.4366, "match_basis": "verbatim_token+chapter_route:ch04"}], "candidate_count": 5, "zero_candidate": false}
{"pdf_atom_id": "ig34_p0050_a009", "pdf_atom_type": "LIST_ITEM", "pdf_source": "SDTMIG_v3.4", "pdf_page": 50, "pdf_parent_section": "§4.4.11 [Disease Milestones and Disease Milestone Timing Variables]", "pdf_verbatim": "The timing variables EPOCH and TAETORD (Planned Order of Element within Arm) may be populated for on-study observations associated with disease milestones. However, pre-study disease milestones—those which occur before the start of study participation when informed consent is obtained—by definition do not have an associated EPOCH or TAETORD.", "figure_ref": null, "candidates": [{"md_atom_id": "md_ch04_a806", "md_file": "knowledge_base/chapters/ch04_general_assumptions.md", "md_atom_type": "LIST_ITEM", "md_parent_section": "§4.4.11 [Disease Milestones and Disease Milestone Timing Variables]", "md_verbatim": "- The timing variables EPOCH and TAETORD may be populated for on-study observations associated with disease milestones; however, pre-study disease milestones do not have an associated EPOCH or TAETORD", "score": 0.6323, "match_basis": "verbatim_token+chapter_route:ch04"}, {"md_atom_id": "md_ch04_a813", "md_file": "knowledge_base/chapters/ch04_general_assumptions.md", "md_atom_type": "LIST_ITEM", "md_parent_section": "§4.4.11 [Disease Milestones and Disease Milestone Timing Variables]", "md_verbatim": "- When disease milestones are defined, it is not necessary to create RELREC records to establish relationships between observations associated with a disease milestone", "score": 0.4667, "match_basis": "verbatim_token+chapter_route:ch04"}, {"md_atom_id": "md_ch04_a804", "md_file": "knowledge_base/chapters/ch04_general_assumptions.md", "md_atom_type": "LIST_ITEM", "md_parent_section": "§4.4.11 [Disease Milestones and Disease Milestone Timing Variables]", "md_verbatim": "- The use of actual date/times is unaffected — disease milestone timing variables may provide timing information in cases where actual date/times are unavailable, particularly for pre-study disease milestones", "score": 0.4571, "match_basis": "verbatim_token+chapter_route:ch04"}, {"md_atom_id": "md_ch04_a808", "md_file": "knowledge_base/chapters/ch04_general_assumptions.md", "md_atom_type": "LIST_ITEM", "md_parent_section": "§4.4.11 [Disease Milestones and Disease Milestone Timing Variables]", "md_verbatim": "- The timing variables for start and end of an event or intervention relative to the study reference period (--STRF and --ENRF) or relative to a reference time point (--STRTPT and --STTPT, --ENRTPT and --ENTPT) can be used in conjunction with disease milestone variables", "score": 0.4406, "match_basis": "verbatim_token+chapter_route:ch04"}, {"md_atom_id": "md_ch04_a228", "md_file": "knowledge_base/chapters/ch04_general_assumptions.md", "md_atom_type": "LIST_ITEM", "md_parent_section": "§4.2.6 [Grouping Variables and Categorization]", "md_verbatim": "   a. Cases where different domains in the same general observation class contain similar conceptual information. Adverse Events (AE), Medical History (MH), and Clinical Events (CE), for example, are conceptually the same data, the only differences being when the event started relative to the study start and whether the event is considered a regulatory-reportable adverse event in the study. Neurotoxicities collected in oncology trials both as separate Medical History CRFs (MH domain) and Adverse Event CRFs (AE domain) could both identify/collect \"Paresthesia of the left arm\". In both domains, the --CAT variable could have the value of \"NEUROTOXICITY\".", "score": 0.4294, "match_basis": "verbatim_token+chapter_route:ch04"}], "candidate_count": 5, "zero_candidate": false}
{"pdf_atom_id": "ig34_p0050_a010", "pdf_atom_type": "LIST_ITEM", "pdf_source": "SDTMIG_v3.4", "pdf_page": 50, "pdf_parent_section": "§4.4.11 [Disease Milestones and Disease Milestone Timing Variables]", "pdf_verbatim": "Visit variables are expected in many Findings domains, but findings triggered by the occurrence of a study milestone might not occur at a scheduled visit.", "figure_ref": null, "candidates": [{"md_atom_id": "md_ch04_a807", "md_file": "knowledge_base/chapters/ch04_general_assumptions.md", "md_atom_type": "LIST_ITEM", "md_parent_section": "§4.4.11 [Disease Milestones and Disease Milestone Timing Variables]", "md_verbatim": "- Visit variables are expected in many Findings domains, but findings triggered by a disease milestone may not occur at a scheduled visit; practices for populating VISITNUM for an unscheduled visit should be followed", "score": 0.6204, "match_basis": "verbatim_token+chapter_route:ch04"}, {"md_atom_id": "md_ch04_a804", "md_file": "knowledge_base/chapters/ch04_general_assumptions.md", "md_atom_type": "LIST_ITEM", "md_parent_section": "§4.4.11 [Disease Milestones and Disease Milestone Timing Variables]", "md_verbatim": "- The use of actual date/times is unaffected — disease milestone timing variables may provide timing information in cases where actual date/times are unavailable, particularly for pre-study disease milestones", "score": 0.4095, "match_basis": "verbatim_token+chapter_route:ch04"}, {"md_atom_id": "md_ch04_a731", "md_file": "knowledge_base/chapters/ch04_general_assumptions.md", "md_atom_type": "LIST_ITEM", "md_parent_section": "§4.4.10 [Representing Time Points]", "md_verbatim": "2. A trial might have time points that do not relate to any visit, such as time points relative to a dose of drug self-administered by the subject at home. (Visit variables would not be included, but --TPTREF and other time point variables would be populated.)", "score": 0.4039, "match_basis": "verbatim_token+chapter_route:ch04"}, {"md_atom_id": "md_ch04_a231", "md_file": "knowledge_base/chapters/ch04_general_assumptions.md", "md_atom_type": "LIST_ITEM", "md_parent_section": "§4.2.6 [Grouping Variables and Categorization]", "md_verbatim": "      - Information about the occurrence, start, stop, and duration of the test (in the Procedures (PR) domain)", "score": 0.4021, "match_basis": "verbatim_token+chapter_route:ch04"}, {"md_atom_id": "md_ch04_a806", "md_file": "knowledge_base/chapters/ch04_general_assumptions.md", "md_atom_type": "LIST_ITEM", "md_parent_section": "§4.4.11 [Disease Milestones and Disease Milestone Timing Variables]", "md_verbatim": "- The timing variables EPOCH and TAETORD may be populated for on-study observations associated with disease milestones; however, pre-study disease milestones do not have an associated EPOCH or TAETORD", "score": 0.4008, "match_basis": "verbatim_token+chapter_route:ch04"}], "candidate_count": 5, "zero_candidate": false}
{"pdf_atom_id": "ig34_p0050_a011", "pdf_atom_type": "LIST_ITEM", "pdf_source": "SDTMIG_v3.4", "pdf_page": 50, "pdf_parent_section": "§4.4.11 [Disease Milestones and Disease Milestone Timing Variables]", "pdf_verbatim": "Findings associated with pre-study disease milestones are often collected at a screening visit, although the test was not performed at that visit.", "figure_ref": null, "candidates": [{"md_atom_id": "md_ch04_a806", "md_file": "knowledge_base/chapters/ch04_general_assumptions.md", "md_atom_type": "LIST_ITEM", "md_parent_section": "§4.4.11 [Disease Milestones and Disease Milestone Timing Variables]", "md_verbatim": "- The timing variables EPOCH and TAETORD may be populated for on-study observations associated with disease milestones; however, pre-study disease milestones do not have an associated EPOCH or TAETORD", "score": 0.4661, "match_basis": "verbatim_token+chapter_route:ch04"}, {"md_atom_id": "md_ch04_a813", "md_file": "knowledge_base/chapters/ch04_general_assumptions.md", "md_atom_type": "LIST_ITEM", "md_parent_section": "§4.4.11 [Disease Milestones and Disease Milestone Timing Variables]", "md_verbatim": "- When disease milestones are defined, it is not necessary to create RELREC records to establish relationships between observations associated with a disease milestone", "score": 0.44, "match_basis": "verbatim_token+chapter_route:ch04"}, {"md_atom_id": "md_ch04_a812", "md_file": "knowledge_base/chapters/ch04_general_assumptions.md", "md_atom_type": "LIST_ITEM", "md_parent_section": "§4.4.11 [Disease Milestones and Disease Milestone Timing Variables]", "md_verbatim": "- RELREC indicates that there is a relationship between records or datasets, but not the nature of the relationship; records with the same MIDS value are related to the same disease milestone", "score": 0.4316, "match_basis": "verbatim_token+chapter_route:ch04"}, {"md_atom_id": "md_ch04_a807", "md_file": "knowledge_base/chapters/ch04_general_assumptions.md", "md_atom_type": "LIST_ITEM", "md_parent_section": "§4.4.11 [Disease Milestones and Disease Milestone Timing Variables]", "md_verbatim": "- Visit variables are expected in many Findings domains, but findings triggered by a disease milestone may not occur at a scheduled visit; practices for populating VISITNUM for an unscheduled visit should be followed", "score": 0.4308, "match_basis": "verbatim_token+chapter_route:ch04"}, {"md_atom_id": "md_ch04_a804", "md_file": "knowledge_base/chapters/ch04_general_assumptions.md", "md_atom_type": "LIST_ITEM", "md_parent_section": "§4.4.11 [Disease Milestones and Disease Milestone Timing Variables]", "md_verbatim": "- The use of actual date/times is unaffected — disease milestone timing variables may provide timing information in cases where actual date/times are unavailable, particularly for pre-study disease milestones", "score": 0.4228, "match_basis": "verbatim_token+chapter_route:ch04"}], "candidate_count": 5, "zero_candidate": false}
{"pdf_atom_id": "ig34_p0050_a012", "pdf_atom_type": "LIST_ITEM", "pdf_source": "SDTMIG_v3.4", "pdf_page": 50, "pdf_parent_section": "§4.4.11 [Disease Milestones and Disease Milestone Timing Variables]", "pdf_verbatim": "For findings associated with on-study disease milestones but not conducted at a scheduled visit, practices for populating VISITNUM as for an unscheduled visit should be followed.", "figure_ref": null, "candidates": [{"md_atom_id": "md_ch04_a807", "md_file": "knowledge_base/chapters/ch04_general_assumptions.md", "md_atom_type": "LIST_ITEM", "md_parent_section": "§4.4.11 [Disease Milestones and Disease Milestone Timing Variables]", "md_verbatim": "- Visit variables are expected in many Findings domains, but findings triggered by a disease milestone may not occur at a scheduled visit; practices for populating VISITNUM for an unscheduled visit should be followed", "score": 0.6413, "match_basis": "verbatim_token+chapter_route:ch04"}, {"md_atom_id": "md_ch04_a806", "md_file": "knowledge_base/chapters/ch04_general_assumptions.md", "md_atom_type": "LIST_ITEM", "md_parent_section": "§4.4.11 [Disease Milestones and Disease Milestone Timing Variables]", "md_verbatim": "- The timing variables EPOCH and TAETORD may be populated for on-study observations associated with disease milestones; however, pre-study disease milestones do not have an associated EPOCH or TAETORD", "score": 0.4862, "match_basis": "verbatim_token+chapter_route:ch04"}, {"md_atom_id": "md_ch04_a813", "md_file": "knowledge_base/chapters/ch04_general_assumptions.md", "md_atom_type": "LIST_ITEM", "md_parent_section": "§4.4.11 [Disease Milestones and Disease Milestone Timing Variables]", "md_verbatim": "- When disease milestones are defined, it is not necessary to create RELREC records to establish relationships between observations associated with a disease milestone", "score": 0.4302, "match_basis": "verbatim_token+chapter_route:ch04"}, {"md_atom_id": "md_ch04_a617", "md_file": "knowledge_base/chapters/ch04_general_assumptions.md", "md_atom_type": "LIST_ITEM", "md_parent_section": "§4.4.5 [Clinical Encounters and Visits]", "md_verbatim": "- VISIT may be left null or may be populated with a generic value (e.g., \"Unscheduled\") for all unplanned visits, or individual values may be assigned to different unplanned visits.", "score": 0.425, "match_basis": "verbatim_token+chapter_route:ch04"}, {"md_atom_id": "md_ch04_a804", "md_file": "knowledge_base/chapters/ch04_general_assumptions.md", "md_atom_type": "LIST_ITEM", "md_parent_section": "§4.4.11 [Disease Milestones and Disease Milestone Timing Variables]", "md_verbatim": "- The use of actual date/times is unaffected — disease milestone timing variables may provide timing information in cases where actual date/times are unavailable, particularly for pre-study disease milestones", "score": 0.4095, "match_basis": "verbatim_token+chapter_route:ch04"}], "candidate_count": 5, "zero_candidate": false}
{"pdf_atom_id": "ig34_p0050_a013", "pdf_atom_type": "LIST_ITEM", "pdf_source": "SDTMIG_v3.4", "pdf_page": 50, "pdf_parent_section": "§4.4.11 [Disease Milestones and Disease Milestone Timing Variables]", "pdf_verbatim": "The use of time-point variables with disease milestone variables may occur in cases where a disease milestone triggers treatment, and time points relative to treatment are part of the study schedule. For instance, a migraine trial may call for assessments of symptom severity at prescribed times after treatment of the migraine. If the migraine episodes were treated as disease milestones, then the disease milestone timing variables might be populated in the exposure and symptom-severity records. If the study planned to treat multiple migraine episodes, the MIDS variable would provide a convenient way to determine the episode with which data were associated.", "figure_ref": null, "candidates": [{"md_atom_id": "md_ch04_a806", "md_file": "knowledge_base/chapters/ch04_general_assumptions.md", "md_atom_type": "LIST_ITEM", "md_parent_section": "§4.4.11 [Disease Milestones and Disease Milestone Timing Variables]", "md_verbatim": "- The timing variables EPOCH and TAETORD may be populated for on-study observations associated with disease milestones; however, pre-study disease milestones do not have an associated EPOCH or TAETORD", "score": 0.4435, "match_basis": "verbatim_token+chapter_route:ch04"}, {"md_atom_id": "md_ch04_a733", "md_file": "knowledge_base/chapters/ch04_general_assumptions.md", "md_atom_type": "LIST_ITEM", "md_parent_section": "§4.4.10 [Representing Time Points]", "md_verbatim": "4. A trial may have time points not related to a reference time point. For instance, --TPTNUM values could be used to distinguish first, second, and third repeats of a measurement scheduled without any relationship to dosing (--TPTREF and --ELTM would not be included.) In this case, where the protocol calls for repeated measurements but does not specify timing of the measurements, the --REPNUM variable could be used instead of time-point variables.", "score": 0.4417, "match_basis": "verbatim_token+chapter_route:ch04"}, {"md_atom_id": "md_ch04_a804", "md_file": "knowledge_base/chapters/ch04_general_assumptions.md", "md_atom_type": "LIST_ITEM", "md_parent_section": "§4.4.11 [Disease Milestones and Disease Milestone Timing Variables]", "md_verbatim": "- The use of actual date/times is unaffected — disease milestone timing variables may provide timing information in cases where actual date/times are unavailable, particularly for pre-study disease milestones", "score": 0.4404, "match_basis": "verbatim_token+chapter_route:ch04"}, {"md_atom_id": "md_ch04_a808", "md_file": "knowledge_base/chapters/ch04_general_assumptions.md", "md_atom_type": "LIST_ITEM", "md_parent_section": "§4.4.11 [Disease Milestones and Disease Milestone Timing Variables]", "md_verbatim": "- The timing variables for start and end of an event or intervention relative to the study reference period (--STRF and --ENRF) or relative to a reference time point (--STRTPT and --STTPT, --ENRTPT and --ENTPT) can be used in conjunction with disease milestone variables", "score": 0.4378, "match_basis": "verbatim_token+chapter_route:ch04"}, {"md_atom_id": "md_ch04_a807", "md_file": "knowledge_base/chapters/ch04_general_assumptions.md", "md_atom_type": "LIST_ITEM", "md_parent_section": "§4.4.11 [Disease Milestones and Disease Milestone Timing Variables]", "md_verbatim": "- Visit variables are expected in many Findings domains, but findings triggered by a disease milestone may not occur at a scheduled visit; practices for populating VISITNUM for an unscheduled visit should be followed", "score": 0.4284, "match_basis": "verbatim_token+chapter_route:ch04"}], "candidate_count": 5, "zero_candidate": false}
