{"pdf_atom_id": "ig34_p0410_a019", "pdf_atom_type": "SENTENCE", "pdf_source": "SDTMIG_v3.4", "pdf_page": 410, "pdf_parent_section": "§7.3.1.1 Trial Visits Issues – Visit Schedules Expressed with Ranges", "pdf_verbatim": "The 2 ranges serve different purposes.", "figure_ref": null, "candidates": [{"md_atom_id": "md_model01_a021", "md_file": "knowledge_base/model/01_concepts_and_terms.md", "md_atom_type": "SENTENCE", "md_parent_section": "§2.1 [Model Concepts and Terms — Variables]", "md_verbatim": "There are variables which play different roles in different datasets.", "score": 0.4116, "match_basis": "verbatim_token+global_search"}, {"md_atom_id": "md_dmAE_ex_a068", "md_file": "knowledge_base/domains/AE/examples.md", "md_atom_type": "SENTENCE", "md_parent_section": "§AE.5 [Example 5]", "md_verbatim": "The implant was removed and replaced by a different product.", "score": 0.4116, "match_basis": "verbatim_token+global_search"}, {"md_atom_id": "md_dmTA_ex_a043", "md_file": "knowledge_base/domains/TA/examples.md", "md_atom_type": "SENTENCE", "md_parent_section": "§TA.2 [Example 2]", "md_verbatim": "Each arm represents a different order of treatments.", "score": 0.405, "match_basis": "verbatim_token+global_search"}, {"md_atom_id": "md_dmTA_ex_a158", "md_file": "knowledge_base/domains/TA/examples.md", "md_atom_type": "SENTENCE", "md_parent_section": "§TA.5 [Example 5]", "md_verbatim": "Different rest elements (RESTA, RESTB) are used for the 2 arms since cycle lengths differ.", "score": 0.4021, "match_basis": "verbatim_token+global_search"}, {"md_atom_id": "md_dmTA_ex_a254", "md_file": "knowledge_base/domains/TA/examples.md", "md_atom_type": "SENTENCE", "md_parent_section": "§TA.8.1 [Distinguishing Between Branches and Transitions]", "md_verbatim": "Both the Branch and Transition columns contain rules, but the 2 columns represent 2 different types of rules.", "score": 0.3947, "match_basis": "verbatim_token+global_search"}], "candidate_count": 5, "zero_candidate": false}
{"pdf_atom_id": "ig34_p0410_a020", "pdf_atom_type": "HEADING", "pdf_source": "SDTMIG_v3.4", "pdf_page": 410, "pdf_parent_section": "§7.3.1.1 Trial Visits Issues", "pdf_verbatim": "Contingent Visits", "figure_ref": null, "candidates": [{"md_atom_id": "md_dmTV_ex_a044", "md_file": "knowledge_base/domains/TV/examples.md", "md_atom_type": "HEADING", "md_parent_section": "§TV.2 [Trial Visits Issues]", "md_verbatim": "### Contingent Visits", "score": 0.9, "match_basis": "verbatim_token+global_search"}, {"md_atom_id": "md_dmTV_ex_a031", "md_file": "knowledge_base/domains/TV/examples.md", "md_atom_type": "HEADING", "md_parent_section": "§TV.2 [Trial Visits Issues]", "md_verbatim": "### Identifying Trial Visits", "score": 0.5, "match_basis": "verbatim_token+global_search"}, {"md_atom_id": "md_model05_a083", "md_file": "knowledge_base/model/05_study_level_data.md", "md_atom_type": "HEADING", "md_parent_section": "§ Trial Visits (TV)", "md_verbatim": "### Trial Visits (TV)", "score": 0.46, "match_basis": "verbatim_token+global_search"}, {"md_atom_id": "md_model03_a123", "md_file": "knowledge_base/model/03_special_purpose_domains.md", "md_atom_type": "HEADING", "md_parent_section": "§ Subject Visits (SV)", "md_verbatim": "## Subject Visits (SV)", "score": 0.4412, "match_basis": "verbatim_token+global_search"}, {"md_atom_id": "md_varindex_a1589", "md_file": "knowledge_base/VARIABLE_INDEX.md", "md_atom_type": "HEADING", "md_parent_section": "§ 二、领域专属变量（仅 1 个域，共 1499 个），按域分组", "md_verbatim": "### TV — Trial Visits (Trial Design)", "score": 0.4263, "match_basis": "verbatim_token+global_search"}], "candidate_count": 5, "zero_candidate": false}
{"pdf_atom_id": "ig34_p0410_a021", "pdf_atom_type": "SENTENCE", "pdf_source": "SDTMIG_v3.4", "pdf_page": 410, "pdf_parent_section": "§7.3.1.1 Trial Visits Issues – Contingent Visits", "pdf_verbatim": "Some data collection is contingent on the occurrence of a \"trigger\" event or disease milestone (see Section 7.3.3, Trial Disease Milestones (TM)).", "figure_ref": null, "candidates": [{"md_atom_id": "md_dmTV_ex_a045", "md_file": "knowledge_base/domains/TV/examples.md", "md_atom_type": "SENTENCE", "md_parent_section": "§TV.2.4 [Contingent Visits]", "md_verbatim": "Some data collection is contingent on the occurrence of a \"trigger\" event or disease milestone (see Section 7.3.3, Trial Disease Milestones (TM)).", "score": 0.9, "match_basis": "verbatim_token+global_search"}, {"md_atom_id": "md_ch04_a794", "md_file": "knowledge_base/chapters/ch04_general_assumptions.md", "md_atom_type": "SENTENCE", "md_parent_section": "§4.4.11 [Disease Milestones and Disease Milestone Timing Variables]", "md_verbatim": "**Special use of RELMIDS for findings about a disease milestone:** When a disease milestone is an event or intervention, some data triggered by the disease milestone may be modeled as findings about the disease milestone (i.e., FAOBJ is the disease milestone).", "score": 0.5, "match_basis": "verbatim_token+global_search"}, {"md_atom_id": "md_dmTM_assn_a002", "md_file": "knowledge_base/domains/TM/assumptions.md", "md_atom_type": "SENTENCE", "md_parent_section": "§TM [TM — Assumptions]", "md_verbatim": "A trial design domain that is used to describe disease milestones, which are observations or activities anticipated to occur in the course of the disease under study, and which trigger the collection of data.", "score": 0.4944, "match_basis": "verbatim_token+global_search"}, {"md_atom_id": "md_ch04_a789", "md_file": "knowledge_base/chapters/ch04_general_assumptions.md", "md_atom_type": "SENTENCE", "md_parent_section": "§4.4.11 [Disease Milestones and Disease Milestone Timing Variables]", "md_verbatim": "For an observation triggered by the occurrence of a disease milestone, the relationship of the observation to the disease milestone can be represented using the disease milestone timing variables MIDS, RELMIDS, and MIDSDTC:", "score": 0.4918, "match_basis": "verbatim_token+global_search"}, {"md_atom_id": "md_dmSM_ex_a003", "md_file": "knowledge_base/domains/SM/examples.md", "md_atom_type": "SENTENCE", "md_parent_section": "§SM.1 [Example 1]", "md_verbatim": "In this study, the disease milestones of interest were initial diagnosis and hypoglycemic events, as shown in Section 7.3.3, Trial Disease Milestones, Example 1.", "score": 0.4579, "match_basis": "verbatim_token+global_search"}], "candidate_count": 5, "zero_candidate": false}
{"pdf_atom_id": "ig34_p0410_a022", "pdf_atom_type": "SENTENCE", "pdf_source": "SDTMIG_v3.4", "pdf_page": 410, "pdf_parent_section": "§7.3.1.1 Trial Visits Issues – Contingent Visits", "pdf_verbatim": "When such planned data collection involves an additional clinic visit, a \"contingent\" visit may be included in the TV table, with a rule that describes the circumstances under which it will take place.", "figure_ref": null, "candidates": [{"md_atom_id": "md_dmTV_ex_a046", "md_file": "knowledge_base/domains/TV/examples.md", "md_atom_type": "SENTENCE", "md_parent_section": "§TV.2.4 [Contingent Visits]", "md_verbatim": "When such planned data collection involves an additional clinic visit, a \"contingent\" visit may be included in the TV table, with a rule that describes the circumstances under which it will take place.", "score": 0.9, "match_basis": "verbatim_token+global_search"}, {"md_atom_id": "md_dmTV_ex_a043", "md_file": "knowledge_base/domains/TV/examples.md", "md_atom_type": "SENTENCE", "md_parent_section": "§TV.2.3 [Visit Schedules Expressed with Ranges]", "md_verbatim": "Ranges may be used to describe the planned timing of visits (e.g., 12-16 days after the start of 2nd Element), but this is different from the \"windows\" that may be used in selecting data points to be included in an analysis associated with that visit.", "score": 0.45, "match_basis": "verbatim_token+global_search"}, {"md_atom_id": "md_dmTV_ex_a048", "md_file": "knowledge_base/domains/TV/examples.md", "md_atom_type": "SENTENCE", "md_parent_section": "§TV.2.4 [Contingent Visits]", "md_verbatim": "If contingent visits are not included in the TV dataset, then they would be treated as unplanned visits in the Subject Visits (SV) domain (see Section 6.2.8, Subject Visits).", "score": 0.45, "match_basis": "verbatim_token+global_search"}, {"md_atom_id": "md_dmTA_ex_a271", "md_file": "knowledge_base/domains/TA/examples.md", "md_atom_type": "SENTENCE", "md_parent_section": "§TA.8.4 [Rule Variables]", "md_verbatim": "The values of a Rule variable describe conditions under which something is planned to happen.", "score": 0.4474, "match_basis": "verbatim_token+global_search"}, {"md_atom_id": "md_ch04_a434", "md_file": "knowledge_base/chapters/ch04_general_assumptions.md", "md_atom_type": "SENTENCE", "md_parent_section": "§4.3.3 [Controlled Terminology Values]", "md_verbatim": "When a domain or dataset specification includes a codelist for a variable, not every value in that codelist may have been part of planned data collection; only values that were part of planned data collection should be included in the Define-XML document.", "score": 0.4272, "match_basis": "verbatim_token+global_search"}], "candidate_count": 5, "zero_candidate": false}
{"pdf_atom_id": "ig34_p0410_a023", "pdf_atom_type": "SENTENCE", "pdf_source": "SDTMIG_v3.4", "pdf_page": 410, "pdf_parent_section": "§7.3.1.1 Trial Visits Issues – Contingent Visits", "pdf_verbatim": "Because values of VISITNUM must be assigned to all records in the TV dataset, a contingent visit included in the TV dataset must have a VISITNUM, but the VISITNUM value might not be a \"chronological\" value, due to the uncertain timing of a contingent visit.", "figure_ref": null, "candidates": [{"md_atom_id": "md_dmTV_ex_a047", "md_file": "knowledge_base/domains/TV/examples.md", "md_atom_type": "SENTENCE", "md_parent_section": "§TV.2.4 [Contingent Visits]", "md_verbatim": "Because values of VISITNUM must be assigned to all records in the TV dataset, a contingent visit included in the TV dataset must have a VISITNUM, but the VISITNUM value might not be a \"chronological\" value.", "score": 0.8154, "match_basis": "verbatim_token+global_search"}, {"md_atom_id": "md_dmTV_ex_a048", "md_file": "knowledge_base/domains/TV/examples.md", "md_atom_type": "SENTENCE", "md_parent_section": "§TV.2.4 [Contingent Visits]", "md_verbatim": "If contingent visits are not included in the TV dataset, then they would be treated as unplanned visits in the Subject Visits (SV) domain (see Section 6.2.8, Subject Visits).", "score": 0.4431, "match_basis": "verbatim_token+global_search"}, {"md_atom_id": "md_dmDS_ex_a218", "md_file": "knowledge_base/domains/DS/examples.md", "md_atom_type": "SENTENCE", "md_parent_section": "§DS.11 [Example 11]", "md_verbatim": "The TA dataset shows the trial design. The sponsor chose to number elements starting with zero for the screening element. For the AB arm, TAETORD values are not chronological for this arm such that elements with TAETORD values of \"2\" or \"5\" would be during \"Cycle 2\", elements with TAETORD values of \"3\" or \"6\" would be during \"Cycle 3\", and elements with TAETORD values of \"4\" or \"7\" would be during \"Cycle 4\".", "score": 0.4252, "match_basis": "verbatim_token+global_search"}, {"md_atom_id": "md_ch04_a609", "md_file": "knowledge_base/chapters/ch04_general_assumptions.md", "md_atom_type": "SENTENCE", "md_parent_section": "§4.4.5 [Clinical Encounters and Visits]", "md_verbatim": "For planned visits, values of VISIT, VISITNUM, and VISITDY must be those defined in the Trial Visits (TV) dataset.", "score": 0.4175, "match_basis": "verbatim_token+global_search"}, {"md_atom_id": "md_ch04_a149", "md_file": "knowledge_base/chapters/ch04_general_assumptions.md", "md_atom_type": "SENTENCE", "md_parent_section": "§4.1.9 [Assigning Natural Keys in the Metadata]", "md_verbatim": "The word QNAM must be used as the first part of the name to indicate that the contributing variable exists in a domain-specific SUPP--; the second part is the value of QNAM that ultimately becomes a column reference when the SUPPQUAL records are joined on to the main domain dataset (e.g., QNAM.XVAR when the SUPP-- record has a QNAM of \"XVAR\").", "score": 0.4091, "match_basis": "verbatim_token+global_search"}], "candidate_count": 5, "zero_candidate": false}
{"pdf_atom_id": "ig34_p0410_a024", "pdf_atom_type": "SENTENCE", "pdf_source": "SDTMIG_v3.4", "pdf_page": 410, "pdf_parent_section": "§7.3.1.1 Trial Visits Issues – Contingent Visits", "pdf_verbatim": "If contingent visits are not included in the TV dataset, then they would be treated as unplanned visits in the Subject Visits (SV) domain (see Section 6.2.8, Subject Visits).", "figure_ref": null, "candidates": [{"md_atom_id": "md_dmTV_ex_a048", "md_file": "knowledge_base/domains/TV/examples.md", "md_atom_type": "SENTENCE", "md_parent_section": "§TV.2.4 [Contingent Visits]", "md_verbatim": "If contingent visits are not included in the TV dataset, then they would be treated as unplanned visits in the Subject Visits (SV) domain (see Section 6.2.8, Subject Visits).", "score": 0.9, "match_basis": "verbatim_token+global_search"}, {"md_atom_id": "md_ch04_a434", "md_file": "knowledge_base/chapters/ch04_general_assumptions.md", "md_atom_type": "SENTENCE", "md_parent_section": "§4.3.3 [Controlled Terminology Values]", "md_verbatim": "When a domain or dataset specification includes a codelist for a variable, not every value in that codelist may have been part of planned data collection; only values that were part of planned data collection should be included in the Define-XML document.", "score": 0.4538, "match_basis": "verbatim_token+global_search"}, {"md_atom_id": "md_model01_a053", "md_file": "knowledge_base/model/01_concepts_and_terms.md", "md_atom_type": "SENTENCE", "md_parent_section": "§2.1 [Model Concepts and Terms — Variables]", "md_verbatim": "The Device-subject Relationships dataset includes the variable DOMAIN, but other study reference datasets do not.", "score": 0.4516, "match_basis": "verbatim_token+global_search"}, {"md_atom_id": "md_dmTV_ex_a047", "md_file": "knowledge_base/domains/TV/examples.md", "md_atom_type": "SENTENCE", "md_parent_section": "§TV.2.4 [Contingent Visits]", "md_verbatim": "Because values of VISITNUM must be assigned to all records in the TV dataset, a contingent visit included in the TV dataset must have a VISITNUM, but the VISITNUM value might not be a \"chronological\" value.", "score": 0.4515, "match_basis": "verbatim_token+global_search"}, {"md_atom_id": "md_dmDS_ex_a158", "md_file": "knowledge_base/domains/DS/examples.md", "md_atom_type": "SENTENCE", "md_parent_section": "§DS.10 [Example 10]", "md_verbatim": "The DM dataset includes the arm to which the subjects were randomized, and the dates of informed consent, start of study treatment, end of study treatment, and end of study participation.", "score": 0.45, "match_basis": "verbatim_token+global_search"}], "candidate_count": 5, "zero_candidate": false}
{"pdf_atom_id": "ig34_p0410_a025", "pdf_atom_type": "HEADING", "pdf_source": "SDTMIG_v3.4", "pdf_page": 410, "pdf_parent_section": "§7.3 [SCHEDULE FOR ASSESSMENTS (TV, TD, AND TM)]", "pdf_verbatim": "7.3.2 Trial Disease Assessments (TD)", "figure_ref": null, "candidates": [{"md_atom_id": "md_dmTV_ex_a031", "md_file": "knowledge_base/domains/TV/examples.md", "md_atom_type": "HEADING", "md_parent_section": "§TV.2 [Trial Visits Issues]", "md_verbatim": "### Identifying Trial Visits", "score": 0.4828, "match_basis": "verbatim_token+domain_route:TV"}, {"md_atom_id": "md_dmTV_ex_a037", "md_file": "knowledge_base/domains/TV/examples.md", "md_atom_type": "HEADING", "md_parent_section": "§TV.2 [Trial Visits Issues]", "md_verbatim": "### Trial Visit Rules", "score": 0.4783, "match_basis": "verbatim_token+domain_route:TV"}, {"md_atom_id": "md_dmTV_ex_a030", "md_file": "knowledge_base/domains/TV/examples.md", "md_atom_type": "HEADING", "md_parent_section": "§TV [TV — Examples]", "md_verbatim": "## Trial Visits Issues", "score": 0.472, "match_basis": "verbatim_token+domain_route:TV"}, {"md_atom_id": "md_dmTV_ex_a042", "md_file": "knowledge_base/domains/TV/examples.md", "md_atom_type": "HEADING", "md_parent_section": "§TV.2 [Trial Visits Issues]", "md_verbatim": "### Visit Schedules Expressed with Ranges", "score": 0.4316, "match_basis": "verbatim_token+domain_route:TV"}, {"md_atom_id": "md_dmTV_assn_a001", "md_file": "knowledge_base/domains/TV/assumptions.md", "md_atom_type": "HEADING", "md_parent_section": "§TV [TV — Assumptions]", "md_verbatim": "# TV — Assumptions", "score": 0.424, "match_basis": "verbatim_token+domain_route:TV"}], "candidate_count": 5, "zero_candidate": false}
{"pdf_atom_id": "ig34_p0410_a026", "pdf_atom_type": "HEADING", "pdf_source": "SDTMIG_v3.4", "pdf_page": 410, "pdf_parent_section": "§7.3.2 Trial Disease Assessments (TD)", "pdf_verbatim": "TD – Description/Overview", "figure_ref": null, "candidates": [{"md_atom_id": "md_dmTD_assn_a001", "md_file": "knowledge_base/domains/TD/assumptions.md", "md_atom_type": "HEADING", "md_parent_section": "§TD [TD — Assumptions]", "md_verbatim": "# TD — Assumptions", "score": 0.4857, "match_basis": "verbatim_token+domain_route:TD"}, {"md_atom_id": "md_dmTD_ex_a001", "md_file": "knowledge_base/domains/TD/examples.md", "md_atom_type": "HEADING", "md_parent_section": "§TD [TD — Examples]", "md_verbatim": "# TD — Examples", "score": 0.4, "match_basis": "verbatim_token+domain_route:TD"}, {"md_atom_id": "md_dmTD_ex_a002", "md_file": "knowledge_base/domains/TD/examples.md", "md_atom_type": "HEADING", "md_parent_section": "§TD [TD — Examples]", "md_verbatim": "## Example 1", "score": 0.4, "match_basis": "verbatim_token+domain_route:TD"}, {"md_atom_id": "md_dmTD_ex_a014", "md_file": "knowledge_base/domains/TD/examples.md", "md_atom_type": "HEADING", "md_parent_section": "§TD [TD — Examples]", "md_verbatim": "## Example 2", "score": 0.4, "match_basis": "verbatim_token+domain_route:TD"}, {"md_atom_id": "md_dmTD_ex_a025", "md_file": "knowledge_base/domains/TD/examples.md", "md_atom_type": "HEADING", "md_parent_section": "§TD [TD — Examples]", "md_verbatim": "## Example 3", "score": 0.4, "match_basis": "verbatim_token+domain_route:TD"}], "candidate_count": 5, "zero_candidate": false}
{"pdf_atom_id": "ig34_p0410_a027", "pdf_atom_type": "SENTENCE", "pdf_source": "SDTMIG_v3.4", "pdf_page": 410, "pdf_parent_section": "§7.3.2 Trial Disease Assessments (TD) – Description/Overview", "pdf_verbatim": "A trial design domain that provides information on the protocol-specified disease assessment schedule, to be used for comparison with the actual occurrence of the efficacy assessments in order to determine whether there was good compliance with the schedule.", "figure_ref": null, "candidates": [{"md_atom_id": "md_dmTD_assn_a002", "md_file": "knowledge_base/domains/TD/assumptions.md", "md_atom_type": "SENTENCE", "md_parent_section": "§TD [TD — Assumptions]", "md_verbatim": "The purpose of the Trial Disease Assessments (TD) domain is to provide information on planned scheduling of disease assessments when the scheduling of disease assessments is not necessarily tied to the scheduling of visits. In oncology studies, good compliance with the disease-assessment schedule is essential to reduce the risk of \"assessment time bias.\" The TD domain makes possible an evaluation of assessment time bias from the SDTM, in particular for studies with progression-free survival (PFS) endpoints. TD has limited utility in oncology and was developed specifically with RECIST in mind and where an assessment-time bias analysis is appropriate. It is understood that extending this approach to Cheson and other criteria may not be appropriate or may pose difficulties. It is also understood that this approach may not be necessary in non-oncology studies, although it is available for use if appropriate.", "score": 0.5636, "match_basis": "verbatim_token+domain_route:TD"}, {"md_atom_id": "md_dmTD_ex_a005", "md_file": "knowledge_base/domains/TD/examples.md", "md_atom_type": "SENTENCE", "md_parent_section": "§TD.1 [Example 1]", "md_verbatim": "This example shows a study where the disease assessment schedule changes over the course of the study. In this example, there are 3 distinct disease-assessment schedule patterns. A single anchor date variable (TDANCVAR) provides the anchor date for each pattern. The offset variable (TDSTOFF), used in conjunction with the anchor date variable, provides the start point of each pattern of assessments.", "score": 0.5355, "match_basis": "verbatim_token+domain_route:TD"}, {"md_atom_id": "md_dmTD_ex_a020", "md_file": "knowledge_base/domains/TD/examples.md", "md_atom_type": "SENTENCE", "md_parent_section": "§TD.2 [Example 2]", "md_verbatim": "**Row 2:** Shows the disease assessment schedule for the second period. The pattern starts on the date identified in the ADSL variable ANCH2DT and repeats every 8 weeks with respective upper and lower limits of -1 week and +1 week. The maximum number of repeats that occurred on this schedule was 4.", "score": 0.5316, "match_basis": "verbatim_token+domain_route:TD"}, {"md_atom_id": "md_dmTD_ex_a019", "md_file": "knowledge_base/domains/TD/examples.md", "md_atom_type": "SENTENCE", "md_parent_section": "§TD.2 [Example 2]", "md_verbatim": "**Row 1:** Shows the disease assessment schedule for the first treatment period. The diagram above shows that this schedule repeats until disease progression. After the trial ended, the maximum number of repeats in this schedule was determined to be 6, so that is the value in TDNUMRPT for this schedule.", "score": 0.5234, "match_basis": "verbatim_token+domain_route:TD"}, {"md_atom_id": "md_dmTD_ex_a029", "md_file": "knowledge_base/domains/TD/examples.md", "md_atom_type": "SENTENCE", "md_parent_section": "§TD.3 [Example 3]", "md_verbatim": "In this example, there are 3 distinct disease-assessment schedule patterns:", "score": 0.5108, "match_basis": "verbatim_token+domain_route:TD"}], "candidate_count": 5, "zero_candidate": false}
{"pdf_atom_id": "ig34_p0410_a028", "pdf_atom_type": "HEADING", "pdf_source": "SDTMIG_v3.4", "pdf_page": 410, "pdf_parent_section": "§7.3.2 Trial Disease Assessments (TD)", "pdf_verbatim": "TD – Specification", "figure_ref": null, "candidates": [{"md_atom_id": "md_dmTD_assn_a001", "md_file": "knowledge_base/domains/TD/assumptions.md", "md_atom_type": "HEADING", "md_parent_section": "§TD [TD — Assumptions]", "md_verbatim": "# TD — Assumptions", "score": 0.4667, "match_basis": "verbatim_token+domain_route:TD"}, {"md_atom_id": "md_dmTD_ex_a001", "md_file": "knowledge_base/domains/TD/examples.md", "md_atom_type": "HEADING", "md_parent_section": "§TD [TD — Examples]", "md_verbatim": "# TD — Examples", "score": 0.4, "match_basis": "verbatim_token+domain_route:TD"}, {"md_atom_id": "md_dmTD_ex_a002", "md_file": "knowledge_base/domains/TD/examples.md", "md_atom_type": "HEADING", "md_parent_section": "§TD [TD — Examples]", "md_verbatim": "## Example 1", "score": 0.4, "match_basis": "verbatim_token+domain_route:TD"}, {"md_atom_id": "md_dmTD_ex_a014", "md_file": "knowledge_base/domains/TD/examples.md", "md_atom_type": "HEADING", "md_parent_section": "§TD [TD — Examples]", "md_verbatim": "## Example 2", "score": 0.4, "match_basis": "verbatim_token+domain_route:TD"}, {"md_atom_id": "md_dmTD_ex_a025", "md_file": "knowledge_base/domains/TD/examples.md", "md_atom_type": "HEADING", "md_parent_section": "§TD [TD — Examples]", "md_verbatim": "## Example 3", "score": 0.4, "match_basis": "verbatim_token+domain_route:TD"}], "candidate_count": 5, "zero_candidate": false}
{"pdf_atom_id": "ig34_p0410_a029", "pdf_atom_type": "CODE_LITERAL", "pdf_source": "SDTMIG_v3.4", "pdf_page": 410, "pdf_parent_section": "§7.3.2 Trial Disease Assessments (TD) – Specification", "pdf_verbatim": "td.xpt, Trial Disease Assessments — Trial Design. One record per planned constant assessment period, Tabulation.", "figure_ref": null, "candidates": [{"md_atom_id": "md_dmTD_ex_a018", "md_file": "knowledge_base/domains/TD/examples.md", "md_atom_type": "LIST_ITEM", "md_parent_section": "§TD.2 [Example 2]", "md_verbatim": "- The Rest element is not represented as a row in the TD dataset, since no disease assessments occur during the Rest. Note that although the Rest epoch in this example is not important for TD, it is important that it is represented in other trial design datasets.", "score": 0.319, "match_basis": "verbatim_token+domain_route:TD"}, {"md_atom_id": "md_dmTD_ex_a019", "md_file": "knowledge_base/domains/TD/examples.md", "md_atom_type": "SENTENCE", "md_parent_section": "§TD.2 [Example 2]", "md_verbatim": "**Row 1:** Shows the disease assessment schedule for the first treatment period. The diagram above shows that this schedule repeats until disease progression. After the trial ended, the maximum number of repeats in this schedule was determined to be 6, so that is the value in TDNUMRPT for this schedule.", "score": 0.2948, "match_basis": "verbatim_token+domain_route:TD"}, {"md_atom_id": "md_dmTD_ex_a007", "md_file": "knowledge_base/domains/TD/examples.md", "md_atom_type": "LIST_ITEM", "md_parent_section": "§TD.1 [Example 1]", "md_verbatim": "- The second disease assessment schedule starts from week 48 and repeats every 12 weeks for a total of 4 repeats (i.e., week 60, week 72, week 84, week 96), with respective upper and lower limits of -1 week and +1 week.", "score": 0.293, "match_basis": "verbatim_token+domain_route:TD"}, {"md_atom_id": "md_dmTD_ex_a029", "md_file": "knowledge_base/domains/TD/examples.md", "md_atom_type": "SENTENCE", "md_parent_section": "§TD.3 [Example 3]", "md_verbatim": "In this example, there are 3 distinct disease-assessment schedule patterns:", "score": 0.29, "match_basis": "verbatim_token+domain_route:TD"}, {"md_atom_id": "md_dmTD_ex_a017", "md_file": "knowledge_base/domains/TD/examples.md", "md_atom_type": "SENTENCE", "md_parent_section": "§TD.2 [Example 2]", "md_verbatim": "This example shows a crossover study, where subjects are given the period 1 treatment according to the first disease-assessment schedule until disease progression, then there is a rest period of 28 days prior to the start of the period 2 treatment (i.e., re-baseline for period 2). The subjects are then given the period 2 treatment according to the second disease assessment schedule until disease progression. This example also shows how two different reference/anchor dates can be used.", "score": 0.2814, "match_basis": "verbatim_token+domain_route:TD"}], "candidate_count": 5, "zero_candidate": false}
{"pdf_atom_id": "ig34_p0410_a030", "pdf_atom_type": "TABLE_HEADER", "pdf_source": "SDTMIG_v3.4", "pdf_page": 410, "pdf_parent_section": "§7.3.2 Trial Disease Assessments (TD) – Specification", "pdf_verbatim": "| Variable Name | Variable Label | Type | Controlled Terms, Codelist or Format¹ | Role | CDISC Notes | Core |", "figure_ref": null, "candidates": [{"md_atom_id": "md_dmTD_ex_a010", "md_file": "knowledge_base/domains/TD/examples.md", "md_atom_type": "TABLE_HEADER", "md_parent_section": "§TD.1 [Example 1]", "md_verbatim": "| Row | STUDYID | DOMAIN | TDORDER | TDANCVAR | TDSTOFF | TDTGTPAI | TDMINPAI | TDMAXPAI | TDNUMRPT |\n|-----|---------|--------|---------|----------|---------|----------|----------|----------|----------|", "score": 0.4067, "match_basis": "verbatim_token+domain_route:TD"}, {"md_atom_id": "md_dmTD_ex_a022", "md_file": "knowledge_base/domains/TD/examples.md", "md_atom_type": "TABLE_HEADER", "md_parent_section": "§TD.2 [Example 2]", "md_verbatim": "| Row | STUDYID | DOMAIN | TDORDER | TDANCVAR | TDSTOFF | TDTGTPAI | TDMINPAI | TDMAXPAI | TDNUMRPT |\n|-----|---------|--------|---------|----------|---------|----------|----------|----------|----------|", "score": 0.4067, "match_basis": "verbatim_token+domain_route:TD"}, {"md_atom_id": "md_dmTD_ex_a035", "md_file": "knowledge_base/domains/TD/examples.md", "md_atom_type": "TABLE_HEADER", "md_parent_section": "§TD.3 [Example 3]", "md_verbatim": "| Row | STUDYID | DOMAIN | TDORDER | TDANCVAR | TDSTOFF | TDTGTPAI | TDMINPAI | TDMAXPAI | TDNUMRPT |\n|-----|---------|--------|---------|----------|---------|----------|----------|----------|----------|", "score": 0.4067, "match_basis": "verbatim_token+domain_route:TD"}, {"md_atom_id": "md_dmTD_ex_a011", "md_file": "knowledge_base/domains/TD/examples.md", "md_atom_type": "TABLE_ROW", "md_parent_section": "§TD.1 [Example 1]", "md_verbatim": "| 1 | ABC123 | TD | 1 | ANCH1DT | P0D | P8W | P53D | P9W | 6 |", "score": 0.34, "match_basis": "verbatim_token+domain_route:TD"}, {"md_atom_id": "md_dmTD_ex_a012", "md_file": "knowledge_base/domains/TD/examples.md", "md_atom_type": "TABLE_ROW", "md_parent_section": "§TD.1 [Example 1]", "md_verbatim": "| 2 | ABC123 | TD | 2 | ANCH1DT | P48W | P12W | P11W | P13W | 4 |", "score": 0.34, "match_basis": "verbatim_token+domain_route:TD"}], "candidate_count": 5, "zero_candidate": false}
{"pdf_atom_id": "ig34_p0410_a031", "pdf_atom_type": "TABLE_ROW", "pdf_source": "SDTMIG_v3.4", "pdf_page": 410, "pdf_parent_section": "§7.3.2 Trial Disease Assessments (TD) – Specification", "pdf_verbatim": "| STUDYID | Study Identifier | Char | | Identifier | Unique identifier for a study. | Req |", "figure_ref": null, "candidates": [{"md_atom_id": "md_dmTD_ex_a011", "md_file": "knowledge_base/domains/TD/examples.md", "md_atom_type": "TABLE_ROW", "md_parent_section": "§TD.1 [Example 1]", "md_verbatim": "| 1 | ABC123 | TD | 1 | ANCH1DT | P0D | P8W | P53D | P9W | 6 |", "score": 0.4, "match_basis": "verbatim_token+domain_route:TD"}, {"md_atom_id": "md_dmTD_ex_a012", "md_file": "knowledge_base/domains/TD/examples.md", "md_atom_type": "TABLE_ROW", "md_parent_section": "§TD.1 [Example 1]", "md_verbatim": "| 2 | ABC123 | TD | 2 | ANCH1DT | P48W | P12W | P11W | P13W | 4 |", "score": 0.4, "match_basis": "verbatim_token+domain_route:TD"}, {"md_atom_id": "md_dmTD_ex_a013", "md_file": "knowledge_base/domains/TD/examples.md", "md_atom_type": "TABLE_ROW", "md_parent_section": "§TD.1 [Example 1]", "md_verbatim": "| 3 | ABC123 | TD | 3 | ANCH1DT | P96W | P24W | P23W | P25W | 12 |", "score": 0.4, "match_basis": "verbatim_token+domain_route:TD"}, {"md_atom_id": "md_dmTD_ex_a023", "md_file": "knowledge_base/domains/TD/examples.md", "md_atom_type": "TABLE_ROW", "md_parent_section": "§TD.2 [Example 2]", "md_verbatim": "| 1 | ABC123 | TD | 1 | ANCH1DT | P0D | P8W | P53D | P9W | 6 |", "score": 0.4, "match_basis": "verbatim_token+domain_route:TD"}, {"md_atom_id": "md_dmTD_ex_a024", "md_file": "knowledge_base/domains/TD/examples.md", "md_atom_type": "TABLE_ROW", "md_parent_section": "§TD.2 [Example 2]", "md_verbatim": "| 2 | ABC123 | TD | 2 | ANCH2DT | P0D | P8W | P53D | P9W | 4 |", "score": 0.4, "match_basis": "verbatim_token+domain_route:TD"}], "candidate_count": 5, "zero_candidate": false}
{"pdf_atom_id": "ig34_p0411_a001", "pdf_atom_type": "TABLE_ROW", "pdf_source": "SDTMIG_v3.4", "pdf_page": 411, "pdf_parent_section": "§7.3.2 Trial Disease Assessments (TD)", "pdf_verbatim": "| DOMAIN | Domain Abbreviation | Char | TD | Identifier | Two-character abbreviation for the domain. | Req |", "figure_ref": null, "candidates": [{"md_atom_id": "md_dmTD_ex_a011", "md_file": "knowledge_base/domains/TD/examples.md", "md_atom_type": "TABLE_ROW", "md_parent_section": "§TD.1 [Example 1]", "md_verbatim": "| 1 | ABC123 | TD | 1 | ANCH1DT | P0D | P8W | P53D | P9W | 6 |", "score": 0.4, "match_basis": "verbatim_token+domain_route:TD"}, {"md_atom_id": "md_dmTD_ex_a012", "md_file": "knowledge_base/domains/TD/examples.md", "md_atom_type": "TABLE_ROW", "md_parent_section": "§TD.1 [Example 1]", "md_verbatim": "| 2 | ABC123 | TD | 2 | ANCH1DT | P48W | P12W | P11W | P13W | 4 |", "score": 0.4, "match_basis": "verbatim_token+domain_route:TD"}, {"md_atom_id": "md_dmTD_ex_a013", "md_file": "knowledge_base/domains/TD/examples.md", "md_atom_type": "TABLE_ROW", "md_parent_section": "§TD.1 [Example 1]", "md_verbatim": "| 3 | ABC123 | TD | 3 | ANCH1DT | P96W | P24W | P23W | P25W | 12 |", "score": 0.4, "match_basis": "verbatim_token+domain_route:TD"}, {"md_atom_id": "md_dmTD_ex_a023", "md_file": "knowledge_base/domains/TD/examples.md", "md_atom_type": "TABLE_ROW", "md_parent_section": "§TD.2 [Example 2]", "md_verbatim": "| 1 | ABC123 | TD | 1 | ANCH1DT | P0D | P8W | P53D | P9W | 6 |", "score": 0.4, "match_basis": "verbatim_token+domain_route:TD"}, {"md_atom_id": "md_dmTD_ex_a024", "md_file": "knowledge_base/domains/TD/examples.md", "md_atom_type": "TABLE_ROW", "md_parent_section": "§TD.2 [Example 2]", "md_verbatim": "| 2 | ABC123 | TD | 2 | ANCH2DT | P0D | P8W | P53D | P9W | 4 |", "score": 0.4, "match_basis": "verbatim_token+domain_route:TD"}], "candidate_count": 5, "zero_candidate": false}
{"pdf_atom_id": "ig34_p0411_a002", "pdf_atom_type": "TABLE_ROW", "pdf_source": "SDTMIG_v3.4", "pdf_page": 411, "pdf_parent_section": "§7.3.2 Trial Disease Assessments (TD)", "pdf_verbatim": "| TDORDER | Sequence of Planned Assessment Schedule | Num | | Timing | A number given to ensure ordinal sequencing of the planned assessment schedules within a trial. | Req |", "figure_ref": null, "candidates": [{"md_atom_id": "md_dmTD_ex_a011", "md_file": "knowledge_base/domains/TD/examples.md", "md_atom_type": "TABLE_ROW", "md_parent_section": "§TD.1 [Example 1]", "md_verbatim": "| 1 | ABC123 | TD | 1 | ANCH1DT | P0D | P8W | P53D | P9W | 6 |", "score": 0.4, "match_basis": "verbatim_token+domain_route:TD"}, {"md_atom_id": "md_dmTD_ex_a012", "md_file": "knowledge_base/domains/TD/examples.md", "md_atom_type": "TABLE_ROW", "md_parent_section": "§TD.1 [Example 1]", "md_verbatim": "| 2 | ABC123 | TD | 2 | ANCH1DT | P48W | P12W | P11W | P13W | 4 |", "score": 0.4, "match_basis": "verbatim_token+domain_route:TD"}, {"md_atom_id": "md_dmTD_ex_a013", "md_file": "knowledge_base/domains/TD/examples.md", "md_atom_type": "TABLE_ROW", "md_parent_section": "§TD.1 [Example 1]", "md_verbatim": "| 3 | ABC123 | TD | 3 | ANCH1DT | P96W | P24W | P23W | P25W | 12 |", "score": 0.4, "match_basis": "verbatim_token+domain_route:TD"}, {"md_atom_id": "md_dmTD_ex_a023", "md_file": "knowledge_base/domains/TD/examples.md", "md_atom_type": "TABLE_ROW", "md_parent_section": "§TD.2 [Example 2]", "md_verbatim": "| 1 | ABC123 | TD | 1 | ANCH1DT | P0D | P8W | P53D | P9W | 6 |", "score": 0.4, "match_basis": "verbatim_token+domain_route:TD"}, {"md_atom_id": "md_dmTD_ex_a024", "md_file": "knowledge_base/domains/TD/examples.md", "md_atom_type": "TABLE_ROW", "md_parent_section": "§TD.2 [Example 2]", "md_verbatim": "| 2 | ABC123 | TD | 2 | ANCH2DT | P0D | P8W | P53D | P9W | 4 |", "score": 0.4, "match_basis": "verbatim_token+domain_route:TD"}], "candidate_count": 5, "zero_candidate": false}
{"pdf_atom_id": "ig34_p0411_a003", "pdf_atom_type": "TABLE_ROW", "pdf_source": "SDTMIG_v3.4", "pdf_page": 411, "pdf_parent_section": "§7.3.2 Trial Disease Assessments (TD)", "pdf_verbatim": "| TDANCVAR | Anchor Variable Name | Char | | Timing | A reference to the date variable name that provides the start point from which the planned disease assessment schedule is measured. This must be a referenced from the ADaM ADSL dataset (e.g., \"ANCH1DT\"). Note: TDANCVAR will contain the name of a reference date variable. | Req |", "figure_ref": null, "candidates": [{"md_atom_id": "md_dmTD_assn_a004", "md_file": "knowledge_base/domains/TD/assumptions.md", "md_atom_type": "LIST_ITEM", "md_parent_section": "§TD [TD — Assumptions]", "md_verbatim": "2. A planned schedule of assessments will have a defined start point; the TDANCVAR variable is used to identify the variable in the ADaM subject-level dataset (ADSL) that holds the \"anchor\" date. By default, the anchor variable for the first pattern is ANCH1DT. An anchor date must be provided for each pattern of assessments, and each anchor variable must exist in ADSL. TDANCVAR is therefore a Required variable. Anchor date variable names should adhere to ADaM variable naming conventions (e.g., ANCH1DT, ANCH2DT). One anchor date may be used to anchor more than 1 pattern of disease assessments. When that is the case, the appropriate offset for the start of a subsequent pattern, represented as an ISO 8601 duration value, should be provided in the TDSTOFF variable.", "score": 0.4339, "match_basis": "verbatim_token+domain_route:TD"}, {"md_atom_id": "md_dmTD_ex_a011", "md_file": "knowledge_base/domains/TD/examples.md", "md_atom_type": "TABLE_ROW", "md_parent_section": "§TD.1 [Example 1]", "md_verbatim": "| 1 | ABC123 | TD | 1 | ANCH1DT | P0D | P8W | P53D | P9W | 6 |", "score": 0.4263, "match_basis": "verbatim_token+domain_route:TD"}, {"md_atom_id": "md_dmTD_ex_a023", "md_file": "knowledge_base/domains/TD/examples.md", "md_atom_type": "TABLE_ROW", "md_parent_section": "§TD.2 [Example 2]", "md_verbatim": "| 1 | ABC123 | TD | 1 | ANCH1DT | P0D | P8W | P53D | P9W | 6 |", "score": 0.4263, "match_basis": "verbatim_token+domain_route:TD"}, {"md_atom_id": "md_dmTD_ex_a036", "md_file": "knowledge_base/domains/TD/examples.md", "md_atom_type": "TABLE_ROW", "md_parent_section": "§TD.3 [Example 3]", "md_verbatim": "| 1 | ABC123 | TD | 1 | ANCH1DT | P0D | P8W | P53D | P9W | 6 |", "score": 0.4263, "match_basis": "verbatim_token+domain_route:TD"}, {"md_atom_id": "md_dmTD_ex_a012", "md_file": "knowledge_base/domains/TD/examples.md", "md_atom_type": "TABLE_ROW", "md_parent_section": "§TD.1 [Example 1]", "md_verbatim": "| 2 | ABC123 | TD | 2 | ANCH1DT | P48W | P12W | P11W | P13W | 4 |", "score": 0.4256, "match_basis": "verbatim_token+domain_route:TD"}], "candidate_count": 5, "zero_candidate": false}
{"pdf_atom_id": "ig34_p0411_a004", "pdf_atom_type": "TABLE_ROW", "pdf_source": "SDTMIG_v3.4", "pdf_page": 411, "pdf_parent_section": "§7.3.2 Trial Disease Assessments (TD)", "pdf_verbatim": "| TDSTOFF | Offset from the Anchor | Char | ISO 8601 duration | Timing | A fixed offset from the date provided by the variable referenced in TDANCVAR. This is used when the timing of planned cycles does not start on the exact day referenced in the variable indicated in TDANCVAR. The value of this variable will be either zero or a positive value and will be represented in ISO 8601 character format. | Req |", "figure_ref": null, "candidates": [{"md_atom_id": "md_dmTD_assn_a005", "md_file": "knowledge_base/domains/TD/assumptions.md", "md_atom_type": "LIST_ITEM", "md_parent_section": "§TD [TD — Assumptions]", "md_verbatim": "3. The TDSTOFF variable is used in conjunction with the anchor date value (from the anchor date variable identified in TDANCVAR). If the pattern of disease assessments does not start exactly on a date collected on the CRF, this variable will represent the offset between the anchor date value and the start date of the pattern of disease assessments. This may be a positive or zero interval value represented in an ISO 8601 format.", "score": 0.4851, "match_basis": "verbatim_token+domain_route:TD"}, {"md_atom_id": "md_dmTD_assn_a004", "md_file": "knowledge_base/domains/TD/assumptions.md", "md_atom_type": "LIST_ITEM", "md_parent_section": "§TD [TD — Assumptions]", "md_verbatim": "2. A planned schedule of assessments will have a defined start point; the TDANCVAR variable is used to identify the variable in the ADaM subject-level dataset (ADSL) that holds the \"anchor\" date. By default, the anchor variable for the first pattern is ANCH1DT. An anchor date must be provided for each pattern of assessments, and each anchor variable must exist in ADSL. TDANCVAR is therefore a Required variable. Anchor date variable names should adhere to ADaM variable naming conventions (e.g., ANCH1DT, ANCH2DT). One anchor date may be used to anchor more than 1 pattern of disease assessments. When that is the case, the appropriate offset for the start of a subsequent pattern, represented as an ISO 8601 duration value, should be provided in the TDSTOFF variable.", "score": 0.4099, "match_basis": "verbatim_token+domain_route:TD"}, {"md_atom_id": "md_dmTD_ex_a011", "md_file": "knowledge_base/domains/TD/examples.md", "md_atom_type": "TABLE_ROW", "md_parent_section": "§TD.1 [Example 1]", "md_verbatim": "| 1 | ABC123 | TD | 1 | ANCH1DT | P0D | P8W | P53D | P9W | 6 |", "score": 0.4088, "match_basis": "verbatim_token+domain_route:TD"}, {"md_atom_id": "md_dmTD_ex_a023", "md_file": "knowledge_base/domains/TD/examples.md", "md_atom_type": "TABLE_ROW", "md_parent_section": "§TD.2 [Example 2]", "md_verbatim": "| 1 | ABC123 | TD | 1 | ANCH1DT | P0D | P8W | P53D | P9W | 6 |", "score": 0.4088, "match_basis": "verbatim_token+domain_route:TD"}, {"md_atom_id": "md_dmTD_ex_a024", "md_file": "knowledge_base/domains/TD/examples.md", "md_atom_type": "TABLE_ROW", "md_parent_section": "§TD.2 [Example 2]", "md_verbatim": "| 2 | ABC123 | TD | 2 | ANCH2DT | P0D | P8W | P53D | P9W | 4 |", "score": 0.4088, "match_basis": "verbatim_token+domain_route:TD"}], "candidate_count": 5, "zero_candidate": false}
{"pdf_atom_id": "ig34_p0411_a005", "pdf_atom_type": "TABLE_ROW", "pdf_source": "SDTMIG_v3.4", "pdf_page": 411, "pdf_parent_section": "§7.3.2 Trial Disease Assessments (TD)", "pdf_verbatim": "| TDTGTPAI | Planned Assessment Interval | Char | ISO 8601 duration | Timing | The planned interval between disease assessments represented in ISO 8601 character format. | Req |", "figure_ref": null, "candidates": [{"md_atom_id": "md_dmTD_ex_a011", "md_file": "knowledge_base/domains/TD/examples.md", "md_atom_type": "TABLE_ROW", "md_parent_section": "§TD.1 [Example 1]", "md_verbatim": "| 1 | ABC123 | TD | 1 | ANCH1DT | P0D | P8W | P53D | P9W | 6 |", "score": 0.4, "match_basis": "verbatim_token+domain_route:TD"}, {"md_atom_id": "md_dmTD_ex_a012", "md_file": "knowledge_base/domains/TD/examples.md", "md_atom_type": "TABLE_ROW", "md_parent_section": "§TD.1 [Example 1]", "md_verbatim": "| 2 | ABC123 | TD | 2 | ANCH1DT | P48W | P12W | P11W | P13W | 4 |", "score": 0.4, "match_basis": "verbatim_token+domain_route:TD"}, {"md_atom_id": "md_dmTD_ex_a013", "md_file": "knowledge_base/domains/TD/examples.md", "md_atom_type": "TABLE_ROW", "md_parent_section": "§TD.1 [Example 1]", "md_verbatim": "| 3 | ABC123 | TD | 3 | ANCH1DT | P96W | P24W | P23W | P25W | 12 |", "score": 0.4, "match_basis": "verbatim_token+domain_route:TD"}, {"md_atom_id": "md_dmTD_ex_a023", "md_file": "knowledge_base/domains/TD/examples.md", "md_atom_type": "TABLE_ROW", "md_parent_section": "§TD.2 [Example 2]", "md_verbatim": "| 1 | ABC123 | TD | 1 | ANCH1DT | P0D | P8W | P53D | P9W | 6 |", "score": 0.4, "match_basis": "verbatim_token+domain_route:TD"}, {"md_atom_id": "md_dmTD_ex_a024", "md_file": "knowledge_base/domains/TD/examples.md", "md_atom_type": "TABLE_ROW", "md_parent_section": "§TD.2 [Example 2]", "md_verbatim": "| 2 | ABC123 | TD | 2 | ANCH2DT | P0D | P8W | P53D | P9W | 4 |", "score": 0.4, "match_basis": "verbatim_token+domain_route:TD"}], "candidate_count": 5, "zero_candidate": false}
{"pdf_atom_id": "ig34_p0411_a006", "pdf_atom_type": "TABLE_ROW", "pdf_source": "SDTMIG_v3.4", "pdf_page": 411, "pdf_parent_section": "§7.3.2 Trial Disease Assessments (TD)", "pdf_verbatim": "| TDMINPAI | Planned Assessment Interval Minimum | Char | ISO 8601 duration | Timing | The lower limit of the allowed range for the planned interval between disease assessments represented in ISO 8601 character format. | Req |", "figure_ref": null, "candidates": [{"md_atom_id": "md_dmTD_ex_a011", "md_file": "knowledge_base/domains/TD/examples.md", "md_atom_type": "TABLE_ROW", "md_parent_section": "§TD.1 [Example 1]", "md_verbatim": "| 1 | ABC123 | TD | 1 | ANCH1DT | P0D | P8W | P53D | P9W | 6 |", "score": 0.4, "match_basis": "verbatim_token+domain_route:TD"}, {"md_atom_id": "md_dmTD_ex_a012", "md_file": "knowledge_base/domains/TD/examples.md", "md_atom_type": "TABLE_ROW", "md_parent_section": "§TD.1 [Example 1]", "md_verbatim": "| 2 | ABC123 | TD | 2 | ANCH1DT | P48W | P12W | P11W | P13W | 4 |", "score": 0.4, "match_basis": "verbatim_token+domain_route:TD"}, {"md_atom_id": "md_dmTD_ex_a013", "md_file": "knowledge_base/domains/TD/examples.md", "md_atom_type": "TABLE_ROW", "md_parent_section": "§TD.1 [Example 1]", "md_verbatim": "| 3 | ABC123 | TD | 3 | ANCH1DT | P96W | P24W | P23W | P25W | 12 |", "score": 0.4, "match_basis": "verbatim_token+domain_route:TD"}, {"md_atom_id": "md_dmTD_ex_a023", "md_file": "knowledge_base/domains/TD/examples.md", "md_atom_type": "TABLE_ROW", "md_parent_section": "§TD.2 [Example 2]", "md_verbatim": "| 1 | ABC123 | TD | 1 | ANCH1DT | P0D | P8W | P53D | P9W | 6 |", "score": 0.4, "match_basis": "verbatim_token+domain_route:TD"}, {"md_atom_id": "md_dmTD_ex_a024", "md_file": "knowledge_base/domains/TD/examples.md", "md_atom_type": "TABLE_ROW", "md_parent_section": "§TD.2 [Example 2]", "md_verbatim": "| 2 | ABC123 | TD | 2 | ANCH2DT | P0D | P8W | P53D | P9W | 4 |", "score": 0.4, "match_basis": "verbatim_token+domain_route:TD"}], "candidate_count": 5, "zero_candidate": false}
{"pdf_atom_id": "ig34_p0411_a007", "pdf_atom_type": "TABLE_ROW", "pdf_source": "SDTMIG_v3.4", "pdf_page": 411, "pdf_parent_section": "§7.3.2 Trial Disease Assessments (TD)", "pdf_verbatim": "| TDMAXPAI | Planned Assessment Interval Maximum | Char | ISO 8601 duration | Timing | The upper limit of the allowed range for the planned interval between disease assessments represented in ISO 8601 character format. | Req |", "figure_ref": null, "candidates": [{"md_atom_id": "md_dmTD_ex_a011", "md_file": "knowledge_base/domains/TD/examples.md", "md_atom_type": "TABLE_ROW", "md_parent_section": "§TD.1 [Example 1]", "md_verbatim": "| 1 | ABC123 | TD | 1 | ANCH1DT | P0D | P8W | P53D | P9W | 6 |", "score": 0.4, "match_basis": "verbatim_token+domain_route:TD"}, {"md_atom_id": "md_dmTD_ex_a012", "md_file": "knowledge_base/domains/TD/examples.md", "md_atom_type": "TABLE_ROW", "md_parent_section": "§TD.1 [Example 1]", "md_verbatim": "| 2 | ABC123 | TD | 2 | ANCH1DT | P48W | P12W | P11W | P13W | 4 |", "score": 0.4, "match_basis": "verbatim_token+domain_route:TD"}, {"md_atom_id": "md_dmTD_ex_a013", "md_file": "knowledge_base/domains/TD/examples.md", "md_atom_type": "TABLE_ROW", "md_parent_section": "§TD.1 [Example 1]", "md_verbatim": "| 3 | ABC123 | TD | 3 | ANCH1DT | P96W | P24W | P23W | P25W | 12 |", "score": 0.4, "match_basis": "verbatim_token+domain_route:TD"}, {"md_atom_id": "md_dmTD_ex_a023", "md_file": "knowledge_base/domains/TD/examples.md", "md_atom_type": "TABLE_ROW", "md_parent_section": "§TD.2 [Example 2]", "md_verbatim": "| 1 | ABC123 | TD | 1 | ANCH1DT | P0D | P8W | P53D | P9W | 6 |", "score": 0.4, "match_basis": "verbatim_token+domain_route:TD"}, {"md_atom_id": "md_dmTD_ex_a024", "md_file": "knowledge_base/domains/TD/examples.md", "md_atom_type": "TABLE_ROW", "md_parent_section": "§TD.2 [Example 2]", "md_verbatim": "| 2 | ABC123 | TD | 2 | ANCH2DT | P0D | P8W | P53D | P9W | 4 |", "score": 0.4, "match_basis": "verbatim_token+domain_route:TD"}], "candidate_count": 5, "zero_candidate": false}
{"pdf_atom_id": "ig34_p0411_a008", "pdf_atom_type": "TABLE_ROW", "pdf_source": "SDTMIG_v3.4", "pdf_page": 411, "pdf_parent_section": "§7.3.2 Trial Disease Assessments (TD)", "pdf_verbatim": "| TDNUMRPT | Maximum Number of Actual Assessments | Num | | Record Qualifier | This variable must represent the maximum number of actual assessments for the analysis that this disease assessment schedule describes. In a trial where the maximum number of assessments is not defined explicitly in the protocol (e.g., assessments occur until death), TDNUMRPT should represent the maximum number of disease assessments that support the efficacy analysis encountered by any subject across the trial at that point in time. | Req |", "figure_ref": null, "candidates": [{"md_atom_id": "md_dmTD_ex_a008", "md_file": "knowledge_base/domains/TD/examples.md", "md_atom_type": "LIST_ITEM", "md_parent_section": "§TD.1 [Example 1]", "md_verbatim": "- The third disease assessment schedule starts from week 96 and repeats every 24 weeks (week 120, week 144, and so on), with respective upper and lower limits of -1 week and +1 week, for an indefinite length of time. The preceding schematic shows that, for the third pattern, assessments will occur until disease progression; this therefore leaves the pattern open-ended. However, when data is included in an analysis, the total number of repeats can be identified and the highest number of repeat assessments for any subject in that pattern must be recorded in the TDNUMRPT variable on the final pattern record.", "score": 0.413, "match_basis": "verbatim_token+domain_route:TD"}, {"md_atom_id": "md_dmTD_ex_a011", "md_file": "knowledge_base/domains/TD/examples.md", "md_atom_type": "TABLE_ROW", "md_parent_section": "§TD.1 [Example 1]", "md_verbatim": "| 1 | ABC123 | TD | 1 | ANCH1DT | P0D | P8W | P53D | P9W | 6 |", "score": 0.4, "match_basis": "verbatim_token+domain_route:TD"}, {"md_atom_id": "md_dmTD_ex_a012", "md_file": "knowledge_base/domains/TD/examples.md", "md_atom_type": "TABLE_ROW", "md_parent_section": "§TD.1 [Example 1]", "md_verbatim": "| 2 | ABC123 | TD | 2 | ANCH1DT | P48W | P12W | P11W | P13W | 4 |", "score": 0.4, "match_basis": "verbatim_token+domain_route:TD"}, {"md_atom_id": "md_dmTD_ex_a013", "md_file": "knowledge_base/domains/TD/examples.md", "md_atom_type": "TABLE_ROW", "md_parent_section": "§TD.1 [Example 1]", "md_verbatim": "| 3 | ABC123 | TD | 3 | ANCH1DT | P96W | P24W | P23W | P25W | 12 |", "score": 0.4, "match_basis": "verbatim_token+domain_route:TD"}, {"md_atom_id": "md_dmTD_ex_a023", "md_file": "knowledge_base/domains/TD/examples.md", "md_atom_type": "TABLE_ROW", "md_parent_section": "§TD.2 [Example 2]", "md_verbatim": "| 1 | ABC123 | TD | 1 | ANCH1DT | P0D | P8W | P53D | P9W | 6 |", "score": 0.4, "match_basis": "verbatim_token+domain_route:TD"}], "candidate_count": 5, "zero_candidate": false}
{"pdf_atom_id": "ig34_p0411_a009", "pdf_atom_type": "NOTE", "pdf_source": "SDTMIG_v3.4", "pdf_page": 411, "pdf_parent_section": "§7.3.2 Trial Disease Assessments (TD)", "pdf_verbatim": "1In this column, an asterisk (*) indicates that the variable may be subject to controlled terminology. CDISC/NCI codelist values are enclosed in parentheses.", "figure_ref": null, "candidates": [{"md_atom_id": "md_dmTD_ex_a033", "md_file": "knowledge_base/domains/TD/examples.md", "md_atom_type": "SENTENCE", "md_parent_section": "§TD.3 [Example 3]", "md_verbatim": "For open-ended patterns, the total number of repeats can be identified when the data analysis is performed; the highest number of repeat assessments for any subject in that pattern must be recorded in the TDNUMRPT variable on the final pattern record.", "score": 0.3811, "match_basis": "verbatim_token+domain_route:TD"}, {"md_atom_id": "md_dmTD_ex_a017", "md_file": "knowledge_base/domains/TD/examples.md", "md_atom_type": "SENTENCE", "md_parent_section": "§TD.2 [Example 2]", "md_verbatim": "This example shows a crossover study, where subjects are given the period 1 treatment according to the first disease-assessment schedule until disease progression, then there is a rest period of 28 days prior to the start of the period 2 treatment (i.e., re-baseline for period 2). The subjects are then given the period 2 treatment according to the second disease assessment schedule until disease progression. This example also shows how two different reference/anchor dates can be used.", "score": 0.3756, "match_basis": "verbatim_token+domain_route:TD"}, {"md_atom_id": "md_dmTD_ex_a020", "md_file": "knowledge_base/domains/TD/examples.md", "md_atom_type": "SENTENCE", "md_parent_section": "§TD.2 [Example 2]", "md_verbatim": "**Row 2:** Shows the disease assessment schedule for the second period. The pattern starts on the date identified in the ADSL variable ANCH2DT and repeats every 8 weeks with respective upper and lower limits of -1 week and +1 week. The maximum number of repeats that occurred on this schedule was 4.", "score": 0.3751, "match_basis": "verbatim_token+domain_route:TD"}, {"md_atom_id": "md_dmTD_assn_a002", "md_file": "knowledge_base/domains/TD/assumptions.md", "md_atom_type": "SENTENCE", "md_parent_section": "§TD [TD — Assumptions]", "md_verbatim": "The purpose of the Trial Disease Assessments (TD) domain is to provide information on planned scheduling of disease assessments when the scheduling of disease assessments is not necessarily tied to the scheduling of visits. In oncology studies, good compliance with the disease-assessment schedule is essential to reduce the risk of \"assessment time bias.\" The TD domain makes possible an evaluation of assessment time bias from the SDTM, in particular for studies with progression-free survival (PFS) endpoints. TD has limited utility in oncology and was developed specifically with RECIST in mind and where an assessment-time bias analysis is appropriate. It is understood that extending this approach to Cheson and other criteria may not be appropriate or may pose difficulties. It is also understood that this approach may not be necessary in non-oncology studies, although it is available for use if appropriate.", "score": 0.3744, "match_basis": "verbatim_token+domain_route:TD"}, {"md_atom_id": "md_dmTD_ex_a019", "md_file": "knowledge_base/domains/TD/examples.md", "md_atom_type": "SENTENCE", "md_parent_section": "§TD.2 [Example 2]", "md_verbatim": "**Row 1:** Shows the disease assessment schedule for the first treatment period. The diagram above shows that this schedule repeats until disease progression. After the trial ended, the maximum number of repeats in this schedule was determined to be 6, so that is the value in TDNUMRPT for this schedule.", "score": 0.3738, "match_basis": "verbatim_token+domain_route:TD"}], "candidate_count": 5, "zero_candidate": false}
{"pdf_atom_id": "ig34_p0411_a010", "pdf_atom_type": "HEADING", "pdf_source": "SDTMIG_v3.4", "pdf_page": 411, "pdf_parent_section": "§7.3.2 Trial Disease Assessments (TD)", "pdf_verbatim": "TD – Assumptions", "figure_ref": null, "candidates": [{"md_atom_id": "md_dmTD_assn_a001", "md_file": "knowledge_base/domains/TD/assumptions.md", "md_atom_type": "HEADING", "md_parent_section": "§TD [TD — Assumptions]", "md_verbatim": "# TD — Assumptions", "score": 1.0, "match_basis": "verbatim_token+domain_route:TD"}, {"md_atom_id": "md_dmTD_ex_a001", "md_file": "knowledge_base/domains/TD/examples.md", "md_atom_type": "HEADING", "md_parent_section": "§TD [TD — Examples]", "md_verbatim": "# TD — Examples", "score": 0.4, "match_basis": "verbatim_token+domain_route:TD"}, {"md_atom_id": "md_dmTD_ex_a002", "md_file": "knowledge_base/domains/TD/examples.md", "md_atom_type": "HEADING", "md_parent_section": "§TD [TD — Examples]", "md_verbatim": "## Example 1", "score": 0.4, "match_basis": "verbatim_token+domain_route:TD"}, {"md_atom_id": "md_dmTD_ex_a014", "md_file": "knowledge_base/domains/TD/examples.md", "md_atom_type": "HEADING", "md_parent_section": "§TD [TD — Examples]", "md_verbatim": "## Example 2", "score": 0.4, "match_basis": "verbatim_token+domain_route:TD"}, {"md_atom_id": "md_dmTD_ex_a025", "md_file": "knowledge_base/domains/TD/examples.md", "md_atom_type": "HEADING", "md_parent_section": "§TD [TD — Examples]", "md_verbatim": "## Example 3", "score": 0.4, "match_basis": "verbatim_token+domain_route:TD"}], "candidate_count": 5, "zero_candidate": false}
{"pdf_atom_id": "ig34_p0411_a011", "pdf_atom_type": "LIST_ITEM", "pdf_source": "SDTMIG_v3.4", "pdf_page": 411, "pdf_parent_section": "§7.3.2 Trial Disease Assessments (TD)", "pdf_verbatim": "The purpose of the Trial Disease Assessments (TD) domain is to provide information on planned scheduling of disease assessments when the scheduling of disease assessments is not necessarily tied to the scheduling of visits. In oncology studies, good compliance with the disease-assessment schedule is essential to reduce the risk of \"assessment time bias.\" The TD domain makes possible an evaluation of assessment time bias from the SDTM, in particular for studies with progression-free survival (PFS) endpoints. TD has limited utility within oncology and was developed specifically with RECIST in mind and where an assessment-time bias analysis is appropriate. It is understood that extending this approach to Cheson and other criteria may not be appropriate or may pose difficulties. It is also understood that this approach may not be necessary in non-oncology studies, although it is available for use if appropriate.", "figure_ref": null, "candidates": [{"md_atom_id": "md_dmTD_assn_a002", "md_file": "knowledge_base/domains/TD/assumptions.md", "md_atom_type": "SENTENCE", "md_parent_section": "§TD [TD — Assumptions]", "md_verbatim": "The purpose of the Trial Disease Assessments (TD) domain is to provide information on planned scheduling of disease assessments when the scheduling of disease assessments is not necessarily tied to the scheduling of visits. In oncology studies, good compliance with the disease-assessment schedule is essential to reduce the risk of \"assessment time bias.\" The TD domain makes possible an evaluation of assessment time bias from the SDTM, in particular for studies with progression-free survival (PFS) endpoints. TD has limited utility in oncology and was developed specifically with RECIST in mind and where an assessment-time bias analysis is appropriate. It is understood that extending this approach to Cheson and other criteria may not be appropriate or may pose difficulties. It is also understood that this approach may not be necessary in non-oncology studies, although it is available for use if appropriate.", "score": 0.9076, "match_basis": "verbatim_token+domain_route:TD"}, {"md_atom_id": "md_dmTD_assn_a003", "md_file": "knowledge_base/domains/TD/assumptions.md", "md_atom_type": "LIST_ITEM", "md_parent_section": "§TD [TD — Assumptions]", "md_verbatim": "1. The purpose of the Trial Disease Assessments (TD) domain is to provide information on planned scheduling of disease assessments when the scheduling of disease assessments is not necessarily tied to the scheduling of visits. In oncology studies, good compliance with the disease-assessment schedule is essential to reduce the risk of \"assessment time bias.\" The TD domain makes possible an evaluation of assessment time bias from the SDTM, in particular for studies with progression-free survival (PFS) endpoints.", "score": 0.7595, "match_basis": "verbatim_token+domain_route:TD"}, {"md_atom_id": "md_dmTD_ex_a008", "md_file": "knowledge_base/domains/TD/examples.md", "md_atom_type": "LIST_ITEM", "md_parent_section": "§TD.1 [Example 1]", "md_verbatim": "- The third disease assessment schedule starts from week 96 and repeats every 24 weeks (week 120, week 144, and so on), with respective upper and lower limits of -1 week and +1 week, for an indefinite length of time. The preceding schematic shows that, for the third pattern, assessments will occur until disease progression; this therefore leaves the pattern open-ended. However, when data is included in an analysis, the total number of repeats can be identified and the highest number of repeat assessments for any subject in that pattern must be recorded in the TDNUMRPT variable on the final pattern record.", "score": 0.5374, "match_basis": "verbatim_token+domain_route:TD"}, {"md_atom_id": "md_dmTD_assn_a004", "md_file": "knowledge_base/domains/TD/assumptions.md", "md_atom_type": "LIST_ITEM", "md_parent_section": "§TD [TD — Assumptions]", "md_verbatim": "2. A planned schedule of assessments will have a defined start point; the TDANCVAR variable is used to identify the variable in the ADaM subject-level dataset (ADSL) that holds the \"anchor\" date. By default, the anchor variable for the first pattern is ANCH1DT. An anchor date must be provided for each pattern of assessments, and each anchor variable must exist in ADSL. TDANCVAR is therefore a Required variable. Anchor date variable names should adhere to ADaM variable naming conventions (e.g., ANCH1DT, ANCH2DT). One anchor date may be used to anchor more than 1 pattern of disease assessments. When that is the case, the appropriate offset for the start of a subsequent pattern, represented as an ISO 8601 duration value, should be provided in the TDSTOFF variable.", "score": 0.5293, "match_basis": "verbatim_token+domain_route:TD"}, {"md_atom_id": "md_dmTD_ex_a031", "md_file": "knowledge_base/domains/TD/examples.md", "md_atom_type": "LIST_ITEM", "md_parent_section": "§TD.3 [Example 3]", "md_verbatim": "- The second disease assessment schedule starts from week 48 and repeats every 12 weeks (week 60, week 72, etc.), with respective upper and lower limits of -1 week and +1 week, for an indefinite length of time. The preceding schematic shows that, for the second pattern, assessments will occur until disease progression; this therefore leaves the pattern open-ended.", "score": 0.5249, "match_basis": "verbatim_token+domain_route:TD"}], "candidate_count": 5, "zero_candidate": false}
{"pdf_atom_id": "ig34_p0411_a012", "pdf_atom_type": "LIST_ITEM", "pdf_source": "SDTMIG_v3.4", "pdf_page": 411, "pdf_parent_section": "§7.3.2 Trial Disease Assessments (TD)", "pdf_verbatim": "A planned schedule of assessments will have a defined start point; the TDANCVAR variable is used to identify the variable in the ADaM subject-level dataset (ADSL) that holds the \"anchor\" date. By default, the anchor variable for the first pattern is ANCH1DT. An anchor date must be provided for each pattern of assessments, and each anchor variable must exist in ADSL. TDANCVAR is therefore a Required variable. Anchor date variable names should adhere to ADaM variable naming conventions (e.g. ANCH1DT, ANCH2DT). One anchor date may be used to anchor more than 1 pattern of disease assessments. When that is the case, the appropriate offset for the start of a subsequent pattern, represented as an ISO 8601 duration value, should be provided in the TDSTOFF variable.", "figure_ref": null, "candidates": [{"md_atom_id": "md_dmTD_assn_a004", "md_file": "knowledge_base/domains/TD/assumptions.md", "md_atom_type": "LIST_ITEM", "md_parent_section": "§TD [TD — Assumptions]", "md_verbatim": "2. A planned schedule of assessments will have a defined start point; the TDANCVAR variable is used to identify the variable in the ADaM subject-level dataset (ADSL) that holds the \"anchor\" date. By default, the anchor variable for the first pattern is ANCH1DT. An anchor date must be provided for each pattern of assessments, and each anchor variable must exist in ADSL. TDANCVAR is therefore a Required variable. Anchor date variable names should adhere to ADaM variable naming conventions (e.g., ANCH1DT, ANCH2DT). One anchor date may be used to anchor more than 1 pattern of disease assessments. When that is the case, the appropriate offset for the start of a subsequent pattern, represented as an ISO 8601 duration value, should be provided in the TDSTOFF variable.", "score": 1.0, "match_basis": "verbatim_token+domain_route:TD"}, {"md_atom_id": "md_dmTD_assn_a006", "md_file": "knowledge_base/domains/TD/assumptions.md", "md_atom_type": "LIST_ITEM", "md_parent_section": "§TD [TD — Assumptions]", "md_verbatim": "4. A pattern of assessments consists of a series of intervals of equal duration, each followed by an assessment. Thus, the first assessment in a pattern is planned to occur at the anchor date (given by the variable named in TDANCVAR) plus the offset (TDSTOFF) plus the target assessment interval (TDTGTPAI). A baseline evaluation is usually not preceded by an interval, and would therefore not be considered part of an assessment pattern.", "score": 0.6033, "match_basis": "verbatim_token+domain_route:TD"}, {"md_atom_id": "md_dmTD_assn_a005", "md_file": "knowledge_base/domains/TD/assumptions.md", "md_atom_type": "LIST_ITEM", "md_parent_section": "§TD [TD — Assumptions]", "md_verbatim": "3. The TDSTOFF variable is used in conjunction with the anchor date value (from the anchor date variable identified in TDANCVAR). If the pattern of disease assessments does not start exactly on a date collected on the CRF, this variable will represent the offset between the anchor date value and the start date of the pattern of disease assessments. This may be a positive or zero interval value represented in an ISO 8601 format.", "score": 0.5966, "match_basis": "verbatim_token+domain_route:TD"}, {"md_atom_id": "md_dmTD_ex_a006", "md_file": "knowledge_base/domains/TD/examples.md", "md_atom_type": "LIST_ITEM", "md_parent_section": "§TD.1 [Example 1]", "md_verbatim": "- The first disease-assessment schedule pattern starts at the reference start date (identified in the ADSL ANCH1DT variable) and repeats every 8 weeks for a total of 6 repeated assessments (i.e., week 8, week 16, week 24, week 32, week 40, week 48). Note that there is an upper and lower limit around the planned disease assessment target where the first assessment (8 weeks) could occur as early as day 53 and as late as week 9. This upper and lower limit (-3 days, +1 week) would be applied to all assessments during that pattern.", "score": 0.5756, "match_basis": "verbatim_token+domain_route:TD"}, {"md_atom_id": "md_dmTD_ex_a030", "md_file": "knowledge_base/domains/TD/examples.md", "md_atom_type": "LIST_ITEM", "md_parent_section": "§TD.3 [Example 3]", "md_verbatim": "- The first disease-assessment schedule pattern starts at the reference start date (identified in the ADSL ANCH1DT variable) and repeats every 8 weeks for a total of 6 repeats (i.e., week 8, week 16, week 24, week 32, week 40, week 48), with respective upper and lower limits of -3 days and +1 week.", "score": 0.552, "match_basis": "verbatim_token+domain_route:TD"}], "candidate_count": 5, "zero_candidate": false}
{"pdf_atom_id": "ig34_p0411_a013", "pdf_atom_type": "LIST_ITEM", "pdf_source": "SDTMIG_v3.4", "pdf_page": 411, "pdf_parent_section": "§7.3.2 Trial Disease Assessments (TD)", "pdf_verbatim": "The TDSTOFF variable is used in conjunction with the anchor date value (from the anchor date variable identified in TDANCVAR). If the pattern of disease assessments does not start exactly on a date collected on the CRF, this variable will represent the offset between the anchor date value and the start date of the pattern of disease assessments. This may be a positive or zero interval value represented in an ISO 8601 format.", "figure_ref": null, "candidates": [{"md_atom_id": "md_dmTD_assn_a005", "md_file": "knowledge_base/domains/TD/assumptions.md", "md_atom_type": "LIST_ITEM", "md_parent_section": "§TD [TD — Assumptions]", "md_verbatim": "3. The TDSTOFF variable is used in conjunction with the anchor date value (from the anchor date variable identified in TDANCVAR). If the pattern of disease assessments does not start exactly on a date collected on the CRF, this variable will represent the offset between the anchor date value and the start date of the pattern of disease assessments. This may be a positive or zero interval value represented in an ISO 8601 format.", "score": 1.0, "match_basis": "verbatim_token+domain_route:TD"}, {"md_atom_id": "md_dmTD_assn_a004", "md_file": "knowledge_base/domains/TD/assumptions.md", "md_atom_type": "LIST_ITEM", "md_parent_section": "§TD [TD — Assumptions]", "md_verbatim": "2. A planned schedule of assessments will have a defined start point; the TDANCVAR variable is used to identify the variable in the ADaM subject-level dataset (ADSL) that holds the \"anchor\" date. By default, the anchor variable for the first pattern is ANCH1DT. An anchor date must be provided for each pattern of assessments, and each anchor variable must exist in ADSL. TDANCVAR is therefore a Required variable. Anchor date variable names should adhere to ADaM variable naming conventions (e.g., ANCH1DT, ANCH2DT). One anchor date may be used to anchor more than 1 pattern of disease assessments. When that is the case, the appropriate offset for the start of a subsequent pattern, represented as an ISO 8601 duration value, should be provided in the TDSTOFF variable.", "score": 0.5966, "match_basis": "verbatim_token+domain_route:TD"}, {"md_atom_id": "md_dmTD_ex_a030", "md_file": "knowledge_base/domains/TD/examples.md", "md_atom_type": "LIST_ITEM", "md_parent_section": "§TD.3 [Example 3]", "md_verbatim": "- The first disease-assessment schedule pattern starts at the reference start date (identified in the ADSL ANCH1DT variable) and repeats every 8 weeks for a total of 6 repeats (i.e., week 8, week 16, week 24, week 32, week 40, week 48), with respective upper and lower limits of -3 days and +1 week.", "score": 0.5734, "match_basis": "verbatim_token+domain_route:TD"}, {"md_atom_id": "md_dmTD_assn_a006", "md_file": "knowledge_base/domains/TD/assumptions.md", "md_atom_type": "LIST_ITEM", "md_parent_section": "§TD [TD — Assumptions]", "md_verbatim": "4. A pattern of assessments consists of a series of intervals of equal duration, each followed by an assessment. Thus, the first assessment in a pattern is planned to occur at the anchor date (given by the variable named in TDANCVAR) plus the offset (TDSTOFF) plus the target assessment interval (TDTGTPAI). A baseline evaluation is usually not preceded by an interval, and would therefore not be considered part of an assessment pattern.", "score": 0.5689, "match_basis": "verbatim_token+domain_route:TD"}, {"md_atom_id": "md_dmTD_ex_a032", "md_file": "knowledge_base/domains/TD/examples.md", "md_atom_type": "LIST_ITEM", "md_parent_section": "§TD.3 [Example 3]", "md_verbatim": "- The third disease assessment schedule starts at the extension reference start date (identified in the ADSL ANCH2DT variable) from week 96 and repeats every 12 weeks (week 120, week 144, etc.), with respective upper and lower limits of -1 week and +1 week, for an indefinite length of time.", "score": 0.5547, "match_basis": "verbatim_token+domain_route:TD"}], "candidate_count": 5, "zero_candidate": false}
{"pdf_atom_id": "ig34_p0412_a001", "pdf_atom_type": "LIST_ITEM", "pdf_source": "SDTMIG_v3.4", "pdf_page": 412, "pdf_parent_section": "§7.3.2 Trial Disease Assessments (TD)", "pdf_verbatim": "A pattern of assessments consists of a series of intervals of equal duration, each followed by an assessment. Thus, the first assessment in a pattern is planned to occur at the anchor date (given by the variable named in TDANCVAR) plus the offset (TDSTOFF) plus the target assessment interval (TDTGTPAI). A baseline evaluation is usually not preceded by an interval, and would therefore not be considered part of an assessment pattern.", "figure_ref": null, "candidates": [{"md_atom_id": "md_dmTD_assn_a006", "md_file": "knowledge_base/domains/TD/assumptions.md", "md_atom_type": "LIST_ITEM", "md_parent_section": "§TD [TD — Assumptions]", "md_verbatim": "4. A pattern of assessments consists of a series of intervals of equal duration, each followed by an assessment. Thus, the first assessment in a pattern is planned to occur at the anchor date (given by the variable named in TDANCVAR) plus the offset (TDSTOFF) plus the target assessment interval (TDTGTPAI). A baseline evaluation is usually not preceded by an interval, and would therefore not be considered part of an assessment pattern.", "score": 1.0, "match_basis": "verbatim_token+domain_route:TD"}, {"md_atom_id": "md_dmTD_assn_a004", "md_file": "knowledge_base/domains/TD/assumptions.md", "md_atom_type": "LIST_ITEM", "md_parent_section": "§TD [TD — Assumptions]", "md_verbatim": "2. A planned schedule of assessments will have a defined start point; the TDANCVAR variable is used to identify the variable in the ADaM subject-level dataset (ADSL) that holds the \"anchor\" date. By default, the anchor variable for the first pattern is ANCH1DT. An anchor date must be provided for each pattern of assessments, and each anchor variable must exist in ADSL. TDANCVAR is therefore a Required variable. Anchor date variable names should adhere to ADaM variable naming conventions (e.g., ANCH1DT, ANCH2DT). One anchor date may be used to anchor more than 1 pattern of disease assessments. When that is the case, the appropriate offset for the start of a subsequent pattern, represented as an ISO 8601 duration value, should be provided in the TDSTOFF variable.", "score": 0.6033, "match_basis": "verbatim_token+domain_route:TD"}, {"md_atom_id": "md_dmTD_assn_a005", "md_file": "knowledge_base/domains/TD/assumptions.md", "md_atom_type": "LIST_ITEM", "md_parent_section": "§TD [TD — Assumptions]", "md_verbatim": "3. The TDSTOFF variable is used in conjunction with the anchor date value (from the anchor date variable identified in TDANCVAR). If the pattern of disease assessments does not start exactly on a date collected on the CRF, this variable will represent the offset between the anchor date value and the start date of the pattern of disease assessments. This may be a positive or zero interval value represented in an ISO 8601 format.", "score": 0.5689, "match_basis": "verbatim_token+domain_route:TD"}, {"md_atom_id": "md_dmTD_ex_a006", "md_file": "knowledge_base/domains/TD/examples.md", "md_atom_type": "LIST_ITEM", "md_parent_section": "§TD.1 [Example 1]", "md_verbatim": "- The first disease-assessment schedule pattern starts at the reference start date (identified in the ADSL ANCH1DT variable) and repeats every 8 weeks for a total of 6 repeated assessments (i.e., week 8, week 16, week 24, week 32, week 40, week 48). Note that there is an upper and lower limit around the planned disease assessment target where the first assessment (8 weeks) could occur as early as day 53 and as late as week 9. This upper and lower limit (-3 days, +1 week) would be applied to all assessments during that pattern.", "score": 0.557, "match_basis": "verbatim_token+domain_route:TD"}, {"md_atom_id": "md_dmTD_ex_a030", "md_file": "knowledge_base/domains/TD/examples.md", "md_atom_type": "LIST_ITEM", "md_parent_section": "§TD.3 [Example 3]", "md_verbatim": "- The first disease-assessment schedule pattern starts at the reference start date (identified in the ADSL ANCH1DT variable) and repeats every 8 weeks for a total of 6 repeats (i.e., week 8, week 16, week 24, week 32, week 40, week 48), with respective upper and lower limits of -3 days and +1 week.", "score": 0.5134, "match_basis": "verbatim_token+domain_route:TD"}], "candidate_count": 5, "zero_candidate": false}
{"pdf_atom_id": "ig34_p0412_a002", "pdf_atom_type": "LIST_ITEM", "pdf_source": "SDTMIG_v3.4", "pdf_page": 412, "pdf_parent_section": "§7.3.2 Trial Disease Assessments (TD)", "pdf_verbatim": "This domain should not be created when the disease assessment schedule may vary for individual subjects (e.g., when completion of the first phase of a study is event-driven).", "figure_ref": null, "candidates": [{"md_atom_id": "md_dmTD_assn_a007", "md_file": "knowledge_base/domains/TD/assumptions.md", "md_atom_type": "LIST_ITEM", "md_parent_section": "§TD [TD — Assumptions]", "md_verbatim": "5. This domain should not be created when the disease assessment schedule may vary for individual subjects (e.g., when completion of the first phase of a study is event-driven).", "score": 1.0, "match_basis": "verbatim_token+domain_route:TD"}, {"md_atom_id": "md_dmTD_ex_a007", "md_file": "knowledge_base/domains/TD/examples.md", "md_atom_type": "LIST_ITEM", "md_parent_section": "§TD.1 [Example 1]", "md_verbatim": "- The second disease assessment schedule starts from week 48 and repeats every 12 weeks for a total of 4 repeats (i.e., week 60, week 72, week 84, week 96), with respective upper and lower limits of -1 week and +1 week.", "score": 0.5271, "match_basis": "verbatim_token+domain_route:TD"}, {"md_atom_id": "md_dmTD_ex_a030", "md_file": "knowledge_base/domains/TD/examples.md", "md_atom_type": "LIST_ITEM", "md_parent_section": "§TD.3 [Example 3]", "md_verbatim": "- The first disease-assessment schedule pattern starts at the reference start date (identified in the ADSL ANCH1DT variable) and repeats every 8 weeks for a total of 6 repeats (i.e., week 8, week 16, week 24, week 32, week 40, week 48), with respective upper and lower limits of -3 days and +1 week.", "score": 0.5233, "match_basis": "verbatim_token+domain_route:TD"}, {"md_atom_id": "md_dmTD_ex_a006", "md_file": "knowledge_base/domains/TD/examples.md", "md_atom_type": "LIST_ITEM", "md_parent_section": "§TD.1 [Example 1]", "md_verbatim": "- The first disease-assessment schedule pattern starts at the reference start date (identified in the ADSL ANCH1DT variable) and repeats every 8 weeks for a total of 6 repeated assessments (i.e., week 8, week 16, week 24, week 32, week 40, week 48). Note that there is an upper and lower limit around the planned disease assessment target where the first assessment (8 weeks) could occur as early as day 53 and as late as week 9. This upper and lower limit (-3 days, +1 week) would be applied to all assessments during that pattern.", "score": 0.5221, "match_basis": "verbatim_token+domain_route:TD"}, {"md_atom_id": "md_dmTD_assn_a004", "md_file": "knowledge_base/domains/TD/assumptions.md", "md_atom_type": "LIST_ITEM", "md_parent_section": "§TD [TD — Assumptions]", "md_verbatim": "2. A planned schedule of assessments will have a defined start point; the TDANCVAR variable is used to identify the variable in the ADaM subject-level dataset (ADSL) that holds the \"anchor\" date. By default, the anchor variable for the first pattern is ANCH1DT. An anchor date must be provided for each pattern of assessments, and each anchor variable must exist in ADSL. TDANCVAR is therefore a Required variable. Anchor date variable names should adhere to ADaM variable naming conventions (e.g., ANCH1DT, ANCH2DT). One anchor date may be used to anchor more than 1 pattern of disease assessments. When that is the case, the appropriate offset for the start of a subsequent pattern, represented as an ISO 8601 duration value, should be provided in the TDSTOFF variable.", "score": 0.5195, "match_basis": "verbatim_token+domain_route:TD"}], "candidate_count": 5, "zero_candidate": false}
{"pdf_atom_id": "ig34_p0412_a003", "pdf_atom_type": "HEADING", "pdf_source": "SDTMIG_v3.4", "pdf_page": 412, "pdf_parent_section": "§7.3.2 Trial Disease Assessments (TD)", "pdf_verbatim": "TD – Examples", "figure_ref": null, "candidates": [{"md_atom_id": "md_dmTD_ex_a001", "md_file": "knowledge_base/domains/TD/examples.md", "md_atom_type": "HEADING", "md_parent_section": "§TD [TD — Examples]", "md_verbatim": "# TD — Examples", "score": 1.0, "match_basis": "verbatim_token+domain_route:TD"}, {"md_atom_id": "md_dmTD_ex_a002", "md_file": "knowledge_base/domains/TD/examples.md", "md_atom_type": "HEADING", "md_parent_section": "§TD [TD — Examples]", "md_verbatim": "## Example 1", "score": 0.9, "match_basis": "verbatim_token+domain_route:TD"}, {"md_atom_id": "md_dmTD_ex_a014", "md_file": "knowledge_base/domains/TD/examples.md", "md_atom_type": "HEADING", "md_parent_section": "§TD [TD — Examples]", "md_verbatim": "## Example 2", "score": 0.9, "match_basis": "verbatim_token+domain_route:TD"}, {"md_atom_id": "md_dmTD_ex_a025", "md_file": "knowledge_base/domains/TD/examples.md", "md_atom_type": "HEADING", "md_parent_section": "§TD [TD — Examples]", "md_verbatim": "## Example 3", "score": 0.9, "match_basis": "verbatim_token+domain_route:TD"}, {"md_atom_id": "md_dmTD_assn_a001", "md_file": "knowledge_base/domains/TD/assumptions.md", "md_atom_type": "HEADING", "md_parent_section": "§TD [TD — Assumptions]", "md_verbatim": "# TD — Assumptions", "score": 0.4, "match_basis": "verbatim_token+domain_route:TD"}], "candidate_count": 5, "zero_candidate": false}
{"pdf_atom_id": "ig34_p0412_a004", "pdf_atom_type": "HEADING", "pdf_source": "SDTMIG_v3.4", "pdf_page": 412, "pdf_parent_section": "§7.3.2 Trial Disease Assessments (TD) – Examples", "pdf_verbatim": "Example 1", "figure_ref": null, "candidates": [{"md_atom_id": "md_dmTD_ex_a002", "md_file": "knowledge_base/domains/TD/examples.md", "md_atom_type": "HEADING", "md_parent_section": "§TD [TD — Examples]", "md_verbatim": "## Example 1", "score": 1.0, "match_basis": "verbatim_token+domain_route:TD"}, {"md_atom_id": "md_dmTD_ex_a014", "md_file": "knowledge_base/domains/TD/examples.md", "md_atom_type": "HEADING", "md_parent_section": "§TD [TD — Examples]", "md_verbatim": "## Example 2", "score": 1.0, "match_basis": "verbatim_token+domain_route:TD"}, {"md_atom_id": "md_dmTD_ex_a025", "md_file": "knowledge_base/domains/TD/examples.md", "md_atom_type": "HEADING", "md_parent_section": "§TD [TD — Examples]", "md_verbatim": "## Example 3", "score": 1.0, "match_basis": "verbatim_token+domain_route:TD"}, {"md_atom_id": "md_dmTD_ex_a001", "md_file": "knowledge_base/domains/TD/examples.md", "md_atom_type": "HEADING", "md_parent_section": "§TD [TD — Examples]", "md_verbatim": "# TD — Examples", "score": 0.9, "match_basis": "verbatim_token+domain_route:TD"}, {"md_atom_id": "md_dmTD_assn_a001", "md_file": "knowledge_base/domains/TD/assumptions.md", "md_atom_type": "HEADING", "md_parent_section": "§TD [TD — Assumptions]", "md_verbatim": "# TD — Assumptions", "score": 0.4, "match_basis": "verbatim_token+domain_route:TD"}], "candidate_count": 5, "zero_candidate": false}
{"pdf_atom_id": "ig34_p0412_a005", "pdf_atom_type": "FIGURE", "pdf_source": "SDTMIG_v3.4", "pdf_page": 412, "pdf_parent_section": "§7.3.2 Trial Disease Assessments (TD) – Examples", "pdf_verbatim": "[FIGURE: Timeline diagram with ANCH1DT anchor at left. Three schedule segments labeled 'Schedule 1, every 8 weeks', 'Schedule 2, every 12 weeks', 'Schedule 3, every 24 weeks'. X-axis labeled 'Time in  [TRUNCATED:FIGURE]", "figure_ref": "pdf_p0412+top", "candidates": [{"md_atom_id": "md_dmTD_ex_a004", "md_file": "knowledge_base/domains/TD/examples.md", "md_atom_type": "FIGURE", "md_parent_section": "§TD.1 [Example 1]", "md_verbatim": "```mermaid\ngraph LR\n    ANCH1DT([\"ANCH1DT(anchor)\"])\n\n    subgraph S1[\"Schedule 1 — every 8 weeks (weeks 8–48)\"]\n        W8[/\"▲ Wk 8\"/]\n        W16[/\"▲ Wk 16\"/]\n        W24[/\"▲ Wk 24\"/]\n        W32[/\" [TRUNCATED:FIGURE]", "score": 0.4932, "match_basis": "verbatim_token+global_figure"}, {"md_atom_id": "md_dmTD_ex_a016", "md_file": "knowledge_base/domains/TD/examples.md", "md_atom_type": "FIGURE", "md_parent_section": "§TD.2 [Example 2]", "md_verbatim": "```mermaid\ngraph LR\n    subgraph P1[\"Period 1\"]\n        ANCH1DT([\"ANCH1DT(anchor)\"])\n        subgraph S1[\"Schedule 1 — every 8 weeks\"]\n            A8[/\"▲ Wk 8\"/]\n            A16[/\"▲ Wk 16\"/]\n          [TRUNCATED:FIGURE]", "score": 0.48, "match_basis": "verbatim_token+global_figure"}, {"md_atom_id": "md_dmTD_ex_a027", "md_file": "knowledge_base/domains/TD/examples.md", "md_atom_type": "FIGURE", "md_parent_section": "§TD.3 [Example 3]", "md_verbatim": "```mermaid\ngraph LR\n    subgraph DBT[\"Double Blind Treatment (Standard vs. Experimental Treatment)\"]\n        ANCH1DT([\"ANCH1DT(anchor)\"])\n        subgraph S1[\"Schedule 1 — every 8 weeks (weeks 8–48)\"] [TRUNCATED:FIGURE]", "score": 0.4628, "match_basis": "verbatim_token+global_figure"}, {"md_atom_id": "md_dmTA_ex_a193", "md_file": "knowledge_base/domains/TA/examples.md", "md_atom_type": "FIGURE", "md_parent_section": "§TA.6 [Example 6]", "md_verbatim": "```mermaid\ngraph LR\n    subgraph SE[\"Screening Epoch\"]\n        s1[Screen]\n        s2[Screen]\n    end\n    subgraph TE[\"Treatment Epoch\"]\n        da[\"Drug A | Rest A<br/>Repeat until disease progression [TRUNCATED:FIGURE]", "score": 0.3968, "match_basis": "verbatim_token+global_figure"}, {"md_atom_id": "md_dmTA_ex_a122", "md_file": "knowledge_base/domains/TA/examples.md", "md_atom_type": "FIGURE", "md_parent_section": "§TA.4 [Example 4]", "md_verbatim": "```mermaid\ngraph LR\n    subgraph SE[\"Screening Epoch\"]\n        s1[Screen]\n        s2[Screen]\n    end\n    subgraph TE[\"Treatment Epoch\"]\n        da[\"Drug A | Rest<br/>Repeat until disease progression\"] [TRUNCATED:FIGURE]", "score": 0.3914, "match_basis": "verbatim_token+global_figure"}], "candidate_count": 5, "zero_candidate": false}
{"pdf_atom_id": "ig34_p0412_a006", "pdf_atom_type": "SENTENCE", "pdf_source": "SDTMIG_v3.4", "pdf_page": 412, "pdf_parent_section": "§7.3.2 Trial Disease Assessments (TD) – Examples", "pdf_verbatim": "This example shows a study where the disease assessment schedule changes over the course of the study.", "figure_ref": null, "candidates": [{"md_atom_id": "md_dmTD_ex_a029", "md_file": "knowledge_base/domains/TD/examples.md", "md_atom_type": "SENTENCE", "md_parent_section": "§TD.3 [Example 3]", "md_verbatim": "In this example, there are 3 distinct disease-assessment schedule patterns:", "score": 0.6949, "match_basis": "verbatim_token+domain_route:TD"}, {"md_atom_id": "md_dmTD_ex_a005", "md_file": "knowledge_base/domains/TD/examples.md", "md_atom_type": "SENTENCE", "md_parent_section": "§TD.1 [Example 1]", "md_verbatim": "This example shows a study where the disease assessment schedule changes over the course of the study. In this example, there are 3 distinct disease-assessment schedule patterns. A single anchor date variable (TDANCVAR) provides the anchor date for each pattern. The offset variable (TDSTOFF), used in conjunction with the anchor date variable, provides the start point of each pattern of assessments.", "score": 0.6452, "match_basis": "verbatim_token+domain_route:TD"}, {"md_atom_id": "md_dmTD_ex_a028", "md_file": "knowledge_base/domains/TD/examples.md", "md_atom_type": "SENTENCE", "md_parent_section": "§TD.3 [Example 3]", "md_verbatim": "This example shows a study where subjects are randomized to standard treatment or an experimental treatment. The subjects who are randomized to standard treatment are given the option to receive experimental treatment after they end the standard treatment (e.g., due to disease progression on standard treatment). In the randomized treatment epoch, the disease assessment schedule changes over the course of the study. At the start of the extension treatment epoch, subjects are re-baselined, i.e., an extension baseline disease assessment is performed and the disease assessment schedule is restarted.", "score": 0.6169, "match_basis": "verbatim_token+domain_route:TD"}, {"md_atom_id": "md_dmTD_ex_a017", "md_file": "knowledge_base/domains/TD/examples.md", "md_atom_type": "SENTENCE", "md_parent_section": "§TD.2 [Example 2]", "md_verbatim": "This example shows a crossover study, where subjects are given the period 1 treatment according to the first disease-assessment schedule until disease progression, then there is a rest period of 28 days prior to the start of the period 2 treatment (i.e., re-baseline for period 2). The subjects are then given the period 2 treatment according to the second disease assessment schedule until disease progression. This example also shows how two different reference/anchor dates can be used.", "score": 0.5714, "match_basis": "verbatim_token+domain_route:TD"}, {"md_atom_id": "md_dmTD_ex_a003", "md_file": "knowledge_base/domains/TD/examples.md", "md_atom_type": "SENTENCE", "md_parent_section": "§TD.1 [Example 1]", "md_verbatim": "**Timeline Diagram — Example 1: Three sequential assessment schedules from a single anchor**", "score": 0.5443, "match_basis": "verbatim_token+domain_route:TD"}], "candidate_count": 5, "zero_candidate": false}
{"pdf_atom_id": "ig34_p0412_a007", "pdf_atom_type": "SENTENCE", "pdf_source": "SDTMIG_v3.4", "pdf_page": 412, "pdf_parent_section": "§7.3.2 Trial Disease Assessments (TD) – Examples", "pdf_verbatim": "In this example, there are 3 distinct disease-assessment schedule patterns.", "figure_ref": null, "candidates": [{"md_atom_id": "md_dmTD_ex_a029", "md_file": "knowledge_base/domains/TD/examples.md", "md_atom_type": "SENTENCE", "md_parent_section": "§TD.3 [Example 3]", "md_verbatim": "In this example, there are 3 distinct disease-assessment schedule patterns:", "score": 1.0, "match_basis": "verbatim_token+domain_route:TD"}, {"md_atom_id": "md_dmTD_ex_a005", "md_file": "knowledge_base/domains/TD/examples.md", "md_atom_type": "SENTENCE", "md_parent_section": "§TD.1 [Example 1]", "md_verbatim": "This example shows a study where the disease assessment schedule changes over the course of the study. In this example, there are 3 distinct disease-assessment schedule patterns. A single anchor date variable (TDANCVAR) provides the anchor date for each pattern. The offset variable (TDSTOFF), used in conjunction with the anchor date variable, provides the start point of each pattern of assessments.", "score": 0.6139, "match_basis": "verbatim_token+domain_route:TD"}, {"md_atom_id": "md_dmTD_ex_a003", "md_file": "knowledge_base/domains/TD/examples.md", "md_atom_type": "SENTENCE", "md_parent_section": "§TD.1 [Example 1]", "md_verbatim": "**Timeline Diagram — Example 1: Three sequential assessment schedules from a single anchor**", "score": 0.5562, "match_basis": "verbatim_token+domain_route:TD"}, {"md_atom_id": "md_dmTD_ex_a017", "md_file": "knowledge_base/domains/TD/examples.md", "md_atom_type": "SENTENCE", "md_parent_section": "§TD.2 [Example 2]", "md_verbatim": "This example shows a crossover study, where subjects are given the period 1 treatment according to the first disease-assessment schedule until disease progression, then there is a rest period of 28 days prior to the start of the period 2 treatment (i.e., re-baseline for period 2). The subjects are then given the period 2 treatment according to the second disease assessment schedule until disease progression. This example also shows how two different reference/anchor dates can be used.", "score": 0.5333, "match_basis": "verbatim_token+domain_route:TD"}, {"md_atom_id": "md_dmTD_ex_a028", "md_file": "knowledge_base/domains/TD/examples.md", "md_atom_type": "SENTENCE", "md_parent_section": "§TD.3 [Example 3]", "md_verbatim": "This example shows a study where subjects are randomized to standard treatment or an experimental treatment. The subjects who are randomized to standard treatment are given the option to receive experimental treatment after they end the standard treatment (e.g., due to disease progression on standard treatment). In the randomized treatment epoch, the disease assessment schedule changes over the course of the study. At the start of the extension treatment epoch, subjects are re-baselined, i.e., an extension baseline disease assessment is performed and the disease assessment schedule is restarted.", "score": 0.5329, "match_basis": "verbatim_token+domain_route:TD"}], "candidate_count": 5, "zero_candidate": false}
{"pdf_atom_id": "ig34_p0412_a008", "pdf_atom_type": "SENTENCE", "pdf_source": "SDTMIG_v3.4", "pdf_page": 412, "pdf_parent_section": "§7.3.2 Trial Disease Assessments (TD) – Examples", "pdf_verbatim": "A single anchor date variable (TDANCVAR) provides the anchor date for each pattern.", "figure_ref": null, "candidates": [{"md_atom_id": "md_dmTD_ex_a005", "md_file": "knowledge_base/domains/TD/examples.md", "md_atom_type": "SENTENCE", "md_parent_section": "§TD.1 [Example 1]", "md_verbatim": "This example shows a study where the disease assessment schedule changes over the course of the study. In this example, there are 3 distinct disease-assessment schedule patterns. A single anchor date variable (TDANCVAR) provides the anchor date for each pattern. The offset variable (TDSTOFF), used in conjunction with the anchor date variable, provides the start point of each pattern of assessments.", "score": 0.5826, "match_basis": "verbatim_token+domain_route:TD"}, {"md_atom_id": "md_dmTD_ex_a020", "md_file": "knowledge_base/domains/TD/examples.md", "md_atom_type": "SENTENCE", "md_parent_section": "§TD.2 [Example 2]", "md_verbatim": "**Row 2:** Shows the disease assessment schedule for the second period. The pattern starts on the date identified in the ADSL variable ANCH2DT and repeats every 8 weeks with respective upper and lower limits of -1 week and +1 week. The maximum number of repeats that occurred on this schedule was 4.", "score": 0.4818, "match_basis": "verbatim_token+domain_route:TD"}, {"md_atom_id": "md_dmTD_ex_a033", "md_file": "knowledge_base/domains/TD/examples.md", "md_atom_type": "SENTENCE", "md_parent_section": "§TD.3 [Example 3]", "md_verbatim": "For open-ended patterns, the total number of repeats can be identified when the data analysis is performed; the highest number of repeat assessments for any subject in that pattern must be recorded in the TDNUMRPT variable on the final pattern record.", "score": 0.4811, "match_basis": "verbatim_token+domain_route:TD"}, {"md_atom_id": "md_dmTD_ex_a003", "md_file": "knowledge_base/domains/TD/examples.md", "md_atom_type": "SENTENCE", "md_parent_section": "§TD.1 [Example 1]", "md_verbatim": "**Timeline Diagram — Example 1: Three sequential assessment schedules from a single anchor**", "score": 0.4615, "match_basis": "verbatim_token+domain_route:TD"}, {"md_atom_id": "md_dmTD_ex_a029", "md_file": "knowledge_base/domains/TD/examples.md", "md_atom_type": "SENTENCE", "md_parent_section": "§TD.3 [Example 3]", "md_verbatim": "In this example, there are 3 distinct disease-assessment schedule patterns:", "score": 0.4514, "match_basis": "verbatim_token+domain_route:TD"}], "candidate_count": 5, "zero_candidate": false}
{"pdf_atom_id": "ig34_p0412_a009", "pdf_atom_type": "SENTENCE", "pdf_source": "SDTMIG_v3.4", "pdf_page": 412, "pdf_parent_section": "§7.3.2 Trial Disease Assessments (TD) – Examples", "pdf_verbatim": "The offset variable (TDSTOFF), used in conjunction with the anchor date variable, provides the start point of each pattern of assessments..", "figure_ref": null, "candidates": [{"md_atom_id": "md_dmTD_ex_a005", "md_file": "knowledge_base/domains/TD/examples.md", "md_atom_type": "SENTENCE", "md_parent_section": "§TD.1 [Example 1]", "md_verbatim": "This example shows a study where the disease assessment schedule changes over the course of the study. In this example, there are 3 distinct disease-assessment schedule patterns. A single anchor date variable (TDANCVAR) provides the anchor date for each pattern. The offset variable (TDSTOFF), used in conjunction with the anchor date variable, provides the start point of each pattern of assessments.", "score": 0.7235, "match_basis": "verbatim_token+domain_route:TD"}, {"md_atom_id": "md_dmTD_assn_a005", "md_file": "knowledge_base/domains/TD/assumptions.md", "md_atom_type": "LIST_ITEM", "md_parent_section": "§TD [TD — Assumptions]", "md_verbatim": "3. The TDSTOFF variable is used in conjunction with the anchor date value (from the anchor date variable identified in TDANCVAR). If the pattern of disease assessments does not start exactly on a date collected on the CRF, this variable will represent the offset between the anchor date value and the start date of the pattern of disease assessments. This may be a positive or zero interval value represented in an ISO 8601 format.", "score": 0.5491, "match_basis": "verbatim_token+domain_route:TD"}, {"md_atom_id": "md_dmTD_ex_a020", "md_file": "knowledge_base/domains/TD/examples.md", "md_atom_type": "SENTENCE", "md_parent_section": "§TD.2 [Example 2]", "md_verbatim": "**Row 2:** Shows the disease assessment schedule for the second period. The pattern starts on the date identified in the ADSL variable ANCH2DT and repeats every 8 weeks with respective upper and lower limits of -1 week and +1 week. The maximum number of repeats that occurred on this schedule was 4.", "score": 0.5324, "match_basis": "verbatim_token+domain_route:TD"}, {"md_atom_id": "md_dmTD_ex_a033", "md_file": "knowledge_base/domains/TD/examples.md", "md_atom_type": "SENTENCE", "md_parent_section": "§TD.3 [Example 3]", "md_verbatim": "For open-ended patterns, the total number of repeats can be identified when the data analysis is performed; the highest number of repeat assessments for any subject in that pattern must be recorded in the TDNUMRPT variable on the final pattern record.", "score": 0.5062, "match_basis": "verbatim_token+domain_route:TD"}, {"md_atom_id": "md_dmTD_ex_a029", "md_file": "knowledge_base/domains/TD/examples.md", "md_atom_type": "SENTENCE", "md_parent_section": "§TD.3 [Example 3]", "md_verbatim": "In this example, there are 3 distinct disease-assessment schedule patterns:", "score": 0.5023, "match_basis": "verbatim_token+domain_route:TD"}], "candidate_count": 5, "zero_candidate": false}
{"pdf_atom_id": "ig34_p0412_a010", "pdf_atom_type": "LIST_ITEM", "pdf_source": "SDTMIG_v3.4", "pdf_page": 412, "pdf_parent_section": "§7.3.2 Trial Disease Assessments (TD) – Examples", "pdf_verbatim": "The first disease-assessment schedule pattern starts at the reference start date (identified in the ADSL ANCH1DT variable) and repeats every 8 weeks for a total of 6 repeated assessments (i.e., week 8, week 16, week 24, week 32, week 40, week 48). Note that there is an upper and lower limit around the planned disease assessment target where the first assessment (8 weeks) could occur as early as day 53 and as late as week 9. This upper and lower limit (-3 days, +1 week) would be applied to all assessments during that pattern.", "figure_ref": null, "candidates": [{"md_atom_id": "md_dmTD_ex_a006", "md_file": "knowledge_base/domains/TD/examples.md", "md_atom_type": "LIST_ITEM", "md_parent_section": "§TD.1 [Example 1]", "md_verbatim": "- The first disease-assessment schedule pattern starts at the reference start date (identified in the ADSL ANCH1DT variable) and repeats every 8 weeks for a total of 6 repeated assessments (i.e., week 8, week 16, week 24, week 32, week 40, week 48). Note that there is an upper and lower limit around the planned disease assessment target where the first assessment (8 weeks) could occur as early as day 53 and as late as week 9. This upper and lower limit (-3 days, +1 week) would be applied to all assessments during that pattern.", "score": 1.0, "match_basis": "verbatim_token+domain_route:TD"}, {"md_atom_id": "md_dmTD_ex_a030", "md_file": "knowledge_base/domains/TD/examples.md", "md_atom_type": "LIST_ITEM", "md_parent_section": "§TD.3 [Example 3]", "md_verbatim": "- The first disease-assessment schedule pattern starts at the reference start date (identified in the ADSL ANCH1DT variable) and repeats every 8 weeks for a total of 6 repeats (i.e., week 8, week 16, week 24, week 32, week 40, week 48), with respective upper and lower limits of -3 days and +1 week.", "score": 0.7745, "match_basis": "verbatim_token+domain_route:TD"}, {"md_atom_id": "md_dmTD_ex_a032", "md_file": "knowledge_base/domains/TD/examples.md", "md_atom_type": "LIST_ITEM", "md_parent_section": "§TD.3 [Example 3]", "md_verbatim": "- The third disease assessment schedule starts at the extension reference start date (identified in the ADSL ANCH2DT variable) from week 96 and repeats every 12 weeks (week 120, week 144, etc.), with respective upper and lower limits of -1 week and +1 week, for an indefinite length of time.", "score": 0.6547, "match_basis": "verbatim_token+domain_route:TD"}, {"md_atom_id": "md_dmTD_ex_a008", "md_file": "knowledge_base/domains/TD/examples.md", "md_atom_type": "LIST_ITEM", "md_parent_section": "§TD.1 [Example 1]", "md_verbatim": "- The third disease assessment schedule starts from week 96 and repeats every 24 weeks (week 120, week 144, and so on), with respective upper and lower limits of -1 week and +1 week, for an indefinite length of time. The preceding schematic shows that, for the third pattern, assessments will occur until disease progression; this therefore leaves the pattern open-ended. However, when data is included in an analysis, the total number of repeats can be identified and the highest number of repeat assessments for any subject in that pattern must be recorded in the TDNUMRPT variable on the final pattern record.", "score": 0.6051, "match_basis": "verbatim_token+domain_route:TD"}, {"md_atom_id": "md_dmTD_ex_a007", "md_file": "knowledge_base/domains/TD/examples.md", "md_atom_type": "LIST_ITEM", "md_parent_section": "§TD.1 [Example 1]", "md_verbatim": "- The second disease assessment schedule starts from week 48 and repeats every 12 weeks for a total of 4 repeats (i.e., week 60, week 72, week 84, week 96), with respective upper and lower limits of -1 week and +1 week.", "score": 0.6, "match_basis": "verbatim_token+domain_route:TD"}], "candidate_count": 5, "zero_candidate": false}
{"pdf_atom_id": "ig34_p0412_a011", "pdf_atom_type": "LIST_ITEM", "pdf_source": "SDTMIG_v3.4", "pdf_page": 412, "pdf_parent_section": "§7.3.2 Trial Disease Assessments (TD) – Examples", "pdf_verbatim": "The second disease assessment schedule starts from week 48 and repeats every 12 weeks for a total of 4 repeats (i.e., week 60, week 72, week 84, week 96), with respective upper and lower limits of -1 week and + 1 week.", "figure_ref": null, "candidates": [{"md_atom_id": "md_dmTD_ex_a007", "md_file": "knowledge_base/domains/TD/examples.md", "md_atom_type": "LIST_ITEM", "md_parent_section": "§TD.1 [Example 1]", "md_verbatim": "- The second disease assessment schedule starts from week 48 and repeats every 12 weeks for a total of 4 repeats (i.e., week 60, week 72, week 84, week 96), with respective upper and lower limits of -1 week and +1 week.", "score": 1.0, "match_basis": "verbatim_token+domain_route:TD"}, {"md_atom_id": "md_dmTD_ex_a030", "md_file": "knowledge_base/domains/TD/examples.md", "md_atom_type": "LIST_ITEM", "md_parent_section": "§TD.3 [Example 3]", "md_verbatim": "- The first disease-assessment schedule pattern starts at the reference start date (identified in the ADSL ANCH1DT variable) and repeats every 8 weeks for a total of 6 repeats (i.e., week 8, week 16, week 24, week 32, week 40, week 48), with respective upper and lower limits of -3 days and +1 week.", "score": 0.7429, "match_basis": "verbatim_token+domain_route:TD"}, {"md_atom_id": "md_dmTD_ex_a032", "md_file": "knowledge_base/domains/TD/examples.md", "md_atom_type": "LIST_ITEM", "md_parent_section": "§TD.3 [Example 3]", "md_verbatim": "- The third disease assessment schedule starts at the extension reference start date (identified in the ADSL ANCH2DT variable) from week 96 and repeats every 12 weeks (week 120, week 144, etc.), with respective upper and lower limits of -1 week and +1 week, for an indefinite length of time.", "score": 0.6902, "match_basis": "verbatim_token+domain_route:TD"}, {"md_atom_id": "md_dmTD_ex_a031", "md_file": "knowledge_base/domains/TD/examples.md", "md_atom_type": "LIST_ITEM", "md_parent_section": "§TD.3 [Example 3]", "md_verbatim": "- The second disease assessment schedule starts from week 48 and repeats every 12 weeks (week 60, week 72, etc.), with respective upper and lower limits of -1 week and +1 week, for an indefinite length of time. The preceding schematic shows that, for the second pattern, assessments will occur until disease progression; this therefore leaves the pattern open-ended.", "score": 0.6821, "match_basis": "verbatim_token+domain_route:TD"}, {"md_atom_id": "md_dmTD_ex_a020", "md_file": "knowledge_base/domains/TD/examples.md", "md_atom_type": "SENTENCE", "md_parent_section": "§TD.2 [Example 2]", "md_verbatim": "**Row 2:** Shows the disease assessment schedule for the second period. The pattern starts on the date identified in the ADSL variable ANCH2DT and repeats every 8 weeks with respective upper and lower limits of -1 week and +1 week. The maximum number of repeats that occurred on this schedule was 4.", "score": 0.615, "match_basis": "verbatim_token+domain_route:TD"}], "candidate_count": 5, "zero_candidate": false}
{"pdf_atom_id": "ig34_p0412_a012", "pdf_atom_type": "LIST_ITEM", "pdf_source": "SDTMIG_v3.4", "pdf_page": 412, "pdf_parent_section": "§7.3.2 Trial Disease Assessments (TD) – Examples", "pdf_verbatim": "The third disease assessment schedule starts from week 96 and repeats every 24 weeks (week 120, week 144, and so on), with respective upper and lower limits of -1 week and + 1 week, for an indefinite length of time. The preceding schematic shows that, for the third pattern, assessments will occur until disease progression; this therefore leaves the pattern open-ended. However, when data is included in an analysis, the total number of repeats can be identified and the highest number of repeat assessments for any subject in that pattern must be recorded in the TDNUMRPT variable on the final pattern record.", "figure_ref": null, "candidates": [{"md_atom_id": "md_dmTD_ex_a008", "md_file": "knowledge_base/domains/TD/examples.md", "md_atom_type": "LIST_ITEM", "md_parent_section": "§TD.1 [Example 1]", "md_verbatim": "- The third disease assessment schedule starts from week 96 and repeats every 24 weeks (week 120, week 144, and so on), with respective upper and lower limits of -1 week and +1 week, for an indefinite length of time. The preceding schematic shows that, for the third pattern, assessments will occur until disease progression; this therefore leaves the pattern open-ended. However, when data is included in an analysis, the total number of repeats can be identified and the highest number of repeat assessments for any subject in that pattern must be recorded in the TDNUMRPT variable on the final pattern record.", "score": 1.0, "match_basis": "verbatim_token+domain_route:TD"}, {"md_atom_id": "md_dmTD_ex_a031", "md_file": "knowledge_base/domains/TD/examples.md", "md_atom_type": "LIST_ITEM", "md_parent_section": "§TD.3 [Example 3]", "md_verbatim": "- The second disease assessment schedule starts from week 48 and repeats every 12 weeks (week 60, week 72, etc.), with respective upper and lower limits of -1 week and +1 week, for an indefinite length of time. The preceding schematic shows that, for the second pattern, assessments will occur until disease progression; this therefore leaves the pattern open-ended.", "score": 0.7969, "match_basis": "verbatim_token+domain_route:TD"}, {"md_atom_id": "md_dmTD_ex_a032", "md_file": "knowledge_base/domains/TD/examples.md", "md_atom_type": "LIST_ITEM", "md_parent_section": "§TD.3 [Example 3]", "md_verbatim": "- The third disease assessment schedule starts at the extension reference start date (identified in the ADSL ANCH2DT variable) from week 96 and repeats every 12 weeks (week 120, week 144, etc.), with respective upper and lower limits of -1 week and +1 week, for an indefinite length of time.", "score": 0.6783, "match_basis": "verbatim_token+domain_route:TD"}, {"md_atom_id": "md_dmTD_ex_a030", "md_file": "knowledge_base/domains/TD/examples.md", "md_atom_type": "LIST_ITEM", "md_parent_section": "§TD.3 [Example 3]", "md_verbatim": "- The first disease-assessment schedule pattern starts at the reference start date (identified in the ADSL ANCH1DT variable) and repeats every 8 weeks for a total of 6 repeats (i.e., week 8, week 16, week 24, week 32, week 40, week 48), with respective upper and lower limits of -3 days and +1 week.", "score": 0.6359, "match_basis": "verbatim_token+domain_route:TD"}, {"md_atom_id": "md_dmTD_ex_a006", "md_file": "knowledge_base/domains/TD/examples.md", "md_atom_type": "LIST_ITEM", "md_parent_section": "§TD.1 [Example 1]", "md_verbatim": "- The first disease-assessment schedule pattern starts at the reference start date (identified in the ADSL ANCH1DT variable) and repeats every 8 weeks for a total of 6 repeated assessments (i.e., week 8, week 16, week 24, week 32, week 40, week 48). Note that there is an upper and lower limit around the planned disease assessment target where the first assessment (8 weeks) could occur as early as day 53 and as late as week 9. This upper and lower limit (-3 days, +1 week) would be applied to all assessments during that pattern.", "score": 0.6051, "match_basis": "verbatim_token+domain_route:TD"}], "candidate_count": 5, "zero_candidate": false}
{"pdf_atom_id": "ig34_p0412_a013", "pdf_atom_type": "CODE_LITERAL", "pdf_source": "SDTMIG_v3.4", "pdf_page": 412, "pdf_parent_section": "§7.3.2 Trial Disease Assessments (TD) – Examples", "pdf_verbatim": "td.xpt", "figure_ref": null, "candidates": [{"md_atom_id": "md_dmTD_ex_a009", "md_file": "knowledge_base/domains/TD/examples.md", "md_atom_type": "SENTENCE", "md_parent_section": "§TD.1 [Example 1]", "md_verbatim": "**td.xpt**", "score": 0.79, "match_basis": "verbatim_token+domain_route:TD"}, {"md_atom_id": "md_dmTD_ex_a021", "md_file": "knowledge_base/domains/TD/examples.md", "md_atom_type": "SENTENCE", "md_parent_section": "§TD.2 [Example 2]", "md_verbatim": "**td.xpt**", "score": 0.79, "match_basis": "verbatim_token+domain_route:TD"}, {"md_atom_id": "md_dmTD_ex_a034", "md_file": "knowledge_base/domains/TD/examples.md", "md_atom_type": "SENTENCE", "md_parent_section": "§TD.3 [Example 3]", "md_verbatim": "**td.xpt**", "score": 0.79, "match_basis": "verbatim_token+domain_route:TD"}, {"md_atom_id": "md_dmTD_assn_a001", "md_file": "knowledge_base/domains/TD/assumptions.md", "md_atom_type": "HEADING", "md_parent_section": "§TD [TD — Assumptions]", "md_verbatim": "# TD — Assumptions", "score": 0.19, "match_basis": "verbatim_token+domain_route:TD"}, {"md_atom_id": "md_dmTD_assn_a002", "md_file": "knowledge_base/domains/TD/assumptions.md", "md_atom_type": "SENTENCE", "md_parent_section": "§TD [TD — Assumptions]", "md_verbatim": "The purpose of the Trial Disease Assessments (TD) domain is to provide information on planned scheduling of disease assessments when the scheduling of disease assessments is not necessarily tied to the scheduling of visits. In oncology studies, good compliance with the disease-assessment schedule is essential to reduce the risk of \"assessment time bias.\" The TD domain makes possible an evaluation of assessment time bias from the SDTM, in particular for studies with progression-free survival (PFS) endpoints. TD has limited utility in oncology and was developed specifically with RECIST in mind and where an assessment-time bias analysis is appropriate. It is understood that extending this approach to Cheson and other criteria may not be appropriate or may pose difficulties. It is also understood that this approach may not be necessary in non-oncology studies, although it is available for use if appropriate.", "score": 0.19, "match_basis": "verbatim_token+domain_route:TD"}, {"md_atom_id": "md_dmTD_assn_a003", "md_file": "knowledge_base/domains/TD/assumptions.md", "md_atom_type": "LIST_ITEM", "md_parent_section": "§TD [TD — Assumptions]", "md_verbatim": "1. The purpose of the Trial Disease Assessments (TD) domain is to provide information on planned scheduling of disease assessments when the scheduling of disease assessments is not necessarily tied to the scheduling of visits. In oncology studies, good compliance with the disease-assessment schedule is essential to reduce the risk of \"assessment time bias.\" The TD domain makes possible an evaluation of assessment time bias from the SDTM, in particular for studies with progression-free survival (PFS) endpoints.", "score": 0.19, "match_basis": "verbatim_token+domain_route:TD"}, {"md_atom_id": "md_dmTD_assn_a004", "md_file": "knowledge_base/domains/TD/assumptions.md", "md_atom_type": "LIST_ITEM", "md_parent_section": "§TD [TD — Assumptions]", "md_verbatim": "2. A planned schedule of assessments will have a defined start point; the TDANCVAR variable is used to identify the variable in the ADaM subject-level dataset (ADSL) that holds the \"anchor\" date. By default, the anchor variable for the first pattern is ANCH1DT. An anchor date must be provided for each pattern of assessments, and each anchor variable must exist in ADSL. TDANCVAR is therefore a Required variable. Anchor date variable names should adhere to ADaM variable naming conventions (e.g., ANCH1DT, ANCH2DT). One anchor date may be used to anchor more than 1 pattern of disease assessments. When that is the case, the appropriate offset for the start of a subsequent pattern, represented as an ISO 8601 duration value, should be provided in the TDSTOFF variable.", "score": 0.19, "match_basis": "verbatim_token+domain_route:TD"}, {"md_atom_id": "md_dmTD_assn_a005", "md_file": "knowledge_base/domains/TD/assumptions.md", "md_atom_type": "LIST_ITEM", "md_parent_section": "§TD [TD — Assumptions]", "md_verbatim": "3. The TDSTOFF variable is used in conjunction with the anchor date value (from the anchor date variable identified in TDANCVAR). If the pattern of disease assessments does not start exactly on a date collected on the CRF, this variable will represent the offset between the anchor date value and the start date of the pattern of disease assessments. This may be a positive or zero interval value represented in an ISO 8601 format.", "score": 0.19, "match_basis": "verbatim_token+domain_route:TD"}, {"md_atom_id": "md_dmTD_assn_a006", "md_file": "knowledge_base/domains/TD/assumptions.md", "md_atom_type": "LIST_ITEM", "md_parent_section": "§TD [TD — Assumptions]", "md_verbatim": "4. A pattern of assessments consists of a series of intervals of equal duration, each followed by an assessment. Thus, the first assessment in a pattern is planned to occur at the anchor date (given by the variable named in TDANCVAR) plus the offset (TDSTOFF) plus the target assessment interval (TDTGTPAI). A baseline evaluation is usually not preceded by an interval, and would therefore not be considered part of an assessment pattern.", "score": 0.19, "match_basis": "verbatim_token+domain_route:TD"}, {"md_atom_id": "md_dmTD_assn_a007", "md_file": "knowledge_base/domains/TD/assumptions.md", "md_atom_type": "LIST_ITEM", "md_parent_section": "§TD [TD — Assumptions]", "md_verbatim": "5. This domain should not be created when the disease assessment schedule may vary for individual subjects (e.g., when completion of the first phase of a study is event-driven).", "score": 0.19, "match_basis": "verbatim_token+domain_route:TD"}], "candidate_count": 10, "zero_candidate": false}
{"pdf_atom_id": "ig34_p0412_a014", "pdf_atom_type": "TABLE_HEADER", "pdf_source": "SDTMIG_v3.4", "pdf_page": 412, "pdf_parent_section": "§7.3.2 Trial Disease Assessments (TD) – Examples", "pdf_verbatim": "| Row | STUDYID | DOMAIN | TDORDER | TDANCVAR | TDSTOFF | TDTGTPAI | TDMINPAI | TDMAXPAI | TDNUMRPT |", "figure_ref": null, "candidates": [{"md_atom_id": "md_dmTD_ex_a010", "md_file": "knowledge_base/domains/TD/examples.md", "md_atom_type": "TABLE_HEADER", "md_parent_section": "§TD.1 [Example 1]", "md_verbatim": "| Row | STUDYID | DOMAIN | TDORDER | TDANCVAR | TDSTOFF | TDTGTPAI | TDMINPAI | TDMAXPAI | TDNUMRPT |\n|-----|---------|--------|---------|----------|---------|----------|----------|----------|----------|", "score": 1.0, "match_basis": "verbatim_token+domain_route:TD"}, {"md_atom_id": "md_dmTD_ex_a022", "md_file": "knowledge_base/domains/TD/examples.md", "md_atom_type": "TABLE_HEADER", "md_parent_section": "§TD.2 [Example 2]", "md_verbatim": "| Row | STUDYID | DOMAIN | TDORDER | TDANCVAR | TDSTOFF | TDTGTPAI | TDMINPAI | TDMAXPAI | TDNUMRPT |\n|-----|---------|--------|---------|----------|---------|----------|----------|----------|----------|", "score": 1.0, "match_basis": "verbatim_token+domain_route:TD"}, {"md_atom_id": "md_dmTD_ex_a035", "md_file": "knowledge_base/domains/TD/examples.md", "md_atom_type": "TABLE_HEADER", "md_parent_section": "§TD.3 [Example 3]", "md_verbatim": "| Row | STUDYID | DOMAIN | TDORDER | TDANCVAR | TDSTOFF | TDTGTPAI | TDMINPAI | TDMAXPAI | TDNUMRPT |\n|-----|---------|--------|---------|----------|---------|----------|----------|----------|----------|", "score": 1.0, "match_basis": "verbatim_token+domain_route:TD"}, {"md_atom_id": "md_dmTD_ex_a011", "md_file": "knowledge_base/domains/TD/examples.md", "md_atom_type": "TABLE_ROW", "md_parent_section": "§TD.1 [Example 1]", "md_verbatim": "| 1 | ABC123 | TD | 1 | ANCH1DT | P0D | P8W | P53D | P9W | 6 |", "score": 0.35, "match_basis": "verbatim_token+domain_route:TD"}, {"md_atom_id": "md_dmTD_ex_a023", "md_file": "knowledge_base/domains/TD/examples.md", "md_atom_type": "TABLE_ROW", "md_parent_section": "§TD.2 [Example 2]", "md_verbatim": "| 1 | ABC123 | TD | 1 | ANCH1DT | P0D | P8W | P53D | P9W | 6 |", "score": 0.35, "match_basis": "verbatim_token+domain_route:TD"}], "candidate_count": 5, "zero_candidate": false}
{"pdf_atom_id": "ig34_p0412_a015", "pdf_atom_type": "TABLE_ROW", "pdf_source": "SDTMIG_v3.4", "pdf_page": 412, "pdf_parent_section": "§7.3.2 Trial Disease Assessments (TD) – Examples", "pdf_verbatim": "| 1 | ABC123 | TD | 1 | ANCH1DT | P0D | P8W | P53D | P9W | 6 |", "figure_ref": null, "candidates": [{"md_atom_id": "md_dmTD_ex_a011", "md_file": "knowledge_base/domains/TD/examples.md", "md_atom_type": "TABLE_ROW", "md_parent_section": "§TD.1 [Example 1]", "md_verbatim": "| 1 | ABC123 | TD | 1 | ANCH1DT | P0D | P8W | P53D | P9W | 6 |", "score": 1.0, "match_basis": "verbatim_token+domain_route:TD"}, {"md_atom_id": "md_dmTD_ex_a023", "md_file": "knowledge_base/domains/TD/examples.md", "md_atom_type": "TABLE_ROW", "md_parent_section": "§TD.2 [Example 2]", "md_verbatim": "| 1 | ABC123 | TD | 1 | ANCH1DT | P0D | P8W | P53D | P9W | 6 |", "score": 1.0, "match_basis": "verbatim_token+domain_route:TD"}, {"md_atom_id": "md_dmTD_ex_a036", "md_file": "knowledge_base/domains/TD/examples.md", "md_atom_type": "TABLE_ROW", "md_parent_section": "§TD.3 [Example 3]", "md_verbatim": "| 1 | ABC123 | TD | 1 | ANCH1DT | P0D | P8W | P53D | P9W | 6 |", "score": 1.0, "match_basis": "verbatim_token+domain_route:TD"}, {"md_atom_id": "md_dmTD_ex_a024", "md_file": "knowledge_base/domains/TD/examples.md", "md_atom_type": "TABLE_ROW", "md_parent_section": "§TD.2 [Example 2]", "md_verbatim": "| 2 | ABC123 | TD | 2 | ANCH2DT | P0D | P8W | P53D | P9W | 4 |", "score": 0.7882, "match_basis": "verbatim_token+domain_route:TD"}, {"md_atom_id": "md_dmTD_ex_a012", "md_file": "knowledge_base/domains/TD/examples.md", "md_atom_type": "TABLE_ROW", "md_parent_section": "§TD.1 [Example 1]", "md_verbatim": "| 2 | ABC123 | TD | 2 | ANCH1DT | P48W | P12W | P11W | P13W | 4 |", "score": 0.6455, "match_basis": "verbatim_token+domain_route:TD"}], "candidate_count": 5, "zero_candidate": false}
{"pdf_atom_id": "ig34_p0412_a016", "pdf_atom_type": "TABLE_ROW", "pdf_source": "SDTMIG_v3.4", "pdf_page": 412, "pdf_parent_section": "§7.3.2 Trial Disease Assessments (TD) – Examples", "pdf_verbatim": "| 2 | ABC123 | TD | 2 | ANCH1DT | P48W | P12W | P11W | P13W | 4 |", "figure_ref": null, "candidates": [{"md_atom_id": "md_dmTD_ex_a012", "md_file": "knowledge_base/domains/TD/examples.md", "md_atom_type": "TABLE_ROW", "md_parent_section": "§TD.1 [Example 1]", "md_verbatim": "| 2 | ABC123 | TD | 2 | ANCH1DT | P48W | P12W | P11W | P13W | 4 |", "score": 1.0, "match_basis": "verbatim_token+domain_route:TD"}, {"md_atom_id": "md_dmTD_ex_a037", "md_file": "knowledge_base/domains/TD/examples.md", "md_atom_type": "TABLE_ROW", "md_parent_section": "§TD.3 [Example 3]", "md_verbatim": "| 2 | ABC123 | TD | 2 | ANCH1DT | P48W | P12W | P11W | P13W | 17 |", "score": 1.0, "match_basis": "verbatim_token+domain_route:TD"}, {"md_atom_id": "md_dmTD_ex_a038", "md_file": "knowledge_base/domains/TD/examples.md", "md_atom_type": "TABLE_ROW", "md_parent_section": "§TD.3 [Example 3]", "md_verbatim": "| 3 | ABC123 | TD | 3 | ANCH2DT | P0D | P12W | P11W | P13W | 17 |", "score": 0.7429, "match_basis": "verbatim_token+domain_route:TD"}, {"md_atom_id": "md_dmTD_ex_a011", "md_file": "knowledge_base/domains/TD/examples.md", "md_atom_type": "TABLE_ROW", "md_parent_section": "§TD.1 [Example 1]", "md_verbatim": "| 1 | ABC123 | TD | 1 | ANCH1DT | P0D | P8W | P53D | P9W | 6 |", "score": 0.6455, "match_basis": "verbatim_token+domain_route:TD"}, {"md_atom_id": "md_dmTD_ex_a023", "md_file": "knowledge_base/domains/TD/examples.md", "md_atom_type": "TABLE_ROW", "md_parent_section": "§TD.2 [Example 2]", "md_verbatim": "| 1 | ABC123 | TD | 1 | ANCH1DT | P0D | P8W | P53D | P9W | 6 |", "score": 0.6455, "match_basis": "verbatim_token+domain_route:TD"}], "candidate_count": 5, "zero_candidate": false}
{"pdf_atom_id": "ig34_p0412_a017", "pdf_atom_type": "TABLE_ROW", "pdf_source": "SDTMIG_v3.4", "pdf_page": 412, "pdf_parent_section": "§7.3.2 Trial Disease Assessments (TD) – Examples", "pdf_verbatim": "| 3 | ABC123 | TD | 3 | ANCH1DT | P96W | P24W | P23W | P25W | 12 |", "figure_ref": null, "candidates": [{"md_atom_id": "md_dmTD_ex_a013", "md_file": "knowledge_base/domains/TD/examples.md", "md_atom_type": "TABLE_ROW", "md_parent_section": "§TD.1 [Example 1]", "md_verbatim": "| 3 | ABC123 | TD | 3 | ANCH1DT | P96W | P24W | P23W | P25W | 12 |", "score": 1.0, "match_basis": "verbatim_token+domain_route:TD"}, {"md_atom_id": "md_dmTD_ex_a011", "md_file": "knowledge_base/domains/TD/examples.md", "md_atom_type": "TABLE_ROW", "md_parent_section": "§TD.1 [Example 1]", "md_verbatim": "| 1 | ABC123 | TD | 1 | ANCH1DT | P0D | P8W | P53D | P9W | 6 |", "score": 0.6455, "match_basis": "verbatim_token+domain_route:TD"}, {"md_atom_id": "md_dmTD_ex_a023", "md_file": "knowledge_base/domains/TD/examples.md", "md_atom_type": "TABLE_ROW", "md_parent_section": "§TD.2 [Example 2]", "md_verbatim": "| 1 | ABC123 | TD | 1 | ANCH1DT | P0D | P8W | P53D | P9W | 6 |", "score": 0.6455, "match_basis": "verbatim_token+domain_route:TD"}, {"md_atom_id": "md_dmTD_ex_a036", "md_file": "knowledge_base/domains/TD/examples.md", "md_atom_type": "TABLE_ROW", "md_parent_section": "§TD.3 [Example 3]", "md_verbatim": "| 1 | ABC123 | TD | 1 | ANCH1DT | P0D | P8W | P53D | P9W | 6 |", "score": 0.6455, "match_basis": "verbatim_token+domain_route:TD"}, {"md_atom_id": "md_dmTD_ex_a012", "md_file": "knowledge_base/domains/TD/examples.md", "md_atom_type": "TABLE_ROW", "md_parent_section": "§TD.1 [Example 1]", "md_verbatim": "| 2 | ABC123 | TD | 2 | ANCH1DT | P48W | P12W | P11W | P13W | 4 |", "score": 0.616, "match_basis": "verbatim_token+domain_route:TD"}], "candidate_count": 5, "zero_candidate": false}
{"pdf_atom_id": "ig34_p0413_a001", "pdf_atom_type": "HEADING", "pdf_source": "SDTMIG_v3.4", "pdf_page": 413, "pdf_parent_section": "§7.3.2 Trial Disease Assessments (TD) – Examples", "pdf_verbatim": "Example 2", "figure_ref": null, "candidates": [{"md_atom_id": "md_dmTD_ex_a002", "md_file": "knowledge_base/domains/TD/examples.md", "md_atom_type": "HEADING", "md_parent_section": "§TD [TD — Examples]", "md_verbatim": "## Example 1", "score": 1.0, "match_basis": "verbatim_token+domain_route:TD"}, {"md_atom_id": "md_dmTD_ex_a014", "md_file": "knowledge_base/domains/TD/examples.md", "md_atom_type": "HEADING", "md_parent_section": "§TD [TD — Examples]", "md_verbatim": "## Example 2", "score": 1.0, "match_basis": "verbatim_token+domain_route:TD"}, {"md_atom_id": "md_dmTD_ex_a025", "md_file": "knowledge_base/domains/TD/examples.md", "md_atom_type": "HEADING", "md_parent_section": "§TD [TD — Examples]", "md_verbatim": "## Example 3", "score": 1.0, "match_basis": "verbatim_token+domain_route:TD"}, {"md_atom_id": "md_dmTD_ex_a001", "md_file": "knowledge_base/domains/TD/examples.md", "md_atom_type": "HEADING", "md_parent_section": "§TD [TD — Examples]", "md_verbatim": "# TD — Examples", "score": 0.9, "match_basis": "verbatim_token+domain_route:TD"}, {"md_atom_id": "md_dmTD_assn_a001", "md_file": "knowledge_base/domains/TD/assumptions.md", "md_atom_type": "HEADING", "md_parent_section": "§TD [TD — Assumptions]", "md_verbatim": "# TD — Assumptions", "score": 0.4, "match_basis": "verbatim_token+domain_route:TD"}], "candidate_count": 5, "zero_candidate": false}
{"pdf_atom_id": "ig34_p0413_a002", "pdf_atom_type": "FIGURE", "pdf_source": "SDTMIG_v3.4", "pdf_page": 413, "pdf_parent_section": "§7.3.2 Trial Disease Assessments (TD) – Examples", "pdf_verbatim": "[FIGURE: Two-period crossover diagram. Period 1 box at top. ANCH1DT anchor at left. Schedule 1 arrow labeled 'Schedule 1, every 8 weeks'. X-axis 'Time in Weeks' with ticks at 8, 16, 24, 32, 40, 48, 56 [TRUNCATED:FIGURE]", "figure_ref": "pdf_p0413+top", "candidates": [{"md_atom_id": "md_dmTD_ex_a016", "md_file": "knowledge_base/domains/TD/examples.md", "md_atom_type": "FIGURE", "md_parent_section": "§TD.2 [Example 2]", "md_verbatim": "```mermaid\ngraph LR\n    subgraph P1[\"Period 1\"]\n        ANCH1DT([\"ANCH1DT(anchor)\"])\n        subgraph S1[\"Schedule 1 — every 8 weeks\"]\n            A8[/\"▲ Wk 8\"/]\n            A16[/\"▲ Wk 16\"/]\n          [TRUNCATED:FIGURE]", "score": 0.5579, "match_basis": "verbatim_token+global_figure"}, {"md_atom_id": "md_dmTD_ex_a004", "md_file": "knowledge_base/domains/TD/examples.md", "md_atom_type": "FIGURE", "md_parent_section": "§TD.1 [Example 1]", "md_verbatim": "```mermaid\ngraph LR\n    ANCH1DT([\"ANCH1DT(anchor)\"])\n\n    subgraph S1[\"Schedule 1 — every 8 weeks (weeks 8–48)\"]\n        W8[/\"▲ Wk 8\"/]\n        W16[/\"▲ Wk 16\"/]\n        W24[/\"▲ Wk 24\"/]\n        W32[/\" [TRUNCATED:FIGURE]", "score": 0.5143, "match_basis": "verbatim_token+global_figure"}, {"md_atom_id": "md_dmTD_ex_a027", "md_file": "knowledge_base/domains/TD/examples.md", "md_atom_type": "FIGURE", "md_parent_section": "§TD.3 [Example 3]", "md_verbatim": "```mermaid\ngraph LR\n    subgraph DBT[\"Double Blind Treatment (Standard vs. Experimental Treatment)\"]\n        ANCH1DT([\"ANCH1DT(anchor)\"])\n        subgraph S1[\"Schedule 1 — every 8 weeks (weeks 8–48)\"] [TRUNCATED:FIGURE]", "score": 0.4843, "match_basis": "verbatim_token+global_figure"}, {"md_atom_id": "md_dmTA_ex_a193", "md_file": "knowledge_base/domains/TA/examples.md", "md_atom_type": "FIGURE", "md_parent_section": "§TA.6 [Example 6]", "md_verbatim": "```mermaid\ngraph LR\n    subgraph SE[\"Screening Epoch\"]\n        s1[Screen]\n        s2[Screen]\n    end\n    subgraph TE[\"Treatment Epoch\"]\n        da[\"Drug A | Rest A<br/>Repeat until disease progression [TRUNCATED:FIGURE]", "score": 0.4022, "match_basis": "verbatim_token+global_figure"}, {"md_atom_id": "md_dmTA_ex_a122", "md_file": "knowledge_base/domains/TA/examples.md", "md_atom_type": "FIGURE", "md_parent_section": "§TA.4 [Example 4]", "md_verbatim": "```mermaid\ngraph LR\n    subgraph SE[\"Screening Epoch\"]\n        s1[Screen]\n        s2[Screen]\n    end\n    subgraph TE[\"Treatment Epoch\"]\n        da[\"Drug A | Rest<br/>Repeat until disease progression\"] [TRUNCATED:FIGURE]", "score": 0.3962, "match_basis": "verbatim_token+global_figure"}], "candidate_count": 5, "zero_candidate": false}
{"pdf_atom_id": "ig34_p0413_a003", "pdf_atom_type": "SENTENCE", "pdf_source": "SDTMIG_v3.4", "pdf_page": 413, "pdf_parent_section": "§7.3.2 Trial Disease Assessments (TD) – Examples", "pdf_verbatim": "This example shows a crossover study, where subjects are given the period 1 treatment according to the first disease-assessment schedule until disease progression, then there is a rest period of 28 days prior to the start of period 2 treatment (i.e., re-baseline for period 2).", "figure_ref": null, "candidates": [{"md_atom_id": "md_dmTD_ex_a017", "md_file": "knowledge_base/domains/TD/examples.md", "md_atom_type": "SENTENCE", "md_parent_section": "§TD.2 [Example 2]", "md_verbatim": "This example shows a crossover study, where subjects are given the period 1 treatment according to the first disease-assessment schedule until disease progression, then there is a rest period of 28 days prior to the start of the period 2 treatment (i.e., re-baseline for period 2). The subjects are then given the period 2 treatment according to the second disease assessment schedule until disease progression. This example also shows how two different reference/anchor dates can be used.", "score": 0.8742, "match_basis": "verbatim_token+domain_route:TD"}, {"md_atom_id": "md_dmTD_ex_a028", "md_file": "knowledge_base/domains/TD/examples.md", "md_atom_type": "SENTENCE", "md_parent_section": "§TD.3 [Example 3]", "md_verbatim": "This example shows a study where subjects are randomized to standard treatment or an experimental treatment. The subjects who are randomized to standard treatment are given the option to receive experimental treatment after they end the standard treatment (e.g., due to disease progression on standard treatment). In the randomized treatment epoch, the disease assessment schedule changes over the course of the study. At the start of the extension treatment epoch, subjects are re-baselined, i.e., an extension baseline disease assessment is performed and the disease assessment schedule is restarted.", "score": 0.6826, "match_basis": "verbatim_token+domain_route:TD"}, {"md_atom_id": "md_dmTD_ex_a019", "md_file": "knowledge_base/domains/TD/examples.md", "md_atom_type": "SENTENCE", "md_parent_section": "§TD.2 [Example 2]", "md_verbatim": "**Row 1:** Shows the disease assessment schedule for the first treatment period. The diagram above shows that this schedule repeats until disease progression. After the trial ended, the maximum number of repeats in this schedule was determined to be 6, so that is the value in TDNUMRPT for this schedule.", "score": 0.611, "match_basis": "verbatim_token+domain_route:TD"}, {"md_atom_id": "md_dmTD_ex_a005", "md_file": "knowledge_base/domains/TD/examples.md", "md_atom_type": "SENTENCE", "md_parent_section": "§TD.1 [Example 1]", "md_verbatim": "This example shows a study where the disease assessment schedule changes over the course of the study. In this example, there are 3 distinct disease-assessment schedule patterns. A single anchor date variable (TDANCVAR) provides the anchor date for each pattern. The offset variable (TDSTOFF), used in conjunction with the anchor date variable, provides the start point of each pattern of assessments.", "score": 0.5653, "match_basis": "verbatim_token+domain_route:TD"}, {"md_atom_id": "md_dmTD_ex_a029", "md_file": "knowledge_base/domains/TD/examples.md", "md_atom_type": "SENTENCE", "md_parent_section": "§TD.3 [Example 3]", "md_verbatim": "In this example, there are 3 distinct disease-assessment schedule patterns:", "score": 0.5651, "match_basis": "verbatim_token+domain_route:TD"}], "candidate_count": 5, "zero_candidate": false}
{"pdf_atom_id": "ig34_p0413_a004", "pdf_atom_type": "SENTENCE", "pdf_source": "SDTMIG_v3.4", "pdf_page": 413, "pdf_parent_section": "§7.3.2 Trial Disease Assessments (TD) – Examples", "pdf_verbatim": "The subjects are then given the period 2 treatment according to the second disease assessment schedule until disease progression.", "figure_ref": null, "candidates": [{"md_atom_id": "md_dmTD_ex_a017", "md_file": "knowledge_base/domains/TD/examples.md", "md_atom_type": "SENTENCE", "md_parent_section": "§TD.2 [Example 2]", "md_verbatim": "This example shows a crossover study, where subjects are given the period 1 treatment according to the first disease-assessment schedule until disease progression, then there is a rest period of 28 days prior to the start of the period 2 treatment (i.e., re-baseline for period 2). The subjects are then given the period 2 treatment according to the second disease assessment schedule until disease progression. This example also shows how two different reference/anchor dates can be used.", "score": 0.7, "match_basis": "verbatim_token+domain_route:TD"}, {"md_atom_id": "md_dmTD_ex_a019", "md_file": "knowledge_base/domains/TD/examples.md", "md_atom_type": "SENTENCE", "md_parent_section": "§TD.2 [Example 2]", "md_verbatim": "**Row 1:** Shows the disease assessment schedule for the first treatment period. The diagram above shows that this schedule repeats until disease progression. After the trial ended, the maximum number of repeats in this schedule was determined to be 6, so that is the value in TDNUMRPT for this schedule.", "score": 0.6, "match_basis": "verbatim_token+domain_route:TD"}, {"md_atom_id": "md_dmTD_ex_a028", "md_file": "knowledge_base/domains/TD/examples.md", "md_atom_type": "SENTENCE", "md_parent_section": "§TD.3 [Example 3]", "md_verbatim": "This example shows a study where subjects are randomized to standard treatment or an experimental treatment. The subjects who are randomized to standard treatment are given the option to receive experimental treatment after they end the standard treatment (e.g., due to disease progression on standard treatment). In the randomized treatment epoch, the disease assessment schedule changes over the course of the study. At the start of the extension treatment epoch, subjects are re-baselined, i.e., an extension baseline disease assessment is performed and the disease assessment schedule is restarted.", "score": 0.5837, "match_basis": "verbatim_token+domain_route:TD"}, {"md_atom_id": "md_dmTD_ex_a029", "md_file": "knowledge_base/domains/TD/examples.md", "md_atom_type": "SENTENCE", "md_parent_section": "§TD.3 [Example 3]", "md_verbatim": "In this example, there are 3 distinct disease-assessment schedule patterns:", "score": 0.5537, "match_basis": "verbatim_token+domain_route:TD"}, {"md_atom_id": "md_dmTD_ex_a020", "md_file": "knowledge_base/domains/TD/examples.md", "md_atom_type": "SENTENCE", "md_parent_section": "§TD.2 [Example 2]", "md_verbatim": "**Row 2:** Shows the disease assessment schedule for the second period. The pattern starts on the date identified in the ADSL variable ANCH2DT and repeats every 8 weeks with respective upper and lower limits of -1 week and +1 week. The maximum number of repeats that occurred on this schedule was 4.", "score": 0.5375, "match_basis": "verbatim_token+domain_route:TD"}], "candidate_count": 5, "zero_candidate": false}
{"pdf_atom_id": "ig34_p0413_a005", "pdf_atom_type": "SENTENCE", "pdf_source": "SDTMIG_v3.4", "pdf_page": 413, "pdf_parent_section": "§7.3.2 Trial Disease Assessments (TD) – Examples", "pdf_verbatim": "This example also shows how two different reference/anchor dates can be used.", "figure_ref": null, "candidates": [{"md_atom_id": "md_dmTD_ex_a017", "md_file": "knowledge_base/domains/TD/examples.md", "md_atom_type": "SENTENCE", "md_parent_section": "§TD.2 [Example 2]", "md_verbatim": "This example shows a crossover study, where subjects are given the period 1 treatment according to the first disease-assessment schedule until disease progression, then there is a rest period of 28 days prior to the start of the period 2 treatment (i.e., re-baseline for period 2). The subjects are then given the period 2 treatment according to the second disease assessment schedule until disease progression. This example also shows how two different reference/anchor dates can be used.", "score": 0.5645, "match_basis": "verbatim_token+domain_route:TD"}, {"md_atom_id": "md_dmTD_ex_a015", "md_file": "knowledge_base/domains/TD/examples.md", "md_atom_type": "SENTENCE", "md_parent_section": "§TD.2 [Example 2]", "md_verbatim": "**Timeline Diagram — Example 2: Two periods with separate anchor dates (crossover study)**", "score": 0.5164, "match_basis": "verbatim_token+domain_route:TD"}, {"md_atom_id": "md_dmTD_ex_a005", "md_file": "knowledge_base/domains/TD/examples.md", "md_atom_type": "SENTENCE", "md_parent_section": "§TD.1 [Example 1]", "md_verbatim": "This example shows a study where the disease assessment schedule changes over the course of the study. In this example, there are 3 distinct disease-assessment schedule patterns. A single anchor date variable (TDANCVAR) provides the anchor date for each pattern. The offset variable (TDSTOFF), used in conjunction with the anchor date variable, provides the start point of each pattern of assessments.", "score": 0.493, "match_basis": "verbatim_token+domain_route:TD"}, {"md_atom_id": "md_dmTD_ex_a029", "md_file": "knowledge_base/domains/TD/examples.md", "md_atom_type": "SENTENCE", "md_parent_section": "§TD.3 [Example 3]", "md_verbatim": "In this example, there are 3 distinct disease-assessment schedule patterns:", "score": 0.4818, "match_basis": "verbatim_token+domain_route:TD"}, {"md_atom_id": "md_dmTD_ex_a003", "md_file": "knowledge_base/domains/TD/examples.md", "md_atom_type": "SENTENCE", "md_parent_section": "§TD.1 [Example 1]", "md_verbatim": "**Timeline Diagram — Example 1: Three sequential assessment schedules from a single anchor**", "score": 0.48, "match_basis": "verbatim_token+domain_route:TD"}], "candidate_count": 5, "zero_candidate": false}
{"pdf_atom_id": "ig34_p0413_a006", "pdf_atom_type": "LIST_ITEM", "pdf_source": "SDTMIG_v3.4", "pdf_page": 413, "pdf_parent_section": "§7.3.2 Trial Disease Assessments (TD) – Examples", "pdf_verbatim": "The Rest element is not represented as a row in the TD dataset, since no disease assessments occur during the Rest. Note that although the Rest epoch in this example is not important for TD, it is important that it is represented in other trial design datasets.", "figure_ref": null, "candidates": [{"md_atom_id": "md_dmTD_ex_a018", "md_file": "knowledge_base/domains/TD/examples.md", "md_atom_type": "LIST_ITEM", "md_parent_section": "§TD.2 [Example 2]", "md_verbatim": "- The Rest element is not represented as a row in the TD dataset, since no disease assessments occur during the Rest. Note that although the Rest epoch in this example is not important for TD, it is important that it is represented in other trial design datasets.", "score": 1.0, "match_basis": "verbatim_token+domain_route:TD"}, {"md_atom_id": "md_dmTD_ex_a006", "md_file": "knowledge_base/domains/TD/examples.md", "md_atom_type": "LIST_ITEM", "md_parent_section": "§TD.1 [Example 1]", "md_verbatim": "- The first disease-assessment schedule pattern starts at the reference start date (identified in the ADSL ANCH1DT variable) and repeats every 8 weeks for a total of 6 repeated assessments (i.e., week 8, week 16, week 24, week 32, week 40, week 48). Note that there is an upper and lower limit around the planned disease assessment target where the first assessment (8 weeks) could occur as early as day 53 and as late as week 9. This upper and lower limit (-3 days, +1 week) would be applied to all assessments during that pattern.", "score": 0.52, "match_basis": "verbatim_token+domain_route:TD"}, {"md_atom_id": "md_dmTD_assn_a005", "md_file": "knowledge_base/domains/TD/assumptions.md", "md_atom_type": "LIST_ITEM", "md_parent_section": "§TD [TD — Assumptions]", "md_verbatim": "3. The TDSTOFF variable is used in conjunction with the anchor date value (from the anchor date variable identified in TDANCVAR). If the pattern of disease assessments does not start exactly on a date collected on the CRF, this variable will represent the offset between the anchor date value and the start date of the pattern of disease assessments. This may be a positive or zero interval value represented in an ISO 8601 format.", "score": 0.5075, "match_basis": "verbatim_token+domain_route:TD"}, {"md_atom_id": "md_dmTD_assn_a007", "md_file": "knowledge_base/domains/TD/assumptions.md", "md_atom_type": "LIST_ITEM", "md_parent_section": "§TD [TD — Assumptions]", "md_verbatim": "5. This domain should not be created when the disease assessment schedule may vary for individual subjects (e.g., when completion of the first phase of a study is event-driven).", "score": 0.4978, "match_basis": "verbatim_token+domain_route:TD"}, {"md_atom_id": "md_dmTD_ex_a031", "md_file": "knowledge_base/domains/TD/examples.md", "md_atom_type": "LIST_ITEM", "md_parent_section": "§TD.3 [Example 3]", "md_verbatim": "- The second disease assessment schedule starts from week 48 and repeats every 12 weeks (week 60, week 72, etc.), with respective upper and lower limits of -1 week and +1 week, for an indefinite length of time. The preceding schematic shows that, for the second pattern, assessments will occur until disease progression; this therefore leaves the pattern open-ended.", "score": 0.4918, "match_basis": "verbatim_token+domain_route:TD"}], "candidate_count": 5, "zero_candidate": false}
{"pdf_atom_id": "ig34_p0413_a007", "pdf_atom_type": "SENTENCE", "pdf_source": "SDTMIG_v3.4", "pdf_page": 413, "pdf_parent_section": "§7.3.2 Trial Disease Assessments (TD) – Examples", "pdf_verbatim": "Row 1: Shows the disease assessment schedule for the first treatment period. The diagram above shows that this schedule repeats until disease progression. After the trial ended, the maximum number of repeats in this schedule was determined to be 6, so that is the value in TDNUMRPT for this schedule.", "figure_ref": null, "candidates": [{"md_atom_id": "md_dmTD_ex_a019", "md_file": "knowledge_base/domains/TD/examples.md", "md_atom_type": "SENTENCE", "md_parent_section": "§TD.2 [Example 2]", "md_verbatim": "**Row 1:** Shows the disease assessment schedule for the first treatment period. The diagram above shows that this schedule repeats until disease progression. After the trial ended, the maximum number of repeats in this schedule was determined to be 6, so that is the value in TDNUMRPT for this schedule.", "score": 1.0, "match_basis": "verbatim_token+domain_route:TD"}, {"md_atom_id": "md_dmTD_ex_a020", "md_file": "knowledge_base/domains/TD/examples.md", "md_atom_type": "SENTENCE", "md_parent_section": "§TD.2 [Example 2]", "md_verbatim": "**Row 2:** Shows the disease assessment schedule for the second period. The pattern starts on the date identified in the ADSL variable ANCH2DT and repeats every 8 weeks with respective upper and lower limits of -1 week and +1 week. The maximum number of repeats that occurred on this schedule was 4.", "score": 0.5938, "match_basis": "verbatim_token+domain_route:TD"}, {"md_atom_id": "md_dmTD_ex_a017", "md_file": "knowledge_base/domains/TD/examples.md", "md_atom_type": "SENTENCE", "md_parent_section": "§TD.2 [Example 2]", "md_verbatim": "This example shows a crossover study, where subjects are given the period 1 treatment according to the first disease-assessment schedule until disease progression, then there is a rest period of 28 days prior to the start of the period 2 treatment (i.e., re-baseline for period 2). The subjects are then given the period 2 treatment according to the second disease assessment schedule until disease progression. This example also shows how two different reference/anchor dates can be used.", "score": 0.5789, "match_basis": "verbatim_token+domain_route:TD"}, {"md_atom_id": "md_dmTD_ex_a028", "md_file": "knowledge_base/domains/TD/examples.md", "md_atom_type": "SENTENCE", "md_parent_section": "§TD.3 [Example 3]", "md_verbatim": "This example shows a study where subjects are randomized to standard treatment or an experimental treatment. The subjects who are randomized to standard treatment are given the option to receive experimental treatment after they end the standard treatment (e.g., due to disease progression on standard treatment). In the randomized treatment epoch, the disease assessment schedule changes over the course of the study. At the start of the extension treatment epoch, subjects are re-baselined, i.e., an extension baseline disease assessment is performed and the disease assessment schedule is restarted.", "score": 0.56, "match_basis": "verbatim_token+domain_route:TD"}, {"md_atom_id": "md_dmTD_ex_a033", "md_file": "knowledge_base/domains/TD/examples.md", "md_atom_type": "SENTENCE", "md_parent_section": "§TD.3 [Example 3]", "md_verbatim": "For open-ended patterns, the total number of repeats can be identified when the data analysis is performed; the highest number of repeat assessments for any subject in that pattern must be recorded in the TDNUMRPT variable on the final pattern record.", "score": 0.5269, "match_basis": "verbatim_token+domain_route:TD"}], "candidate_count": 5, "zero_candidate": false}
{"pdf_atom_id": "ig34_p0413_a008", "pdf_atom_type": "SENTENCE", "pdf_source": "SDTMIG_v3.4", "pdf_page": 413, "pdf_parent_section": "§7.3.2 Trial Disease Assessments (TD) – Examples", "pdf_verbatim": "Row 2: Shows the disease assessment schedule for the second period. The pattern starts on the date identified in the ADSL variable ANCH2DT and repeats every 8 weeks with respective upper and lower limits of -1 week and + 1 week. The maximum number of repeats that occurred on this schedule was 4.", "figure_ref": null, "candidates": [{"md_atom_id": "md_dmTD_ex_a020", "md_file": "knowledge_base/domains/TD/examples.md", "md_atom_type": "SENTENCE", "md_parent_section": "§TD.2 [Example 2]", "md_verbatim": "**Row 2:** Shows the disease assessment schedule for the second period. The pattern starts on the date identified in the ADSL variable ANCH2DT and repeats every 8 weeks with respective upper and lower limits of -1 week and +1 week. The maximum number of repeats that occurred on this schedule was 4.", "score": 1.0, "match_basis": "verbatim_token+domain_route:TD"}, {"md_atom_id": "md_dmTD_ex_a030", "md_file": "knowledge_base/domains/TD/examples.md", "md_atom_type": "LIST_ITEM", "md_parent_section": "§TD.3 [Example 3]", "md_verbatim": "- The first disease-assessment schedule pattern starts at the reference start date (identified in the ADSL ANCH1DT variable) and repeats every 8 weeks for a total of 6 repeats (i.e., week 8, week 16, week 24, week 32, week 40, week 48), with respective upper and lower limits of -3 days and +1 week.", "score": 0.6754, "match_basis": "verbatim_token+domain_route:TD"}, {"md_atom_id": "md_dmTD_ex_a032", "md_file": "knowledge_base/domains/TD/examples.md", "md_atom_type": "LIST_ITEM", "md_parent_section": "§TD.3 [Example 3]", "md_verbatim": "- The third disease assessment schedule starts at the extension reference start date (identified in the ADSL ANCH2DT variable) from week 96 and repeats every 12 weeks (week 120, week 144, etc.), with respective upper and lower limits of -1 week and +1 week, for an indefinite length of time.", "score": 0.63, "match_basis": "verbatim_token+domain_route:TD"}, {"md_atom_id": "md_dmTD_ex_a007", "md_file": "knowledge_base/domains/TD/examples.md", "md_atom_type": "LIST_ITEM", "md_parent_section": "§TD.1 [Example 1]", "md_verbatim": "- The second disease assessment schedule starts from week 48 and repeats every 12 weeks for a total of 4 repeats (i.e., week 60, week 72, week 84, week 96), with respective upper and lower limits of -1 week and +1 week.", "score": 0.615, "match_basis": "verbatim_token+domain_route:TD"}, {"md_atom_id": "md_dmTD_ex_a019", "md_file": "knowledge_base/domains/TD/examples.md", "md_atom_type": "SENTENCE", "md_parent_section": "§TD.2 [Example 2]", "md_verbatim": "**Row 1:** Shows the disease assessment schedule for the first treatment period. The diagram above shows that this schedule repeats until disease progression. After the trial ended, the maximum number of repeats in this schedule was determined to be 6, so that is the value in TDNUMRPT for this schedule.", "score": 0.5938, "match_basis": "verbatim_token+domain_route:TD"}], "candidate_count": 5, "zero_candidate": false}
{"pdf_atom_id": "ig34_p0413_a009", "pdf_atom_type": "CODE_LITERAL", "pdf_source": "SDTMIG_v3.4", "pdf_page": 413, "pdf_parent_section": "§7.3.2 Trial Disease Assessments (TD) – Examples", "pdf_verbatim": "td.xpt", "figure_ref": null, "candidates": [{"md_atom_id": "md_dmTD_ex_a009", "md_file": "knowledge_base/domains/TD/examples.md", "md_atom_type": "SENTENCE", "md_parent_section": "§TD.1 [Example 1]", "md_verbatim": "**td.xpt**", "score": 0.79, "match_basis": "verbatim_token+domain_route:TD"}, {"md_atom_id": "md_dmTD_ex_a021", "md_file": "knowledge_base/domains/TD/examples.md", "md_atom_type": "SENTENCE", "md_parent_section": "§TD.2 [Example 2]", "md_verbatim": "**td.xpt**", "score": 0.79, "match_basis": "verbatim_token+domain_route:TD"}, {"md_atom_id": "md_dmTD_ex_a034", "md_file": "knowledge_base/domains/TD/examples.md", "md_atom_type": "SENTENCE", "md_parent_section": "§TD.3 [Example 3]", "md_verbatim": "**td.xpt**", "score": 0.79, "match_basis": "verbatim_token+domain_route:TD"}, {"md_atom_id": "md_dmTD_assn_a001", "md_file": "knowledge_base/domains/TD/assumptions.md", "md_atom_type": "HEADING", "md_parent_section": "§TD [TD — Assumptions]", "md_verbatim": "# TD — Assumptions", "score": 0.19, "match_basis": "verbatim_token+domain_route:TD"}, {"md_atom_id": "md_dmTD_assn_a002", "md_file": "knowledge_base/domains/TD/assumptions.md", "md_atom_type": "SENTENCE", "md_parent_section": "§TD [TD — Assumptions]", "md_verbatim": "The purpose of the Trial Disease Assessments (TD) domain is to provide information on planned scheduling of disease assessments when the scheduling of disease assessments is not necessarily tied to the scheduling of visits. In oncology studies, good compliance with the disease-assessment schedule is essential to reduce the risk of \"assessment time bias.\" The TD domain makes possible an evaluation of assessment time bias from the SDTM, in particular for studies with progression-free survival (PFS) endpoints. TD has limited utility in oncology and was developed specifically with RECIST in mind and where an assessment-time bias analysis is appropriate. It is understood that extending this approach to Cheson and other criteria may not be appropriate or may pose difficulties. It is also understood that this approach may not be necessary in non-oncology studies, although it is available for use if appropriate.", "score": 0.19, "match_basis": "verbatim_token+domain_route:TD"}, {"md_atom_id": "md_dmTD_assn_a003", "md_file": "knowledge_base/domains/TD/assumptions.md", "md_atom_type": "LIST_ITEM", "md_parent_section": "§TD [TD — Assumptions]", "md_verbatim": "1. The purpose of the Trial Disease Assessments (TD) domain is to provide information on planned scheduling of disease assessments when the scheduling of disease assessments is not necessarily tied to the scheduling of visits. In oncology studies, good compliance with the disease-assessment schedule is essential to reduce the risk of \"assessment time bias.\" The TD domain makes possible an evaluation of assessment time bias from the SDTM, in particular for studies with progression-free survival (PFS) endpoints.", "score": 0.19, "match_basis": "verbatim_token+domain_route:TD"}, {"md_atom_id": "md_dmTD_assn_a004", "md_file": "knowledge_base/domains/TD/assumptions.md", "md_atom_type": "LIST_ITEM", "md_parent_section": "§TD [TD — Assumptions]", "md_verbatim": "2. A planned schedule of assessments will have a defined start point; the TDANCVAR variable is used to identify the variable in the ADaM subject-level dataset (ADSL) that holds the \"anchor\" date. By default, the anchor variable for the first pattern is ANCH1DT. An anchor date must be provided for each pattern of assessments, and each anchor variable must exist in ADSL. TDANCVAR is therefore a Required variable. Anchor date variable names should adhere to ADaM variable naming conventions (e.g., ANCH1DT, ANCH2DT). One anchor date may be used to anchor more than 1 pattern of disease assessments. When that is the case, the appropriate offset for the start of a subsequent pattern, represented as an ISO 8601 duration value, should be provided in the TDSTOFF variable.", "score": 0.19, "match_basis": "verbatim_token+domain_route:TD"}, {"md_atom_id": "md_dmTD_assn_a005", "md_file": "knowledge_base/domains/TD/assumptions.md", "md_atom_type": "LIST_ITEM", "md_parent_section": "§TD [TD — Assumptions]", "md_verbatim": "3. The TDSTOFF variable is used in conjunction with the anchor date value (from the anchor date variable identified in TDANCVAR). If the pattern of disease assessments does not start exactly on a date collected on the CRF, this variable will represent the offset between the anchor date value and the start date of the pattern of disease assessments. This may be a positive or zero interval value represented in an ISO 8601 format.", "score": 0.19, "match_basis": "verbatim_token+domain_route:TD"}, {"md_atom_id": "md_dmTD_assn_a006", "md_file": "knowledge_base/domains/TD/assumptions.md", "md_atom_type": "LIST_ITEM", "md_parent_section": "§TD [TD — Assumptions]", "md_verbatim": "4. A pattern of assessments consists of a series of intervals of equal duration, each followed by an assessment. Thus, the first assessment in a pattern is planned to occur at the anchor date (given by the variable named in TDANCVAR) plus the offset (TDSTOFF) plus the target assessment interval (TDTGTPAI). A baseline evaluation is usually not preceded by an interval, and would therefore not be considered part of an assessment pattern.", "score": 0.19, "match_basis": "verbatim_token+domain_route:TD"}, {"md_atom_id": "md_dmTD_assn_a007", "md_file": "knowledge_base/domains/TD/assumptions.md", "md_atom_type": "LIST_ITEM", "md_parent_section": "§TD [TD — Assumptions]", "md_verbatim": "5. This domain should not be created when the disease assessment schedule may vary for individual subjects (e.g., when completion of the first phase of a study is event-driven).", "score": 0.19, "match_basis": "verbatim_token+domain_route:TD"}], "candidate_count": 10, "zero_candidate": false}
{"pdf_atom_id": "ig34_p0413_a010", "pdf_atom_type": "TABLE_HEADER", "pdf_source": "SDTMIG_v3.4", "pdf_page": 413, "pdf_parent_section": "§7.3.2 Trial Disease Assessments (TD) – Examples", "pdf_verbatim": "| Row | STUDYID | DOMAIN | TDORDER | TDANCVAR | TDSTOFF | TDTGTPAI | TDMINPAI | TDMAXPAI | TDNUMRPT |", "figure_ref": null, "candidates": [{"md_atom_id": "md_dmTD_ex_a010", "md_file": "knowledge_base/domains/TD/examples.md", "md_atom_type": "TABLE_HEADER", "md_parent_section": "§TD.1 [Example 1]", "md_verbatim": "| Row | STUDYID | DOMAIN | TDORDER | TDANCVAR | TDSTOFF | TDTGTPAI | TDMINPAI | TDMAXPAI | TDNUMRPT |\n|-----|---------|--------|---------|----------|---------|----------|----------|----------|----------|", "score": 1.0, "match_basis": "verbatim_token+domain_route:TD"}, {"md_atom_id": "md_dmTD_ex_a022", "md_file": "knowledge_base/domains/TD/examples.md", "md_atom_type": "TABLE_HEADER", "md_parent_section": "§TD.2 [Example 2]", "md_verbatim": "| Row | STUDYID | DOMAIN | TDORDER | TDANCVAR | TDSTOFF | TDTGTPAI | TDMINPAI | TDMAXPAI | TDNUMRPT |\n|-----|---------|--------|---------|----------|---------|----------|----------|----------|----------|", "score": 1.0, "match_basis": "verbatim_token+domain_route:TD"}, {"md_atom_id": "md_dmTD_ex_a035", "md_file": "knowledge_base/domains/TD/examples.md", "md_atom_type": "TABLE_HEADER", "md_parent_section": "§TD.3 [Example 3]", "md_verbatim": "| Row | STUDYID | DOMAIN | TDORDER | TDANCVAR | TDSTOFF | TDTGTPAI | TDMINPAI | TDMAXPAI | TDNUMRPT |\n|-----|---------|--------|---------|----------|---------|----------|----------|----------|----------|", "score": 1.0, "match_basis": "verbatim_token+domain_route:TD"}, {"md_atom_id": "md_dmTD_ex_a011", "md_file": "knowledge_base/domains/TD/examples.md", "md_atom_type": "TABLE_ROW", "md_parent_section": "§TD.1 [Example 1]", "md_verbatim": "| 1 | ABC123 | TD | 1 | ANCH1DT | P0D | P8W | P53D | P9W | 6 |", "score": 0.35, "match_basis": "verbatim_token+domain_route:TD"}, {"md_atom_id": "md_dmTD_ex_a023", "md_file": "knowledge_base/domains/TD/examples.md", "md_atom_type": "TABLE_ROW", "md_parent_section": "§TD.2 [Example 2]", "md_verbatim": "| 1 | ABC123 | TD | 1 | ANCH1DT | P0D | P8W | P53D | P9W | 6 |", "score": 0.35, "match_basis": "verbatim_token+domain_route:TD"}], "candidate_count": 5, "zero_candidate": false}
{"pdf_atom_id": "ig34_p0413_a011", "pdf_atom_type": "TABLE_ROW", "pdf_source": "SDTMIG_v3.4", "pdf_page": 413, "pdf_parent_section": "§7.3.2 Trial Disease Assessments (TD) – Examples", "pdf_verbatim": "| 1 | ABC123 | TD | 1 | ANCH1DT | P0D | P8W | P53D | P9W | 6 |", "figure_ref": null, "candidates": [{"md_atom_id": "md_dmTD_ex_a011", "md_file": "knowledge_base/domains/TD/examples.md", "md_atom_type": "TABLE_ROW", "md_parent_section": "§TD.1 [Example 1]", "md_verbatim": "| 1 | ABC123 | TD | 1 | ANCH1DT | P0D | P8W | P53D | P9W | 6 |", "score": 1.0, "match_basis": "verbatim_token+domain_route:TD"}, {"md_atom_id": "md_dmTD_ex_a023", "md_file": "knowledge_base/domains/TD/examples.md", "md_atom_type": "TABLE_ROW", "md_parent_section": "§TD.2 [Example 2]", "md_verbatim": "| 1 | ABC123 | TD | 1 | ANCH1DT | P0D | P8W | P53D | P9W | 6 |", "score": 1.0, "match_basis": "verbatim_token+domain_route:TD"}, {"md_atom_id": "md_dmTD_ex_a036", "md_file": "knowledge_base/domains/TD/examples.md", "md_atom_type": "TABLE_ROW", "md_parent_section": "§TD.3 [Example 3]", "md_verbatim": "| 1 | ABC123 | TD | 1 | ANCH1DT | P0D | P8W | P53D | P9W | 6 |", "score": 1.0, "match_basis": "verbatim_token+domain_route:TD"}, {"md_atom_id": "md_dmTD_ex_a024", "md_file": "knowledge_base/domains/TD/examples.md", "md_atom_type": "TABLE_ROW", "md_parent_section": "§TD.2 [Example 2]", "md_verbatim": "| 2 | ABC123 | TD | 2 | ANCH2DT | P0D | P8W | P53D | P9W | 4 |", "score": 0.7882, "match_basis": "verbatim_token+domain_route:TD"}, {"md_atom_id": "md_dmTD_ex_a012", "md_file": "knowledge_base/domains/TD/examples.md", "md_atom_type": "TABLE_ROW", "md_parent_section": "§TD.1 [Example 1]", "md_verbatim": "| 2 | ABC123 | TD | 2 | ANCH1DT | P48W | P12W | P11W | P13W | 4 |", "score": 0.6455, "match_basis": "verbatim_token+domain_route:TD"}], "candidate_count": 5, "zero_candidate": false}
{"pdf_atom_id": "ig34_p0413_a012", "pdf_atom_type": "TABLE_ROW", "pdf_source": "SDTMIG_v3.4", "pdf_page": 413, "pdf_parent_section": "§7.3.2 Trial Disease Assessments (TD) – Examples", "pdf_verbatim": "| 2 | ABC123 | TD | 2 | ANCH2DT | P0D | P8W | P53D | P9W | 4 |", "figure_ref": null, "candidates": [{"md_atom_id": "md_dmTD_ex_a024", "md_file": "knowledge_base/domains/TD/examples.md", "md_atom_type": "TABLE_ROW", "md_parent_section": "§TD.2 [Example 2]", "md_verbatim": "| 2 | ABC123 | TD | 2 | ANCH2DT | P0D | P8W | P53D | P9W | 4 |", "score": 1.0, "match_basis": "verbatim_token+domain_route:TD"}, {"md_atom_id": "md_dmTD_ex_a011", "md_file": "knowledge_base/domains/TD/examples.md", "md_atom_type": "TABLE_ROW", "md_parent_section": "§TD.1 [Example 1]", "md_verbatim": "| 1 | ABC123 | TD | 1 | ANCH1DT | P0D | P8W | P53D | P9W | 6 |", "score": 0.7882, "match_basis": "verbatim_token+domain_route:TD"}, {"md_atom_id": "md_dmTD_ex_a023", "md_file": "knowledge_base/domains/TD/examples.md", "md_atom_type": "TABLE_ROW", "md_parent_section": "§TD.2 [Example 2]", "md_verbatim": "| 1 | ABC123 | TD | 1 | ANCH1DT | P0D | P8W | P53D | P9W | 6 |", "score": 0.7882, "match_basis": "verbatim_token+domain_route:TD"}, {"md_atom_id": "md_dmTD_ex_a036", "md_file": "knowledge_base/domains/TD/examples.md", "md_atom_type": "TABLE_ROW", "md_parent_section": "§TD.3 [Example 3]", "md_verbatim": "| 1 | ABC123 | TD | 1 | ANCH1DT | P0D | P8W | P53D | P9W | 6 |", "score": 0.7882, "match_basis": "verbatim_token+domain_route:TD"}, {"md_atom_id": "md_dmTD_ex_a038", "md_file": "knowledge_base/domains/TD/examples.md", "md_atom_type": "TABLE_ROW", "md_parent_section": "§TD.3 [Example 3]", "md_verbatim": "| 3 | ABC123 | TD | 3 | ANCH2DT | P0D | P12W | P11W | P13W | 17 |", "score": 0.7, "match_basis": "verbatim_token+domain_route:TD"}], "candidate_count": 5, "zero_candidate": false}
{"pdf_atom_id": "ig34_p0414_a001", "pdf_atom_type": "HEADING", "pdf_source": "SDTMIG_v3.4", "pdf_page": 414, "pdf_parent_section": "§7.3.2 Trial Disease Assessments (TD) – Examples", "pdf_verbatim": "Example 3", "figure_ref": null, "candidates": [{"md_atom_id": "md_dmTD_ex_a002", "md_file": "knowledge_base/domains/TD/examples.md", "md_atom_type": "HEADING", "md_parent_section": "§TD [TD — Examples]", "md_verbatim": "## Example 1", "score": 1.0, "match_basis": "verbatim_token+domain_route:TD"}, {"md_atom_id": "md_dmTD_ex_a014", "md_file": "knowledge_base/domains/TD/examples.md", "md_atom_type": "HEADING", "md_parent_section": "§TD [TD — Examples]", "md_verbatim": "## Example 2", "score": 1.0, "match_basis": "verbatim_token+domain_route:TD"}, {"md_atom_id": "md_dmTD_ex_a025", "md_file": "knowledge_base/domains/TD/examples.md", "md_atom_type": "HEADING", "md_parent_section": "§TD [TD — Examples]", "md_verbatim": "## Example 3", "score": 1.0, "match_basis": "verbatim_token+domain_route:TD"}, {"md_atom_id": "md_dmTD_ex_a001", "md_file": "knowledge_base/domains/TD/examples.md", "md_atom_type": "HEADING", "md_parent_section": "§TD [TD — Examples]", "md_verbatim": "# TD — Examples", "score": 0.9, "match_basis": "verbatim_token+domain_route:TD"}, {"md_atom_id": "md_dmTD_assn_a001", "md_file": "knowledge_base/domains/TD/assumptions.md", "md_atom_type": "HEADING", "md_parent_section": "§TD [TD — Assumptions]", "md_verbatim": "# TD — Assumptions", "score": 0.4, "match_basis": "verbatim_token+domain_route:TD"}], "candidate_count": 5, "zero_candidate": false}
{"pdf_atom_id": "ig34_p0414_a002", "pdf_atom_type": "FIGURE", "pdf_source": "SDTMIG_v3.4", "pdf_page": 414, "pdf_parent_section": "§7.3.2 Trial Disease Assessments (TD) – Examples", "pdf_verbatim": "[FIGURE: Two-phase diagram. Top box: 'Double Blind Treatment (Standard vs. Experimental Treatment)'. ANCH1DT anchor at left. Two schedule segments labeled 'Schedule 1, every 8 weeks' and 'Schedule 2,  [TRUNCATED:FIGURE]", "figure_ref": "pdf_p0414+top", "candidates": [{"md_atom_id": "md_dmTD_ex_a027", "md_file": "knowledge_base/domains/TD/examples.md", "md_atom_type": "FIGURE", "md_parent_section": "§TD.3 [Example 3]", "md_verbatim": "```mermaid\ngraph LR\n    subgraph DBT[\"Double Blind Treatment (Standard vs. Experimental Treatment)\"]\n        ANCH1DT([\"ANCH1DT(anchor)\"])\n        subgraph S1[\"Schedule 1 — every 8 weeks (weeks 8–48)\"] [TRUNCATED:FIGURE]", "score": 0.6018, "match_basis": "verbatim_token+global_figure"}, {"md_atom_id": "md_dmTD_ex_a016", "md_file": "knowledge_base/domains/TD/examples.md", "md_atom_type": "FIGURE", "md_parent_section": "§TD.2 [Example 2]", "md_verbatim": "```mermaid\ngraph LR\n    subgraph P1[\"Period 1\"]\n        ANCH1DT([\"ANCH1DT(anchor)\"])\n        subgraph S1[\"Schedule 1 — every 8 weeks\"]\n            A8[/\"▲ Wk 8\"/]\n            A16[/\"▲ Wk 16\"/]\n          [TRUNCATED:FIGURE]", "score": 0.4911, "match_basis": "verbatim_token+global_figure"}, {"md_atom_id": "md_dmTD_ex_a004", "md_file": "knowledge_base/domains/TD/examples.md", "md_atom_type": "FIGURE", "md_parent_section": "§TD.1 [Example 1]", "md_verbatim": "```mermaid\ngraph LR\n    ANCH1DT([\"ANCH1DT(anchor)\"])\n\n    subgraph S1[\"Schedule 1 — every 8 weeks (weeks 8–48)\"]\n        W8[/\"▲ Wk 8\"/]\n        W16[/\"▲ Wk 16\"/]\n        W24[/\"▲ Wk 24\"/]\n        W32[/\" [TRUNCATED:FIGURE]", "score": 0.4834, "match_basis": "verbatim_token+global_figure"}, {"md_atom_id": "md_dmTA_ex_a193", "md_file": "knowledge_base/domains/TA/examples.md", "md_atom_type": "FIGURE", "md_parent_section": "§TA.6 [Example 6]", "md_verbatim": "```mermaid\ngraph LR\n    subgraph SE[\"Screening Epoch\"]\n        s1[Screen]\n        s2[Screen]\n    end\n    subgraph TE[\"Treatment Epoch\"]\n        da[\"Drug A | Rest A<br/>Repeat until disease progression [TRUNCATED:FIGURE]", "score": 0.4024, "match_basis": "verbatim_token+global_figure"}, {"md_atom_id": "md_dmTA_ex_a122", "md_file": "knowledge_base/domains/TA/examples.md", "md_atom_type": "FIGURE", "md_parent_section": "§TA.4 [Example 4]", "md_verbatim": "```mermaid\ngraph LR\n    subgraph SE[\"Screening Epoch\"]\n        s1[Screen]\n        s2[Screen]\n    end\n    subgraph TE[\"Treatment Epoch\"]\n        da[\"Drug A | Rest<br/>Repeat until disease progression\"] [TRUNCATED:FIGURE]", "score": 0.3975, "match_basis": "verbatim_token+global_figure"}], "candidate_count": 5, "zero_candidate": false}
{"pdf_atom_id": "ig34_p0414_a003", "pdf_atom_type": "SENTENCE", "pdf_source": "SDTMIG_v3.4", "pdf_page": 414, "pdf_parent_section": "§7.3.2 Trial Disease Assessments (TD) – Examples", "pdf_verbatim": "This example shows a study where subjects are randomized to standard treatment or an experimental treatment.", "figure_ref": null, "candidates": [{"md_atom_id": "md_dmTD_ex_a028", "md_file": "knowledge_base/domains/TD/examples.md", "md_atom_type": "SENTENCE", "md_parent_section": "§TD.3 [Example 3]", "md_verbatim": "This example shows a study where subjects are randomized to standard treatment or an experimental treatment. The subjects who are randomized to standard treatment are given the option to receive experimental treatment after they end the standard treatment (e.g., due to disease progression on standard treatment). In the randomized treatment epoch, the disease assessment schedule changes over the course of the study. At the start of the extension treatment epoch, subjects are re-baselined, i.e., an extension baseline disease assessment is performed and the disease assessment schedule is restarted.", "score": 0.6354, "match_basis": "verbatim_token+domain_route:TD"}, {"md_atom_id": "md_dmTD_ex_a017", "md_file": "knowledge_base/domains/TD/examples.md", "md_atom_type": "SENTENCE", "md_parent_section": "§TD.2 [Example 2]", "md_verbatim": "This example shows a crossover study, where subjects are given the period 1 treatment according to the first disease-assessment schedule until disease progression, then there is a rest period of 28 days prior to the start of the period 2 treatment (i.e., re-baseline for period 2). The subjects are then given the period 2 treatment according to the second disease assessment schedule until disease progression. This example also shows how two different reference/anchor dates can be used.", "score": 0.5394, "match_basis": "verbatim_token+domain_route:TD"}, {"md_atom_id": "md_dmTD_ex_a026", "md_file": "knowledge_base/domains/TD/examples.md", "md_atom_type": "SENTENCE", "md_parent_section": "§TD.3 [Example 3]", "md_verbatim": "**Timeline Diagram — Example 3: Double Blind Treatment (two schedules) + Extension Treatment**", "score": 0.4951, "match_basis": "verbatim_token+domain_route:TD"}, {"md_atom_id": "md_dmTD_ex_a029", "md_file": "knowledge_base/domains/TD/examples.md", "md_atom_type": "SENTENCE", "md_parent_section": "§TD.3 [Example 3]", "md_verbatim": "In this example, there are 3 distinct disease-assessment schedule patterns:", "score": 0.49, "match_basis": "verbatim_token+domain_route:TD"}, {"md_atom_id": "md_dmTD_ex_a005", "md_file": "knowledge_base/domains/TD/examples.md", "md_atom_type": "SENTENCE", "md_parent_section": "§TD.1 [Example 1]", "md_verbatim": "This example shows a study where the disease assessment schedule changes over the course of the study. In this example, there are 3 distinct disease-assessment schedule patterns. A single anchor date variable (TDANCVAR) provides the anchor date for each pattern. The offset variable (TDSTOFF), used in conjunction with the anchor date variable, provides the start point of each pattern of assessments.", "score": 0.4822, "match_basis": "verbatim_token+domain_route:TD"}], "candidate_count": 5, "zero_candidate": false}
{"pdf_atom_id": "ig34_p0414_a004", "pdf_atom_type": "SENTENCE", "pdf_source": "SDTMIG_v3.4", "pdf_page": 414, "pdf_parent_section": "§7.3.2 Trial Disease Assessments (TD) – Examples", "pdf_verbatim": "The subjects who are randomized to standard treatment are given the option to receive experimental treatment after they end the standard treatment (e.g., due to disease progression on standard treatment).", "figure_ref": null, "candidates": [{"md_atom_id": "md_dmTD_ex_a028", "md_file": "knowledge_base/domains/TD/examples.md", "md_atom_type": "SENTENCE", "md_parent_section": "§TD.3 [Example 3]", "md_verbatim": "This example shows a study where subjects are randomized to standard treatment or an experimental treatment. The subjects who are randomized to standard treatment are given the option to receive experimental treatment after they end the standard treatment (e.g., due to disease progression on standard treatment). In the randomized treatment epoch, the disease assessment schedule changes over the course of the study. At the start of the extension treatment epoch, subjects are re-baselined, i.e., an extension baseline disease assessment is performed and the disease assessment schedule is restarted.", "score": 0.7092, "match_basis": "verbatim_token+domain_route:TD"}, {"md_atom_id": "md_dmTD_ex_a017", "md_file": "knowledge_base/domains/TD/examples.md", "md_atom_type": "SENTENCE", "md_parent_section": "§TD.2 [Example 2]", "md_verbatim": "This example shows a crossover study, where subjects are given the period 1 treatment according to the first disease-assessment schedule until disease progression, then there is a rest period of 28 days prior to the start of the period 2 treatment (i.e., re-baseline for period 2). The subjects are then given the period 2 treatment according to the second disease assessment schedule until disease progression. This example also shows how two different reference/anchor dates can be used.", "score": 0.5346, "match_basis": "verbatim_token+domain_route:TD"}, {"md_atom_id": "md_dmTD_ex_a019", "md_file": "knowledge_base/domains/TD/examples.md", "md_atom_type": "SENTENCE", "md_parent_section": "§TD.2 [Example 2]", "md_verbatim": "**Row 1:** Shows the disease assessment schedule for the first treatment period. The diagram above shows that this schedule repeats until disease progression. After the trial ended, the maximum number of repeats in this schedule was determined to be 6, so that is the value in TDNUMRPT for this schedule.", "score": 0.5226, "match_basis": "verbatim_token+domain_route:TD"}, {"md_atom_id": "md_dmTD_ex_a029", "md_file": "knowledge_base/domains/TD/examples.md", "md_atom_type": "SENTENCE", "md_parent_section": "§TD.3 [Example 3]", "md_verbatim": "In this example, there are 3 distinct disease-assessment schedule patterns:", "score": 0.468, "match_basis": "verbatim_token+domain_route:TD"}, {"md_atom_id": "md_dmTD_ex_a020", "md_file": "knowledge_base/domains/TD/examples.md", "md_atom_type": "SENTENCE", "md_parent_section": "§TD.2 [Example 2]", "md_verbatim": "**Row 2:** Shows the disease assessment schedule for the second period. The pattern starts on the date identified in the ADSL variable ANCH2DT and repeats every 8 weeks with respective upper and lower limits of -1 week and +1 week. The maximum number of repeats that occurred on this schedule was 4.", "score": 0.4659, "match_basis": "verbatim_token+domain_route:TD"}], "candidate_count": 5, "zero_candidate": false}
{"pdf_atom_id": "ig34_p0414_a005", "pdf_atom_type": "SENTENCE", "pdf_source": "SDTMIG_v3.4", "pdf_page": 414, "pdf_parent_section": "§7.3.2 Trial Disease Assessments (TD) – Examples", "pdf_verbatim": "In the randomized treatment epoch, the disease assessment schedule changes over the course of the study.", "figure_ref": null, "candidates": [{"md_atom_id": "md_dmTD_ex_a028", "md_file": "knowledge_base/domains/TD/examples.md", "md_atom_type": "SENTENCE", "md_parent_section": "§TD.3 [Example 3]", "md_verbatim": "This example shows a study where subjects are randomized to standard treatment or an experimental treatment. The subjects who are randomized to standard treatment are given the option to receive experimental treatment after they end the standard treatment (e.g., due to disease progression on standard treatment). In the randomized treatment epoch, the disease assessment schedule changes over the course of the study. At the start of the extension treatment epoch, subjects are re-baselined, i.e., an extension baseline disease assessment is performed and the disease assessment schedule is restarted.", "score": 0.6308, "match_basis": "verbatim_token+domain_route:TD"}, {"md_atom_id": "md_dmTD_ex_a029", "md_file": "knowledge_base/domains/TD/examples.md", "md_atom_type": "SENTENCE", "md_parent_section": "§TD.3 [Example 3]", "md_verbatim": "In this example, there are 3 distinct disease-assessment schedule patterns:", "score": 0.569, "match_basis": "verbatim_token+domain_route:TD"}, {"md_atom_id": "md_dmTD_ex_a005", "md_file": "knowledge_base/domains/TD/examples.md", "md_atom_type": "SENTENCE", "md_parent_section": "§TD.1 [Example 1]", "md_verbatim": "This example shows a study where the disease assessment schedule changes over the course of the study. In this example, there are 3 distinct disease-assessment schedule patterns. A single anchor date variable (TDANCVAR) provides the anchor date for each pattern. The offset variable (TDSTOFF), used in conjunction with the anchor date variable, provides the start point of each pattern of assessments.", "score": 0.5557, "match_basis": "verbatim_token+domain_route:TD"}, {"md_atom_id": "md_dmTD_ex_a019", "md_file": "knowledge_base/domains/TD/examples.md", "md_atom_type": "SENTENCE", "md_parent_section": "§TD.2 [Example 2]", "md_verbatim": "**Row 1:** Shows the disease assessment schedule for the first treatment period. The diagram above shows that this schedule repeats until disease progression. After the trial ended, the maximum number of repeats in this schedule was determined to be 6, so that is the value in TDNUMRPT for this schedule.", "score": 0.5279, "match_basis": "verbatim_token+domain_route:TD"}, {"md_atom_id": "md_dmTD_ex_a017", "md_file": "knowledge_base/domains/TD/examples.md", "md_atom_type": "SENTENCE", "md_parent_section": "§TD.2 [Example 2]", "md_verbatim": "This example shows a crossover study, where subjects are given the period 1 treatment according to the first disease-assessment schedule until disease progression, then there is a rest period of 28 days prior to the start of the period 2 treatment (i.e., re-baseline for period 2). The subjects are then given the period 2 treatment according to the second disease assessment schedule until disease progression. This example also shows how two different reference/anchor dates can be used.", "score": 0.525, "match_basis": "verbatim_token+domain_route:TD"}], "candidate_count": 5, "zero_candidate": false}
{"pdf_atom_id": "ig34_p0414_a006", "pdf_atom_type": "SENTENCE", "pdf_source": "SDTMIG_v3.4", "pdf_page": 414, "pdf_parent_section": "§7.3.2 Trial Disease Assessments (TD) – Examples", "pdf_verbatim": "At the start of the extension treatment epoch, subjects are re-baselined, i.e., an extension baseline disease assessment is performed and the disease assessment schedule is restarted).", "figure_ref": null, "candidates": [{"md_atom_id": "md_dmTD_ex_a028", "md_file": "knowledge_base/domains/TD/examples.md", "md_atom_type": "SENTENCE", "md_parent_section": "§TD.3 [Example 3]", "md_verbatim": "This example shows a study where subjects are randomized to standard treatment or an experimental treatment. The subjects who are randomized to standard treatment are given the option to receive experimental treatment after they end the standard treatment (e.g., due to disease progression on standard treatment). In the randomized treatment epoch, the disease assessment schedule changes over the course of the study. At the start of the extension treatment epoch, subjects are re-baselined, i.e., an extension baseline disease assessment is performed and the disease assessment schedule is restarted.", "score": 0.6908, "match_basis": "verbatim_token+domain_route:TD"}, {"md_atom_id": "md_dmTD_ex_a017", "md_file": "knowledge_base/domains/TD/examples.md", "md_atom_type": "SENTENCE", "md_parent_section": "§TD.2 [Example 2]", "md_verbatim": "This example shows a crossover study, where subjects are given the period 1 treatment according to the first disease-assessment schedule until disease progression, then there is a rest period of 28 days prior to the start of the period 2 treatment (i.e., re-baseline for period 2). The subjects are then given the period 2 treatment according to the second disease assessment schedule until disease progression. This example also shows how two different reference/anchor dates can be used.", "score": 0.5957, "match_basis": "verbatim_token+domain_route:TD"}, {"md_atom_id": "md_dmTD_ex_a026", "md_file": "knowledge_base/domains/TD/examples.md", "md_atom_type": "SENTENCE", "md_parent_section": "§TD.3 [Example 3]", "md_verbatim": "**Timeline Diagram — Example 3: Double Blind Treatment (two schedules) + Extension Treatment**", "score": 0.5643, "match_basis": "verbatim_token+domain_route:TD"}, {"md_atom_id": "md_dmTD_ex_a029", "md_file": "knowledge_base/domains/TD/examples.md", "md_atom_type": "SENTENCE", "md_parent_section": "§TD.3 [Example 3]", "md_verbatim": "In this example, there are 3 distinct disease-assessment schedule patterns:", "score": 0.5518, "match_basis": "verbatim_token+domain_route:TD"}, {"md_atom_id": "md_dmTD_ex_a019", "md_file": "knowledge_base/domains/TD/examples.md", "md_atom_type": "SENTENCE", "md_parent_section": "§TD.2 [Example 2]", "md_verbatim": "**Row 1:** Shows the disease assessment schedule for the first treatment period. The diagram above shows that this schedule repeats until disease progression. After the trial ended, the maximum number of repeats in this schedule was determined to be 6, so that is the value in TDNUMRPT for this schedule.", "score": 0.5488, "match_basis": "verbatim_token+domain_route:TD"}], "candidate_count": 5, "zero_candidate": false}
{"pdf_atom_id": "ig34_p0414_a007", "pdf_atom_type": "SENTENCE", "pdf_source": "SDTMIG_v3.4", "pdf_page": 414, "pdf_parent_section": "§7.3.2 Trial Disease Assessments (TD) – Examples", "pdf_verbatim": "In this example, there are 3 distinct disease-assessment schedule patterns:", "figure_ref": null, "candidates": [{"md_atom_id": "md_dmTD_ex_a029", "md_file": "knowledge_base/domains/TD/examples.md", "md_atom_type": "SENTENCE", "md_parent_section": "§TD.3 [Example 3]", "md_verbatim": "In this example, there are 3 distinct disease-assessment schedule patterns:", "score": 1.0, "match_basis": "verbatim_token+domain_route:TD"}, {"md_atom_id": "md_dmTD_ex_a005", "md_file": "knowledge_base/domains/TD/examples.md", "md_atom_type": "SENTENCE", "md_parent_section": "§TD.1 [Example 1]", "md_verbatim": "This example shows a study where the disease assessment schedule changes over the course of the study. In this example, there are 3 distinct disease-assessment schedule patterns. A single anchor date variable (TDANCVAR) provides the anchor date for each pattern. The offset variable (TDSTOFF), used in conjunction with the anchor date variable, provides the start point of each pattern of assessments.", "score": 0.6139, "match_basis": "verbatim_token+domain_route:TD"}, {"md_atom_id": "md_dmTD_ex_a003", "md_file": "knowledge_base/domains/TD/examples.md", "md_atom_type": "SENTENCE", "md_parent_section": "§TD.1 [Example 1]", "md_verbatim": "**Timeline Diagram — Example 1: Three sequential assessment schedules from a single anchor**", "score": 0.5562, "match_basis": "verbatim_token+domain_route:TD"}, {"md_atom_id": "md_dmTD_ex_a017", "md_file": "knowledge_base/domains/TD/examples.md", "md_atom_type": "SENTENCE", "md_parent_section": "§TD.2 [Example 2]", "md_verbatim": "This example shows a crossover study, where subjects are given the period 1 treatment according to the first disease-assessment schedule until disease progression, then there is a rest period of 28 days prior to the start of the period 2 treatment (i.e., re-baseline for period 2). The subjects are then given the period 2 treatment according to the second disease assessment schedule until disease progression. This example also shows how two different reference/anchor dates can be used.", "score": 0.5333, "match_basis": "verbatim_token+domain_route:TD"}, {"md_atom_id": "md_dmTD_ex_a028", "md_file": "knowledge_base/domains/TD/examples.md", "md_atom_type": "SENTENCE", "md_parent_section": "§TD.3 [Example 3]", "md_verbatim": "This example shows a study where subjects are randomized to standard treatment or an experimental treatment. The subjects who are randomized to standard treatment are given the option to receive experimental treatment after they end the standard treatment (e.g., due to disease progression on standard treatment). In the randomized treatment epoch, the disease assessment schedule changes over the course of the study. At the start of the extension treatment epoch, subjects are re-baselined, i.e., an extension baseline disease assessment is performed and the disease assessment schedule is restarted.", "score": 0.5329, "match_basis": "verbatim_token+domain_route:TD"}], "candidate_count": 5, "zero_candidate": false}
{"pdf_atom_id": "ig34_p0414_a008", "pdf_atom_type": "LIST_ITEM", "pdf_source": "SDTMIG_v3.4", "pdf_page": 414, "pdf_parent_section": "§7.3.2 Trial Disease Assessments (TD) – Examples", "pdf_verbatim": "The first disease-assessment schedule pattern starts at the reference start date (identified in the ADSL ANCH1DT variable) and repeats every 8 weeks for a total of 6 repeats ( i.e., week 8, week 16, week 24, week 32, week 40, week 48), with respective upper and lower limits of - 3 days and + 1 week.", "figure_ref": null, "candidates": [{"md_atom_id": "md_dmTD_ex_a030", "md_file": "knowledge_base/domains/TD/examples.md", "md_atom_type": "LIST_ITEM", "md_parent_section": "§TD.3 [Example 3]", "md_verbatim": "- The first disease-assessment schedule pattern starts at the reference start date (identified in the ADSL ANCH1DT variable) and repeats every 8 weeks for a total of 6 repeats (i.e., week 8, week 16, week 24, week 32, week 40, week 48), with respective upper and lower limits of -3 days and +1 week.", "score": 1.0, "match_basis": "verbatim_token+domain_route:TD"}, {"md_atom_id": "md_dmTD_ex_a032", "md_file": "knowledge_base/domains/TD/examples.md", "md_atom_type": "LIST_ITEM", "md_parent_section": "§TD.3 [Example 3]", "md_verbatim": "- The third disease assessment schedule starts at the extension reference start date (identified in the ADSL ANCH2DT variable) from week 96 and repeats every 12 weeks (week 120, week 144, etc.), with respective upper and lower limits of -1 week and +1 week, for an indefinite length of time.", "score": 0.7802, "match_basis": "verbatim_token+domain_route:TD"}, {"md_atom_id": "md_dmTD_ex_a006", "md_file": "knowledge_base/domains/TD/examples.md", "md_atom_type": "LIST_ITEM", "md_parent_section": "§TD.1 [Example 1]", "md_verbatim": "- The first disease-assessment schedule pattern starts at the reference start date (identified in the ADSL ANCH1DT variable) and repeats every 8 weeks for a total of 6 repeated assessments (i.e., week 8, week 16, week 24, week 32, week 40, week 48). Note that there is an upper and lower limit around the planned disease assessment target where the first assessment (8 weeks) could occur as early as day 53 and as late as week 9. This upper and lower limit (-3 days, +1 week) would be applied to all assessments during that pattern.", "score": 0.7745, "match_basis": "verbatim_token+domain_route:TD"}, {"md_atom_id": "md_dmTD_ex_a007", "md_file": "knowledge_base/domains/TD/examples.md", "md_atom_type": "LIST_ITEM", "md_parent_section": "§TD.1 [Example 1]", "md_verbatim": "- The second disease assessment schedule starts from week 48 and repeats every 12 weeks for a total of 4 repeats (i.e., week 60, week 72, week 84, week 96), with respective upper and lower limits of -1 week and +1 week.", "score": 0.7429, "match_basis": "verbatim_token+domain_route:TD"}, {"md_atom_id": "md_dmTD_ex_a020", "md_file": "knowledge_base/domains/TD/examples.md", "md_atom_type": "SENTENCE", "md_parent_section": "§TD.2 [Example 2]", "md_verbatim": "**Row 2:** Shows the disease assessment schedule for the second period. The pattern starts on the date identified in the ADSL variable ANCH2DT and repeats every 8 weeks with respective upper and lower limits of -1 week and +1 week. The maximum number of repeats that occurred on this schedule was 4.", "score": 0.6754, "match_basis": "verbatim_token+domain_route:TD"}], "candidate_count": 5, "zero_candidate": false}
{"pdf_atom_id": "ig34_p0414_a009", "pdf_atom_type": "LIST_ITEM", "pdf_source": "SDTMIG_v3.4", "pdf_page": 414, "pdf_parent_section": "§7.3.2 Trial Disease Assessments (TD) – Examples", "pdf_verbatim": "The second disease assessment schedule starts from week 48 and repeats every 12 weeks (week 60, week 72, etc.), with respective upper and lower limits of -1 week and + 1 week, for an indefinite length of time. The preceding schematic shows that, for the second pattern, assessments will occur until disease progression; this therefore leaves the pattern open-ended.", "figure_ref": null, "candidates": [{"md_atom_id": "md_dmTD_ex_a031", "md_file": "knowledge_base/domains/TD/examples.md", "md_atom_type": "LIST_ITEM", "md_parent_section": "§TD.3 [Example 3]", "md_verbatim": "- The second disease assessment schedule starts from week 48 and repeats every 12 weeks (week 60, week 72, etc.), with respective upper and lower limits of -1 week and +1 week, for an indefinite length of time. The preceding schematic shows that, for the second pattern, assessments will occur until disease progression; this therefore leaves the pattern open-ended.", "score": 1.0, "match_basis": "verbatim_token+domain_route:TD"}, {"md_atom_id": "md_dmTD_ex_a008", "md_file": "knowledge_base/domains/TD/examples.md", "md_atom_type": "LIST_ITEM", "md_parent_section": "§TD.1 [Example 1]", "md_verbatim": "- The third disease assessment schedule starts from week 96 and repeats every 24 weeks (week 120, week 144, and so on), with respective upper and lower limits of -1 week and +1 week, for an indefinite length of time. The preceding schematic shows that, for the third pattern, assessments will occur until disease progression; this therefore leaves the pattern open-ended. However, when data is included in an analysis, the total number of repeats can be identified and the highest number of repeat assessments for any subject in that pattern must be recorded in the TDNUMRPT variable on the final pattern record.", "score": 0.7969, "match_basis": "verbatim_token+domain_route:TD"}, {"md_atom_id": "md_dmTD_ex_a032", "md_file": "knowledge_base/domains/TD/examples.md", "md_atom_type": "LIST_ITEM", "md_parent_section": "§TD.3 [Example 3]", "md_verbatim": "- The third disease assessment schedule starts at the extension reference start date (identified in the ADSL ANCH2DT variable) from week 96 and repeats every 12 weeks (week 120, week 144, etc.), with respective upper and lower limits of -1 week and +1 week, for an indefinite length of time.", "score": 0.6892, "match_basis": "verbatim_token+domain_route:TD"}, {"md_atom_id": "md_dmTD_ex_a007", "md_file": "knowledge_base/domains/TD/examples.md", "md_atom_type": "LIST_ITEM", "md_parent_section": "§TD.1 [Example 1]", "md_verbatim": "- The second disease assessment schedule starts from week 48 and repeats every 12 weeks for a total of 4 repeats (i.e., week 60, week 72, week 84, week 96), with respective upper and lower limits of -1 week and +1 week.", "score": 0.6821, "match_basis": "verbatim_token+domain_route:TD"}, {"md_atom_id": "md_dmTD_ex_a030", "md_file": "knowledge_base/domains/TD/examples.md", "md_atom_type": "LIST_ITEM", "md_parent_section": "§TD.3 [Example 3]", "md_verbatim": "- The first disease-assessment schedule pattern starts at the reference start date (identified in the ADSL ANCH1DT variable) and repeats every 8 weeks for a total of 6 repeats (i.e., week 8, week 16, week 24, week 32, week 40, week 48), with respective upper and lower limits of -3 days and +1 week.", "score": 0.6364, "match_basis": "verbatim_token+domain_route:TD"}], "candidate_count": 5, "zero_candidate": false}
{"pdf_atom_id": "ig34_p0414_a010", "pdf_atom_type": "LIST_ITEM", "pdf_source": "SDTMIG_v3.4", "pdf_page": 414, "pdf_parent_section": "§7.3.2 Trial Disease Assessments (TD) – Examples", "pdf_verbatim": "The third disease assessment schedule starts at the extension reference start date (identified in the ADSL ANCH2DT variable) from week 96 and repeats every 24 weeks (week 120, week 144, etc.), with respective upper and lower limits of -1 week and + 1 week, for an indefinite length of time. The schematic shows that, for the third pattern, assessments will occur until disease progression; this therefore leaves the pattern open-ended.", "figure_ref": null, "candidates": [{"md_atom_id": "md_dmTD_ex_a032", "md_file": "knowledge_base/domains/TD/examples.md", "md_atom_type": "LIST_ITEM", "md_parent_section": "§TD.3 [Example 3]", "md_verbatim": "- The third disease assessment schedule starts at the extension reference start date (identified in the ADSL ANCH2DT variable) from week 96 and repeats every 12 weeks (week 120, week 144, etc.), with respective upper and lower limits of -1 week and +1 week, for an indefinite length of time.", "score": 0.8452, "match_basis": "verbatim_token+domain_route:TD"}, {"md_atom_id": "md_dmTD_ex_a031", "md_file": "knowledge_base/domains/TD/examples.md", "md_atom_type": "LIST_ITEM", "md_parent_section": "§TD.3 [Example 3]", "md_verbatim": "- The second disease assessment schedule starts from week 48 and repeats every 12 weeks (week 60, week 72, etc.), with respective upper and lower limits of -1 week and +1 week, for an indefinite length of time. The preceding schematic shows that, for the second pattern, assessments will occur until disease progression; this therefore leaves the pattern open-ended.", "score": 0.8337, "match_basis": "verbatim_token+domain_route:TD"}, {"md_atom_id": "md_dmTD_ex_a008", "md_file": "knowledge_base/domains/TD/examples.md", "md_atom_type": "LIST_ITEM", "md_parent_section": "§TD.1 [Example 1]", "md_verbatim": "- The third disease assessment schedule starts from week 96 and repeats every 24 weeks (week 120, week 144, and so on), with respective upper and lower limits of -1 week and +1 week, for an indefinite length of time. The preceding schematic shows that, for the third pattern, assessments will occur until disease progression; this therefore leaves the pattern open-ended. However, when data is included in an analysis, the total number of repeats can be identified and the highest number of repeat assessments for any subject in that pattern must be recorded in the TDNUMRPT variable on the final pattern record.", "score": 0.7942, "match_basis": "verbatim_token+domain_route:TD"}, {"md_atom_id": "md_dmTD_ex_a030", "md_file": "knowledge_base/domains/TD/examples.md", "md_atom_type": "LIST_ITEM", "md_parent_section": "§TD.3 [Example 3]", "md_verbatim": "- The first disease-assessment schedule pattern starts at the reference start date (identified in the ADSL ANCH1DT variable) and repeats every 8 weeks for a total of 6 repeats (i.e., week 8, week 16, week 24, week 32, week 40, week 48), with respective upper and lower limits of -3 days and +1 week.", "score": 0.7181, "match_basis": "verbatim_token+domain_route:TD"}, {"md_atom_id": "md_dmTD_ex_a006", "md_file": "knowledge_base/domains/TD/examples.md", "md_atom_type": "LIST_ITEM", "md_parent_section": "§TD.1 [Example 1]", "md_verbatim": "- The first disease-assessment schedule pattern starts at the reference start date (identified in the ADSL ANCH1DT variable) and repeats every 8 weeks for a total of 6 repeated assessments (i.e., week 8, week 16, week 24, week 32, week 40, week 48). Note that there is an upper and lower limit around the planned disease assessment target where the first assessment (8 weeks) could occur as early as day 53 and as late as week 9. This upper and lower limit (-3 days, +1 week) would be applied to all assessments during that pattern.", "score": 0.6593, "match_basis": "verbatim_token+domain_route:TD"}], "candidate_count": 5, "zero_candidate": false}
{"pdf_atom_id": "ig34_p0414_a011", "pdf_atom_type": "SENTENCE", "pdf_source": "SDTMIG_v3.4", "pdf_page": 414, "pdf_parent_section": "§7.3.2 Trial Disease Assessments (TD) – Examples", "pdf_verbatim": "For open-ended patterns, the total number of repeats can be identified when the data analysis is performed; the highest number of repeat assessments for any subject in that pattern must be recorded in the TDNUMRPT variable on the final pattern record.", "figure_ref": null, "candidates": [{"md_atom_id": "md_dmTD_ex_a033", "md_file": "knowledge_base/domains/TD/examples.md", "md_atom_type": "SENTENCE", "md_parent_section": "§TD.3 [Example 3]", "md_verbatim": "For open-ended patterns, the total number of repeats can be identified when the data analysis is performed; the highest number of repeat assessments for any subject in that pattern must be recorded in the TDNUMRPT variable on the final pattern record.", "score": 1.0, "match_basis": "verbatim_token+domain_route:TD"}, {"md_atom_id": "md_dmTD_ex_a008", "md_file": "knowledge_base/domains/TD/examples.md", "md_atom_type": "LIST_ITEM", "md_parent_section": "§TD.1 [Example 1]", "md_verbatim": "- The third disease assessment schedule starts from week 96 and repeats every 24 weeks (week 120, week 144, and so on), with respective upper and lower limits of -1 week and +1 week, for an indefinite length of time. The preceding schematic shows that, for the third pattern, assessments will occur until disease progression; this therefore leaves the pattern open-ended. However, when data is included in an analysis, the total number of repeats can be identified and the highest number of repeat assessments for any subject in that pattern must be recorded in the TDNUMRPT variable on the final pattern record.", "score": 0.5729, "match_basis": "verbatim_token+domain_route:TD"}, {"md_atom_id": "md_dmTD_ex_a020", "md_file": "knowledge_base/domains/TD/examples.md", "md_atom_type": "SENTENCE", "md_parent_section": "§TD.2 [Example 2]", "md_verbatim": "**Row 2:** Shows the disease assessment schedule for the second period. The pattern starts on the date identified in the ADSL variable ANCH2DT and repeats every 8 weeks with respective upper and lower limits of -1 week and +1 week. The maximum number of repeats that occurred on this schedule was 4.", "score": 0.5583, "match_basis": "verbatim_token+domain_route:TD"}, {"md_atom_id": "md_dmTD_ex_a019", "md_file": "knowledge_base/domains/TD/examples.md", "md_atom_type": "SENTENCE", "md_parent_section": "§TD.2 [Example 2]", "md_verbatim": "**Row 1:** Shows the disease assessment schedule for the first treatment period. The diagram above shows that this schedule repeats until disease progression. After the trial ended, the maximum number of repeats in this schedule was determined to be 6, so that is the value in TDNUMRPT for this schedule.", "score": 0.5269, "match_basis": "verbatim_token+domain_route:TD"}, {"md_atom_id": "md_dmTD_ex_a028", "md_file": "knowledge_base/domains/TD/examples.md", "md_atom_type": "SENTENCE", "md_parent_section": "§TD.3 [Example 3]", "md_verbatim": "This example shows a study where subjects are randomized to standard treatment or an experimental treatment. The subjects who are randomized to standard treatment are given the option to receive experimental treatment after they end the standard treatment (e.g., due to disease progression on standard treatment). In the randomized treatment epoch, the disease assessment schedule changes over the course of the study. At the start of the extension treatment epoch, subjects are re-baselined, i.e., an extension baseline disease assessment is performed and the disease assessment schedule is restarted.", "score": 0.487, "match_basis": "verbatim_token+domain_route:TD"}], "candidate_count": 5, "zero_candidate": false}
{"pdf_atom_id": "ig34_p0414_a012", "pdf_atom_type": "CODE_LITERAL", "pdf_source": "SDTMIG_v3.4", "pdf_page": 414, "pdf_parent_section": "§7.3.2 Trial Disease Assessments (TD) – Examples", "pdf_verbatim": "td.xpt", "figure_ref": null, "candidates": [{"md_atom_id": "md_dmTD_ex_a009", "md_file": "knowledge_base/domains/TD/examples.md", "md_atom_type": "SENTENCE", "md_parent_section": "§TD.1 [Example 1]", "md_verbatim": "**td.xpt**", "score": 0.79, "match_basis": "verbatim_token+domain_route:TD"}, {"md_atom_id": "md_dmTD_ex_a021", "md_file": "knowledge_base/domains/TD/examples.md", "md_atom_type": "SENTENCE", "md_parent_section": "§TD.2 [Example 2]", "md_verbatim": "**td.xpt**", "score": 0.79, "match_basis": "verbatim_token+domain_route:TD"}, {"md_atom_id": "md_dmTD_ex_a034", "md_file": "knowledge_base/domains/TD/examples.md", "md_atom_type": "SENTENCE", "md_parent_section": "§TD.3 [Example 3]", "md_verbatim": "**td.xpt**", "score": 0.79, "match_basis": "verbatim_token+domain_route:TD"}, {"md_atom_id": "md_dmTD_assn_a001", "md_file": "knowledge_base/domains/TD/assumptions.md", "md_atom_type": "HEADING", "md_parent_section": "§TD [TD — Assumptions]", "md_verbatim": "# TD — Assumptions", "score": 0.19, "match_basis": "verbatim_token+domain_route:TD"}, {"md_atom_id": "md_dmTD_assn_a002", "md_file": "knowledge_base/domains/TD/assumptions.md", "md_atom_type": "SENTENCE", "md_parent_section": "§TD [TD — Assumptions]", "md_verbatim": "The purpose of the Trial Disease Assessments (TD) domain is to provide information on planned scheduling of disease assessments when the scheduling of disease assessments is not necessarily tied to the scheduling of visits. In oncology studies, good compliance with the disease-assessment schedule is essential to reduce the risk of \"assessment time bias.\" The TD domain makes possible an evaluation of assessment time bias from the SDTM, in particular for studies with progression-free survival (PFS) endpoints. TD has limited utility in oncology and was developed specifically with RECIST in mind and where an assessment-time bias analysis is appropriate. It is understood that extending this approach to Cheson and other criteria may not be appropriate or may pose difficulties. It is also understood that this approach may not be necessary in non-oncology studies, although it is available for use if appropriate.", "score": 0.19, "match_basis": "verbatim_token+domain_route:TD"}, {"md_atom_id": "md_dmTD_assn_a003", "md_file": "knowledge_base/domains/TD/assumptions.md", "md_atom_type": "LIST_ITEM", "md_parent_section": "§TD [TD — Assumptions]", "md_verbatim": "1. The purpose of the Trial Disease Assessments (TD) domain is to provide information on planned scheduling of disease assessments when the scheduling of disease assessments is not necessarily tied to the scheduling of visits. In oncology studies, good compliance with the disease-assessment schedule is essential to reduce the risk of \"assessment time bias.\" The TD domain makes possible an evaluation of assessment time bias from the SDTM, in particular for studies with progression-free survival (PFS) endpoints.", "score": 0.19, "match_basis": "verbatim_token+domain_route:TD"}, {"md_atom_id": "md_dmTD_assn_a004", "md_file": "knowledge_base/domains/TD/assumptions.md", "md_atom_type": "LIST_ITEM", "md_parent_section": "§TD [TD — Assumptions]", "md_verbatim": "2. A planned schedule of assessments will have a defined start point; the TDANCVAR variable is used to identify the variable in the ADaM subject-level dataset (ADSL) that holds the \"anchor\" date. By default, the anchor variable for the first pattern is ANCH1DT. An anchor date must be provided for each pattern of assessments, and each anchor variable must exist in ADSL. TDANCVAR is therefore a Required variable. Anchor date variable names should adhere to ADaM variable naming conventions (e.g., ANCH1DT, ANCH2DT). One anchor date may be used to anchor more than 1 pattern of disease assessments. When that is the case, the appropriate offset for the start of a subsequent pattern, represented as an ISO 8601 duration value, should be provided in the TDSTOFF variable.", "score": 0.19, "match_basis": "verbatim_token+domain_route:TD"}, {"md_atom_id": "md_dmTD_assn_a005", "md_file": "knowledge_base/domains/TD/assumptions.md", "md_atom_type": "LIST_ITEM", "md_parent_section": "§TD [TD — Assumptions]", "md_verbatim": "3. The TDSTOFF variable is used in conjunction with the anchor date value (from the anchor date variable identified in TDANCVAR). If the pattern of disease assessments does not start exactly on a date collected on the CRF, this variable will represent the offset between the anchor date value and the start date of the pattern of disease assessments. This may be a positive or zero interval value represented in an ISO 8601 format.", "score": 0.19, "match_basis": "verbatim_token+domain_route:TD"}, {"md_atom_id": "md_dmTD_assn_a006", "md_file": "knowledge_base/domains/TD/assumptions.md", "md_atom_type": "LIST_ITEM", "md_parent_section": "§TD [TD — Assumptions]", "md_verbatim": "4. A pattern of assessments consists of a series of intervals of equal duration, each followed by an assessment. Thus, the first assessment in a pattern is planned to occur at the anchor date (given by the variable named in TDANCVAR) plus the offset (TDSTOFF) plus the target assessment interval (TDTGTPAI). A baseline evaluation is usually not preceded by an interval, and would there