{"pdf_atom_id": "ig34_p0243_a018", "pdf_atom_type": "TABLE_ROW", "pdf_source": "SDTMIG_v3.4", "pdf_page": 243, "pdf_parent_section": "§6.3.5.6 Laboratory Test Results (LB)", "pdf_verbatim": "| LBSPCUFL | Specimen Usability for the Test | Char | (NY) | Record Qualifier | Describes the usability of the specimen for the test. The value will be \"N\" if the specimen is not usable, and null if the specimen is usable. | Perm |", "figure_ref": null, "candidates": [{"md_atom_id": "md_dmLB_ex_a043", "md_file": "knowledge_base/domains/LB/examples.md", "md_atom_type": "TABLE_ROW", "md_parent_section": "§LB.4 [Example 4]", "md_verbatim": "| 2 | ABC | LB | ABC-001-001 | 1 | 2 | CANNAB | Cannabinoids | CONFIRM | DRUG TOXICITY | POSITIVE | | POSITIVE | | | 19289-8 | URINE | MASS SPECTROMETRY | Y | 2013-02-16 | 1 | Week 1 |", "score": 0.4229, "match_basis": "verbatim_token+domain_route:LB"}, {"md_atom_id": "md_dmLB_ex_a044", "md_file": "knowledge_base/domains/LB/examples.md", "md_atom_type": "TABLE_ROW", "md_parent_section": "§LB.4 [Example 4]", "md_verbatim": "| 3 | ABC | LB | ABC-001-001 | 1 | 3 | CANNAB | Cannabinoids | QUANTIFY | DRUG TOXICITY | 271 | ug/L | 271 | 271 | ug/L | 42860-7 | URINE | GC/MS | | 2013-02-16 | 1 | Week 1 |", "score": 0.42, "match_basis": "verbatim_token+domain_route:LB"}, {"md_atom_id": "md_dmLB_ex_a034", "md_file": "knowledge_base/domains/LB/examples.md", "md_atom_type": "TABLE_ROW", "md_parent_section": "§LB.3 [Example 3]", "md_verbatim": "| 2 | ABC | LB | ABC-001-002 | 1 | HCG | Choriogonadotropin Beta | | | | | | | | NOT DONE | NOT APPLICABLE (SUBJECT MALE) | 2106-3 | URINE | | 1 | BASELINE | 1999-06-09T10:00 | Y |", "score": 0.4167, "match_basis": "verbatim_token+domain_route:LB"}, {"md_atom_id": "md_dmLB_ex_a055", "md_file": "knowledge_base/domains/LB/examples.md", "md_atom_type": "TABLE_ROW", "md_parent_section": "§LB.5 [Example 5]", "md_verbatim": "| 3 | ABC | LB | ABC-123456 | 3 | EGFR | Epidermal Growth Factor Receptor | ABC-8675309 | TARGET ENGAGEMENT | 100 | ng/mL | 100 | 100 | ng/mL | SERUM | ELISA | 2017-07-05 | 2 | WEEK 2 |", "score": 0.4167, "match_basis": "verbatim_token+domain_route:LB"}, {"md_atom_id": "md_dmLB_ex_a056", "md_file": "knowledge_base/domains/LB/examples.md", "md_atom_type": "TABLE_ROW", "md_parent_section": "§LB.5 [Example 5]", "md_verbatim": "| 4 | ABC | LB | ABC-123456 | 4 | EGFRFR | Epidermal Growth Factor Receptor, Free | ABC-8675309 | TARGET ENGAGEMENT | 20 | ng/mL | 20 | 20 | ng/mL | SERUM | ELISA | 2017-07-05 | 2 | WEEK 2 |", "score": 0.4162, "match_basis": "verbatim_token+domain_route:LB"}], "candidate_count": 5, "zero_candidate": false}
{"pdf_atom_id": "ig34_p0244_a001", "pdf_atom_type": "TABLE_ROW", "pdf_source": "SDTMIG_v3.4", "pdf_page": 244, "pdf_parent_section": "§6.3.5.6 Laboratory Test Results (LB)", "pdf_verbatim": "| LBMETHOD | Method of Test or Examination | Char | (METHOD) | Record Qualifier | Method of the test or examination. Examples: \"EIA\" (enzyme immunoassay), \"ELECTROPHORESIS\", \"DIPSTICK\". | Perm |", "figure_ref": null, "candidates": [{"md_atom_id": "md_dmLB_ex_a042", "md_file": "knowledge_base/domains/LB/examples.md", "md_atom_type": "TABLE_ROW", "md_parent_section": "§LB.4 [Example 4]", "md_verbatim": "| 1 | ABC | LB | ABC-001-001 | 1 | 1 | CANNAB | Cannabinoids | SCREEN | DRUG TOXICITY | POSITIVE | | POSITIVE | | | 19287-2 | URINE | KINETIC MICROPARTICLE IMMUNOASSAY | Y | 2013-02-16 | 1 | Week 1 |", "score": 0.4541, "match_basis": "verbatim_token+domain_route:LB"}, {"md_atom_id": "md_dmLB_ex_a043", "md_file": "knowledge_base/domains/LB/examples.md", "md_atom_type": "TABLE_ROW", "md_parent_section": "§LB.4 [Example 4]", "md_verbatim": "| 2 | ABC | LB | ABC-001-001 | 1 | 2 | CANNAB | Cannabinoids | CONFIRM | DRUG TOXICITY | POSITIVE | | POSITIVE | | | 19289-8 | URINE | MASS SPECTROMETRY | Y | 2013-02-16 | 1 | Week 1 |", "score": 0.4254, "match_basis": "verbatim_token+domain_route:LB"}, {"md_atom_id": "md_dmLB_ex_a033", "md_file": "knowledge_base/domains/LB/examples.md", "md_atom_type": "TABLE_ROW", "md_parent_section": "§LB.3 [Example 3]", "md_verbatim": "| 1 | ABC | LB | ABC-001-001 | 1 | HCG | Choriogonadotropin Beta | | - | | NEGATIVE | | | | | | 2106-3 | URINE | | 1 | BASELINE | 1999-06-09T10:00 | Y |", "score": 0.4222, "match_basis": "verbatim_token+domain_route:LB"}, {"md_atom_id": "md_dmLB_ex_a024", "md_file": "knowledge_base/domains/LB/examples.md", "md_atom_type": "TABLE_ROW", "md_parent_section": "§LB.2 [Example 2]", "md_verbatim": "| 1 | ABC | LB | ABC-001-001 | 1 | CREAT | Creatinine Concentration | | 0.563 | g | 5.63 | 5.63 | g/L | URINE | | Y | | 2161-7 | | PT4H | -15 min pre-dose | 1 | PREVIOUS DOSE | 2000-02-01 | -PT15M | 1 | VISIT 1 | 2000-02-01T04:00 | 2000-02-01T07:45 |", "score": 0.4211, "match_basis": "verbatim_token+domain_route:LB"}, {"md_atom_id": "md_dmLB_ex_a034", "md_file": "knowledge_base/domains/LB/examples.md", "md_atom_type": "TABLE_ROW", "md_parent_section": "§LB.3 [Example 3]", "md_verbatim": "| 2 | ABC | LB | ABC-001-002 | 1 | HCG | Choriogonadotropin Beta | | | | | | | | NOT DONE | NOT APPLICABLE (SUBJECT MALE) | 2106-3 | URINE | | 1 | BASELINE | 1999-06-09T10:00 | Y |", "score": 0.4198, "match_basis": "verbatim_token+domain_route:LB"}], "candidate_count": 5, "zero_candidate": false}
{"pdf_atom_id": "ig34_p0244_a002", "pdf_atom_type": "TABLE_ROW", "pdf_source": "SDTMIG_v3.4", "pdf_page": 244, "pdf_parent_section": "§6.3.5.6 Laboratory Test Results (LB)", "pdf_verbatim": "| LBANMETH | Analysis Method | Char | (LBANMET) | Record Qualifier | Analysis method applied to obtain a summarized result. Analysis method describes the method of secondary processing applied to a complex observation result (e.g., a calculation used to measure eGFR). | Perm |", "figure_ref": null, "candidates": [{"md_atom_id": "md_dmLB_ex_a055", "md_file": "knowledge_base/domains/LB/examples.md", "md_atom_type": "TABLE_ROW", "md_parent_section": "§LB.5 [Example 5]", "md_verbatim": "| 3 | ABC | LB | ABC-123456 | 3 | EGFR | Epidermal Growth Factor Receptor | ABC-8675309 | TARGET ENGAGEMENT | 100 | ng/mL | 100 | 100 | ng/mL | SERUM | ELISA | 2017-07-05 | 2 | WEEK 2 |", "score": 0.4199, "match_basis": "verbatim_token+domain_route:LB"}, {"md_atom_id": "md_dmLB_ex_a056", "md_file": "knowledge_base/domains/LB/examples.md", "md_atom_type": "TABLE_ROW", "md_parent_section": "§LB.5 [Example 5]", "md_verbatim": "| 4 | ABC | LB | ABC-123456 | 4 | EGFRFR | Epidermal Growth Factor Receptor, Free | ABC-8675309 | TARGET ENGAGEMENT | 20 | ng/mL | 20 | 20 | ng/mL | SERUM | ELISA | 2017-07-05 | 2 | WEEK 2 |", "score": 0.4195, "match_basis": "verbatim_token+domain_route:LB"}, {"md_atom_id": "md_dmLB_ex_a024", "md_file": "knowledge_base/domains/LB/examples.md", "md_atom_type": "TABLE_ROW", "md_parent_section": "§LB.2 [Example 2]", "md_verbatim": "| 1 | ABC | LB | ABC-001-001 | 1 | CREAT | Creatinine Concentration | | 0.563 | g | 5.63 | 5.63 | g/L | URINE | | Y | | 2161-7 | | PT4H | -15 min pre-dose | 1 | PREVIOUS DOSE | 2000-02-01 | -PT15M | 1 | VISIT 1 | 2000-02-01T04:00 | 2000-02-01T07:45 |", "score": 0.4166, "match_basis": "verbatim_token+domain_route:LB"}, {"md_atom_id": "md_dmLB_ex_a025", "md_file": "knowledge_base/domains/LB/examples.md", "md_atom_type": "TABLE_ROW", "md_parent_section": "§LB.2 [Example 2]", "md_verbatim": "| 2 | ABC | LB | ABC-001-001 | 2 | CREAT | Creatinine Concentration | | 0.879 | g | 8.79 | 8.79 | g/L | URINE | | | | 2161-7 | | PT12H | 12 h post-dose | 2 | PREVIOUS DOSE | 2000-02-01 | PT12H | 1 | VISIT 1 | 2000-02-01T08:00 | 2000-02-01T20:00 |", "score": 0.4166, "match_basis": "verbatim_token+domain_route:LB"}, {"md_atom_id": "md_dmLB_ex_a026", "md_file": "knowledge_base/domains/LB/examples.md", "md_atom_type": "TABLE_ROW", "md_parent_section": "§LB.2 [Example 2]", "md_verbatim": "| 3 | ABC | LB | ABC-001-001 | 3 | CREAT | Creatinine Concentration | | 0.541 | g | 5.41 | 5.41 | g/L | URINE | | | | 2161-7 | | PT24H | 24 h post-dose | 3 | PREVIOUS DOSE | 2000-02-01 | PT24H | 1 | VISIT 1 | 2000-02-01T20:00 | 2000-02-02T08:00 |", "score": 0.4164, "match_basis": "verbatim_token+domain_route:LB"}], "candidate_count": 5, "zero_candidate": false}
{"pdf_atom_id": "ig34_p0244_a003", "pdf_atom_type": "TABLE_ROW", "pdf_source": "SDTMIG_v3.4", "pdf_page": 244, "pdf_parent_section": "§6.3.5.6 Laboratory Test Results (LB)", "pdf_verbatim": "| LBTMTHSN | Test Method Sensitivity | Char | (TSTMTHSN) | Record Qualifier | The sensitivity of the test methodology with respect to observation, detection, or quantification. | Perm |", "figure_ref": null, "candidates": [{"md_atom_id": "md_dmLB_ex_a043", "md_file": "knowledge_base/domains/LB/examples.md", "md_atom_type": "TABLE_ROW", "md_parent_section": "§LB.4 [Example 4]", "md_verbatim": "| 2 | ABC | LB | ABC-001-001 | 1 | 2 | CANNAB | Cannabinoids | CONFIRM | DRUG TOXICITY | POSITIVE | | POSITIVE | | | 19289-8 | URINE | MASS SPECTROMETRY | Y | 2013-02-16 | 1 | Week 1 |", "score": 0.4414, "match_basis": "verbatim_token+domain_route:LB"}, {"md_atom_id": "md_dmLB_ex_a044", "md_file": "knowledge_base/domains/LB/examples.md", "md_atom_type": "TABLE_ROW", "md_parent_section": "§LB.4 [Example 4]", "md_verbatim": "| 3 | ABC | LB | ABC-001-001 | 1 | 3 | CANNAB | Cannabinoids | QUANTIFY | DRUG TOXICITY | 271 | ug/L | 271 | 271 | ug/L | 42860-7 | URINE | GC/MS | | 2013-02-16 | 1 | Week 1 |", "score": 0.4353, "match_basis": "verbatim_token+domain_route:LB"}, {"md_atom_id": "md_dmLB_ex_a024", "md_file": "knowledge_base/domains/LB/examples.md", "md_atom_type": "TABLE_ROW", "md_parent_section": "§LB.2 [Example 2]", "md_verbatim": "| 1 | ABC | LB | ABC-001-001 | 1 | CREAT | Creatinine Concentration | | 0.563 | g | 5.63 | 5.63 | g/L | URINE | | Y | | 2161-7 | | PT4H | -15 min pre-dose | 1 | PREVIOUS DOSE | 2000-02-01 | -PT15M | 1 | VISIT 1 | 2000-02-01T04:00 | 2000-02-01T07:45 |", "score": 0.4209, "match_basis": "verbatim_token+domain_route:LB"}, {"md_atom_id": "md_dmLB_ex_a025", "md_file": "knowledge_base/domains/LB/examples.md", "md_atom_type": "TABLE_ROW", "md_parent_section": "§LB.2 [Example 2]", "md_verbatim": "| 2 | ABC | LB | ABC-001-001 | 2 | CREAT | Creatinine Concentration | | 0.879 | g | 8.79 | 8.79 | g/L | URINE | | | | 2161-7 | | PT12H | 12 h post-dose | 2 | PREVIOUS DOSE | 2000-02-01 | PT12H | 1 | VISIT 1 | 2000-02-01T08:00 | 2000-02-01T20:00 |", "score": 0.4209, "match_basis": "verbatim_token+domain_route:LB"}, {"md_atom_id": "md_dmLB_ex_a026", "md_file": "knowledge_base/domains/LB/examples.md", "md_atom_type": "TABLE_ROW", "md_parent_section": "§LB.2 [Example 2]", "md_verbatim": "| 3 | ABC | LB | ABC-001-001 | 3 | CREAT | Creatinine Concentration | | 0.541 | g | 5.41 | 5.41 | g/L | URINE | | | | 2161-7 | | PT24H | 24 h post-dose | 3 | PREVIOUS DOSE | 2000-02-01 | PT24H | 1 | VISIT 1 | 2000-02-01T20:00 | 2000-02-02T08:00 |", "score": 0.4207, "match_basis": "verbatim_token+domain_route:LB"}], "candidate_count": 5, "zero_candidate": false}
{"pdf_atom_id": "ig34_p0244_a004", "pdf_atom_type": "TABLE_ROW", "pdf_source": "SDTMIG_v3.4", "pdf_page": 244, "pdf_parent_section": "§6.3.5.6 Laboratory Test Results (LB)", "pdf_verbatim": "| LBLOBXFL | Last Observation Before Exposure Flag | Char | (NY) | Record Qualifier | Operationally derived indicator used to identify the last non-missing value prior to RFXSTDTC. The value should be \"Y\" or null. | Exp |", "figure_ref": null, "candidates": [{"md_atom_id": "md_dmLB_ex_a025", "md_file": "knowledge_base/domains/LB/examples.md", "md_atom_type": "TABLE_ROW", "md_parent_section": "§LB.2 [Example 2]", "md_verbatim": "| 2 | ABC | LB | ABC-001-001 | 2 | CREAT | Creatinine Concentration | | 0.879 | g | 8.79 | 8.79 | g/L | URINE | | | | 2161-7 | | PT12H | 12 h post-dose | 2 | PREVIOUS DOSE | 2000-02-01 | PT12H | 1 | VISIT 1 | 2000-02-01T08:00 | 2000-02-01T20:00 |", "score": 0.4263, "match_basis": "verbatim_token+domain_route:LB"}, {"md_atom_id": "md_dmLB_ex_a026", "md_file": "knowledge_base/domains/LB/examples.md", "md_atom_type": "TABLE_ROW", "md_parent_section": "§LB.2 [Example 2]", "md_verbatim": "| 3 | ABC | LB | ABC-001-001 | 3 | CREAT | Creatinine Concentration | | 0.541 | g | 5.41 | 5.41 | g/L | URINE | | | | 2161-7 | | PT24H | 24 h post-dose | 3 | PREVIOUS DOSE | 2000-02-01 | PT24H | 1 | VISIT 1 | 2000-02-01T20:00 | 2000-02-02T08:00 |", "score": 0.4261, "match_basis": "verbatim_token+domain_route:LB"}, {"md_atom_id": "md_dmLB_ex_a055", "md_file": "knowledge_base/domains/LB/examples.md", "md_atom_type": "TABLE_ROW", "md_parent_section": "§LB.5 [Example 5]", "md_verbatim": "| 3 | ABC | LB | ABC-123456 | 3 | EGFR | Epidermal Growth Factor Receptor | ABC-8675309 | TARGET ENGAGEMENT | 100 | ng/mL | 100 | 100 | ng/mL | SERUM | ELISA | 2017-07-05 | 2 | WEEK 2 |", "score": 0.425, "match_basis": "verbatim_token+domain_route:LB"}, {"md_atom_id": "md_dmLB_ex_a056", "md_file": "knowledge_base/domains/LB/examples.md", "md_atom_type": "TABLE_ROW", "md_parent_section": "§LB.5 [Example 5]", "md_verbatim": "| 4 | ABC | LB | ABC-123456 | 4 | EGFRFR | Epidermal Growth Factor Receptor, Free | ABC-8675309 | TARGET ENGAGEMENT | 20 | ng/mL | 20 | 20 | ng/mL | SERUM | ELISA | 2017-07-05 | 2 | WEEK 2 |", "score": 0.4245, "match_basis": "verbatim_token+domain_route:LB"}, {"md_atom_id": "md_dmLB_ex_a024", "md_file": "knowledge_base/domains/LB/examples.md", "md_atom_type": "TABLE_ROW", "md_parent_section": "§LB.2 [Example 2]", "md_verbatim": "| 1 | ABC | LB | ABC-001-001 | 1 | CREAT | Creatinine Concentration | | 0.563 | g | 5.63 | 5.63 | g/L | URINE | | Y | | 2161-7 | | PT4H | -15 min pre-dose | 1 | PREVIOUS DOSE | 2000-02-01 | -PT15M | 1 | VISIT 1 | 2000-02-01T04:00 | 2000-02-01T07:45 |", "score": 0.4217, "match_basis": "verbatim_token+domain_route:LB"}], "candidate_count": 5, "zero_candidate": false}
{"pdf_atom_id": "ig34_p0244_a005", "pdf_atom_type": "TABLE_ROW", "pdf_source": "SDTMIG_v3.4", "pdf_page": 244, "pdf_parent_section": "§6.3.5.6 Laboratory Test Results (LB)", "pdf_verbatim": "| LBBLFL | Baseline Flag | Char | (NY) | Record Qualifier | Indicator used to identify a baseline value. Should be \"Y\" or null. Note that LBBLFL is retained for backward compatibility. The authoritative baseline for statistical analysis is in an ADaM dataset. | Perm |", "figure_ref": null, "candidates": [{"md_atom_id": "md_dmLB_ex_a033", "md_file": "knowledge_base/domains/LB/examples.md", "md_atom_type": "TABLE_ROW", "md_parent_section": "§LB.3 [Example 3]", "md_verbatim": "| 1 | ABC | LB | ABC-001-001 | 1 | HCG | Choriogonadotropin Beta | | - | | NEGATIVE | | | | | | 2106-3 | URINE | | 1 | BASELINE | 1999-06-09T10:00 | Y |", "score": 0.4526, "match_basis": "verbatim_token+domain_route:LB"}, {"md_atom_id": "md_dmLB_ex_a034", "md_file": "knowledge_base/domains/LB/examples.md", "md_atom_type": "TABLE_ROW", "md_parent_section": "§LB.3 [Example 3]", "md_verbatim": "| 2 | ABC | LB | ABC-001-002 | 1 | HCG | Choriogonadotropin Beta | | | | | | | | NOT DONE | NOT APPLICABLE (SUBJECT MALE) | 2106-3 | URINE | | 1 | BASELINE | 1999-06-09T10:00 | Y |", "score": 0.4437, "match_basis": "verbatim_token+domain_route:LB"}, {"md_atom_id": "md_dmLB_ex_a044", "md_file": "knowledge_base/domains/LB/examples.md", "md_atom_type": "TABLE_ROW", "md_parent_section": "§LB.4 [Example 4]", "md_verbatim": "| 3 | ABC | LB | ABC-001-001 | 1 | 3 | CANNAB | Cannabinoids | QUANTIFY | DRUG TOXICITY | 271 | ug/L | 271 | 271 | ug/L | 42860-7 | URINE | GC/MS | | 2013-02-16 | 1 | Week 1 |", "score": 0.4261, "match_basis": "verbatim_token+domain_route:LB"}, {"md_atom_id": "md_dmLB_ex_a053", "md_file": "knowledge_base/domains/LB/examples.md", "md_atom_type": "TABLE_ROW", "md_parent_section": "§LB.5 [Example 5]", "md_verbatim": "| 1 | ABC | LB | ABC-123456 | 1 | HGFR | Hepatocyte Growth Factor Receptor | ABC-8675309 | TARGET ENGAGEMENT | 35 | ng/mL | 35 | 35 | ng/mL | SERUM | ELISA | 2017-07-05 | 2 | WEEK 2 |", "score": 0.4231, "match_basis": "verbatim_token+domain_route:LB"}, {"md_atom_id": "md_dmLB_ex_a055", "md_file": "knowledge_base/domains/LB/examples.md", "md_atom_type": "TABLE_ROW", "md_parent_section": "§LB.5 [Example 5]", "md_verbatim": "| 3 | ABC | LB | ABC-123456 | 3 | EGFR | Epidermal Growth Factor Receptor | ABC-8675309 | TARGET ENGAGEMENT | 100 | ng/mL | 100 | 100 | ng/mL | SERUM | ELISA | 2017-07-05 | 2 | WEEK 2 |", "score": 0.4231, "match_basis": "verbatim_token+domain_route:LB"}], "candidate_count": 5, "zero_candidate": false}
{"pdf_atom_id": "ig34_p0244_a006", "pdf_atom_type": "TABLE_ROW", "pdf_source": "SDTMIG_v3.4", "pdf_page": 244, "pdf_parent_section": "§6.3.5.6 Laboratory Test Results (LB)", "pdf_verbatim": "| LBFAST | Fasting Status | Char | (NY) | Record Qualifier | Indicator used to identify fasting status. Examples: \"Y\", \"N\". | Perm |", "figure_ref": null, "candidates": [{"md_atom_id": "md_dmLB_ex_a055", "md_file": "knowledge_base/domains/LB/examples.md", "md_atom_type": "TABLE_ROW", "md_parent_section": "§LB.5 [Example 5]", "md_verbatim": "| 3 | ABC | LB | ABC-123456 | 3 | EGFR | Epidermal Growth Factor Receptor | ABC-8675309 | TARGET ENGAGEMENT | 100 | ng/mL | 100 | 100 | ng/mL | SERUM | ELISA | 2017-07-05 | 2 | WEEK 2 |", "score": 0.4309, "match_basis": "verbatim_token+domain_route:LB"}, {"md_atom_id": "md_dmLB_ex_a044", "md_file": "knowledge_base/domains/LB/examples.md", "md_atom_type": "TABLE_ROW", "md_parent_section": "§LB.4 [Example 4]", "md_verbatim": "| 3 | ABC | LB | ABC-001-001 | 1 | 3 | CANNAB | Cannabinoids | QUANTIFY | DRUG TOXICITY | 271 | ug/L | 271 | 271 | ug/L | 42860-7 | URINE | GC/MS | | 2013-02-16 | 1 | Week 1 |", "score": 0.43, "match_basis": "verbatim_token+domain_route:LB"}, {"md_atom_id": "md_dmLB_ex_a056", "md_file": "knowledge_base/domains/LB/examples.md", "md_atom_type": "TABLE_ROW", "md_parent_section": "§LB.5 [Example 5]", "md_verbatim": "| 4 | ABC | LB | ABC-123456 | 4 | EGFRFR | Epidermal Growth Factor Receptor, Free | ABC-8675309 | TARGET ENGAGEMENT | 20 | ng/mL | 20 | 20 | ng/mL | SERUM | ELISA | 2017-07-05 | 2 | WEEK 2 |", "score": 0.43, "match_basis": "verbatim_token+domain_route:LB"}, {"md_atom_id": "md_dmLB_ex_a053", "md_file": "knowledge_base/domains/LB/examples.md", "md_atom_type": "TABLE_ROW", "md_parent_section": "§LB.5 [Example 5]", "md_verbatim": "| 1 | ABC | LB | ABC-123456 | 1 | HGFR | Hepatocyte Growth Factor Receptor | ABC-8675309 | TARGET ENGAGEMENT | 35 | ng/mL | 35 | 35 | ng/mL | SERUM | ELISA | 2017-07-05 | 2 | WEEK 2 |", "score": 0.4245, "match_basis": "verbatim_token+domain_route:LB"}, {"md_atom_id": "md_dmLB_ex_a054", "md_file": "knowledge_base/domains/LB/examples.md", "md_atom_type": "TABLE_ROW", "md_parent_section": "§LB.5 [Example 5]", "md_verbatim": "| 2 | ABC | LB | ABC-123456 | 2 | HGFRFR | Hepatocyte Growth Factor Receptor, Free | ABC-8675309 | TARGET ENGAGEMENT | 10 | ng/mL | 10 | 10 | ng/mL | SERUM | ELISA | 2017-07-05 | 2 | WEEK 2 |", "score": 0.4235, "match_basis": "verbatim_token+domain_route:LB"}], "candidate_count": 5, "zero_candidate": false}
{"pdf_atom_id": "ig34_p0244_a007", "pdf_atom_type": "TABLE_ROW", "pdf_source": "SDTMIG_v3.4", "pdf_page": 244, "pdf_parent_section": "§6.3.5.6 Laboratory Test Results (LB)", "pdf_verbatim": "| LBDRVFL | Derived Flag | Char | (NY) | Record Qualifier | Used to identify a derived record. The value should be \"Y\" or null. Records that represent the average of other records, or do not come from the CRF, or are not as originally received or collected are examples of records that might be derived for the submission datasets. If LBDRVFL=\"Y\", then LBORRES may be null, with LBSTRESC and (if numeric) LBSTRESN having the derived value. | Perm |", "figure_ref": null, "candidates": [{"md_atom_id": "md_dmLB_ex_a055", "md_file": "knowledge_base/domains/LB/examples.md", "md_atom_type": "TABLE_ROW", "md_parent_section": "§LB.5 [Example 5]", "md_verbatim": "| 3 | ABC | LB | ABC-123456 | 3 | EGFR | Epidermal Growth Factor Receptor | ABC-8675309 | TARGET ENGAGEMENT | 100 | ng/mL | 100 | 100 | ng/mL | SERUM | ELISA | 2017-07-05 | 2 | WEEK 2 |", "score": 0.4232, "match_basis": "verbatim_token+domain_route:LB"}, {"md_atom_id": "md_dmLB_ex_a056", "md_file": "knowledge_base/domains/LB/examples.md", "md_atom_type": "TABLE_ROW", "md_parent_section": "§LB.5 [Example 5]", "md_verbatim": "| 4 | ABC | LB | ABC-123456 | 4 | EGFRFR | Epidermal Growth Factor Receptor, Free | ABC-8675309 | TARGET ENGAGEMENT | 20 | ng/mL | 20 | 20 | ng/mL | SERUM | ELISA | 2017-07-05 | 2 | WEEK 2 |", "score": 0.4228, "match_basis": "verbatim_token+domain_route:LB"}, {"md_atom_id": "md_dmLB_ex_a034", "md_file": "knowledge_base/domains/LB/examples.md", "md_atom_type": "TABLE_ROW", "md_parent_section": "§LB.3 [Example 3]", "md_verbatim": "| 2 | ABC | LB | ABC-001-002 | 1 | HCG | Choriogonadotropin Beta | | | | | | | | NOT DONE | NOT APPLICABLE (SUBJECT MALE) | 2106-3 | URINE | | 1 | BASELINE | 1999-06-09T10:00 | Y |", "score": 0.4164, "match_basis": "verbatim_token+domain_route:LB"}, {"md_atom_id": "md_dmLB_ex_a044", "md_file": "knowledge_base/domains/LB/examples.md", "md_atom_type": "TABLE_ROW", "md_parent_section": "§LB.4 [Example 4]", "md_verbatim": "| 3 | ABC | LB | ABC-001-001 | 1 | 3 | CANNAB | Cannabinoids | QUANTIFY | DRUG TOXICITY | 271 | ug/L | 271 | 271 | ug/L | 42860-7 | URINE | GC/MS | | 2013-02-16 | 1 | Week 1 |", "score": 0.4145, "match_basis": "verbatim_token+domain_route:LB"}, {"md_atom_id": "md_dmLB_ex_a043", "md_file": "knowledge_base/domains/LB/examples.md", "md_atom_type": "TABLE_ROW", "md_parent_section": "§LB.4 [Example 4]", "md_verbatim": "| 2 | ABC | LB | ABC-001-001 | 1 | 2 | CANNAB | Cannabinoids | CONFIRM | DRUG TOXICITY | POSITIVE | | POSITIVE | | | 19289-8 | URINE | MASS SPECTROMETRY | Y | 2013-02-16 | 1 | Week 1 |", "score": 0.4132, "match_basis": "verbatim_token+domain_route:LB"}], "candidate_count": 5, "zero_candidate": false}
{"pdf_atom_id": "ig34_p0244_a008", "pdf_atom_type": "TABLE_ROW", "pdf_source": "SDTMIG_v3.4", "pdf_page": 244, "pdf_parent_section": "§6.3.5.6 Laboratory Test Results (LB)", "pdf_verbatim": "| LBTOX | Toxicity | Char | * | Variable Qualifier | Description of toxicity quantified by LBTOXGR. The sponsor is expected to provide the name of the scale and version used to map the terms, utilizing the external codelist element in the Define-XML document. | Perm |", "figure_ref": null, "candidates": [{"md_atom_id": "md_dmLB_ex_a044", "md_file": "knowledge_base/domains/LB/examples.md", "md_atom_type": "TABLE_ROW", "md_parent_section": "§LB.4 [Example 4]", "md_verbatim": "| 3 | ABC | LB | ABC-001-001 | 1 | 3 | CANNAB | Cannabinoids | QUANTIFY | DRUG TOXICITY | 271 | ug/L | 271 | 271 | ug/L | 42860-7 | URINE | GC/MS | | 2013-02-16 | 1 | Week 1 |", "score": 0.4554, "match_basis": "verbatim_token+domain_route:LB"}, {"md_atom_id": "md_dmLB_ex_a043", "md_file": "knowledge_base/domains/LB/examples.md", "md_atom_type": "TABLE_ROW", "md_parent_section": "§LB.4 [Example 4]", "md_verbatim": "| 2 | ABC | LB | ABC-001-001 | 1 | 2 | CANNAB | Cannabinoids | CONFIRM | DRUG TOXICITY | POSITIVE | | POSITIVE | | | 19289-8 | URINE | MASS SPECTROMETRY | Y | 2013-02-16 | 1 | Week 1 |", "score": 0.4362, "match_basis": "verbatim_token+domain_route:LB"}, {"md_atom_id": "md_dmLB_ex_a042", "md_file": "knowledge_base/domains/LB/examples.md", "md_atom_type": "TABLE_ROW", "md_parent_section": "§LB.4 [Example 4]", "md_verbatim": "| 1 | ABC | LB | ABC-001-001 | 1 | 1 | CANNAB | Cannabinoids | SCREEN | DRUG TOXICITY | POSITIVE | | POSITIVE | | | 19287-2 | URINE | KINETIC MICROPARTICLE IMMUNOASSAY | Y | 2013-02-16 | 1 | Week 1 |", "score": 0.43, "match_basis": "verbatim_token+domain_route:LB"}, {"md_atom_id": "md_dmLB_ex_a055", "md_file": "knowledge_base/domains/LB/examples.md", "md_atom_type": "TABLE_ROW", "md_parent_section": "§LB.5 [Example 5]", "md_verbatim": "| 3 | ABC | LB | ABC-123456 | 3 | EGFR | Epidermal Growth Factor Receptor | ABC-8675309 | TARGET ENGAGEMENT | 100 | ng/mL | 100 | 100 | ng/mL | SERUM | ELISA | 2017-07-05 | 2 | WEEK 2 |", "score": 0.4275, "match_basis": "verbatim_token+domain_route:LB"}, {"md_atom_id": "md_dmLB_ex_a056", "md_file": "knowledge_base/domains/LB/examples.md", "md_atom_type": "TABLE_ROW", "md_parent_section": "§LB.5 [Example 5]", "md_verbatim": "| 4 | ABC | LB | ABC-123456 | 4 | EGFRFR | Epidermal Growth Factor Receptor, Free | ABC-8675309 | TARGET ENGAGEMENT | 20 | ng/mL | 20 | 20 | ng/mL | SERUM | ELISA | 2017-07-05 | 2 | WEEK 2 |", "score": 0.4269, "match_basis": "verbatim_token+domain_route:LB"}], "candidate_count": 5, "zero_candidate": false}
{"pdf_atom_id": "ig34_p0244_a009", "pdf_atom_type": "TABLE_ROW", "pdf_source": "SDTMIG_v3.4", "pdf_page": 244, "pdf_parent_section": "§6.3.5.6 Laboratory Test Results (LB)", "pdf_verbatim": "| LBTOXGR | Standard Toxicity Grade | Char | * | Record Qualifier | Records toxicity grade value using a standard toxicity scale (e.g., the NCI CTCAE). If value is from a numeric scale, represent only the number (e.g., \"2\" not \"Grade 2\"). The sponsor is expected to provide the name of the scale and version used to map the terms, utilizing the external codelist element in the Define-XML document. | Perm |", "figure_ref": null, "candidates": [{"md_atom_id": "md_dmLB_ex_a043", "md_file": "knowledge_base/domains/LB/examples.md", "md_atom_type": "TABLE_ROW", "md_parent_section": "§LB.4 [Example 4]", "md_verbatim": "| 2 | ABC | LB | ABC-001-001 | 1 | 2 | CANNAB | Cannabinoids | CONFIRM | DRUG TOXICITY | POSITIVE | | POSITIVE | | | 19289-8 | URINE | MASS SPECTROMETRY | Y | 2013-02-16 | 1 | Week 1 |", "score": 0.4355, "match_basis": "verbatim_token+domain_route:LB"}, {"md_atom_id": "md_dmLB_ex_a044", "md_file": "knowledge_base/domains/LB/examples.md", "md_atom_type": "TABLE_ROW", "md_parent_section": "§LB.4 [Example 4]", "md_verbatim": "| 3 | ABC | LB | ABC-001-001 | 1 | 3 | CANNAB | Cannabinoids | QUANTIFY | DRUG TOXICITY | 271 | ug/L | 271 | 271 | ug/L | 42860-7 | URINE | GC/MS | | 2013-02-16 | 1 | Week 1 |", "score": 0.431, "match_basis": "verbatim_token+domain_route:LB"}, {"md_atom_id": "md_dmLB_ex_a055", "md_file": "knowledge_base/domains/LB/examples.md", "md_atom_type": "TABLE_ROW", "md_parent_section": "§LB.5 [Example 5]", "md_verbatim": "| 3 | ABC | LB | ABC-123456 | 3 | EGFR | Epidermal Growth Factor Receptor | ABC-8675309 | TARGET ENGAGEMENT | 100 | ng/mL | 100 | 100 | ng/mL | SERUM | ELISA | 2017-07-05 | 2 | WEEK 2 |", "score": 0.4277, "match_basis": "verbatim_token+domain_route:LB"}, {"md_atom_id": "md_dmLB_ex_a056", "md_file": "knowledge_base/domains/LB/examples.md", "md_atom_type": "TABLE_ROW", "md_parent_section": "§LB.5 [Example 5]", "md_verbatim": "| 4 | ABC | LB | ABC-123456 | 4 | EGFRFR | Epidermal Growth Factor Receptor, Free | ABC-8675309 | TARGET ENGAGEMENT | 20 | ng/mL | 20 | 20 | ng/mL | SERUM | ELISA | 2017-07-05 | 2 | WEEK 2 |", "score": 0.4273, "match_basis": "verbatim_token+domain_route:LB"}, {"md_atom_id": "md_dmLB_ex_a042", "md_file": "knowledge_base/domains/LB/examples.md", "md_atom_type": "TABLE_ROW", "md_parent_section": "§LB.4 [Example 4]", "md_verbatim": "| 1 | ABC | LB | ABC-001-001 | 1 | 1 | CANNAB | Cannabinoids | SCREEN | DRUG TOXICITY | POSITIVE | | POSITIVE | | | 19287-2 | URINE | KINETIC MICROPARTICLE IMMUNOASSAY | Y | 2013-02-16 | 1 | Week 1 |", "score": 0.4231, "match_basis": "verbatim_token+domain_route:LB"}], "candidate_count": 5, "zero_candidate": false}
{"pdf_atom_id": "ig34_p0244_a010", "pdf_atom_type": "TABLE_ROW", "pdf_source": "SDTMIG_v3.4", "pdf_page": 244, "pdf_parent_section": "§6.3.5.6 Laboratory Test Results (LB)", "pdf_verbatim": "| LBCLSIG | Clinically Significant, Collected | Char | (NY) | Record Qualifier | Used to indicate whether a collected observation is clinically significant based on judgment. | Perm |", "figure_ref": null, "candidates": [{"md_atom_id": "md_dmLB_ex_a024", "md_file": "knowledge_base/domains/LB/examples.md", "md_atom_type": "TABLE_ROW", "md_parent_section": "§LB.2 [Example 2]", "md_verbatim": "| 1 | ABC | LB | ABC-001-001 | 1 | CREAT | Creatinine Concentration | | 0.563 | g | 5.63 | 5.63 | g/L | URINE | | Y | | 2161-7 | | PT4H | -15 min pre-dose | 1 | PREVIOUS DOSE | 2000-02-01 | -PT15M | 1 | VISIT 1 | 2000-02-01T04:00 | 2000-02-01T07:45 |", "score": 0.4265, "match_basis": "verbatim_token+domain_route:LB"}, {"md_atom_id": "md_dmLB_ex_a025", "md_file": "knowledge_base/domains/LB/examples.md", "md_atom_type": "TABLE_ROW", "md_parent_section": "§LB.2 [Example 2]", "md_verbatim": "| 2 | ABC | LB | ABC-001-001 | 2 | CREAT | Creatinine Concentration | | 0.879 | g | 8.79 | 8.79 | g/L | URINE | | | | 2161-7 | | PT12H | 12 h post-dose | 2 | PREVIOUS DOSE | 2000-02-01 | PT12H | 1 | VISIT 1 | 2000-02-01T08:00 | 2000-02-01T20:00 |", "score": 0.4265, "match_basis": "verbatim_token+domain_route:LB"}, {"md_atom_id": "md_dmLB_ex_a026", "md_file": "knowledge_base/domains/LB/examples.md", "md_atom_type": "TABLE_ROW", "md_parent_section": "§LB.2 [Example 2]", "md_verbatim": "| 3 | ABC | LB | ABC-001-001 | 3 | CREAT | Creatinine Concentration | | 0.541 | g | 5.41 | 5.41 | g/L | URINE | | | | 2161-7 | | PT24H | 24 h post-dose | 3 | PREVIOUS DOSE | 2000-02-01 | PT24H | 1 | VISIT 1 | 2000-02-01T20:00 | 2000-02-02T08:00 |", "score": 0.4263, "match_basis": "verbatim_token+domain_route:LB"}, {"md_atom_id": "md_dmLB_ex_a034", "md_file": "knowledge_base/domains/LB/examples.md", "md_atom_type": "TABLE_ROW", "md_parent_section": "§LB.3 [Example 3]", "md_verbatim": "| 2 | ABC | LB | ABC-001-002 | 1 | HCG | Choriogonadotropin Beta | | | | | | | | NOT DONE | NOT APPLICABLE (SUBJECT MALE) | 2106-3 | URINE | | 1 | BASELINE | 1999-06-09T10:00 | Y |", "score": 0.425, "match_basis": "verbatim_token+domain_route:LB"}, {"md_atom_id": "md_dmLB_ex_a055", "md_file": "knowledge_base/domains/LB/examples.md", "md_atom_type": "TABLE_ROW", "md_parent_section": "§LB.5 [Example 5]", "md_verbatim": "| 3 | ABC | LB | ABC-123456 | 3 | EGFR | Epidermal Growth Factor Receptor | ABC-8675309 | TARGET ENGAGEMENT | 100 | ng/mL | 100 | 100 | ng/mL | SERUM | ELISA | 2017-07-05 | 2 | WEEK 2 |", "score": 0.425, "match_basis": "verbatim_token+domain_route:LB"}], "candidate_count": 5, "zero_candidate": false}
{"pdf_atom_id": "ig34_p0244_a011", "pdf_atom_type": "TABLE_ROW", "pdf_source": "SDTMIG_v3.4", "pdf_page": 244, "pdf_parent_section": "§6.3.5.6 Laboratory Test Results (LB)", "pdf_verbatim": "| VISITNUM | Visit Number | Num | | Timing | Clinical encounter number. Numeric version of VISIT, used for sorting. | Exp |", "figure_ref": null, "candidates": [{"md_atom_id": "md_dmLB_ex_a024", "md_file": "knowledge_base/domains/LB/examples.md", "md_atom_type": "TABLE_ROW", "md_parent_section": "§LB.2 [Example 2]", "md_verbatim": "| 1 | ABC | LB | ABC-001-001 | 1 | CREAT | Creatinine Concentration | | 0.563 | g | 5.63 | 5.63 | g/L | URINE | | Y | | 2161-7 | | PT4H | -15 min pre-dose | 1 | PREVIOUS DOSE | 2000-02-01 | -PT15M | 1 | VISIT 1 | 2000-02-01T04:00 | 2000-02-01T07:45 |", "score": 0.45, "match_basis": "verbatim_token+domain_route:LB"}, {"md_atom_id": "md_dmLB_ex_a025", "md_file": "knowledge_base/domains/LB/examples.md", "md_atom_type": "TABLE_ROW", "md_parent_section": "§LB.2 [Example 2]", "md_verbatim": "| 2 | ABC | LB | ABC-001-001 | 2 | CREAT | Creatinine Concentration | | 0.879 | g | 8.79 | 8.79 | g/L | URINE | | | | 2161-7 | | PT12H | 12 h post-dose | 2 | PREVIOUS DOSE | 2000-02-01 | PT12H | 1 | VISIT 1 | 2000-02-01T08:00 | 2000-02-01T20:00 |", "score": 0.4424, "match_basis": "verbatim_token+domain_route:LB"}, {"md_atom_id": "md_dmLB_ex_a026", "md_file": "knowledge_base/domains/LB/examples.md", "md_atom_type": "TABLE_ROW", "md_parent_section": "§LB.2 [Example 2]", "md_verbatim": "| 3 | ABC | LB | ABC-001-001 | 3 | CREAT | Creatinine Concentration | | 0.541 | g | 5.41 | 5.41 | g/L | URINE | | | | 2161-7 | | PT24H | 24 h post-dose | 3 | PREVIOUS DOSE | 2000-02-01 | PT24H | 1 | VISIT 1 | 2000-02-01T20:00 | 2000-02-02T08:00 |", "score": 0.4419, "match_basis": "verbatim_token+domain_route:LB"}, {"md_atom_id": "md_dmLB_ex_a034", "md_file": "knowledge_base/domains/LB/examples.md", "md_atom_type": "TABLE_ROW", "md_parent_section": "§LB.3 [Example 3]", "md_verbatim": "| 2 | ABC | LB | ABC-001-002 | 1 | HCG | Choriogonadotropin Beta | | | | | | | | NOT DONE | NOT APPLICABLE (SUBJECT MALE) | 2106-3 | URINE | | 1 | BASELINE | 1999-06-09T10:00 | Y |", "score": 0.4125, "match_basis": "verbatim_token+domain_route:LB"}, {"md_atom_id": "md_dmLB_ex_a042", "md_file": "knowledge_base/domains/LB/examples.md", "md_atom_type": "TABLE_ROW", "md_parent_section": "§LB.4 [Example 4]", "md_verbatim": "| 1 | ABC | LB | ABC-001-001 | 1 | 1 | CANNAB | Cannabinoids | SCREEN | DRUG TOXICITY | POSITIVE | | POSITIVE | | | 19287-2 | URINE | KINETIC MICROPARTICLE IMMUNOASSAY | Y | 2013-02-16 | 1 | Week 1 |", "score": 0.4115, "match_basis": "verbatim_token+domain_route:LB"}], "candidate_count": 5, "zero_candidate": false}
{"pdf_atom_id": "ig34_p0244_a012", "pdf_atom_type": "TABLE_ROW", "pdf_source": "SDTMIG_v3.4", "pdf_page": 244, "pdf_parent_section": "§6.3.5.6 Laboratory Test Results (LB)", "pdf_verbatim": "| VISIT | Visit Name | Char | | Timing | Protocol-defined description of clinical encounter. May be used in addition to VISITNUM and/or VISITDY. | Perm |", "figure_ref": null, "candidates": [{"md_atom_id": "md_dmLB_ex_a024", "md_file": "knowledge_base/domains/LB/examples.md", "md_atom_type": "TABLE_ROW", "md_parent_section": "§LB.2 [Example 2]", "md_verbatim": "| 1 | ABC | LB | ABC-001-001 | 1 | CREAT | Creatinine Concentration | | 0.563 | g | 5.63 | 5.63 | g/L | URINE | | Y | | 2161-7 | | PT4H | -15 min pre-dose | 1 | PREVIOUS DOSE | 2000-02-01 | -PT15M | 1 | VISIT 1 | 2000-02-01T04:00 | 2000-02-01T07:45 |", "score": 0.4485, "match_basis": "verbatim_token+domain_route:LB"}, {"md_atom_id": "md_dmLB_ex_a025", "md_file": "knowledge_base/domains/LB/examples.md", "md_atom_type": "TABLE_ROW", "md_parent_section": "§LB.2 [Example 2]", "md_verbatim": "| 2 | ABC | LB | ABC-001-001 | 2 | CREAT | Creatinine Concentration | | 0.879 | g | 8.79 | 8.79 | g/L | URINE | | | | 2161-7 | | PT12H | 12 h post-dose | 2 | PREVIOUS DOSE | 2000-02-01 | PT12H | 1 | VISIT 1 | 2000-02-01T08:00 | 2000-02-01T20:00 |", "score": 0.442, "match_basis": "verbatim_token+domain_route:LB"}, {"md_atom_id": "md_dmLB_ex_a026", "md_file": "knowledge_base/domains/LB/examples.md", "md_atom_type": "TABLE_ROW", "md_parent_section": "§LB.2 [Example 2]", "md_verbatim": "| 3 | ABC | LB | ABC-001-001 | 3 | CREAT | Creatinine Concentration | | 0.541 | g | 5.41 | 5.41 | g/L | URINE | | | | 2161-7 | | PT24H | 24 h post-dose | 3 | PREVIOUS DOSE | 2000-02-01 | PT24H | 1 | VISIT 1 | 2000-02-01T20:00 | 2000-02-02T08:00 |", "score": 0.4416, "match_basis": "verbatim_token+domain_route:LB"}, {"md_atom_id": "md_dmLB_ex_a042", "md_file": "knowledge_base/domains/LB/examples.md", "md_atom_type": "TABLE_ROW", "md_parent_section": "§LB.4 [Example 4]", "md_verbatim": "| 1 | ABC | LB | ABC-001-001 | 1 | 1 | CANNAB | Cannabinoids | SCREEN | DRUG TOXICITY | POSITIVE | | POSITIVE | | | 19287-2 | URINE | KINETIC MICROPARTICLE IMMUNOASSAY | Y | 2013-02-16 | 1 | Week 1 |", "score": 0.4203, "match_basis": "verbatim_token+domain_route:LB"}, {"md_atom_id": "md_dmLB_ex_a043", "md_file": "knowledge_base/domains/LB/examples.md", "md_atom_type": "TABLE_ROW", "md_parent_section": "§LB.4 [Example 4]", "md_verbatim": "| 2 | ABC | LB | ABC-001-001 | 1 | 2 | CANNAB | Cannabinoids | CONFIRM | DRUG TOXICITY | POSITIVE | | POSITIVE | | | 19289-8 | URINE | MASS SPECTROMETRY | Y | 2013-02-16 | 1 | Week 1 |", "score": 0.4165, "match_basis": "verbatim_token+domain_route:LB"}], "candidate_count": 5, "zero_candidate": false}
{"pdf_atom_id": "ig34_p0244_a013", "pdf_atom_type": "TABLE_ROW", "pdf_source": "SDTMIG_v3.4", "pdf_page": 244, "pdf_parent_section": "§6.3.5.6 Laboratory Test Results (LB)", "pdf_verbatim": "| VISITDY | Planned Study Day of Visit | Num | | Timing | Planned study day of the visit based upon RFSTDTC in Demographics. | Perm |", "figure_ref": null, "candidates": [{"md_atom_id": "md_dmLB_ex_a024", "md_file": "knowledge_base/domains/LB/examples.md", "md_atom_type": "TABLE_ROW", "md_parent_section": "§LB.2 [Example 2]", "md_verbatim": "| 1 | ABC | LB | ABC-001-001 | 1 | CREAT | Creatinine Concentration | | 0.563 | g | 5.63 | 5.63 | g/L | URINE | | Y | | 2161-7 | | PT4H | -15 min pre-dose | 1 | PREVIOUS DOSE | 2000-02-01 | -PT15M | 1 | VISIT 1 | 2000-02-01T04:00 | 2000-02-01T07:45 |", "score": 0.4279, "match_basis": "verbatim_token+domain_route:LB"}, {"md_atom_id": "md_dmLB_ex_a025", "md_file": "knowledge_base/domains/LB/examples.md", "md_atom_type": "TABLE_ROW", "md_parent_section": "§LB.2 [Example 2]", "md_verbatim": "| 2 | ABC | LB | ABC-001-001 | 2 | CREAT | Creatinine Concentration | | 0.879 | g | 8.79 | 8.79 | g/L | URINE | | | | 2161-7 | | PT12H | 12 h post-dose | 2 | PREVIOUS DOSE | 2000-02-01 | PT12H | 1 | VISIT 1 | 2000-02-01T08:00 | 2000-02-01T20:00 |", "score": 0.4207, "match_basis": "verbatim_token+domain_route:LB"}, {"md_atom_id": "md_dmLB_ex_a026", "md_file": "knowledge_base/domains/LB/examples.md", "md_atom_type": "TABLE_ROW", "md_parent_section": "§LB.2 [Example 2]", "md_verbatim": "| 3 | ABC | LB | ABC-001-001 | 3 | CREAT | Creatinine Concentration | | 0.541 | g | 5.41 | 5.41 | g/L | URINE | | | | 2161-7 | | PT24H | 24 h post-dose | 3 | PREVIOUS DOSE | 2000-02-01 | PT24H | 1 | VISIT 1 | 2000-02-01T20:00 | 2000-02-02T08:00 |", "score": 0.4205, "match_basis": "verbatim_token+domain_route:LB"}, {"md_atom_id": "md_dmLB_ex_a033", "md_file": "knowledge_base/domains/LB/examples.md", "md_atom_type": "TABLE_ROW", "md_parent_section": "§LB.3 [Example 3]", "md_verbatim": "| 1 | ABC | LB | ABC-001-001 | 1 | HCG | Choriogonadotropin Beta | | - | | NEGATIVE | | | | | | 2106-3 | URINE | | 1 | BASELINE | 1999-06-09T10:00 | Y |", "score": 0.4146, "match_basis": "verbatim_token+domain_route:LB"}, {"md_atom_id": "md_dmLB_ex_a043", "md_file": "knowledge_base/domains/LB/examples.md", "md_atom_type": "TABLE_ROW", "md_parent_section": "§LB.4 [Example 4]", "md_verbatim": "| 2 | ABC | LB | ABC-001-001 | 1 | 2 | CANNAB | Cannabinoids | CONFIRM | DRUG TOXICITY | POSITIVE | | POSITIVE | | | 19289-8 | URINE | MASS SPECTROMETRY | Y | 2013-02-16 | 1 | Week 1 |", "score": 0.4129, "match_basis": "verbatim_token+domain_route:LB"}], "candidate_count": 5, "zero_candidate": false}
{"pdf_atom_id": "ig34_p0244_a014", "pdf_atom_type": "TABLE_ROW", "pdf_source": "SDTMIG_v3.4", "pdf_page": 244, "pdf_parent_section": "§6.3.5.6 Laboratory Test Results (LB)", "pdf_verbatim": "| TAETORD | Planned Order of Element within Arm | Num | | Timing | Number that gives the planned order of the element within the arm. | Perm |", "figure_ref": null, "candidates": [{"md_atom_id": "md_dmLB_ex_a055", "md_file": "knowledge_base/domains/LB/examples.md", "md_atom_type": "TABLE_ROW", "md_parent_section": "§LB.5 [Example 5]", "md_verbatim": "| 3 | ABC | LB | ABC-123456 | 3 | EGFR | Epidermal Growth Factor Receptor | ABC-8675309 | TARGET ENGAGEMENT | 100 | ng/mL | 100 | 100 | ng/mL | SERUM | ELISA | 2017-07-05 | 2 | WEEK 2 |", "score": 0.4414, "match_basis": "verbatim_token+domain_route:LB"}, {"md_atom_id": "md_dmLB_ex_a056", "md_file": "knowledge_base/domains/LB/examples.md", "md_atom_type": "TABLE_ROW", "md_parent_section": "§LB.5 [Example 5]", "md_verbatim": "| 4 | ABC | LB | ABC-123456 | 4 | EGFRFR | Epidermal Growth Factor Receptor, Free | ABC-8675309 | TARGET ENGAGEMENT | 20 | ng/mL | 20 | 20 | ng/mL | SERUM | ELISA | 2017-07-05 | 2 | WEEK 2 |", "score": 0.44, "match_basis": "verbatim_token+domain_route:LB"}, {"md_atom_id": "md_dmLB_ex_a053", "md_file": "knowledge_base/domains/LB/examples.md", "md_atom_type": "TABLE_ROW", "md_parent_section": "§LB.5 [Example 5]", "md_verbatim": "| 1 | ABC | LB | ABC-123456 | 1 | HGFR | Hepatocyte Growth Factor Receptor | ABC-8675309 | TARGET ENGAGEMENT | 35 | ng/mL | 35 | 35 | ng/mL | SERUM | ELISA | 2017-07-05 | 2 | WEEK 2 |", "score": 0.427, "match_basis": "verbatim_token+domain_route:LB"}, {"md_atom_id": "md_dmLB_ex_a054", "md_file": "knowledge_base/domains/LB/examples.md", "md_atom_type": "TABLE_ROW", "md_parent_section": "§LB.5 [Example 5]", "md_verbatim": "| 2 | ABC | LB | ABC-123456 | 2 | HGFRFR | Hepatocyte Growth Factor Receptor, Free | ABC-8675309 | TARGET ENGAGEMENT | 10 | ng/mL | 10 | 10 | ng/mL | SERUM | ELISA | 2017-07-05 | 2 | WEEK 2 |", "score": 0.4258, "match_basis": "verbatim_token+domain_route:LB"}, {"md_atom_id": "md_dmLB_ex_a024", "md_file": "knowledge_base/domains/LB/examples.md", "md_atom_type": "TABLE_ROW", "md_parent_section": "§LB.2 [Example 2]", "md_verbatim": "| 1 | ABC | LB | ABC-001-001 | 1 | CREAT | Creatinine Concentration | | 0.563 | g | 5.63 | 5.63 | g/L | URINE | | Y | | 2161-7 | | PT4H | -15 min pre-dose | 1 | PREVIOUS DOSE | 2000-02-01 | -PT15M | 1 | VISIT 1 | 2000-02-01T04:00 | 2000-02-01T07:45 |", "score": 0.4143, "match_basis": "verbatim_token+domain_route:LB"}], "candidate_count": 5, "zero_candidate": false}
{"pdf_atom_id": "ig34_p0244_a015", "pdf_atom_type": "TABLE_ROW", "pdf_source": "SDTMIG_v3.4", "pdf_page": 244, "pdf_parent_section": "§6.3.5.6 Laboratory Test Results (LB)", "pdf_verbatim": "| EPOCH | Epoch | Char | (EPOCH) | Timing | Epoch associated with the start date/time of the observation, or the date/time of collection if start date/time is not collected. | Perm |", "figure_ref": null, "candidates": [{"md_atom_id": "md_dmLB_ex_a024", "md_file": "knowledge_base/domains/LB/examples.md", "md_atom_type": "TABLE_ROW", "md_parent_section": "§LB.2 [Example 2]", "md_verbatim": "| 1 | ABC | LB | ABC-001-001 | 1 | CREAT | Creatinine Concentration | | 0.563 | g | 5.63 | 5.63 | g/L | URINE | | Y | | 2161-7 | | PT4H | -15 min pre-dose | 1 | PREVIOUS DOSE | 2000-02-01 | -PT15M | 1 | VISIT 1 | 2000-02-01T04:00 | 2000-02-01T07:45 |", "score": 0.4273, "match_basis": "verbatim_token+domain_route:LB"}, {"md_atom_id": "md_dmLB_ex_a025", "md_file": "knowledge_base/domains/LB/examples.md", "md_atom_type": "TABLE_ROW", "md_parent_section": "§LB.2 [Example 2]", "md_verbatim": "| 2 | ABC | LB | ABC-001-001 | 2 | CREAT | Creatinine Concentration | | 0.879 | g | 8.79 | 8.79 | g/L | URINE | | | | 2161-7 | | PT12H | 12 h post-dose | 2 | PREVIOUS DOSE | 2000-02-01 | PT12H | 1 | VISIT 1 | 2000-02-01T08:00 | 2000-02-01T20:00 |", "score": 0.4202, "match_basis": "verbatim_token+domain_route:LB"}, {"md_atom_id": "md_dmLB_ex_a026", "md_file": "knowledge_base/domains/LB/examples.md", "md_atom_type": "TABLE_ROW", "md_parent_section": "§LB.2 [Example 2]", "md_verbatim": "| 3 | ABC | LB | ABC-001-001 | 3 | CREAT | Creatinine Concentration | | 0.541 | g | 5.41 | 5.41 | g/L | URINE | | | | 2161-7 | | PT24H | 24 h post-dose | 3 | PREVIOUS DOSE | 2000-02-01 | PT24H | 1 | VISIT 1 | 2000-02-01T20:00 | 2000-02-02T08:00 |", "score": 0.42, "match_basis": "verbatim_token+domain_route:LB"}, {"md_atom_id": "md_dmLB_ex_a055", "md_file": "knowledge_base/domains/LB/examples.md", "md_atom_type": "TABLE_ROW", "md_parent_section": "§LB.5 [Example 5]", "md_verbatim": "| 3 | ABC | LB | ABC-123456 | 3 | EGFR | Epidermal Growth Factor Receptor | ABC-8675309 | TARGET ENGAGEMENT | 100 | ng/mL | 100 | 100 | ng/mL | SERUM | ELISA | 2017-07-05 | 2 | WEEK 2 |", "score": 0.4187, "match_basis": "verbatim_token+domain_route:LB"}, {"md_atom_id": "md_dmLB_ex_a056", "md_file": "knowledge_base/domains/LB/examples.md", "md_atom_type": "TABLE_ROW", "md_parent_section": "§LB.5 [Example 5]", "md_verbatim": "| 4 | ABC | LB | ABC-123456 | 4 | EGFRFR | Epidermal Growth Factor Receptor, Free | ABC-8675309 | TARGET ENGAGEMENT | 20 | ng/mL | 20 | 20 | ng/mL | SERUM | ELISA | 2017-07-05 | 2 | WEEK 2 |", "score": 0.4182, "match_basis": "verbatim_token+domain_route:LB"}], "candidate_count": 5, "zero_candidate": false}
{"pdf_atom_id": "ig34_p0244_a016", "pdf_atom_type": "TABLE_ROW", "pdf_source": "SDTMIG_v3.4", "pdf_page": 244, "pdf_parent_section": "§6.3.5.6 Laboratory Test Results (LB)", "pdf_verbatim": "| LBDTC | Date/Time of Specimen Collection | Char | ISO 8601 datetime or interval | Timing | Date/time of specimen collection represented in ISO 8601 character format. | Exp |", "figure_ref": null, "candidates": [{"md_atom_id": "md_dmLB_ex_a024", "md_file": "knowledge_base/domains/LB/examples.md", "md_atom_type": "TABLE_ROW", "md_parent_section": "§LB.2 [Example 2]", "md_verbatim": "| 1 | ABC | LB | ABC-001-001 | 1 | CREAT | Creatinine Concentration | | 0.563 | g | 5.63 | 5.63 | g/L | URINE | | Y | | 2161-7 | | PT4H | -15 min pre-dose | 1 | PREVIOUS DOSE | 2000-02-01 | -PT15M | 1 | VISIT 1 | 2000-02-01T04:00 | 2000-02-01T07:45 |", "score": 0.4313, "match_basis": "verbatim_token+domain_route:LB"}, {"md_atom_id": "md_dmLB_ex_a025", "md_file": "knowledge_base/domains/LB/examples.md", "md_atom_type": "TABLE_ROW", "md_parent_section": "§LB.2 [Example 2]", "md_verbatim": "| 2 | ABC | LB | ABC-001-001 | 2 | CREAT | Creatinine Concentration | | 0.879 | g | 8.79 | 8.79 | g/L | URINE | | | | 2161-7 | | PT12H | 12 h post-dose | 2 | PREVIOUS DOSE | 2000-02-01 | PT12H | 1 | VISIT 1 | 2000-02-01T08:00 | 2000-02-01T20:00 |", "score": 0.4247, "match_basis": "verbatim_token+domain_route:LB"}, {"md_atom_id": "md_dmLB_ex_a026", "md_file": "knowledge_base/domains/LB/examples.md", "md_atom_type": "TABLE_ROW", "md_parent_section": "§LB.2 [Example 2]", "md_verbatim": "| 3 | ABC | LB | ABC-001-001 | 3 | CREAT | Creatinine Concentration | | 0.541 | g | 5.41 | 5.41 | g/L | URINE | | | | 2161-7 | | PT24H | 24 h post-dose | 3 | PREVIOUS DOSE | 2000-02-01 | PT24H | 1 | VISIT 1 | 2000-02-01T20:00 | 2000-02-02T08:00 |", "score": 0.4245, "match_basis": "verbatim_token+domain_route:LB"}, {"md_atom_id": "md_dmLB_ex_a055", "md_file": "knowledge_base/domains/LB/examples.md", "md_atom_type": "TABLE_ROW", "md_parent_section": "§LB.5 [Example 5]", "md_verbatim": "| 3 | ABC | LB | ABC-123456 | 3 | EGFR | Epidermal Growth Factor Receptor | ABC-8675309 | TARGET ENGAGEMENT | 100 | ng/mL | 100 | 100 | ng/mL | SERUM | ELISA | 2017-07-05 | 2 | WEEK 2 |", "score": 0.4231, "match_basis": "verbatim_token+domain_route:LB"}, {"md_atom_id": "md_dmLB_ex_a056", "md_file": "knowledge_base/domains/LB/examples.md", "md_atom_type": "TABLE_ROW", "md_parent_section": "§LB.5 [Example 5]", "md_verbatim": "| 4 | ABC | LB | ABC-123456 | 4 | EGFRFR | Epidermal Growth Factor Receptor, Free | ABC-8675309 | TARGET ENGAGEMENT | 20 | ng/mL | 20 | 20 | ng/mL | SERUM | ELISA | 2017-07-05 | 2 | WEEK 2 |", "score": 0.4224, "match_basis": "verbatim_token+domain_route:LB"}], "candidate_count": 5, "zero_candidate": false}
{"pdf_atom_id": "ig34_p0244_a017", "pdf_atom_type": "TABLE_ROW", "pdf_source": "SDTMIG_v3.4", "pdf_page": 244, "pdf_parent_section": "§6.3.5.6 Laboratory Test Results (LB)", "pdf_verbatim": "| LBENDTC | End Date/Time of Specimen Collection | Char | ISO 8601 datetime or interval | Timing | End date/time of specimen collection represented in ISO 8601 character format. | Perm |", "figure_ref": null, "candidates": [{"md_atom_id": "md_dmLB_ex_a024", "md_file": "knowledge_base/domains/LB/examples.md", "md_atom_type": "TABLE_ROW", "md_parent_section": "§LB.2 [Example 2]", "md_verbatim": "| 1 | ABC | LB | ABC-001-001 | 1 | CREAT | Creatinine Concentration | | 0.563 | g | 5.63 | 5.63 | g/L | URINE | | Y | | 2161-7 | | PT4H | -15 min pre-dose | 1 | PREVIOUS DOSE | 2000-02-01 | -PT15M | 1 | VISIT 1 | 2000-02-01T04:00 | 2000-02-01T07:45 |", "score": 0.4303, "match_basis": "verbatim_token+domain_route:LB"}, {"md_atom_id": "md_dmLB_ex_a055", "md_file": "knowledge_base/domains/LB/examples.md", "md_atom_type": "TABLE_ROW", "md_parent_section": "§LB.5 [Example 5]", "md_verbatim": "| 3 | ABC | LB | ABC-123456 | 3 | EGFR | Epidermal Growth Factor Receptor | ABC-8675309 | TARGET ENGAGEMENT | 100 | ng/mL | 100 | 100 | ng/mL | SERUM | ELISA | 2017-07-05 | 2 | WEEK 2 |", "score": 0.4283, "match_basis": "verbatim_token+domain_route:LB"}, {"md_atom_id": "md_dmLB_ex_a056", "md_file": "knowledge_base/domains/LB/examples.md", "md_atom_type": "TABLE_ROW", "md_parent_section": "§LB.5 [Example 5]", "md_verbatim": "| 4 | ABC | LB | ABC-123456 | 4 | EGFRFR | Epidermal Growth Factor Receptor, Free | ABC-8675309 | TARGET ENGAGEMENT | 20 | ng/mL | 20 | 20 | ng/mL | SERUM | ELISA | 2017-07-05 | 2 | WEEK 2 |", "score": 0.4275, "match_basis": "verbatim_token+domain_route:LB"}, {"md_atom_id": "md_dmLB_ex_a025", "md_file": "knowledge_base/domains/LB/examples.md", "md_atom_type": "TABLE_ROW", "md_parent_section": "§LB.2 [Example 2]", "md_verbatim": "| 2 | ABC | LB | ABC-001-001 | 2 | CREAT | Creatinine Concentration | | 0.879 | g | 8.79 | 8.79 | g/L | URINE | | | | 2161-7 | | PT12H | 12 h post-dose | 2 | PREVIOUS DOSE | 2000-02-01 | PT12H | 1 | VISIT 1 | 2000-02-01T08:00 | 2000-02-01T20:00 |", "score": 0.424, "match_basis": "verbatim_token+domain_route:LB"}, {"md_atom_id": "md_dmLB_ex_a026", "md_file": "knowledge_base/domains/LB/examples.md", "md_atom_type": "TABLE_ROW", "md_parent_section": "§LB.2 [Example 2]", "md_verbatim": "| 3 | ABC | LB | ABC-001-001 | 3 | CREAT | Creatinine Concentration | | 0.541 | g | 5.41 | 5.41 | g/L | URINE | | | | 2161-7 | | PT24H | 24 h post-dose | 3 | PREVIOUS DOSE | 2000-02-01 | PT24H | 1 | VISIT 1 | 2000-02-01T20:00 | 2000-02-02T08:00 |", "score": 0.4238, "match_basis": "verbatim_token+domain_route:LB"}], "candidate_count": 5, "zero_candidate": false}
{"pdf_atom_id": "ig34_p0244_a018", "pdf_atom_type": "TABLE_ROW", "pdf_source": "SDTMIG_v3.4", "pdf_page": 244, "pdf_parent_section": "§6.3.5.6 Laboratory Test Results (LB)", "pdf_verbatim": "| LBDY | Study Day of Specimen Collection | Num | | Timing | Study day of specimen collection, measured as integer days. Algorithm for calculations must be relative to the sponsor-defined RFSTDTC variable in Demographics. This formula should be consistent across the submission. | Perm |", "figure_ref": null, "candidates": [{"md_atom_id": "md_dmLB_ex_a024", "md_file": "knowledge_base/domains/LB/examples.md", "md_atom_type": "TABLE_ROW", "md_parent_section": "§LB.2 [Example 2]", "md_verbatim": "| 1 | ABC | LB | ABC-001-001 | 1 | CREAT | Creatinine Concentration | | 0.563 | g | 5.63 | 5.63 | g/L | URINE | | Y | | 2161-7 | | PT4H | -15 min pre-dose | 1 | PREVIOUS DOSE | 2000-02-01 | -PT15M | 1 | VISIT 1 | 2000-02-01T04:00 | 2000-02-01T07:45 |", "score": 0.4263, "match_basis": "verbatim_token+domain_route:LB"}, {"md_atom_id": "md_dmLB_ex_a043", "md_file": "knowledge_base/domains/LB/examples.md", "md_atom_type": "TABLE_ROW", "md_parent_section": "§LB.4 [Example 4]", "md_verbatim": "| 2 | ABC | LB | ABC-001-001 | 1 | 2 | CANNAB | Cannabinoids | CONFIRM | DRUG TOXICITY | POSITIVE | | POSITIVE | | | 19289-8 | URINE | MASS SPECTROMETRY | Y | 2013-02-16 | 1 | Week 1 |", "score": 0.4255, "match_basis": "verbatim_token+domain_route:LB"}, {"md_atom_id": "md_dmLB_ex_a025", "md_file": "knowledge_base/domains/LB/examples.md", "md_atom_type": "TABLE_ROW", "md_parent_section": "§LB.2 [Example 2]", "md_verbatim": "| 2 | ABC | LB | ABC-001-001 | 2 | CREAT | Creatinine Concentration | | 0.879 | g | 8.79 | 8.79 | g/L | URINE | | | | 2161-7 | | PT12H | 12 h post-dose | 2 | PREVIOUS DOSE | 2000-02-01 | PT12H | 1 | VISIT 1 | 2000-02-01T08:00 | 2000-02-01T20:00 |", "score": 0.4224, "match_basis": "verbatim_token+domain_route:LB"}, {"md_atom_id": "md_dmLB_ex_a026", "md_file": "knowledge_base/domains/LB/examples.md", "md_atom_type": "TABLE_ROW", "md_parent_section": "§LB.2 [Example 2]", "md_verbatim": "| 3 | ABC | LB | ABC-001-001 | 3 | CREAT | Creatinine Concentration | | 0.541 | g | 5.41 | 5.41 | g/L | URINE | | | | 2161-7 | | PT24H | 24 h post-dose | 3 | PREVIOUS DOSE | 2000-02-01 | PT24H | 1 | VISIT 1 | 2000-02-01T20:00 | 2000-02-02T08:00 |", "score": 0.4222, "match_basis": "verbatim_token+domain_route:LB"}, {"md_atom_id": "md_dmLB_ex_a034", "md_file": "knowledge_base/domains/LB/examples.md", "md_atom_type": "TABLE_ROW", "md_parent_section": "§LB.3 [Example 3]", "md_verbatim": "| 2 | ABC | LB | ABC-001-002 | 1 | HCG | Choriogonadotropin Beta | | | | | | | | NOT DONE | NOT APPLICABLE (SUBJECT MALE) | 2106-3 | URINE | | 1 | BASELINE | 1999-06-09T10:00 | Y |", "score": 0.4214, "match_basis": "verbatim_token+domain_route:LB"}], "candidate_count": 5, "zero_candidate": false}
{"pdf_atom_id": "ig34_p0244_a019", "pdf_atom_type": "TABLE_ROW", "pdf_source": "SDTMIG_v3.4", "pdf_page": 244, "pdf_parent_section": "§6.3.5.6 Laboratory Test Results (LB)", "pdf_verbatim": "| LBENDY | Study Day of End of Observation | Num | | Timing | Actual study day of end of observation expressed in integer days relative to the sponsor-defined RFSTDTC in Demographics. | Perm |", "figure_ref": null, "candidates": [{"md_atom_id": "md_dmLB_ex_a024", "md_file": "knowledge_base/domains/LB/examples.md", "md_atom_type": "TABLE_ROW", "md_parent_section": "§LB.2 [Example 2]", "md_verbatim": "| 1 | ABC | LB | ABC-001-001 | 1 | CREAT | Creatinine Concentration | | 0.563 | g | 5.63 | 5.63 | g/L | URINE | | Y | | 2161-7 | | PT4H | -15 min pre-dose | 1 | PREVIOUS DOSE | 2000-02-01 | -PT15M | 1 | VISIT 1 | 2000-02-01T04:00 | 2000-02-01T07:45 |", "score": 0.4316, "match_basis": "verbatim_token+domain_route:LB"}, {"md_atom_id": "md_dmLB_ex_a025", "md_file": "knowledge_base/domains/LB/examples.md", "md_atom_type": "TABLE_ROW", "md_parent_section": "§LB.2 [Example 2]", "md_verbatim": "| 2 | ABC | LB | ABC-001-001 | 2 | CREAT | Creatinine Concentration | | 0.879 | g | 8.79 | 8.79 | g/L | URINE | | | | 2161-7 | | PT12H | 12 h post-dose | 2 | PREVIOUS DOSE | 2000-02-01 | PT12H | 1 | VISIT 1 | 2000-02-01T08:00 | 2000-02-01T20:00 |", "score": 0.4261, "match_basis": "verbatim_token+domain_route:LB"}, {"md_atom_id": "md_dmLB_ex_a026", "md_file": "knowledge_base/domains/LB/examples.md", "md_atom_type": "TABLE_ROW", "md_parent_section": "§LB.2 [Example 2]", "md_verbatim": "| 3 | ABC | LB | ABC-001-001 | 3 | CREAT | Creatinine Concentration | | 0.541 | g | 5.41 | 5.41 | g/L | URINE | | | | 2161-7 | | PT24H | 24 h post-dose | 3 | PREVIOUS DOSE | 2000-02-01 | PT24H | 1 | VISIT 1 | 2000-02-01T20:00 | 2000-02-02T08:00 |", "score": 0.4259, "match_basis": "verbatim_token+domain_route:LB"}, {"md_atom_id": "md_dmLB_ex_a033", "md_file": "knowledge_base/domains/LB/examples.md", "md_atom_type": "TABLE_ROW", "md_parent_section": "§LB.3 [Example 3]", "md_verbatim": "| 1 | ABC | LB | ABC-001-001 | 1 | HCG | Choriogonadotropin Beta | | - | | NEGATIVE | | | | | | 2106-3 | URINE | | 1 | BASELINE | 1999-06-09T10:00 | Y |", "score": 0.4218, "match_basis": "verbatim_token+domain_route:LB"}, {"md_atom_id": "md_dmLB_ex_a043", "md_file": "knowledge_base/domains/LB/examples.md", "md_atom_type": "TABLE_ROW", "md_parent_section": "§LB.4 [Example 4]", "md_verbatim": "| 2 | ABC | LB | ABC-001-001 | 1 | 2 | CANNAB | Cannabinoids | CONFIRM | DRUG TOXICITY | POSITIVE | | POSITIVE | | | 19289-8 | URINE | MASS SPECTROMETRY | Y | 2013-02-16 | 1 | Week 1 |", "score": 0.4148, "match_basis": "verbatim_token+domain_route:LB"}], "candidate_count": 5, "zero_candidate": false}
{"pdf_atom_id": "ig34_p0244_a020", "pdf_atom_type": "TABLE_ROW", "pdf_source": "SDTMIG_v3.4", "pdf_page": 244, "pdf_parent_section": "§6.3.5.6 Laboratory Test Results (LB)", "pdf_verbatim": "| LBTPT | Planned Time Point Name | Char | | Timing | Text description of time when specimen should be taken. This may be represented as an elapsed time relative to a fixed reference point, such as time of last dose. See LBTPTNUM and LBTPTREF. Examples: \"Start\", \"5 min post\". | Perm |", "figure_ref": null, "candidates": [{"md_atom_id": "md_dmLB_ex_a025", "md_file": "knowledge_base/domains/LB/examples.md", "md_atom_type": "TABLE_ROW", "md_parent_section": "§LB.2 [Example 2]", "md_verbatim": "| 2 | ABC | LB | ABC-001-001 | 2 | CREAT | Creatinine Concentration | | 0.879 | g | 8.79 | 8.79 | g/L | URINE | | | | 2161-7 | | PT12H | 12 h post-dose | 2 | PREVIOUS DOSE | 2000-02-01 | PT12H | 1 | VISIT 1 | 2000-02-01T08:00 | 2000-02-01T20:00 |", "score": 0.4426, "match_basis": "verbatim_token+domain_route:LB"}, {"md_atom_id": "md_dmLB_ex_a026", "md_file": "knowledge_base/domains/LB/examples.md", "md_atom_type": "TABLE_ROW", "md_parent_section": "§LB.2 [Example 2]", "md_verbatim": "| 3 | ABC | LB | ABC-001-001 | 3 | CREAT | Creatinine Concentration | | 0.541 | g | 5.41 | 5.41 | g/L | URINE | | | | 2161-7 | | PT24H | 24 h post-dose | 3 | PREVIOUS DOSE | 2000-02-01 | PT24H | 1 | VISIT 1 | 2000-02-01T20:00 | 2000-02-02T08:00 |", "score": 0.4423, "match_basis": "verbatim_token+domain_route:LB"}, {"md_atom_id": "md_dmLB_ex_a024", "md_file": "knowledge_base/domains/LB/examples.md", "md_atom_type": "TABLE_ROW", "md_parent_section": "§LB.2 [Example 2]", "md_verbatim": "| 1 | ABC | LB | ABC-001-001 | 1 | CREAT | Creatinine Concentration | | 0.563 | g | 5.63 | 5.63 | g/L | URINE | | Y | | 2161-7 | | PT4H | -15 min pre-dose | 1 | PREVIOUS DOSE | 2000-02-01 | -PT15M | 1 | VISIT 1 | 2000-02-01T04:00 | 2000-02-01T07:45 |", "score": 0.438, "match_basis": "verbatim_token+domain_route:LB"}, {"md_atom_id": "md_dmLB_ex_a043", "md_file": "knowledge_base/domains/LB/examples.md", "md_atom_type": "TABLE_ROW", "md_parent_section": "§LB.4 [Example 4]", "md_verbatim": "| 2 | ABC | LB | ABC-001-001 | 1 | 2 | CANNAB | Cannabinoids | CONFIRM | DRUG TOXICITY | POSITIVE | | POSITIVE | | | 19289-8 | URINE | MASS SPECTROMETRY | Y | 2013-02-16 | 1 | Week 1 |", "score": 0.424, "match_basis": "verbatim_token+domain_route:LB"}, {"md_atom_id": "md_dmLB_ex_a042", "md_file": "knowledge_base/domains/LB/examples.md", "md_atom_type": "TABLE_ROW", "md_parent_section": "§LB.4 [Example 4]", "md_verbatim": "| 1 | ABC | LB | ABC-001-001 | 1 | 1 | CANNAB | Cannabinoids | SCREEN | DRUG TOXICITY | POSITIVE | | POSITIVE | | | 19287-2 | URINE | KINETIC MICROPARTICLE IMMUNOASSAY | Y | 2013-02-16 | 1 | Week 1 |", "score": 0.4225, "match_basis": "verbatim_token+domain_route:LB"}], "candidate_count": 5, "zero_candidate": false}
{"pdf_atom_id": "ig34_p0245_a001", "pdf_atom_type": "TABLE_ROW", "pdf_source": "SDTMIG_v3.4", "pdf_page": 245, "pdf_parent_section": "§6.3.5.6 Laboratory Test Results (LB)", "pdf_verbatim": "| LBTPTNUM | Planned Time Point Number | Num | | Timing | Numerical version of LBTPT to aid in sorting. | Perm |", "figure_ref": null, "candidates": [{"md_atom_id": "md_dmLB_ex_a024", "md_file": "knowledge_base/domains/LB/examples.md", "md_atom_type": "TABLE_ROW", "md_parent_section": "§LB.2 [Example 2]", "md_verbatim": "| 1 | ABC | LB | ABC-001-001 | 1 | CREAT | Creatinine Concentration | | 0.563 | g | 5.63 | 5.63 | g/L | URINE | | Y | | 2161-7 | | PT4H | -15 min pre-dose | 1 | PREVIOUS DOSE | 2000-02-01 | -PT15M | 1 | VISIT 1 | 2000-02-01T04:00 | 2000-02-01T07:45 |", "score": 0.4212, "match_basis": "verbatim_token+domain_route:LB"}, {"md_atom_id": "md_dmLB_ex_a025", "md_file": "knowledge_base/domains/LB/examples.md", "md_atom_type": "TABLE_ROW", "md_parent_section": "§LB.2 [Example 2]", "md_verbatim": "| 2 | ABC | LB | ABC-001-001 | 2 | CREAT | Creatinine Concentration | | 0.879 | g | 8.79 | 8.79 | g/L | URINE | | | | 2161-7 | | PT12H | 12 h post-dose | 2 | PREVIOUS DOSE | 2000-02-01 | PT12H | 1 | VISIT 1 | 2000-02-01T08:00 | 2000-02-01T20:00 |", "score": 0.414, "match_basis": "verbatim_token+domain_route:LB"}, {"md_atom_id": "md_dmLB_ex_a026", "md_file": "knowledge_base/domains/LB/examples.md", "md_atom_type": "TABLE_ROW", "md_parent_section": "§LB.2 [Example 2]", "md_verbatim": "| 3 | ABC | LB | ABC-001-001 | 3 | CREAT | Creatinine Concentration | | 0.541 | g | 5.41 | 5.41 | g/L | URINE | | | | 2161-7 | | PT24H | 24 h post-dose | 3 | PREVIOUS DOSE | 2000-02-01 | PT24H | 1 | VISIT 1 | 2000-02-01T20:00 | 2000-02-02T08:00 |", "score": 0.4138, "match_basis": "verbatim_token+domain_route:LB"}, {"md_atom_id": "md_dmLB_ex_a042", "md_file": "knowledge_base/domains/LB/examples.md", "md_atom_type": "TABLE_ROW", "md_parent_section": "§LB.4 [Example 4]", "md_verbatim": "| 1 | ABC | LB | ABC-001-001 | 1 | 1 | CANNAB | Cannabinoids | SCREEN | DRUG TOXICITY | POSITIVE | | POSITIVE | | | 19287-2 | URINE | KINETIC MICROPARTICLE IMMUNOASSAY | Y | 2013-02-16 | 1 | Week 1 |", "score": 0.4119, "match_basis": "verbatim_token+domain_route:LB"}, {"md_atom_id": "md_dmLB_ex_a044", "md_file": "knowledge_base/domains/LB/examples.md", "md_atom_type": "TABLE_ROW", "md_parent_section": "§LB.4 [Example 4]", "md_verbatim": "| 3 | ABC | LB | ABC-001-001 | 1 | 3 | CANNAB | Cannabinoids | QUANTIFY | DRUG TOXICITY | 271 | ug/L | 271 | 271 | ug/L | 42860-7 | URINE | GC/MS | | 2013-02-16 | 1 | Week 1 |", "score": 0.4079, "match_basis": "verbatim_token+domain_route:LB"}], "candidate_count": 5, "zero_candidate": false}
{"pdf_atom_id": "ig34_p0245_a002", "pdf_atom_type": "TABLE_ROW", "pdf_source": "SDTMIG_v3.4", "pdf_page": 245, "pdf_parent_section": "§6.3.5.6 Laboratory Test Results (LB)", "pdf_verbatim": "| LBELTM | Planned Elapsed Time from Time Point Ref | Char | ISO 8601 duration | Timing | Planned elapsed time (in ISO 8601) relative to a planned fixed reference (LBTPTREF). This variable is useful where there are repetitive measures. Not a clock time or a date/time variable. Represented as ISO 8601 duration. Examples: \"-PT15M\" to represent the period of 15 minutes prior to the reference point indicated by LBTPTREF, \"PT8H\" to represent the period of 8 hours after the reference point indicated by LBTPTREF. | Perm |", "figure_ref": null, "candidates": [{"md_atom_id": "md_dmLB_ex_a024", "md_file": "knowledge_base/domains/LB/examples.md", "md_atom_type": "TABLE_ROW", "md_parent_section": "§LB.2 [Example 2]", "md_verbatim": "| 1 | ABC | LB | ABC-001-001 | 1 | CREAT | Creatinine Concentration | | 0.563 | g | 5.63 | 5.63 | g/L | URINE | | Y | | 2161-7 | | PT4H | -15 min pre-dose | 1 | PREVIOUS DOSE | 2000-02-01 | -PT15M | 1 | VISIT 1 | 2000-02-01T04:00 | 2000-02-01T07:45 |", "score": 0.44, "match_basis": "verbatim_token+domain_route:LB"}, {"md_atom_id": "md_dmLB_ex_a025", "md_file": "knowledge_base/domains/LB/examples.md", "md_atom_type": "TABLE_ROW", "md_parent_section": "§LB.2 [Example 2]", "md_verbatim": "| 2 | ABC | LB | ABC-001-001 | 2 | CREAT | Creatinine Concentration | | 0.879 | g | 8.79 | 8.79 | g/L | URINE | | | | 2161-7 | | PT12H | 12 h post-dose | 2 | PREVIOUS DOSE | 2000-02-01 | PT12H | 1 | VISIT 1 | 2000-02-01T08:00 | 2000-02-01T20:00 |", "score": 0.4286, "match_basis": "verbatim_token+domain_route:LB"}, {"md_atom_id": "md_dmLB_ex_a026", "md_file": "knowledge_base/domains/LB/examples.md", "md_atom_type": "TABLE_ROW", "md_parent_section": "§LB.2 [Example 2]", "md_verbatim": "| 3 | ABC | LB | ABC-001-001 | 3 | CREAT | Creatinine Concentration | | 0.541 | g | 5.41 | 5.41 | g/L | URINE | | | | 2161-7 | | PT24H | 24 h post-dose | 3 | PREVIOUS DOSE | 2000-02-01 | PT24H | 1 | VISIT 1 | 2000-02-01T20:00 | 2000-02-02T08:00 |", "score": 0.4247, "match_basis": "verbatim_token+domain_route:LB"}, {"md_atom_id": "md_dmLB_ex_a043", "md_file": "knowledge_base/domains/LB/examples.md", "md_atom_type": "TABLE_ROW", "md_parent_section": "§LB.4 [Example 4]", "md_verbatim": "| 2 | ABC | LB | ABC-001-001 | 1 | 2 | CANNAB | Cannabinoids | CONFIRM | DRUG TOXICITY | POSITIVE | | POSITIVE | | | 19289-8 | URINE | MASS SPECTROMETRY | Y | 2013-02-16 | 1 | Week 1 |", "score": 0.417, "match_basis": "verbatim_token+domain_route:LB"}, {"md_atom_id": "md_dmLB_ex_a034", "md_file": "knowledge_base/domains/LB/examples.md", "md_atom_type": "TABLE_ROW", "md_parent_section": "§LB.3 [Example 3]", "md_verbatim": "| 2 | ABC | LB | ABC-001-002 | 1 | HCG | Choriogonadotropin Beta | | | | | | | | NOT DONE | NOT APPLICABLE (SUBJECT MALE) | 2106-3 | URINE | | 1 | BASELINE | 1999-06-09T10:00 | Y |", "score": 0.4169, "match_basis": "verbatim_token+domain_route:LB"}], "candidate_count": 5, "zero_candidate": false}
{"pdf_atom_id": "ig34_p0245_a003", "pdf_atom_type": "TABLE_ROW", "pdf_source": "SDTMIG_v3.4", "pdf_page": 245, "pdf_parent_section": "§6.3.5.6 Laboratory Test Results (LB)", "pdf_verbatim": "| LBTPTREF | Time Point Reference | Char | | Timing | Name of the fixed reference point referred to by LBELTM, LBTPTNUM, and LBTPT. Examples: \"PREVIOUS DOSE\", \"PREVIOUS MEAL\". | Perm |", "figure_ref": null, "candidates": [{"md_atom_id": "md_dmLB_ex_a024", "md_file": "knowledge_base/domains/LB/examples.md", "md_atom_type": "TABLE_ROW", "md_parent_section": "§LB.2 [Example 2]", "md_verbatim": "| 1 | ABC | LB | ABC-001-001 | 1 | CREAT | Creatinine Concentration | | 0.563 | g | 5.63 | 5.63 | g/L | URINE | | Y | | 2161-7 | | PT4H | -15 min pre-dose | 1 | PREVIOUS DOSE | 2000-02-01 | -PT15M | 1 | VISIT 1 | 2000-02-01T04:00 | 2000-02-01T07:45 |", "score": 0.4632, "match_basis": "verbatim_token+domain_route:LB"}, {"md_atom_id": "md_dmLB_ex_a025", "md_file": "knowledge_base/domains/LB/examples.md", "md_atom_type": "TABLE_ROW", "md_parent_section": "§LB.2 [Example 2]", "md_verbatim": "| 2 | ABC | LB | ABC-001-001 | 2 | CREAT | Creatinine Concentration | | 0.879 | g | 8.79 | 8.79 | g/L | URINE | | | | 2161-7 | | PT12H | 12 h post-dose | 2 | PREVIOUS DOSE | 2000-02-01 | PT12H | 1 | VISIT 1 | 2000-02-01T08:00 | 2000-02-01T20:00 |", "score": 0.4562, "match_basis": "verbatim_token+domain_route:LB"}, {"md_atom_id": "md_dmLB_ex_a026", "md_file": "knowledge_base/domains/LB/examples.md", "md_atom_type": "TABLE_ROW", "md_parent_section": "§LB.2 [Example 2]", "md_verbatim": "| 3 | ABC | LB | ABC-001-001 | 3 | CREAT | Creatinine Concentration | | 0.541 | g | 5.41 | 5.41 | g/L | URINE | | | | 2161-7 | | PT24H | 24 h post-dose | 3 | PREVIOUS DOSE | 2000-02-01 | PT24H | 1 | VISIT 1 | 2000-02-01T20:00 | 2000-02-02T08:00 |", "score": 0.4557, "match_basis": "verbatim_token+domain_route:LB"}, {"md_atom_id": "md_dmLB_ex_a023", "md_file": "knowledge_base/domains/LB/examples.md", "md_atom_type": "TABLE_HEADER", "md_parent_section": "§LB.2 [Example 2]", "md_verbatim": "| Row | STUDYID | DOMAIN | USUBJID | LBSEQ | LBTESTCD | LBTEST | LBCAT | LBORRES | LBORRESU | LBSTRESC | LBSTRESN | LBSTRESU | LBSPEC | LBMETHOD | LBBLFL | LBDRVFL | LBLOINC | LBPTFL | LBPDUR | LBTPT | LBTPTNUM | LBTPTREF | LBRFDTC | LBELTM | VISITNUM | VISIT | LBDTC | LBENDTC |\n|-----|---------|--------|---------|-------|----------|--------|-------|---------|----------|----------|----------|----------|--------|----------|--------|---------|---------|--------|--------|-------|----------|----------|---------|--------|----------|-------|-------|---------|", "score": 0.4072, "match_basis": "verbatim_token+domain_route:LB"}, {"md_atom_id": "md_dmLB_ex_a055", "md_file": "knowledge_base/domains/LB/examples.md", "md_atom_type": "TABLE_ROW", "md_parent_section": "§LB.5 [Example 5]", "md_verbatim": "| 3 | ABC | LB | ABC-123456 | 3 | EGFR | Epidermal Growth Factor Receptor | ABC-8675309 | TARGET ENGAGEMENT | 100 | ng/mL | 100 | 100 | ng/mL | SERUM | ELISA | 2017-07-05 | 2 | WEEK 2 |", "score": 0.4054, "match_basis": "verbatim_token+domain_route:LB"}], "candidate_count": 5, "zero_candidate": false}
{"pdf_atom_id": "ig34_p0245_a004", "pdf_atom_type": "TABLE_ROW", "pdf_source": "SDTMIG_v3.4", "pdf_page": 245, "pdf_parent_section": "§6.3.5.6 Laboratory Test Results (LB)", "pdf_verbatim": "| LBRFTDTC | Date/Time of Reference Time Point | Char | ISO 8601 datetime or interval | Timing | Date/time of the reference time point, LBTPTREF. | Perm |", "figure_ref": null, "candidates": [{"md_atom_id": "md_dmLB_ex_a024", "md_file": "knowledge_base/domains/LB/examples.md", "md_atom_type": "TABLE_ROW", "md_parent_section": "§LB.2 [Example 2]", "md_verbatim": "| 1 | ABC | LB | ABC-001-001 | 1 | CREAT | Creatinine Concentration | | 0.563 | g | 5.63 | 5.63 | g/L | URINE | | Y | | 2161-7 | | PT4H | -15 min pre-dose | 1 | PREVIOUS DOSE | 2000-02-01 | -PT15M | 1 | VISIT 1 | 2000-02-01T04:00 | 2000-02-01T07:45 |", "score": 0.4135, "match_basis": "verbatim_token+domain_route:LB"}, {"md_atom_id": "md_dmLB_ex_a044", "md_file": "knowledge_base/domains/LB/examples.md", "md_atom_type": "TABLE_ROW", "md_parent_section": "§LB.4 [Example 4]", "md_verbatim": "| 3 | ABC | LB | ABC-001-001 | 1 | 3 | CANNAB | Cannabinoids | QUANTIFY | DRUG TOXICITY | 271 | ug/L | 271 | 271 | ug/L | 42860-7 | URINE | GC/MS | | 2013-02-16 | 1 | Week 1 |", "score": 0.4076, "match_basis": "verbatim_token+domain_route:LB"}, {"md_atom_id": "md_dmLB_ex_a025", "md_file": "knowledge_base/domains/LB/examples.md", "md_atom_type": "TABLE_ROW", "md_parent_section": "§LB.2 [Example 2]", "md_verbatim": "| 2 | ABC | LB | ABC-001-001 | 2 | CREAT | Creatinine Concentration | | 0.879 | g | 8.79 | 8.79 | g/L | URINE | | | | 2161-7 | | PT12H | 12 h post-dose | 2 | PREVIOUS DOSE | 2000-02-01 | PT12H | 1 | VISIT 1 | 2000-02-01T08:00 | 2000-02-01T20:00 |", "score": 0.4067, "match_basis": "verbatim_token+domain_route:LB"}, {"md_atom_id": "md_dmLB_ex_a026", "md_file": "knowledge_base/domains/LB/examples.md", "md_atom_type": "TABLE_ROW", "md_parent_section": "§LB.2 [Example 2]", "md_verbatim": "| 3 | ABC | LB | ABC-001-001 | 3 | CREAT | Creatinine Concentration | | 0.541 | g | 5.41 | 5.41 | g/L | URINE | | | | 2161-7 | | PT24H | 24 h post-dose | 3 | PREVIOUS DOSE | 2000-02-01 | PT24H | 1 | VISIT 1 | 2000-02-01T20:00 | 2000-02-02T08:00 |", "score": 0.4066, "match_basis": "verbatim_token+domain_route:LB"}, {"md_atom_id": "md_dmLB_ex_a055", "md_file": "knowledge_base/domains/LB/examples.md", "md_atom_type": "TABLE_ROW", "md_parent_section": "§LB.5 [Example 5]", "md_verbatim": "| 3 | ABC | LB | ABC-123456 | 3 | EGFR | Epidermal Growth Factor Receptor | ABC-8675309 | TARGET ENGAGEMENT | 100 | ng/mL | 100 | 100 | ng/mL | SERUM | ELISA | 2017-07-05 | 2 | WEEK 2 |", "score": 0.4062, "match_basis": "verbatim_token+domain_route:LB"}], "candidate_count": 5, "zero_candidate": false}
{"pdf_atom_id": "ig34_p0245_a005", "pdf_atom_type": "TABLE_ROW", "pdf_source": "SDTMIG_v3.4", "pdf_page": 245, "pdf_parent_section": "§6.3.5.6 Laboratory Test Results (LB)", "pdf_verbatim": "| LBPTFL | Point in Time Flag | Char | (NY) | Timing | An indication that the specimen was collected at a single point in time. The value is \"Y\" or null. The intent of this variable in the LB domain is to aid mapping to LOINC codes in the dataset, when LOINC part \"Time Aspect\" = \"Pt\". | Perm |", "figure_ref": null, "candidates": [{"md_atom_id": "md_dmLB_ex_a034", "md_file": "knowledge_base/domains/LB/examples.md", "md_atom_type": "TABLE_ROW", "md_parent_section": "§LB.3 [Example 3]", "md_verbatim": "| 2 | ABC | LB | ABC-001-002 | 1 | HCG | Choriogonadotropin Beta | | | | | | | | NOT DONE | NOT APPLICABLE (SUBJECT MALE) | 2106-3 | URINE | | 1 | BASELINE | 1999-06-09T10:00 | Y |", "score": 0.4316, "match_basis": "verbatim_token+domain_route:LB"}, {"md_atom_id": "md_dmLB_ex_a024", "md_file": "knowledge_base/domains/LB/examples.md", "md_atom_type": "TABLE_ROW", "md_parent_section": "§LB.2 [Example 2]", "md_verbatim": "| 1 | ABC | LB | ABC-001-001 | 1 | CREAT | Creatinine Concentration | | 0.563 | g | 5.63 | 5.63 | g/L | URINE | | Y | | 2161-7 | | PT4H | -15 min pre-dose | 1 | PREVIOUS DOSE | 2000-02-01 | -PT15M | 1 | VISIT 1 | 2000-02-01T04:00 | 2000-02-01T07:45 |", "score": 0.4234, "match_basis": "verbatim_token+domain_route:LB"}, {"md_atom_id": "md_dmLB_ex_a025", "md_file": "knowledge_base/domains/LB/examples.md", "md_atom_type": "TABLE_ROW", "md_parent_section": "§LB.2 [Example 2]", "md_verbatim": "| 2 | ABC | LB | ABC-001-001 | 2 | CREAT | Creatinine Concentration | | 0.879 | g | 8.79 | 8.79 | g/L | URINE | | | | 2161-7 | | PT12H | 12 h post-dose | 2 | PREVIOUS DOSE | 2000-02-01 | PT12H | 1 | VISIT 1 | 2000-02-01T08:00 | 2000-02-01T20:00 |", "score": 0.4186, "match_basis": "verbatim_token+domain_route:LB"}, {"md_atom_id": "md_dmLB_ex_a026", "md_file": "knowledge_base/domains/LB/examples.md", "md_atom_type": "TABLE_ROW", "md_parent_section": "§LB.2 [Example 2]", "md_verbatim": "| 3 | ABC | LB | ABC-001-001 | 3 | CREAT | Creatinine Concentration | | 0.541 | g | 5.41 | 5.41 | g/L | URINE | | | | 2161-7 | | PT24H | 24 h post-dose | 3 | PREVIOUS DOSE | 2000-02-01 | PT24H | 1 | VISIT 1 | 2000-02-01T20:00 | 2000-02-02T08:00 |", "score": 0.4185, "match_basis": "verbatim_token+domain_route:LB"}, {"md_atom_id": "md_dmLB_ex_a033", "md_file": "knowledge_base/domains/LB/examples.md", "md_atom_type": "TABLE_ROW", "md_parent_section": "§LB.3 [Example 3]", "md_verbatim": "| 1 | ABC | LB | ABC-001-001 | 1 | HCG | Choriogonadotropin Beta | | - | | NEGATIVE | | | | | | 2106-3 | URINE | | 1 | BASELINE | 1999-06-09T10:00 | Y |", "score": 0.4145, "match_basis": "verbatim_token+domain_route:LB"}], "candidate_count": 5, "zero_candidate": false}
{"pdf_atom_id": "ig34_p0245_a006", "pdf_atom_type": "TABLE_ROW", "pdf_source": "SDTMIG_v3.4", "pdf_page": 245, "pdf_parent_section": "§6.3.5.6 Laboratory Test Results (LB)", "pdf_verbatim": "| LBPDUR | Planned Duration | Char | ISO 8601 duration | Timing | Planned duration of specimen collection. If LBPTFL is \"Y\" then LBPDUR is null. | Perm |", "figure_ref": null, "candidates": [{"md_atom_id": "md_dmLB_ex_a024", "md_file": "knowledge_base/domains/LB/examples.md", "md_atom_type": "TABLE_ROW", "md_parent_section": "§LB.2 [Example 2]", "md_verbatim": "| 1 | ABC | LB | ABC-001-001 | 1 | CREAT | Creatinine Concentration | | 0.563 | g | 5.63 | 5.63 | g/L | URINE | | Y | | 2161-7 | | PT4H | -15 min pre-dose | 1 | PREVIOUS DOSE | 2000-02-01 | -PT15M | 1 | VISIT 1 | 2000-02-01T04:00 | 2000-02-01T07:45 |", "score": 0.4345, "match_basis": "verbatim_token+domain_route:LB"}, {"md_atom_id": "md_dmLB_ex_a025", "md_file": "knowledge_base/domains/LB/examples.md", "md_atom_type": "TABLE_ROW", "md_parent_section": "§LB.2 [Example 2]", "md_verbatim": "| 2 | ABC | LB | ABC-001-001 | 2 | CREAT | Creatinine Concentration | | 0.879 | g | 8.79 | 8.79 | g/L | URINE | | | | 2161-7 | | PT12H | 12 h post-dose | 2 | PREVIOUS DOSE | 2000-02-01 | PT12H | 1 | VISIT 1 | 2000-02-01T08:00 | 2000-02-01T20:00 |", "score": 0.4273, "match_basis": "verbatim_token+domain_route:LB"}, {"md_atom_id": "md_dmLB_ex_a026", "md_file": "knowledge_base/domains/LB/examples.md", "md_atom_type": "TABLE_ROW", "md_parent_section": "§LB.2 [Example 2]", "md_verbatim": "| 3 | ABC | LB | ABC-001-001 | 3 | CREAT | Creatinine Concentration | | 0.541 | g | 5.41 | 5.41 | g/L | URINE | | | | 2161-7 | | PT24H | 24 h post-dose | 3 | PREVIOUS DOSE | 2000-02-01 | PT24H | 1 | VISIT 1 | 2000-02-01T20:00 | 2000-02-02T08:00 |", "score": 0.427, "match_basis": "verbatim_token+domain_route:LB"}, {"md_atom_id": "md_dmLB_ex_a043", "md_file": "knowledge_base/domains/LB/examples.md", "md_atom_type": "TABLE_ROW", "md_parent_section": "§LB.4 [Example 4]", "md_verbatim": "| 2 | ABC | LB | ABC-001-001 | 1 | 2 | CANNAB | Cannabinoids | CONFIRM | DRUG TOXICITY | POSITIVE | | POSITIVE | | | 19289-8 | URINE | MASS SPECTROMETRY | Y | 2013-02-16 | 1 | Week 1 |", "score": 0.4258, "match_basis": "verbatim_token+domain_route:LB"}, {"md_atom_id": "md_dmLB_ex_a044", "md_file": "knowledge_base/domains/LB/examples.md", "md_atom_type": "TABLE_ROW", "md_parent_section": "§LB.4 [Example 4]", "md_verbatim": "| 3 | ABC | LB | ABC-001-001 | 1 | 3 | CANNAB | Cannabinoids | QUANTIFY | DRUG TOXICITY | 271 | ug/L | 271 | 271 | ug/L | 42860-7 | URINE | GC/MS | | 2013-02-16 | 1 | Week 1 |", "score": 0.4152, "match_basis": "verbatim_token+domain_route:LB"}], "candidate_count": 5, "zero_candidate": false}
{"pdf_atom_id": "ig34_p0245_a007", "pdf_atom_type": "NOTE", "pdf_source": "SDTMIG_v3.4", "pdf_page": 245, "pdf_parent_section": "§6.3.5.6 Laboratory Test Results (LB)", "pdf_verbatim": "¹In this column, an asterisk (*) indicates that the variable may be subject to controlled terminology. CDISC/NCI codelist values are enclosed in parentheses.", "figure_ref": null, "candidates": [{"md_atom_id": "md_dmLB_ex_a019", "md_file": "knowledge_base/domains/LB/examples.md", "md_atom_type": "SENTENCE", "md_parent_section": "§LB.2 [Example 2]", "md_verbatim": "This example illustrates the use of timing variables for pre- and post-dose timed urine collections.", "score": 0.4019, "match_basis": "verbatim_token+domain_route:LB"}, {"md_atom_id": "md_dmLB_assn_a008", "md_file": "knowledge_base/domains/LB/assumptions.md", "md_atom_type": "LIST_ITEM", "md_parent_section": "§LB [LB — Assumptions]", "md_verbatim": "7. The variable LBORRESU uses the UNIT codelist. This means that sponsors should be submitting a term from the CDISC Submission Value column in the published Controlled Terminology List that is maintained for CDISC by NCI EVS. When sponsors have units that are not in this column, they should first check to see if their unit is mathematically synonymous with an existing/published unit from the UNIT codelist and submit their lab values using the published CDISC submission value. Example: \"g/L\" and \"mg/mL\" are mathematically synonymous, but only \"g/L\" is the submission value in the CDISC Unit codelist. If this is not the case, the unit must be added as a codelist extensible value in the Define.xml, and a new-term request must be submitted.", "score": 0.3971, "match_basis": "verbatim_token+domain_route:LB"}, {"md_atom_id": "md_dmLB_ex_a036", "md_file": "knowledge_base/domains/LB/examples.md", "md_atom_type": "SENTENCE", "md_parent_section": "§LB.4 [Example 4]", "md_verbatim": "This example illustrates the use of the LBTSTOPO variable to identify the tests that screen, confirm, and quantify the presence of a substance.", "score": 0.3964, "match_basis": "verbatim_token+domain_route:LB"}, {"md_atom_id": "md_dmLB_ex_a013", "md_file": "knowledge_base/domains/LB/examples.md", "md_atom_type": "SENTENCE", "md_parent_section": "§LB.1 [Example 1]", "md_verbatim": "**Row 16:** Shows measuring of the subject's cholesterol. The normal range for this test is <200 mg/dL. Note that although in this example the sponsor has decided to make LBSTNRHI=\"199\", other sponsors may choose a different value.", "score": 0.3957, "match_basis": "verbatim_token+domain_route:LB"}, {"md_atom_id": "md_dmLB_ex_a012", "md_file": "knowledge_base/domains/LB/examples.md", "md_atom_type": "SENTENCE", "md_parent_section": "§LB.1 [Example 1]", "md_verbatim": "**Row 15:** Shows the proper use of the LBSTAT variable to indicate \"NOT DONE\", where a reason was collected when a test was not done. LBRESSCL, LBRESTYP, LBLOINC, LBSPEC, LBMETHOD, and LBPTFL are populated to describe the properties of the test that was not done.", "score": 0.3946, "match_basis": "verbatim_token+domain_route:LB"}], "candidate_count": 5, "zero_candidate": false}
{"pdf_atom_id": "ig34_p0245_a008", "pdf_atom_type": "HEADING", "pdf_source": "SDTMIG_v3.4", "pdf_page": 245, "pdf_parent_section": "§6.3.5.6 Laboratory Test Results (LB)", "pdf_verbatim": "LB – Assumptions", "figure_ref": null, "candidates": [{"md_atom_id": "md_dmLB_assn_a001", "md_file": "knowledge_base/domains/LB/assumptions.md", "md_atom_type": "HEADING", "md_parent_section": "§LB [LB — Assumptions]", "md_verbatim": "# LB — Assumptions", "score": 1.0, "match_basis": "verbatim_token+domain_route:LB"}, {"md_atom_id": "md_dmLB_ex_a001", "md_file": "knowledge_base/domains/LB/examples.md", "md_atom_type": "HEADING", "md_parent_section": "§LB [LB — Examples]", "md_verbatim": "# LB — Examples", "score": 0.4, "match_basis": "verbatim_token+domain_route:LB"}, {"md_atom_id": "md_dmLB_ex_a002", "md_file": "knowledge_base/domains/LB/examples.md", "md_atom_type": "HEADING", "md_parent_section": "§LB [LB — Examples]", "md_verbatim": "## Example 1", "score": 0.4, "match_basis": "verbatim_token+domain_route:LB"}, {"md_atom_id": "md_dmLB_ex_a018", "md_file": "knowledge_base/domains/LB/examples.md", "md_atom_type": "HEADING", "md_parent_section": "§LB [LB — Examples]", "md_verbatim": "## Example 2", "score": 0.4, "match_basis": "verbatim_token+domain_route:LB"}, {"md_atom_id": "md_dmLB_ex_a027", "md_file": "knowledge_base/domains/LB/examples.md", "md_atom_type": "HEADING", "md_parent_section": "§LB [LB — Examples]", "md_verbatim": "## Example 3", "score": 0.4, "match_basis": "verbatim_token+domain_route:LB"}], "candidate_count": 5, "zero_candidate": false}
{"pdf_atom_id": "ig34_p0245_a009", "pdf_atom_type": "LIST_ITEM", "pdf_source": "SDTMIG_v3.4", "pdf_page": 245, "pdf_parent_section": "§6.3.5.6 Laboratory Test Results (LB)", "pdf_verbatim": "1. This domain captures laboratory data collected on the CRF or received from a central provider or vendor.", "figure_ref": null, "candidates": [{"md_atom_id": "md_dmLB_assn_a002", "md_file": "knowledge_base/domains/LB/assumptions.md", "md_atom_type": "LIST_ITEM", "md_parent_section": "§LB [LB — Assumptions]", "md_verbatim": "1. This domain captures laboratory data collected on the CRF or received from a central provider or vendor.", "score": 1.0, "match_basis": "verbatim_token+domain_route:LB"}, {"md_atom_id": "md_dmLB_assn_a007", "md_file": "knowledge_base/domains/LB/assumptions.md", "md_atom_type": "LIST_ITEM", "md_parent_section": "§LB [LB — Assumptions]", "md_verbatim": "6. A value derived by a central lab according to its procedures is considered collected rather than derived. See Section 4.1.8.1, Origin Metadata for Variables.", "score": 0.5398, "match_basis": "verbatim_token+domain_route:LB"}, {"md_atom_id": "md_dmLB_assn_a005", "md_file": "knowledge_base/domains/LB/assumptions.md", "md_atom_type": "LIST_ITEM", "md_parent_section": "§LB [LB — Assumptions]", "md_verbatim": "4. For lab tests where the specimen is collected over time (e.g., 24-hour urine collection), the start date/time of the collection goes into LBDTC and the end date/time of collection goes into LBENDTC. See Section 4.4.8, Date and Time Reported in a Domain Based on Findings.", "score": 0.4826, "match_basis": "verbatim_token+domain_route:LB"}, {"md_atom_id": "md_dmLB_assn_a010", "md_file": "knowledge_base/domains/LB/assumptions.md", "md_atom_type": "LIST_ITEM", "md_parent_section": "§LB [LB — Assumptions]", "md_verbatim": "8. The LBLOINC variable contains a code from the Logical Observation Identifiers Names and Codes (LOINC) database that identifies a specific laboratory test. The LOINC to LB Mapping Codetable, available at https://www.cdisc.org/standards/terminology/controlled-terminology, may be used to identify appropriate CDISC CT values for a test with a particular LOINC code. In addition to LBTEST, LBSPEC, LBMETHOD, and LBORRESU, the aspects of a test that are associated with a LOINC code may be represented in the variables LBTPT, LBANMETH, LBTSTCND, LBBDAGNT, LBTSTOPO, LBRESSCL, LBRESTYP, LBCOLSRT, LBLLOD, LBPTFL, and LBPDUR. These additional variables are only required to be populated when necessary to provide a semantically meaningful distinction between records with different LBLOINC values.", "score": 0.4576, "match_basis": "verbatim_token+domain_route:LB"}, {"md_atom_id": "md_dmLB_assn_a006", "md_file": "knowledge_base/domains/LB/assumptions.md", "md_atom_type": "LIST_ITEM", "md_parent_section": "§LB [LB — Assumptions]", "md_verbatim": "5. Any Identifiers, Timing variables, or Findings general observation class qualifiers may be added to the LB domain, but the following qualifiers would not generally be used: --BODSYS, --SEV.", "score": 0.4446, "match_basis": "verbatim_token+domain_route:LB"}], "candidate_count": 5, "zero_candidate": false}
{"pdf_atom_id": "ig34_p0245_a010", "pdf_atom_type": "LIST_ITEM", "pdf_source": "SDTMIG_v3.4", "pdf_page": 245, "pdf_parent_section": "§6.3.5.6 Laboratory Test Results (LB)", "pdf_verbatim": "2. For lab tests that do not have continuous numeric results (e.g., urine protein as measured by dipstick), descriptive tests such as urine color), LBSTNRC could be populated either with normal range values that are a range of character values for an ordinal scale (e.g., \"NEGATIVE TO TRACE\") or a delimited set of values that are considered to be normal (e.g., \"YELLOW\", \"AMBER\"). LBORNRLO, LBORNRHI, LBSTNRLO, and LBSTNRHI should be null for these types of tests.", "figure_ref": null, "candidates": [{"md_atom_id": "md_dmLB_assn_a003", "md_file": "knowledge_base/domains/LB/assumptions.md", "md_atom_type": "LIST_ITEM", "md_parent_section": "§LB [LB — Assumptions]", "md_verbatim": "2. For lab tests that do not have continuous numeric results (e.g., urine protein as measured by dipstick, descriptive tests such as urine color), LBSTNRC could be populated either with normal range values that are a range of character values for an ordinal scale (e.g., \"NEGATIVE to TRACE\") or a delimited set of values that are considered to be normal (e.g., \"YELLOW\", \"AMBER\"). LBORNRLO, LBORNRHI, LBSTNRLO, and LBSTNRHI should be null for these types of tests.", "score": 1.0, "match_basis": "verbatim_token+domain_route:LB"}, {"md_atom_id": "md_dmLB_assn_a004", "md_file": "knowledge_base/domains/LB/assumptions.md", "md_atom_type": "LIST_ITEM", "md_parent_section": "§LB [LB — Assumptions]", "md_verbatim": "3. LBNRIND can be added to indicate where a result falls with respect to reference range defined by LBORNRLO and LBORNRHI. Examples: \"HIGH\", \"LOW\". If toxicity grading is available, values would be represented in the variables LBTOX and LBTOXGR. Clinical significance would be represented as described in Section 4.5.5, Clinical Significance for Findings Observation Class Data, in LBCLSIG (see also LB Example 1).", "score": 0.4973, "match_basis": "verbatim_token+domain_route:LB"}, {"md_atom_id": "md_dmLB_assn_a008", "md_file": "knowledge_base/domains/LB/assumptions.md", "md_atom_type": "LIST_ITEM", "md_parent_section": "§LB [LB — Assumptions]", "md_verbatim": "7. The variable LBORRESU uses the UNIT codelist. This means that sponsors should be submitting a term from the CDISC Submission Value column in the published Controlled Terminology List that is maintained for CDISC by NCI EVS. When sponsors have units that are not in this column, they should first check to see if their unit is mathematically synonymous with an existing/published unit from the UNIT codelist and submit their lab values using the published CDISC submission value. Example: \"g/L\" and \"mg/mL\" are mathematically synonymous, but only \"g/L\" is the submission value in the CDISC Unit codelist. If this is not the case, the unit must be added as a codelist extensible value in the Define.xml, and a new-term request must be submitted.", "score": 0.4926, "match_basis": "verbatim_token+domain_route:LB"}, {"md_atom_id": "md_dmLB_assn_a007", "md_file": "knowledge_base/domains/LB/assumptions.md", "md_atom_type": "LIST_ITEM", "md_parent_section": "§LB [LB — Assumptions]", "md_verbatim": "6. A value derived by a central lab according to its procedures is considered collected rather than derived. See Section 4.1.8.1, Origin Metadata for Variables.", "score": 0.4848, "match_basis": "verbatim_token+domain_route:LB"}, {"md_atom_id": "md_dmLB_assn_a010", "md_file": "knowledge_base/domains/LB/assumptions.md", "md_atom_type": "LIST_ITEM", "md_parent_section": "§LB [LB — Assumptions]", "md_verbatim": "8. The LBLOINC variable contains a code from the Logical Observation Identifiers Names and Codes (LOINC) database that identifies a specific laboratory test. The LOINC to LB Mapping Codetable, available at https://www.cdisc.org/standards/terminology/controlled-terminology, may be used to identify appropriate CDISC CT values for a test with a particular LOINC code. In addition to LBTEST, LBSPEC, LBMETHOD, and LBORRESU, the aspects of a test that are associated with a LOINC code may be represented in the variables LBTPT, LBANMETH, LBTSTCND, LBBDAGNT, LBTSTOPO, LBRESSCL, LBRESTYP, LBCOLSRT, LBLLOD, LBPTFL, and LBPDUR. These additional variables are only required to be populated when necessary to provide a semantically meaningful distinction between records with different LBLOINC values.", "score": 0.4789, "match_basis": "verbatim_token+domain_route:LB"}], "candidate_count": 5, "zero_candidate": false}
{"pdf_atom_id": "ig34_p0245_a011", "pdf_atom_type": "LIST_ITEM", "pdf_source": "SDTMIG_v3.4", "pdf_page": 245, "pdf_parent_section": "§6.3.5.6 Laboratory Test Results (LB)", "pdf_verbatim": "3. LBNRIND can be added to indicate where a result falls with respect to reference range defined by LBORNRLO and LBORNRHI. Examples: \"HIGH\", \"LOW\". If toxicity grading is available, values would be represented in the variables LBTOX and LBTOXGR. Clinical significance would be represented as described in Section 4.5.5, Clinical Significance for Findings Observation Class Data, in LBCLSIG (see also LB Example 1).", "figure_ref": null, "candidates": [{"md_atom_id": "md_dmLB_assn_a004", "md_file": "knowledge_base/domains/LB/assumptions.md", "md_atom_type": "LIST_ITEM", "md_parent_section": "§LB [LB — Assumptions]", "md_verbatim": "3. LBNRIND can be added to indicate where a result falls with respect to reference range defined by LBORNRLO and LBORNRHI. Examples: \"HIGH\", \"LOW\". If toxicity grading is available, values would be represented in the variables LBTOX and LBTOXGR. Clinical significance would be represented as described in Section 4.5.5, Clinical Significance for Findings Observation Class Data, in LBCLSIG (see also LB Example 1).", "score": 1.0, "match_basis": "verbatim_token+domain_route:LB"}, {"md_atom_id": "md_dmLB_assn_a006", "md_file": "knowledge_base/domains/LB/assumptions.md", "md_atom_type": "LIST_ITEM", "md_parent_section": "§LB [LB — Assumptions]", "md_verbatim": "5. Any Identifiers, Timing variables, or Findings general observation class qualifiers may be added to the LB domain, but the following qualifiers would not generally be used: --BODSYS, --SEV.", "score": 0.5149, "match_basis": "verbatim_token+domain_route:LB"}, {"md_atom_id": "md_dmLB_assn_a010", "md_file": "knowledge_base/domains/LB/assumptions.md", "md_atom_type": "LIST_ITEM", "md_parent_section": "§LB [LB — Assumptions]", "md_verbatim": "8. The LBLOINC variable contains a code from the Logical Observation Identifiers Names and Codes (LOINC) database that identifies a specific laboratory test. The LOINC to LB Mapping Codetable, available at https://www.cdisc.org/standards/terminology/controlled-terminology, may be used to identify appropriate CDISC CT values for a test with a particular LOINC code. In addition to LBTEST, LBSPEC, LBMETHOD, and LBORRESU, the aspects of a test that are associated with a LOINC code may be represented in the variables LBTPT, LBANMETH, LBTSTCND, LBBDAGNT, LBTSTOPO, LBRESSCL, LBRESTYP, LBCOLSRT, LBLLOD, LBPTFL, and LBPDUR. These additional variables are only required to be populated when necessary to provide a semantically meaningful distinction between records with different LBLOINC values.", "score": 0.5064, "match_basis": "verbatim_token+domain_route:LB"}, {"md_atom_id": "md_dmLB_assn_a003", "md_file": "knowledge_base/domains/LB/assumptions.md", "md_atom_type": "LIST_ITEM", "md_parent_section": "§LB [LB — Assumptions]", "md_verbatim": "2. For lab tests that do not have continuous numeric results (e.g., urine protein as measured by dipstick, descriptive tests such as urine color), LBSTNRC could be populated either with normal range values that are a range of character values for an ordinal scale (e.g., \"NEGATIVE to TRACE\") or a delimited set of values that are considered to be normal (e.g., \"YELLOW\", \"AMBER\"). LBORNRLO, LBORNRHI, LBSTNRLO, and LBSTNRHI should be null for these types of tests.", "score": 0.4973, "match_basis": "verbatim_token+domain_route:LB"}, {"md_atom_id": "md_dmLB_assn_a008", "md_file": "knowledge_base/domains/LB/assumptions.md", "md_atom_type": "LIST_ITEM", "md_parent_section": "§LB [LB — Assumptions]", "md_verbatim": "7. The variable LBORRESU uses the UNIT codelist. This means that sponsors should be submitting a term from the CDISC Submission Value column in the published Controlled Terminology List that is maintained for CDISC by NCI EVS. When sponsors have units that are not in this column, they should first check to see if their unit is mathematically synonymous with an existing/published unit from the UNIT codelist and submit their lab values using the published CDISC submission value. Example: \"g/L\" and \"mg/mL\" are mathematically synonymous, but only \"g/L\" is the submission value in the CDISC Unit codelist. If this is not the case, the unit must be added as a codelist extensible value in the Define.xml, and a new-term request must be submitted.", "score": 0.4943, "match_basis": "verbatim_token+domain_route:LB"}], "candidate_count": 5, "zero_candidate": false}
{"pdf_atom_id": "ig34_p0245_a012", "pdf_atom_type": "LIST_ITEM", "pdf_source": "SDTMIG_v3.4", "pdf_page": 245, "pdf_parent_section": "§6.3.5.6 Laboratory Test Results (LB)", "pdf_verbatim": "4. For lab tests where the specimen is collected over time (e.g., 24-hour urine collection), the start date/time of the collection goes into LBDTC and the end date/time of collection goes into LBENDTC. See Section 4.4.8, Date and Time Reported in a Domain Based on Findings.", "figure_ref": null, "candidates": [{"md_atom_id": "md_dmLB_assn_a005", "md_file": "knowledge_base/domains/LB/assumptions.md", "md_atom_type": "LIST_ITEM", "md_parent_section": "§LB [LB — Assumptions]", "md_verbatim": "4. For lab tests where the specimen is collected over time (e.g., 24-hour urine collection), the start date/time of the collection goes into LBDTC and the end date/time of collection goes into LBENDTC. See Section 4.4.8, Date and Time Reported in a Domain Based on Findings.", "score": 1.0, "match_basis": "verbatim_token+domain_route:LB"}, {"md_atom_id": "md_dmLB_assn_a007", "md_file": "knowledge_base/domains/LB/assumptions.md", "md_atom_type": "LIST_ITEM", "md_parent_section": "§LB [LB — Assumptions]", "md_verbatim": "6. A value derived by a central lab according to its procedures is considered collected rather than derived. See Section 4.1.8.1, Origin Metadata for Variables.", "score": 0.4976, "match_basis": "verbatim_token+domain_route:LB"}, {"md_atom_id": "md_dmLB_assn_a004", "md_file": "knowledge_base/domains/LB/assumptions.md", "md_atom_type": "LIST_ITEM", "md_parent_section": "§LB [LB — Assumptions]", "md_verbatim": "3. LBNRIND can be added to indicate where a result falls with respect to reference range defined by LBORNRLO and LBORNRHI. Examples: \"HIGH\", \"LOW\". If toxicity grading is available, values would be represented in the variables LBTOX and LBTOXGR. Clinical significance would be represented as described in Section 4.5.5, Clinical Significance for Findings Observation Class Data, in LBCLSIG (see also LB Example 1).", "score": 0.4848, "match_basis": "verbatim_token+domain_route:LB"}, {"md_atom_id": "md_dmLB_assn_a002", "md_file": "knowledge_base/domains/LB/assumptions.md", "md_atom_type": "LIST_ITEM", "md_parent_section": "§LB [LB — Assumptions]", "md_verbatim": "1. This domain captures laboratory data collected on the CRF or received from a central provider or vendor.", "score": 0.4826, "match_basis": "verbatim_token+domain_route:LB"}, {"md_atom_id": "md_dmLB_assn_a006", "md_file": "knowledge_base/domains/LB/assumptions.md", "md_atom_type": "LIST_ITEM", "md_parent_section": "§LB [LB — Assumptions]", "md_verbatim": "5. Any Identifiers, Timing variables, or Findings general observation class qualifiers may be added to the LB domain, but the following qualifiers would not generally be used: --BODSYS, --SEV.", "score": 0.4738, "match_basis": "verbatim_token+domain_route:LB"}], "candidate_count": 5, "zero_candidate": false}
{"pdf_atom_id": "ig34_p0245_a013", "pdf_atom_type": "LIST_ITEM", "pdf_source": "SDTMIG_v3.4", "pdf_page": 245, "pdf_parent_section": "§6.3.5.6 Laboratory Test Results (LB)", "pdf_verbatim": "5. Any Identifiers, Timing variables, or Findings general observation class qualifiers may be added to the LB domain, but the following qualifiers would not generally be used: --BODSYS, --SEV.", "figure_ref": null, "candidates": [{"md_atom_id": "md_dmLB_assn_a006", "md_file": "knowledge_base/domains/LB/assumptions.md", "md_atom_type": "LIST_ITEM", "md_parent_section": "§LB [LB — Assumptions]", "md_verbatim": "5. Any Identifiers, Timing variables, or Findings general observation class qualifiers may be added to the LB domain, but the following qualifiers would not generally be used: --BODSYS, --SEV.", "score": 1.0, "match_basis": "verbatim_token+domain_route:LB"}, {"md_atom_id": "md_dmLB_assn_a004", "md_file": "knowledge_base/domains/LB/assumptions.md", "md_atom_type": "LIST_ITEM", "md_parent_section": "§LB [LB — Assumptions]", "md_verbatim": "3. LBNRIND can be added to indicate where a result falls with respect to reference range defined by LBORNRLO and LBORNRHI. Examples: \"HIGH\", \"LOW\". If toxicity grading is available, values would be represented in the variables LBTOX and LBTOXGR. Clinical significance would be represented as described in Section 4.5.5, Clinical Significance for Findings Observation Class Data, in LBCLSIG (see also LB Example 1).", "score": 0.5149, "match_basis": "verbatim_token+domain_route:LB"}, {"md_atom_id": "md_dmLB_assn_a005", "md_file": "knowledge_base/domains/LB/assumptions.md", "md_atom_type": "LIST_ITEM", "md_parent_section": "§LB [LB — Assumptions]", "md_verbatim": "4. For lab tests where the specimen is collected over time (e.g., 24-hour urine collection), the start date/time of the collection goes into LBDTC and the end date/time of collection goes into LBENDTC. See Section 4.4.8, Date and Time Reported in a Domain Based on Findings.", "score": 0.4738, "match_basis": "verbatim_token+domain_route:LB"}, {"md_atom_id": "md_dmLB_assn_a010", "md_file": "knowledge_base/domains/LB/assumptions.md", "md_atom_type": "LIST_ITEM", "md_parent_section": "§LB [LB — Assumptions]", "md_verbatim": "8. The LBLOINC variable contains a code from the Logical Observation Identifiers Names and Codes (LOINC) database that identifies a specific laboratory test. The LOINC to LB Mapping Codetable, available at https://www.cdisc.org/standards/terminology/controlled-terminology, may be used to identify appropriate CDISC CT values for a test with a particular LOINC code. In addition to LBTEST, LBSPEC, LBMETHOD, and LBORRESU, the aspects of a test that are associated with a LOINC code may be represented in the variables LBTPT, LBANMETH, LBTSTCND, LBBDAGNT, LBTSTOPO, LBRESSCL, LBRESTYP, LBCOLSRT, LBLLOD, LBPTFL, and LBPDUR. These additional variables are only required to be populated when necessary to provide a semantically meaningful distinction between records with different LBLOINC values.", "score": 0.4724, "match_basis": "verbatim_token+domain_route:LB"}, {"md_atom_id": "md_dmLB_assn_a007", "md_file": "knowledge_base/domains/LB/assumptions.md", "md_atom_type": "LIST_ITEM", "md_parent_section": "§LB [LB — Assumptions]", "md_verbatim": "6. A value derived by a central lab according to its procedures is considered collected rather than derived. See Section 4.1.8.1, Origin Metadata for Variables.", "score": 0.4722, "match_basis": "verbatim_token+domain_route:LB"}], "candidate_count": 5, "zero_candidate": false}
{"pdf_atom_id": "ig34_p0245_a014", "pdf_atom_type": "LIST_ITEM", "pdf_source": "SDTMIG_v3.4", "pdf_page": 245, "pdf_parent_section": "§6.3.5.6 Laboratory Test Results (LB)", "pdf_verbatim": "6. A value derived by a central lab according to its procedures is considered collected rather than derived. See Section 4.1.8.1, Origin Metadata for Variables.", "figure_ref": null, "candidates": [{"md_atom_id": "md_dmLB_assn_a007", "md_file": "knowledge_base/domains/LB/assumptions.md", "md_atom_type": "LIST_ITEM", "md_parent_section": "§LB [LB — Assumptions]", "md_verbatim": "6. A value derived by a central lab according to its procedures is considered collected rather than derived. See Section 4.1.8.1, Origin Metadata for Variables.", "score": 1.0, "match_basis": "verbatim_token+domain_route:LB"}, {"md_atom_id": "md_dmLB_assn_a002", "md_file": "knowledge_base/domains/LB/assumptions.md", "md_atom_type": "LIST_ITEM", "md_parent_section": "§LB [LB — Assumptions]", "md_verbatim": "1. This domain captures laboratory data collected on the CRF or received from a central provider or vendor.", "score": 0.5398, "match_basis": "verbatim_token+domain_route:LB"}, {"md_atom_id": "md_dmLB_assn_a005", "md_file": "knowledge_base/domains/LB/assumptions.md", "md_atom_type": "LIST_ITEM", "md_parent_section": "§LB [LB — Assumptions]", "md_verbatim": "4. For lab tests where the specimen is collected over time (e.g., 24-hour urine collection), the start date/time of the collection goes into LBDTC and the end date/time of collection goes into LBENDTC. See Section 4.4.8, Date and Time Reported in a Domain Based on Findings.", "score": 0.4976, "match_basis": "verbatim_token+domain_route:LB"}, {"md_atom_id": "md_dmLB_assn_a004", "md_file": "knowledge_base/domains/LB/assumptions.md", "md_atom_type": "LIST_ITEM", "md_parent_section": "§LB [LB — Assumptions]", "md_verbatim": "3. LBNRIND can be added to indicate where a result falls with respect to reference range defined by LBORNRLO and LBORNRHI. Examples: \"HIGH\", \"LOW\". If toxicity grading is available, values would be represented in the variables LBTOX and LBTOXGR. Clinical significance would be represented as described in Section 4.5.5, Clinical Significance for Findings Observation Class Data, in LBCLSIG (see also LB Example 1).", "score": 0.487, "match_basis": "verbatim_token+domain_route:LB"}, {"md_atom_id": "md_dmLB_assn_a003", "md_file": "knowledge_base/domains/LB/assumptions.md", "md_atom_type": "LIST_ITEM", "md_parent_section": "§LB [LB — Assumptions]", "md_verbatim": "2. For lab tests that do not have continuous numeric results (e.g., urine protein as measured by dipstick, descriptive tests such as urine color), LBSTNRC could be populated either with normal range values that are a range of character values for an ordinal scale (e.g., \"NEGATIVE to TRACE\") or a delimited set of values that are considered to be normal (e.g., \"YELLOW\", \"AMBER\"). LBORNRLO, LBORNRHI, LBSTNRLO, and LBSTNRHI should be null for these types of tests.", "score": 0.4848, "match_basis": "verbatim_token+domain_route:LB"}], "candidate_count": 5, "zero_candidate": false}
{"pdf_atom_id": "ig34_p0245_a015", "pdf_atom_type": "LIST_ITEM", "pdf_source": "SDTMIG_v3.4", "pdf_page": 245, "pdf_parent_section": "§6.3.5.6 Laboratory Test Results (LB)", "pdf_verbatim": "7. The variable LBORRESU uses the UNIT codelist. This means that sponsors should be submitting a term from the CDISC Submission Value column in the published Controlled Terminology List that is maintained for CDISC by NCI EVS. When sponsors have units that are not in this column, they should first check to see if their unit is mathematically synonymous with an existing/published unit from the UNIT codelist and submit their lab values using the published CDISC submission value. Example: \"g/L\" and \"mg/mL\" are mathematically synonymous, but only \"g/L\" is the submission value in", "figure_ref": null, "candidates": [{"md_atom_id": "md_dmLB_assn_a008", "md_file": "knowledge_base/domains/LB/assumptions.md", "md_atom_type": "LIST_ITEM", "md_parent_section": "§LB [LB — Assumptions]", "md_verbatim": "7. The variable LBORRESU uses the UNIT codelist. This means that sponsors should be submitting a term from the CDISC Submission Value column in the published Controlled Terminology List that is maintained for CDISC by NCI EVS. When sponsors have units that are not in this column, they should first check to see if their unit is mathematically synonymous with an existing/published unit from the UNIT codelist and submit their lab values using the published CDISC submission value. Example: \"g/L\" and \"mg/mL\" are mathematically synonymous, but only \"g/L\" is the submission value in the CDISC Unit codelist. If this is not the case, the unit must be added as a codelist extensible value in the Define.xml, and a new-term request must be submitted.", "score": 0.9148, "match_basis": "verbatim_token+domain_route:LB"}, {"md_atom_id": "md_dmLB_assn_a010", "md_file": "knowledge_base/domains/LB/assumptions.md", "md_atom_type": "LIST_ITEM", "md_parent_section": "§LB [LB — Assumptions]", "md_verbatim": "8. The LBLOINC variable contains a code from the Logical Observation Identifiers Names and Codes (LOINC) database that identifies a specific laboratory test. The LOINC to LB Mapping Codetable, available at https://www.cdisc.org/standards/terminology/controlled-terminology, may be used to identify appropriate CDISC CT values for a test with a particular LOINC code. In addition to LBTEST, LBSPEC, LBMETHOD, and LBORRESU, the aspects of a test that are associated with a LOINC code may be represented in the variables LBTPT, LBANMETH, LBTSTCND, LBBDAGNT, LBTSTOPO, LBRESSCL, LBRESTYP, LBCOLSRT, LBLLOD, LBPTFL, and LBPDUR. These additional variables are only required to be populated when necessary to provide a semantically meaningful distinction between records with different LBLOINC values.", "score": 0.5213, "match_basis": "verbatim_token+domain_route:LB"}, {"md_atom_id": "md_dmLB_assn_a009", "md_file": "knowledge_base/domains/LB/assumptions.md", "md_atom_type": "LIST_ITEM", "md_parent_section": "§LB [LB — Assumptions]", "md_verbatim": "   a. CDISC Controlled Terminology Rules for Lab and Unit are available at https://www.cdisc.org/standards/terminology/controlled-terminology.", "score": 0.4994, "match_basis": "verbatim_token+domain_route:LB"}, {"md_atom_id": "md_dmLB_assn_a003", "md_file": "knowledge_base/domains/LB/assumptions.md", "md_atom_type": "LIST_ITEM", "md_parent_section": "§LB [LB — Assumptions]", "md_verbatim": "2. For lab tests that do not have continuous numeric results (e.g., urine protein as measured by dipstick, descriptive tests such as urine color), LBSTNRC could be populated either with normal range values that are a range of character values for an ordinal scale (e.g., \"NEGATIVE to TRACE\") or a delimited set of values that are considered to be normal (e.g., \"YELLOW\", \"AMBER\"). LBORNRLO, LBORNRHI, LBSTNRLO, and LBSTNRHI should be null for these types of tests.", "score": 0.4935, "match_basis": "verbatim_token+domain_route:LB"}, {"md_atom_id": "md_dmLB_assn_a004", "md_file": "knowledge_base/domains/LB/assumptions.md", "md_atom_type": "LIST_ITEM", "md_parent_section": "§LB [LB — Assumptions]", "md_verbatim": "3. LBNRIND can be added to indicate where a result falls with respect to reference range defined by LBORNRLO and LBORNRHI. Examples: \"HIGH\", \"LOW\". If toxicity grading is available, values would be represented in the variables LBTOX and LBTOXGR. Clinical significance would be represented as described in Section 4.5.5, Clinical Significance for Findings Observation Class Data, in LBCLSIG (see also LB Example 1).", "score": 0.4847, "match_basis": "verbatim_token+domain_route:LB"}], "candidate_count": 5, "zero_candidate": false}
{"pdf_atom_id": "ig34_p0246_a001", "pdf_atom_type": "SENTENCE", "pdf_source": "SDTMIG_v3.4", "pdf_page": 246, "pdf_parent_section": "§6.3.5.6 Laboratory Test Results (LB)", "pdf_verbatim": "the CDISC Unit codelist. If this is not the case, the unit must be added as a codelist extensible value in the Define.xml, and a new-term request must be submitted.", "figure_ref": null, "candidates": [{"md_atom_id": "md_dmLB_assn_a008", "md_file": "knowledge_base/domains/LB/assumptions.md", "md_atom_type": "LIST_ITEM", "md_parent_section": "§LB [LB — Assumptions]", "md_verbatim": "7. The variable LBORRESU uses the UNIT codelist. This means that sponsors should be submitting a term from the CDISC Submission Value column in the published Controlled Terminology List that is maintained for CDISC by NCI EVS. When sponsors have units that are not in this column, they should first check to see if their unit is mathematically synonymous with an existing/published unit from the UNIT codelist and submit their lab values using the published CDISC submission value. Example: \"g/L\" and \"mg/mL\" are mathematically synonymous, but only \"g/L\" is the submission value in the CDISC Unit codelist. If this is not the case, the unit must be added as a codelist extensible value in the Define.xml, and a new-term request must be submitted.", "score": 0.4941, "match_basis": "verbatim_token+domain_route:LB"}, {"md_atom_id": "md_dmLB_ex_a028", "md_file": "knowledge_base/domains/LB/examples.md", "md_atom_type": "SENTENCE", "md_parent_section": "§LB.3 [Example 3]", "md_verbatim": "This example illustrates the use of LBSTAT and LBREASND when there is no data value reported in LBORRES.", "score": 0.4574, "match_basis": "verbatim_token+domain_route:LB"}, {"md_atom_id": "md_dmLB_ex_a004", "md_file": "knowledge_base/domains/LB/examples.md", "md_atom_type": "SENTENCE", "md_parent_section": "§LB.1 [Example 1]", "md_verbatim": "**Row 1:** Shows a value collected in 1 unit, but converted to selected standard unit. See Section 4.5.1, Original and Standardized Results of Findings and Tests Not Done, for additional examples for the population of result qualifiers. The result was evaluated by the investigator and determined to be not clinically significant.", "score": 0.4545, "match_basis": "verbatim_token+domain_route:LB"}, {"md_atom_id": "md_dmLB_ex_a013", "md_file": "knowledge_base/domains/LB/examples.md", "md_atom_type": "SENTENCE", "md_parent_section": "§LB.1 [Example 1]", "md_verbatim": "**Row 16:** Shows measuring of the subject's cholesterol. The normal range for this test is <200 mg/dL. Note that although in this example the sponsor has decided to make LBSTNRHI=\"199\", other sponsors may choose a different value.", "score": 0.4496, "match_basis": "verbatim_token+domain_route:LB"}, {"md_atom_id": "md_dmLB_ex_a011", "md_file": "knowledge_base/domains/LB/examples.md", "md_atom_type": "SENTENCE", "md_parent_section": "§LB.1 [Example 1]", "md_verbatim": "**Rows 12-13:** Show a suggested use of the LBSCAT variable. LBSCAT could be used to further classify types of tests within a laboratory panel (e.g., \"DIFFERENTIAL\"). The LYMLE result was evaluated by the investigator and determined to be not clinically significant.", "score": 0.4462, "match_basis": "verbatim_token+domain_route:LB"}], "candidate_count": 5, "zero_candidate": false}
{"pdf_atom_id": "ig34_p0246_a002", "pdf_atom_type": "LIST_ITEM", "pdf_source": "SDTMIG_v3.4", "pdf_page": 246, "pdf_parent_section": "§6.3.5.6 Laboratory Test Results (LB)", "pdf_verbatim": "a.   CDISC Controlled Terminology Rules for Lab and Unit are available at https://www.cdisc.org/standards/terminology/controlled-terminology.", "figure_ref": null, "candidates": [{"md_atom_id": "md_dmLB_assn_a009", "md_file": "knowledge_base/domains/LB/assumptions.md", "md_atom_type": "LIST_ITEM", "md_parent_section": "§LB [LB — Assumptions]", "md_verbatim": "   a. CDISC Controlled Terminology Rules for Lab and Unit are available at https://www.cdisc.org/standards/terminology/controlled-terminology.", "score": 1.0, "match_basis": "verbatim_token+domain_route:LB"}, {"md_atom_id": "md_dmLB_assn_a010", "md_file": "knowledge_base/domains/LB/assumptions.md", "md_atom_type": "LIST_ITEM", "md_parent_section": "§LB [LB — Assumptions]", "md_verbatim": "8. The LBLOINC variable contains a code from the Logical Observation Identifiers Names and Codes (LOINC) database that identifies a specific laboratory test. The LOINC to LB Mapping Codetable, available at https://www.cdisc.org/standards/terminology/controlled-terminology, may be used to identify appropriate CDISC CT values for a test with a particular LOINC code. In addition to LBTEST, LBSPEC, LBMETHOD, and LBORRESU, the aspects of a test that are associated with a LOINC code may be represented in the variables LBTPT, LBANMETH, LBTSTCND, LBBDAGNT, LBTSTOPO, LBRESSCL, LBRESTYP, LBCOLSRT, LBLLOD, LBPTFL, and LBPDUR. These additional variables are only required to be populated when necessary to provide a semantically meaningful distinction between records with different LBLOINC values.", "score": 0.4897, "match_basis": "verbatim_token+domain_route:LB"}, {"md_atom_id": "md_dmLB_assn_a008", "md_file": "knowledge_base/domains/LB/assumptions.md", "md_atom_type": "LIST_ITEM", "md_parent_section": "§LB [LB — Assumptions]", "md_verbatim": "7. The variable LBORRESU uses the UNIT codelist. This means that sponsors should be submitting a term from the CDISC Submission Value column in the published Controlled Terminology List that is maintained for CDISC by NCI EVS. When sponsors have units that are not in this column, they should first check to see if their unit is mathematically synonymous with an existing/published unit from the UNIT codelist and submit their lab values using the published CDISC submission value. Example: \"g/L\" and \"mg/mL\" are mathematically synonymous, but only \"g/L\" is the submission value in the CDISC Unit codelist. If this is not the case, the unit must be added as a codelist extensible value in the Define.xml, and a new-term request must be submitted.", "score": 0.4866, "match_basis": "verbatim_token+domain_route:LB"}, {"md_atom_id": "md_dmLB_assn_a007", "md_file": "knowledge_base/domains/LB/assumptions.md", "md_atom_type": "LIST_ITEM", "md_parent_section": "§LB [LB — Assumptions]", "md_verbatim": "6. A value derived by a central lab according to its procedures is considered collected rather than derived. See Section 4.1.8.1, Origin Metadata for Variables.", "score": 0.4491, "match_basis": "verbatim_token+domain_route:LB"}, {"md_atom_id": "md_dmLB_assn_a005", "md_file": "knowledge_base/domains/LB/assumptions.md", "md_atom_type": "LIST_ITEM", "md_parent_section": "§LB [LB — Assumptions]", "md_verbatim": "4. For lab tests where the specimen is collected over time (e.g., 24-hour urine collection), the start date/time of the collection goes into LBDTC and the end date/time of collection goes into LBENDTC. See Section 4.4.8, Date and Time Reported in a Domain Based on Findings.", "score": 0.4327, "match_basis": "verbatim_token+domain_route:LB"}], "candidate_count": 5, "zero_candidate": false}
{"pdf_atom_id": "ig34_p0246_a003", "pdf_atom_type": "LIST_ITEM", "pdf_source": "SDTMIG_v3.4", "pdf_page": 246, "pdf_parent_section": "§6.3.5.6 Laboratory Test Results (LB)", "pdf_verbatim": "8.   The LBLOINC variable contains a code from the Logical Observation Identifiers Names and Codes (LOINC) database that identifies a specific laboratory test. The LOINC to LB Mapping Codetable, available at https://www.cdisc.org/standards/terminology/controlled-terminology, may be used to identify appropriate CDISC CT values for a test with a particular LOINC code. In addition to LBTEST, LBSPEC, LBMETHOD, and LBORRESU, the aspects of a test that are associated with a LOINC code may be represented in the variables LBTPT, LBANMETH, LBPOS, LBLOC, LBFAST, LBTSTCND, LBBDAGNT, LBTSTOPO, LBRESSCL, LBRESTYP, LBCOLSRT, LBLLOD, LBPTFL, and LBPDUR. These additional variables are only required to be populated when necessary to provide a semantically meaningful distinction between records with different LBLOINC values.", "figure_ref": null, "candidates": [{"md_atom_id": "md_dmLB_assn_a010", "md_file": "knowledge_base/domains/LB/assumptions.md", "md_atom_type": "LIST_ITEM", "md_parent_section": "§LB [LB — Assumptions]", "md_verbatim": "8. The LBLOINC variable contains a code from the Logical Observation Identifiers Names and Codes (LOINC) database that identifies a specific laboratory test. The LOINC to LB Mapping Codetable, available at https://www.cdisc.org/standards/terminology/controlled-terminology, may be used to identify appropriate CDISC CT values for a test with a particular LOINC code. In addition to LBTEST, LBSPEC, LBMETHOD, and LBORRESU, the aspects of a test that are associated with a LOINC code may be represented in the variables LBTPT, LBANMETH, LBTSTCND, LBBDAGNT, LBTSTOPO, LBRESSCL, LBRESTYP, LBCOLSRT, LBLLOD, LBPTFL, and LBPDUR. These additional variables are only required to be populated when necessary to provide a semantically meaningful distinction between records with different LBLOINC values.", "score": 0.9852, "match_basis": "verbatim_token+domain_route:LB"}, {"md_atom_id": "md_dmLB_assn_a008", "md_file": "knowledge_base/domains/LB/assumptions.md", "md_atom_type": "LIST_ITEM", "md_parent_section": "§LB [LB — Assumptions]", "md_verbatim": "7. The variable LBORRESU uses the UNIT codelist. This means that sponsors should be submitting a term from the CDISC Submission Value column in the published Controlled Terminology List that is maintained for CDISC by NCI EVS. When sponsors have units that are not in this column, they should first check to see if their unit is mathematically synonymous with an existing/published unit from the UNIT codelist and submit their lab values using the published CDISC submission value. Example: \"g/L\" and \"mg/mL\" are mathematically synonymous, but only \"g/L\" is the submission value in the CDISC Unit codelist. If this is not the case, the unit must be added as a codelist extensible value in the Define.xml, and a new-term request must be submitted.", "score": 0.5225, "match_basis": "verbatim_token+domain_route:LB"}, {"md_atom_id": "md_dmLB_assn_a004", "md_file": "knowledge_base/domains/LB/assumptions.md", "md_atom_type": "LIST_ITEM", "md_parent_section": "§LB [LB — Assumptions]", "md_verbatim": "3. LBNRIND can be added to indicate where a result falls with respect to reference range defined by LBORNRLO and LBORNRHI. Examples: \"HIGH\", \"LOW\". If toxicity grading is available, values would be represented in the variables LBTOX and LBTOXGR. Clinical significance would be represented as described in Section 4.5.5, Clinical Significance for Findings Observation Class Data, in LBCLSIG (see also LB Example 1).", "score": 0.5043, "match_basis": "verbatim_token+domain_route:LB"}, {"md_atom_id": "md_dmLB_assn_a009", "md_file": "knowledge_base/domains/LB/assumptions.md", "md_atom_type": "LIST_ITEM", "md_parent_section": "§LB [LB — Assumptions]", "md_verbatim": "   a. CDISC Controlled Terminology Rules for Lab and Unit are available at https://www.cdisc.org/standards/terminology/controlled-terminology.", "score": 0.4875, "match_basis": "verbatim_token+domain_route:LB"}, {"md_atom_id": "md_dmLB_assn_a003", "md_file": "knowledge_base/domains/LB/assumptions.md", "md_atom_type": "LIST_ITEM", "md_parent_section": "§LB [LB — Assumptions]", "md_verbatim": "2. For lab tests that do not have continuous numeric results (e.g., urine protein as measured by dipstick, descriptive tests such as urine color), LBSTNRC could be populated either with normal range values that are a range of character values for an ordinal scale (e.g., \"NEGATIVE to TRACE\") or a delimited set of values that are considered to be normal (e.g., \"YELLOW\", \"AMBER\"). LBORNRLO, LBORNRHI, LBSTNRLO, and LBSTNRHI should be null for these types of tests.", "score": 0.4775, "match_basis": "verbatim_token+domain_route:LB"}], "candidate_count": 5, "zero_candidate": false}
{"pdf_atom_id": "ig34_p0246_a004", "pdf_atom_type": "HEADING", "pdf_source": "SDTMIG_v3.4", "pdf_page": 246, "pdf_parent_section": "§6.3.5.6 Laboratory Test Results (LB)", "pdf_verbatim": "LB – Examples", "figure_ref": null, "candidates": [{"md_atom_id": "md_dmLB_ex_a001", "md_file": "knowledge_base/domains/LB/examples.md", "md_atom_type": "HEADING", "md_parent_section": "§LB [LB — Examples]", "md_verbatim": "# LB — Examples", "score": 1.0, "match_basis": "verbatim_token+domain_route:LB"}, {"md_atom_id": "md_dmLB_ex_a002", "md_file": "knowledge_base/domains/LB/examples.md", "md_atom_type": "HEADING", "md_parent_section": "§LB [LB — Examples]", "md_verbatim": "## Example 1", "score": 0.9, "match_basis": "verbatim_token+domain_route:LB"}, {"md_atom_id": "md_dmLB_ex_a018", "md_file": "knowledge_base/domains/LB/examples.md", "md_atom_type": "HEADING", "md_parent_section": "§LB [LB — Examples]", "md_verbatim": "## Example 2", "score": 0.9, "match_basis": "verbatim_token+domain_route:LB"}, {"md_atom_id": "md_dmLB_ex_a027", "md_file": "knowledge_base/domains/LB/examples.md", "md_atom_type": "HEADING", "md_parent_section": "§LB [LB — Examples]", "md_verbatim": "## Example 3", "score": 0.9, "match_basis": "verbatim_token+domain_route:LB"}, {"md_atom_id": "md_dmLB_ex_a035", "md_file": "knowledge_base/domains/LB/examples.md", "md_atom_type": "HEADING", "md_parent_section": "§LB [LB — Examples]", "md_verbatim": "## Example 4", "score": 0.9, "match_basis": "verbatim_token+domain_route:LB"}], "candidate_count": 5, "zero_candidate": false}
{"pdf_atom_id": "ig34_p0246_a005", "pdf_atom_type": "HEADING", "pdf_source": "SDTMIG_v3.4", "pdf_page": 246, "pdf_parent_section": "§6.3.5.6 Laboratory Test Results (LB)", "pdf_verbatim": "Example 1", "figure_ref": null, "candidates": [{"md_atom_id": "md_dmLB_ex_a002", "md_file": "knowledge_base/domains/LB/examples.md", "md_atom_type": "HEADING", "md_parent_section": "§LB [LB — Examples]", "md_verbatim": "## Example 1", "score": 1.0, "match_basis": "verbatim_token+domain_route:LB"}, {"md_atom_id": "md_dmLB_ex_a018", "md_file": "knowledge_base/domains/LB/examples.md", "md_atom_type": "HEADING", "md_parent_section": "§LB [LB — Examples]", "md_verbatim": "## Example 2", "score": 1.0, "match_basis": "verbatim_token+domain_route:LB"}, {"md_atom_id": "md_dmLB_ex_a027", "md_file": "knowledge_base/domains/LB/examples.md", "md_atom_type": "HEADING", "md_parent_section": "§LB [LB — Examples]", "md_verbatim": "## Example 3", "score": 1.0, "match_basis": "verbatim_token+domain_route:LB"}, {"md_atom_id": "md_dmLB_ex_a035", "md_file": "knowledge_base/domains/LB/examples.md", "md_atom_type": "HEADING", "md_parent_section": "§LB [LB — Examples]", "md_verbatim": "## Example 4", "score": 1.0, "match_basis": "verbatim_token+domain_route:LB"}, {"md_atom_id": "md_dmLB_ex_a045", "md_file": "knowledge_base/domains/LB/examples.md", "md_atom_type": "HEADING", "md_parent_section": "§LB [LB — Examples]", "md_verbatim": "## Example 5", "score": 1.0, "match_basis": "verbatim_token+domain_route:LB"}, {"md_atom_id": "md_dmLB_ex_a001", "md_file": "knowledge_base/domains/LB/examples.md", "md_atom_type": "HEADING", "md_parent_section": "§LB [LB — Examples]", "md_verbatim": "# LB — Examples", "score": 0.9, "match_basis": "verbatim_token+domain_route:LB"}, {"md_atom_id": "md_dmLB_assn_a001", "md_file": "knowledge_base/domains/LB/assumptions.md", "md_atom_type": "HEADING", "md_parent_section": "§LB [LB — Assumptions]", "md_verbatim": "# LB — Assumptions", "score": 0.4, "match_basis": "verbatim_token+domain_route:LB"}], "candidate_count": 7, "zero_candidate": false}
{"pdf_atom_id": "ig34_p0246_a006", "pdf_atom_type": "SENTENCE", "pdf_source": "SDTMIG_v3.4", "pdf_page": 246, "pdf_parent_section": "§6.3.5.6 Laboratory Test Results (LB)", "pdf_verbatim": "This example illustrates the use of previously published LB domain variables and introduces several new variables that were added to SDTMv2.0, including LBTSTCND, LBRESSCL, LBRESTYP, LBCOLSRT, LBLLOD, LBTMTHSN, LBPTFL, and LBPDUR. These variables, in part, aid in harmonization to LOINC.", "figure_ref": null, "candidates": [{"md_atom_id": "md_dmLB_ex_a003", "md_file": "knowledge_base/domains/LB/examples.md", "md_atom_type": "SENTENCE", "md_parent_section": "§LB.1 [Example 1]", "md_verbatim": "This example illustrates the use of previously published LB domain variables and introduces several new variables that were added to SDTMv2.0, including LBTSTCND, LBRESSCL, LBRESTYP, LBCOLSRT, LBLLOD, LBTMTHSN, LBPTFL, and LBPDUR. These variables, in part, aid in harmonization to LOINC.", "score": 1.0, "match_basis": "verbatim_token+domain_route:LB"}, {"md_atom_id": "md_dmLB_ex_a036", "md_file": "knowledge_base/domains/LB/examples.md", "md_atom_type": "SENTENCE", "md_parent_section": "§LB.4 [Example 4]", "md_verbatim": "This example illustrates the use of the LBTSTOPO variable to identify the tests that screen, confirm, and quantify the presence of a substance.", "score": 0.5252, "match_basis": "verbatim_token+domain_route:LB"}, {"md_atom_id": "md_dmLB_ex_a019", "md_file": "knowledge_base/domains/LB/examples.md", "md_atom_type": "SENTENCE", "md_parent_section": "§LB.2 [Example 2]", "md_verbatim": "This example illustrates the use of timing variables for pre- and post-dose timed urine collections.", "score": 0.5232, "match_basis": "verbatim_token+domain_route:LB"}, {"md_atom_id": "md_dmLB_ex_a017", "md_file": "knowledge_base/domains/LB/examples.md", "md_atom_type": "SENTENCE", "md_parent_section": "§LB.1 [Example 1]", "md_verbatim": "*Note: The LB Example 1 table contains 18 rows and over 30 columns including STUDYID, DOMAIN, USUBJID, LBSEQ, LBGRPID, LBTESTCD, LBTEST, LBCAT, LBSCAT, LBORRES, LBORRESU, LBORNRLO, LBORNRHI, LBSTRESC, LBSTRESN, LBSTRESU, LBSTNRLO, LBSTNRHI, LBSTNRC, LBNRIND, LBSTAT, LBREASND, LBNAM, LBLOINC, LBSPEC, LBMETHOD, LBBLFL, LBFAST, LBDRVFL, LBTOX, LBTOXGR, LBCLSIG, LBRESSCL, LBRESTYP, LBCOLSRT, LBLLOD, LBTMTHSN, LBTSTCND, LBPTFL, LBPDUR, VISITNUM, VISIT, LBDTC, LBENDTC. Representative test types include Albumin, Alkaline Phosphatase (with derived mean/max), C-Reactive Protein (high sensitivity), Cryoglobulin, Prostate Specific Antigen, Protein (24h urine), Platelet Aggregation, WBC, Lymphocytes, Monocytes, Neutrophils, Cholesterol, and Urine Protein.*", "score": 0.5217, "match_basis": "verbatim_token+domain_route:LB"}, {"md_atom_id": "md_dmLB_ex_a010", "md_file": "knowledge_base/domains/LB/examples.md", "md_atom_type": "SENTENCE", "md_parent_section": "§LB.1 [Example 1]", "md_verbatim": "**Row 9:** Shows use of LBPDUR to represent the planned duration of \"PT24H\" for collection of urine samples for the protein test. LBPTFL is set to indicate that this test was not conducted at a single point in time.", "score": 0.5043, "match_basis": "verbatim_token+domain_route:LB"}], "candidate_count": 5, "zero_candidate": false}
{"pdf_atom_id": "ig34_p0246_a007", "pdf_atom_type": "LIST_ITEM", "pdf_source": "SDTMIG_v3.4", "pdf_page": 246, "pdf_parent_section": "§6.3.5.6 Laboratory Test Results (LB)", "pdf_verbatim": "Row 1:   Shows a value collected in 1 unit, but converted to selected standard unit. See Section 4.5.1, Original and Standardized Results of Findings and Tests Not Done, for additional examples for the population of result qualifiers. The result was evaluated by the investigator and determined to be not clinically significant.", "figure_ref": null, "candidates": [{"md_atom_id": "md_dmLB_ex_a004", "md_file": "knowledge_base/domains/LB/examples.md", "md_atom_type": "SENTENCE", "md_parent_section": "§LB.1 [Example 1]", "md_verbatim": "**Row 1:** Shows a value collected in 1 unit, but converted to selected standard unit. See Section 4.5.1, Original and Standardized Results of Findings and Tests Not Done, for additional examples for the population of result qualifiers. The result was evaluated by the investigator and determined to be not clinically significant.", "score": 0.91, "match_basis": "verbatim_token+domain_route:LB"}, {"md_atom_id": "md_dmLB_assn_a004", "md_file": "knowledge_base/domains/LB/assumptions.md", "md_atom_type": "LIST_ITEM", "md_parent_section": "§LB [LB — Assumptions]", "md_verbatim": "3. LBNRIND can be added to indicate where a result falls with respect to reference range defined by LBORNRLO and LBORNRHI. Examples: \"HIGH\", \"LOW\". If toxicity grading is available, values would be represented in the variables LBTOX and LBTOXGR. Clinical significance would be represented as described in Section 4.5.5, Clinical Significance for Findings Observation Class Data, in LBCLSIG (see also LB Example 1).", "score": 0.5274, "match_basis": "verbatim_token+domain_route:LB"}, {"md_atom_id": "md_dmLB_ex_a015", "md_file": "knowledge_base/domains/LB/examples.md", "md_atom_type": "SENTENCE", "md_parent_section": "§LB.1 [Example 1]", "md_verbatim": "**Row 18:** Shows use of LBSTNRC for urine protein that is not reported as a continuous numeric result. The result was evaluated by the investigator and determined to be not clinically significant.", "score": 0.524, "match_basis": "verbatim_token+domain_route:LB"}, {"md_atom_id": "md_dmLB_assn_a005", "md_file": "knowledge_base/domains/LB/assumptions.md", "md_atom_type": "LIST_ITEM", "md_parent_section": "§LB [LB — Assumptions]", "md_verbatim": "4. For lab tests where the specimen is collected over time (e.g., 24-hour urine collection), the start date/time of the collection goes into LBDTC and the end date/time of collection goes into LBENDTC. See Section 4.4.8, Date and Time Reported in a Domain Based on Findings.", "score": 0.5042, "match_basis": "verbatim_token+domain_route:LB"}, {"md_atom_id": "md_dmLB_assn_a010", "md_file": "knowledge_base/domains/LB/assumptions.md", "md_atom_type": "LIST_ITEM", "md_parent_section": "§LB [LB — Assumptions]", "md_verbatim": "8. The LBLOINC variable contains a code from the Logical Observation Identifiers Names and Codes (LOINC) database that identifies a specific laboratory test. The LOINC to LB Mapping Codetable, available at https://www.cdisc.org/standards/terminology/controlled-terminology, may be used to identify appropriate CDISC CT values for a test with a particular LOINC code. In addition to LBTEST, LBSPEC, LBMETHOD, and LBORRESU, the aspects of a test that are associated with a LOINC code may be represented in the variables LBTPT, LBANMETH, LBTSTCND, LBBDAGNT, LBTSTOPO, LBRESSCL, LBRESTYP, LBCOLSRT, LBLLOD, LBPTFL, and LBPDUR. These additional variables are only required to be populated when necessary to provide a semantically meaningful distinction between records with different LBLOINC values.", "score": 0.4988, "match_basis": "verbatim_token+domain_route:LB"}], "candidate_count": 5, "zero_candidate": false}
{"pdf_atom_id": "ig34_p0246_a008", "pdf_atom_type": "LIST_ITEM", "pdf_source": "SDTMIG_v3.4", "pdf_page": 246, "pdf_parent_section": "§6.3.5.6 Laboratory Test Results (LB)", "pdf_verbatim": "Rows 2-3:   Show 2 records for alkaline phosphatase done at the same visit, a day apart. LBPTFL is set to \"Y\" for both rows because each result is based on a sample from a single point in time.", "figure_ref": null, "candidates": [{"md_atom_id": "md_dmLB_ex_a005", "md_file": "knowledge_base/domains/LB/examples.md", "md_atom_type": "SENTENCE", "md_parent_section": "§LB.1 [Example 1]", "md_verbatim": "**Rows 2-3:** Show 2 records for alkaline phosphatase done at the same visit, a day apart. LBPTFL is set to \"Y\" for both rows because each result is based on a sample from a single point in time.", "score": 0.91, "match_basis": "verbatim_token+domain_route:LB"}, {"md_atom_id": "md_dmLB_ex_a014", "md_file": "knowledge_base/domains/LB/examples.md", "md_atom_type": "SENTENCE", "md_parent_section": "§LB.1 [Example 1]", "md_verbatim": "**Row 17:** Shows use of LBPTFL set to \"Y\" to indicate that the test used a sample taken at a single point in time.", "score": 0.498, "match_basis": "verbatim_token+domain_route:LB"}, {"md_atom_id": "md_dmLB_assn_a005", "md_file": "knowledge_base/domains/LB/assumptions.md", "md_atom_type": "LIST_ITEM", "md_parent_section": "§LB [LB — Assumptions]", "md_verbatim": "4. For lab tests where the specimen is collected over time (e.g., 24-hour urine collection), the start date/time of the collection goes into LBDTC and the end date/time of collection goes into LBENDTC. See Section 4.4.8, Date and Time Reported in a Domain Based on Findings.", "score": 0.4508, "match_basis": "verbatim_token+domain_route:LB"}, {"md_atom_id": "md_dmLB_assn_a010", "md_file": "knowledge_base/domains/LB/assumptions.md", "md_atom_type": "LIST_ITEM", "md_parent_section": "§LB [LB — Assumptions]", "md_verbatim": "8. The LBLOINC variable contains a code from the Logical Observation Identifiers Names and Codes (LOINC) database that identifies a specific laboratory test. The LOINC to LB Mapping Codetable, available at https://www.cdisc.org/standards/terminology/controlled-terminology, may be used to identify appropriate CDISC CT values for a test with a particular LOINC code. In addition to LBTEST, LBSPEC, LBMETHOD, and LBORRESU, the aspects of a test that are associated with a LOINC code may be represented in the variables LBTPT, LBANMETH, LBTSTCND, LBBDAGNT, LBTSTOPO, LBRESSCL, LBRESTYP, LBCOLSRT, LBLLOD, LBPTFL, and LBPDUR. These additional variables are only required to be populated when necessary to provide a semantically meaningful distinction between records with different LBLOINC values.", "score": 0.4484, "match_basis": "verbatim_token+domain_route:LB"}, {"md_atom_id": "md_dmLB_assn_a008", "md_file": "knowledge_base/domains/LB/assumptions.md", "md_atom_type": "LIST_ITEM", "md_parent_section": "§LB [LB — Assumptions]", "md_verbatim": "7. The variable LBORRESU uses the UNIT codelist. This means that sponsors should be submitting a term from the CDISC Submission Value column in the published Controlled Terminology List that is maintained for CDISC by NCI EVS. When sponsors have units that are not in this column, they should first check to see if their unit is mathematically synonymous with an existing/published unit from the UNIT codelist and submit their lab values using the published CDISC submission value. Example: \"g/L\" and \"mg/mL\" are mathematically synonymous, but only \"g/L\" is the submission value in the CDISC Unit codelist. If this is not the case, the unit must be added as a codelist extensible value in the Define.xml, and a new-term request must be submitted.", "score": 0.4443, "match_basis": "verbatim_token+domain_route:LB"}], "candidate_count": 5, "zero_candidate": false}
{"pdf_atom_id": "ig34_p0246_a009", "pdf_atom_type": "LIST_ITEM", "pdf_source": "SDTMIG_v3.4", "pdf_page": 246, "pdf_parent_section": "§6.3.5.6 Laboratory Test Results (LB)", "pdf_verbatim": "Rows 4-5:   Show 2 derived records (mean of records 2 and 3 and maximum value of records 2 and 3) grouped by a common LBGRPID value. The derived result in row 4 is described as a mean (LBCOLSRT=\"MEAN, ARITHMETIC\"), but LBDRVFL is missing because the mean result was provided by the vendor. The derived result in row 5 was derived by the sponsor, and so is flagged as derived (LBDRVFL=\"Y\"); LBCOLSRT is not populated because the result is not a collected summary result. For both derived results, the sponsor chose to populate LBRESSCL, LBRESTYP, LBSPEC, and LBFAST consistent with the 2 individual alkaline phosphatase records but did not populate LBLOINC or LBPTFL because neither derived record represented a single point in time. The sponsor chose to populate LBDTC with the first of the 2 specimen collection dates.", "figure_ref": null, "candidates": [{"md_atom_id": "md_dmLB_ex_a006", "md_file": "knowledge_base/domains/LB/examples.md", "md_atom_type": "SENTENCE", "md_parent_section": "§LB.1 [Example 1]", "md_verbatim": "**Rows 4-5:** Show 2 derived records (mean of records 2 and 3 and maximum value of records 2 and 3) grouped by a common LBGRPID value. The derived result in row 4 is described as a mean (LBCOLSRT=\"MEAN, ARITHMETIC\"), but LBDRVFL is missing because the mean result was provided by the vendor. The derived result in row 5 was derived by the sponsor, and so is flagged as derived (LBDRVFL=\"Y\"); LBCOLSRT is not populated because the result is not a collected summary result. For both derived results, the sponsor chose to populate LBRESSCL, LBRESTYP, LBSPEC, and LBFAST consistent with the 2 individual alkaline phosphatase records but did not populate LBLOINC or LBPTFL because neither derived record represented a single point in time. The sponsor chose to populate LBDTC with the first of the 2 specimen collection dates.", "score": 0.91, "match_basis": "verbatim_token+domain_route:LB"}, {"md_atom_id": "md_dmLB_assn_a010", "md_file": "knowledge_base/domains/LB/assumptions.md", "md_atom_type": "LIST_ITEM", "md_parent_section": "§LB [LB — Assumptions]", "md_verbatim": "8. The LBLOINC variable contains a code from the Logical Observation Identifiers Names and Codes (LOINC) database that identifies a specific laboratory test. The LOINC to LB Mapping Codetable, available at https://www.cdisc.org/standards/terminology/controlled-terminology, may be used to identify appropriate CDISC CT values for a test with a particular LOINC code. In addition to LBTEST, LBSPEC, LBMETHOD, and LBORRESU, the aspects of a test that are associated with a LOINC code may be represented in the variables LBTPT, LBANMETH, LBTSTCND, LBBDAGNT, LBTSTOPO, LBRESSCL, LBRESTYP, LBCOLSRT, LBLLOD, LBPTFL, and LBPDUR. These additional variables are only required to be populated when necessary to provide a semantically meaningful distinction between records with different LBLOINC values.", "score": 0.5251, "match_basis": "verbatim_token+domain_route:LB"}, {"md_atom_id": "md_dmLB_assn_a003", "md_file": "knowledge_base/domains/LB/assumptions.md", "md_atom_type": "LIST_ITEM", "md_parent_section": "§LB [LB — Assumptions]", "md_verbatim": "2. For lab tests that do not have continuous numeric results (e.g., urine protein as measured by dipstick, descriptive tests such as urine color), LBSTNRC could be populated either with normal range values that are a range of character values for an ordinal scale (e.g., \"NEGATIVE to TRACE\") or a delimited set of values that are considered to be normal (e.g., \"YELLOW\", \"AMBER\"). LBORNRLO, LBORNRHI, LBSTNRLO, and LBSTNRHI should be null for these types of tests.", "score": 0.4914, "match_basis": "verbatim_token+domain_route:LB"}, {"md_atom_id": "md_dmLB_assn_a005", "md_file": "knowledge_base/domains/LB/assumptions.md", "md_atom_type": "LIST_ITEM", "md_parent_section": "§LB [LB — Assumptions]", "md_verbatim": "4. For lab tests where the specimen is collected over time (e.g., 24-hour urine collection), the start date/time of the collection goes into LBDTC and the end date/time of collection goes into LBENDTC. See Section 4.4.8, Date and Time Reported in a Domain Based on Findings.", "score": 0.4885, "match_basis": "verbatim_token+domain_route:LB"}, {"md_atom_id": "md_dmLB_assn_a004", "md_file": "knowledge_base/domains/LB/assumptions.md", "md_atom_type": "LIST_ITEM", "md_parent_section": "§LB [LB — Assumptions]", "md_verbatim": "3. LBNRIND can be added to indicate where a result falls with respect to reference range defined by LBORNRLO and LBORNRHI. Examples: \"HIGH\", \"LOW\". If toxicity grading is available, values would be represented in the variables LBTOX and LBTOXGR. Clinical significance would be represented as described in Section 4.5.5, Clinical Significance for Findings Observation Class Data, in LBCLSIG (see also LB Example 1).", "score": 0.4863, "match_basis": "verbatim_token+domain_route:LB"}], "candidate_count": 5, "zero_candidate": false}
{"pdf_atom_id": "ig34_p0246_a010", "pdf_atom_type": "LIST_ITEM", "pdf_source": "SDTMIG_v3.4", "pdf_page": 246, "pdf_parent_section": "§6.3.5.6 Laboratory Test Results (LB)", "pdf_verbatim": "Row 6:   Shows use of LBTMTHSN to represent \"HIGH SENSITIVITY\" for the high-sensitivity C-reactive protein (hs-CRP) test.", "figure_ref": null, "candidates": [{"md_atom_id": "md_dmLB_ex_a007", "md_file": "knowledge_base/domains/LB/examples.md", "md_atom_type": "SENTENCE", "md_parent_section": "§LB.1 [Example 1]", "md_verbatim": "**Row 6:** Shows use of LBTMTHSN to represent \"HIGH SENSITIVITY\" for the high-sensitivity C-reactive protein (hs-CRP) test.", "score": 0.91, "match_basis": "verbatim_token+domain_route:LB"}, {"md_atom_id": "md_dmLB_assn_a003", "md_file": "knowledge_base/domains/LB/assumptions.md", "md_atom_type": "LIST_ITEM", "md_parent_section": "§LB [LB — Assumptions]", "md_verbatim": "2. For lab tests that do not have continuous numeric results (e.g., urine protein as measured by dipstick, descriptive tests such as urine color), LBSTNRC could be populated either with normal range values that are a range of character values for an ordinal scale (e.g., \"NEGATIVE to TRACE\") or a delimited set of values that are considered to be normal (e.g., \"YELLOW\", \"AMBER\"). LBORNRLO, LBORNRHI, LBSTNRLO, and LBSTNRHI should be null for these types of tests.", "score": 0.4533, "match_basis": "verbatim_token+domain_route:LB"}, {"md_atom_id": "md_dmLB_assn_a004", "md_file": "knowledge_base/domains/LB/assumptions.md", "md_atom_type": "LIST_ITEM", "md_parent_section": "§LB [LB — Assumptions]", "md_verbatim": "3. LBNRIND can be added to indicate where a result falls with respect to reference range defined by LBORNRLO and LBORNRHI. Examples: \"HIGH\", \"LOW\". If toxicity grading is available, values would be represented in the variables LBTOX and LBTOXGR. Clinical significance would be represented as described in Section 4.5.5, Clinical Significance for Findings Observation Class Data, in LBCLSIG (see also LB Example 1).", "score": 0.4475, "match_basis": "verbatim_token+domain_route:LB"}, {"md_atom_id": "md_dmLB_assn_a007", "md_file": "knowledge_base/domains/LB/assumptions.md", "md_atom_type": "LIST_ITEM", "md_parent_section": "§LB [LB — Assumptions]", "md_verbatim": "6. A value derived by a central lab according to its procedures is considered collected rather than derived. See Section 4.1.8.1, Origin Metadata for Variables.", "score": 0.4444, "match_basis": "verbatim_token+domain_route:LB"}, {"md_atom_id": "md_dmLB_ex_a010", "md_file": "knowledge_base/domains/LB/examples.md", "md_atom_type": "SENTENCE", "md_parent_section": "§LB.1 [Example 1]", "md_verbatim": "**Row 9:** Shows use of LBPDUR to represent the planned duration of \"PT24H\" for collection of urine samples for the protein test. LBPTFL is set to indicate that this test was not conducted at a single point in time.", "score": 0.4357, "match_basis": "verbatim_token+domain_route:LB"}], "candidate_count": 5, "zero_candidate": false}
{"pdf_atom_id": "ig34_p0246_a011", "pdf_atom_type": "LIST_ITEM", "pdf_source": "SDTMIG_v3.4", "pdf_page": 246, "pdf_parent_section": "§6.3.5.6 Laboratory Test Results (LB)", "pdf_verbatim": "Rows 7, 10:   Show use of LBTSTCND. For the cryoglobulin test, 1-day cold incubation is noted; for the platelet aggregation test, collagen induced is noted.", "figure_ref": null, "candidates": [{"md_atom_id": "md_dmLB_ex_a008", "md_file": "knowledge_base/domains/LB/examples.md", "md_atom_type": "SENTENCE", "md_parent_section": "§LB.1 [Example 1]", "md_verbatim": "**Rows 7, 10:** Show use of LBTSTCND. For the cryoglobulin test, 1-day cold incubation is noted; for the platelet aggregation test, collagen induced is noted.", "score": 0.91, "match_basis": "verbatim_token+domain_route:LB"}, {"md_atom_id": "md_dmLB_assn_a005", "md_file": "knowledge_base/domains/LB/assumptions.md", "md_atom_type": "LIST_ITEM", "md_parent_section": "§LB [LB — Assumptions]", "md_verbatim": "4. For lab tests where the specimen is collected over time (e.g., 24-hour urine collection), the start date/time of the collection goes into LBDTC and the end date/time of collection goes into LBENDTC. See Section 4.4.8, Date and Time Reported in a Domain Based on Findings.", "score": 0.455, "match_basis": "verbatim_token+domain_route:LB"}, {"md_atom_id": "md_dmLB_assn_a006", "md_file": "knowledge_base/domains/LB/assumptions.md", "md_atom_type": "LIST_ITEM", "md_parent_section": "§LB [LB — Assumptions]", "md_verbatim": "5. Any Identifiers, Timing variables, or Findings general observation class qualifiers may be added to the LB domain, but the following qualifiers would not generally be used: --BODSYS, --SEV.", "score": 0.4422, "match_basis": "verbatim_token+domain_route:LB"}, {"md_atom_id": "md_dmLB_assn_a003", "md_file": "knowledge_base/domains/LB/assumptions.md", "md_atom_type": "LIST_ITEM", "md_parent_section": "§LB [LB — Assumptions]", "md_verbatim": "2. For lab tests that do not have continuous numeric results (e.g., urine protein as measured by dipstick, descriptive tests such as urine color), LBSTNRC could be populated either with normal range values that are a range of character values for an ordinal scale (e.g., \"NEGATIVE to TRACE\") or a delimited set of values that are considered to be normal (e.g., \"YELLOW\", \"AMBER\"). LBORNRLO, LBORNRHI, LBSTNRLO, and LBSTNRHI should be null for these types of tests.", "score": 0.442, "match_basis": "verbatim_token+domain_route:LB"}, {"md_atom_id": "md_dmLB_assn_a007", "md_file": "knowledge_base/domains/LB/assumptions.md", "md_atom_type": "LIST_ITEM", "md_parent_section": "§LB [LB — Assumptions]", "md_verbatim": "6. A value derived by a central lab according to its procedures is considered collected rather than derived. See Section 4.1.8.1, Origin Metadata for Variables.", "score": 0.4381, "match_basis": "verbatim_token+domain_route:LB"}], "candidate_count": 5, "zero_candidate": false}
{"pdf_atom_id": "ig34_p0246_a012", "pdf_atom_type": "LIST_ITEM", "pdf_source": "SDTMIG_v3.4", "pdf_page": 246, "pdf_parent_section": "§6.3.5.6 Laboratory Test Results (LB)", "pdf_verbatim": "Row 8:   Shows use of LBLLOD for a prostate-specific antigen test.", "figure_ref": null, "candidates": [{"md_atom_id": "md_dmLB_ex_a009", "md_file": "knowledge_base/domains/LB/examples.md", "md_atom_type": "SENTENCE", "md_parent_section": "§LB.1 [Example 1]", "md_verbatim": "**Row 8:** Shows use of LBLLOD for a prostate-specific antigen test.", "score": 0.91, "match_basis": "verbatim_token+domain_route:LB"}, {"md_atom_id": "md_dmLB_assn_a005", "md_file": "knowledge_base/domains/LB/assumptions.md", "md_atom_type": "LIST_ITEM", "md_parent_section": "§LB [LB — Assumptions]", "md_verbatim": "4. For lab tests where the specimen is collected over time (e.g., 24-hour urine collection), the start date/time of the collection goes into LBDTC and the end date/time of collection goes into LBENDTC. See Section 4.4.8, Date and Time Reported in a Domain Based on Findings.", "score": 0.4527, "match_basis": "verbatim_token+domain_route:LB"}, {"md_atom_id": "md_dmLB_assn_a010", "md_file": "knowledge_base/domains/LB/assumptions.md", "md_atom_type": "LIST_ITEM", "md_parent_section": "§LB [LB — Assumptions]", "md_verbatim": "8. The LBLOINC variable contains a code from the Logical Observation Identifiers Names and Codes (LOINC) database that identifies a specific laboratory test. The LOINC to LB Mapping Codetable, available at https://www.cdisc.org/standards/terminology/controlled-terminology, may be used to identify appropriate CDISC CT values for a test with a particular LOINC code. In addition to LBTEST, LBSPEC, LBMETHOD, and LBORRESU, the aspects of a test that are associated with a LOINC code may be represented in the variables LBTPT, LBANMETH, LBTSTCND, LBBDAGNT, LBTSTOPO, LBRESSCL, LBRESTYP, LBCOLSRT, LBLLOD, LBPTFL, and LBPDUR. These additional variables are only required to be populated when necessary to provide a semantically meaningful distinction between records with different LBLOINC values.", "score": 0.4397, "match_basis": "verbatim_token+domain_route:LB"}, {"md_atom_id": "md_dmLB_assn_a006", "md_file": "knowledge_base/domains/LB/assumptions.md", "md_atom_type": "LIST_ITEM", "md_parent_section": "§LB [LB — Assumptions]", "md_verbatim": "5. Any Identifiers, Timing variables, or Findings general observation class qualifiers may be added to the LB domain, but the following qualifiers would not generally be used: --BODSYS, --SEV.", "score": 0.43, "match_basis": "verbatim_token+domain_route:LB"}, {"md_atom_id": "md_dmLB_assn_a003", "md_file": "knowledge_base/domains/LB/assumptions.md", "md_atom_type": "LIST_ITEM", "md_parent_section": "§LB [LB — Assumptions]", "md_verbatim": "2. For lab tests that do not have continuous numeric results (e.g., urine protein as measured by dipstick, descriptive tests such as urine color), LBSTNRC could be populated either with normal range values that are a range of character values for an ordinal scale (e.g., \"NEGATIVE to TRACE\") or a delimited set of values that are considered to be normal (e.g., \"YELLOW\", \"AMBER\"). LBORNRLO, LBORNRHI, LBSTNRLO, and LBSTNRHI should be null for these types of tests.", "score": 0.4276, "match_basis": "verbatim_token+domain_route:LB"}], "candidate_count": 5, "zero_candidate": false}
{"pdf_atom_id": "ig34_p0246_a013", "pdf_atom_type": "LIST_ITEM", "pdf_source": "SDTMIG_v3.4", "pdf_page": 246, "pdf_parent_section": "§6.3.5.6 Laboratory Test Results (LB)", "pdf_verbatim": "Row 9:   Shows use of LBPDUR to represent the planned duration of \"PT24H\" for collection of urine samples for the protein test. LBPTFL is set to missing because this test was not conducted at a single point in time.", "figure_ref": null, "candidates": [{"md_atom_id": "md_dmLB_ex_a010", "md_file": "knowledge_base/domains/LB/examples.md", "md_atom_type": "SENTENCE", "md_parent_section": "§LB.1 [Example 1]", "md_verbatim": "**Row 9:** Shows use of LBPDUR to represent the planned duration of \"PT24H\" for collection of urine samples for the protein test. LBPTFL is set to indicate that this test was not conducted at a single point in time.", "score": 0.8111, "match_basis": "verbatim_token+domain_route:LB"}, {"md_atom_id": "md_dmLB_assn_a005", "md_file": "knowledge_base/domains/LB/assumptions.md", "md_atom_type": "LIST_ITEM", "md_parent_section": "§LB [LB — Assumptions]", "md_verbatim": "4. For lab tests where the specimen is collected over time (e.g., 24-hour urine collection), the start date/time of the collection goes into LBDTC and the end date/time of collection goes into LBENDTC. See Section 4.4.8, Date and Time Reported in a Domain Based on Findings.", "score": 0.5008, "match_basis": "verbatim_token+domain_route:LB"}, {"md_atom_id": "md_dmLB_assn_a007", "md_file": "knowledge_base/domains/LB/assumptions.md", "md_atom_type": "LIST_ITEM", "md_parent_section": "§LB [LB — Assumptions]", "md_verbatim": "6. A value derived by a central lab according to its procedures is considered collected rather than derived. See Section 4.1.8.1, Origin Metadata for Variables.", "score": 0.4882, "match_basis": "verbatim_token+domain_route:LB"}, {"md_atom_id": "md_dmLB_ex_a014", "md_file": "knowledge_base/domains/LB/examples.md", "md_atom_type": "SENTENCE", "md_parent_section": "§LB.1 [Example 1]", "md_verbatim": "**Row 17:** Shows use of LBPTFL set to \"Y\" to indicate that the test used a sample taken at a single point in time.", "score": 0.4742, "match_basis": "verbatim_token+domain_route:LB"}, {"md_atom_id": "md_dmLB_assn_a008", "md_file": "knowledge_base/domains/LB/assumptions.md", "md_atom_type": "LIST_ITEM", "md_parent_section": "§LB [LB — Assumptions]", "md_verbatim": "7. The variable LBORRESU uses the UNIT codelist. This means that sponsors should be submitting a term from the CDISC Submission Value column in the published Controlled Terminology List that is maintained for CDISC by NCI EVS. When sponsors have units that are not in this column, they should first check to see if their unit is mathematically synonymous with an existing/published unit from the UNIT codelist and submit their lab values using the published CDISC submission value. Example: \"g/L\" and \"mg/mL\" are mathematically synonymous, but only \"g/L\" is the submission value in the CDISC Unit codelist. If this is not the case, the unit must be added as a codelist extensible value in the Define.xml, and a new-term request must be submitted.", "score": 0.4698, "match_basis": "verbatim_token+domain_route:LB"}], "candidate_count": 5, "zero_candidate": false}
{"pdf_atom_id": "ig34_p0246_a014", "pdf_atom_type": "LIST_ITEM", "pdf_source": "SDTMIG_v3.4", "pdf_page": 246, "pdf_parent_section": "§6.3.5.6 Laboratory Test Results (LB)", "pdf_verbatim": "Rows 12-13:   Show a suggested use of the LBSCAT variable. LBSCAT could be used to further classify types of tests within a laboratory panel (e.g., \"DIFFERENTIAL\"). The LYMLE result was evaluated by the investigator and determined to be not clinically significant.", "figure_ref": null, "candidates": [{"md_atom_id": "md_dmLB_ex_a011", "md_file": "knowledge_base/domains/LB/examples.md", "md_atom_type": "SENTENCE", "md_parent_section": "§LB.1 [Example 1]", "md_verbatim": "**Rows 12-13:** Show a suggested use of the LBSCAT variable. LBSCAT could be used to further classify types of tests within a laboratory panel (e.g., \"DIFFERENTIAL\"). The LYMLE result was evaluated by the investigator and determined to be not clinically significant.", "score": 0.91, "match_basis": "verbatim_token+domain_route:LB"}, {"md_atom_id": "md_dmLB_ex_a015", "md_file": "knowledge_base/domains/LB/examples.md", "md_atom_type": "SENTENCE", "md_parent_section": "§LB.1 [Example 1]", "md_verbatim": "**Row 18:** Shows use of LBSTNRC for urine protein that is not reported as a continuous numeric result. The result was evaluated by the investigator and determined to be not clinically significant.", "score": 0.5417, "match_basis": "verbatim_token+domain_route:LB"}, {"md_atom_id": "md_dmLB_assn_a004", "md_file": "knowledge_base/domains/LB/assumptions.md", "md_atom_type": "LIST_ITEM", "md_parent_section": "§LB [LB — Assumptions]", "md_verbatim": "3. LBNRIND can be added to indicate where a result falls with respect to reference range defined by LBORNRLO and LBORNRHI. Examples: \"HIGH\", \"LOW\". If toxicity grading is available, values would be represented in the variables LBTOX and LBTOXGR. Clinical significance would be represented as described in Section 4.5.5, Clinical Significance for Findings Observation Class Data, in LBCLSIG (see also LB Example 1).", "score": 0.5312, "match_basis": "verbatim_token+domain_route:LB"}, {"md_atom_id": "md_dmLB_assn_a010", "md_file": "knowledge_base/domains/LB/assumptions.md", "md_atom_type": "LIST_ITEM", "md_parent_section": "§LB [LB — Assumptions]", "md_verbatim": "8. The LBLOINC variable contains a code from the Logical Observation Identifiers Names and Codes (LOINC) database that identifies a specific laboratory test. The LOINC to LB Mapping Codetable, available at https://www.cdisc.org/standards/terminology/controlled-terminology, may be used to identify appropriate CDISC CT values for a test with a particular LOINC code. In addition to LBTEST, LBSPEC, LBMETHOD, and LBORRESU, the aspects of a test that are associated with a LOINC code may be represented in the variables LBTPT, LBANMETH, LBTSTCND, LBBDAGNT, LBTSTOPO, LBRESSCL, LBRESTYP, LBCOLSRT, LBLLOD, LBPTFL, and LBPDUR. These additional variables are only required to be populated when necessary to provide a semantically meaningful distinction between records with different LBLOINC values.", "score": 0.4941, "match_basis": "verbatim_token+domain_route:LB"}, {"md_atom_id": "md_dmLB_assn_a003", "md_file": "knowledge_base/domains/LB/assumptions.md", "md_atom_type": "LIST_ITEM", "md_parent_section": "§LB [LB — Assumptions]", "md_verbatim": "2. For lab tests that do not have continuous numeric results (e.g., urine protein as measured by dipstick, descriptive tests such as urine color), LBSTNRC could be populated either with normal range values that are a range of character values for an ordinal scale (e.g., \"NEGATIVE to TRACE\") or a delimited set of values that are considered to be normal (e.g., \"YELLOW\", \"AMBER\"). LBORNRLO, LBORNRHI, LBSTNRLO, and LBSTNRHI should be null for these types of tests.", "score": 0.4905, "match_basis": "verbatim_token+domain_route:LB"}], "candidate_count": 5, "zero_candidate": false}
{"pdf_atom_id": "ig34_p0246_a015", "pdf_atom_type": "LIST_ITEM", "pdf_source": "SDTMIG_v3.4", "pdf_page": 246, "pdf_parent_section": "§6.3.5.6 Laboratory Test Results (LB)", "pdf_verbatim": "Row 15:   Shows the proper use of the LBSTAT variable to indicate \"NOT DONE\", where a reason was collected when a test was not done. LBRESSCL, LBRESTYP, LBLOINC, LBSPEC, LBMETHOD, and LBPTFL are populated to describe the properties of the test that was not done.", "figure_ref": null, "candidates": [{"md_atom_id": "md_dmLB_ex_a012", "md_file": "knowledge_base/domains/LB/examples.md", "md_atom_type": "SENTENCE", "md_parent_section": "§LB.1 [Example 1]", "md_verbatim": "**Row 15:** Shows the proper use of the LBSTAT variable to indicate \"NOT DONE\", where a reason was collected when a test was not done. LBRESSCL, LBRESTYP, LBLOINC, LBSPEC, LBMETHOD, and LBPTFL are populated to describe the properties of the test that was not done.", "score": 0.91, "match_basis": "verbatim_token+domain_route:LB"}, {"md_atom_id": "md_dmLB_assn_a010", "md_file": "knowledge_base/domains/LB/assumptions.md", "md_atom_type": "LIST_ITEM", "md_parent_section": "§LB [LB — Assumptions]", "md_verbatim": "8. The LBLOINC variable contains a code from the Logical Observation Identifiers Names and Codes (LOINC) database that identifies a specific laboratory test. The LOINC to LB Mapping Codetable, available at https://www.cdisc.org/standards/terminology/controlled-terminology, may be used to identify appropriate CDISC CT values for a test with a particular LOINC code. In addition to LBTEST, LBSPEC, LBMETHOD, and LBORRESU, the aspects of a test that are associated with a LOINC code may be represented in the variables LBTPT, LBANMETH, LBTSTCND, LBBDAGNT, LBTSTOPO, LBRESSCL, LBRESTYP, LBCOLSRT, LBLLOD, LBPTFL, and LBPDUR. These additional variables are only required to be populated when necessary to provide a semantically meaningful distinction between records with different LBLOINC values.", "score": 0.5212, "match_basis": "verbatim_token+domain_route:LB"}, {"md_atom_id": "md_dmLB_assn_a005", "md_file": "knowledge_base/domains/LB/assumptions.md", "md_atom_type": "LIST_ITEM", "md_parent_section": "§LB [LB — Assumptions]", "md_verbatim": "4. For lab tests where the specimen is collected over time (e.g., 24-hour urine collection), the start date/time of the collection goes into LBDTC and the end date/time of collection goes into LBENDTC. See Section 4.4.8, Date and Time Reported in a Domain Based on Findings.", "score": 0.4845, "match_basis": "verbatim_token+domain_route:LB"}, {"md_atom_id": "md_dmLB_assn_a003", "md_file": "knowledge_base/domains/LB/assumptions.md", "md_atom_type": "LIST_ITEM", "md_parent_section": "§LB [LB — Assumptions]", "md_verbatim": "2. For lab tests that do not have continuous numeric results (e.g., urine protein as measured by dipstick, descriptive tests such as urine color), LBSTNRC could be populated either with normal range values that are a range of character values for an ordinal scale (e.g., \"NEGATIVE to TRACE\") or a delimited set of values that are considered to be normal (e.g., \"YELLOW\", \"AMBER\"). LBORNRLO, LBORNRHI, LBSTNRLO, and LBSTNRHI should be null for these types of tests.", "score": 0.4837, "match_basis": "verbatim_token+domain_route:LB"}, {"md_atom_id": "md_dmLB_assn_a007", "md_file": "knowledge_base/domains/LB/assumptions.md", "md_atom_type": "LIST_ITEM", "md_parent_section": "§LB [LB — Assumptions]", "md_verbatim": "6. A value derived by a central lab according to its procedures is considered collected rather than derived. See Section 4.1.8.1, Origin Metadata for Variables.", "score": 0.4828, "match_basis": "verbatim_token+domain_route:LB"}], "candidate_count": 5, "zero_candidate": false}
{"pdf_atom_id": "ig34_p0247_a001", "pdf_atom_type": "LIST_ITEM", "pdf_source": "SDTMIG_v3.4", "pdf_page": 247, "pdf_parent_section": "§6.3.5.6 Laboratory Test Results (LB)", "pdf_verbatim": "Row 16:   Shows measuring of the subject's cholesterol. The normal range for this test is <200 mg/dL. Note that although in this example the sponsor has decided to make LBSTNRHI=\"199\", other sponsors may choose a different value.", "figure_ref": null, "candidates": [{"md_atom_id": "md_dmLB_ex_a013", "md_file": "knowledge_base/domains/LB/examples.md", "md_atom_type": "SENTENCE", "md_parent_section": "§LB.1 [Example 1]", "md_verbatim": "**Row 16:** Shows measuring of the subject's cholesterol. The normal range for this test is <200 mg/dL. Note that although in this example the sponsor has decided to make LBSTNRHI=\"199\", other sponsors may choose a different value.", "score": 0.91, "match_basis": "verbatim_token+domain_route:LB"}, {"md_atom_id": "md_dmLB_assn_a003", "md_file": "knowledge_base/domains/LB/assumptions.md", "md_atom_type": "LIST_ITEM", "md_parent_section": "§LB [LB — Assumptions]", "md_verbatim": "2. For lab tests that do not have continuous numeric results (e.g., urine protein as measured by dipstick, descriptive tests such as urine color), LBSTNRC could be populated either with normal range values that are a range of character values for an ordinal scale (e.g., \"NEGATIVE to TRACE\") or a delimited set of values that are considered to be normal (e.g., \"YELLOW\", \"AMBER\"). LBORNRLO, LBORNRHI, LBSTNRLO, and LBSTNRHI should be null for these types of tests.", "score": 0.5078, "match_basis": "verbatim_token+domain_route:LB"}, {"md_atom_id": "md_dmLB_assn_a008", "md_file": "knowledge_base/domains/LB/assumptions.md", "md_atom_type": "LIST_ITEM", "md_parent_section": "§LB [LB — Assumptions]", "md_verbatim": "7. The variable LBORRESU uses the UNIT codelist. This means that sponsors should be submitting a term from the CDISC Submission Value column in the published Controlled Terminology List that is maintained for CDISC by NCI EVS. When sponsors have units that are not in this column, they should first check to see if their unit is mathematically synonymous with an existing/published unit from the UNIT codelist and submit their lab values using the published CDISC submission value. Example: \"g/L\" and \"mg/mL\" are mathematically synonymous, but only \"g/L\" is the submission value in the CDISC Unit codelist. If this is not the case, the unit must be added as a codelist extensible value in the Define.xml, and a new-term request must be submitted.", "score": 0.4763, "match_basis": "verbatim_token+domain_route:LB"}, {"md_atom_id": "md_dmLB_assn_a004", "md_file": "knowledge_base/domains/LB/assumptions.md", "md_atom_type": "LIST_ITEM", "md_parent_section": "§LB [LB — Assumptions]", "md_verbatim": "3. LBNRIND can be added to indicate where a result falls with respect to reference range defined by LBORNRLO and LBORNRHI. Examples: \"HIGH\", \"LOW\". If toxicity grading is available, values would be represented in the variables LBTOX and LBTOXGR. Clinical significance would be represented as described in Section 4.5.5, Clinical Significance for Findings Observation Class Data, in LBCLSIG (see also LB Example 1).", "score": 0.4704, "match_basis": "verbatim_token+domain_route:LB"}, {"md_atom_id": "md_dmLB_assn_a007", "md_file": "knowledge_base/domains/LB/assumptions.md", "md_atom_type": "LIST_ITEM", "md_parent_section": "§LB [LB — Assumptions]", "md_verbatim": "6. A value derived by a central lab according to its procedures is considered collected rather than derived. See Section 4.1.8.1, Origin Metadata for Variables.", "score": 0.4564, "match_basis": "verbatim_token+domain_route:LB"}], "candidate_count": 5, "zero_candidate": false}
{"pdf_atom_id": "ig34_p0247_a002", "pdf_atom_type": "LIST_ITEM", "pdf_source": "SDTMIG_v3.4", "pdf_page": 247, "pdf_parent_section": "§6.3.5.6 Laboratory Test Results (LB)", "pdf_verbatim": "Row 17:   Shows use of LBPTFL set to \"Y\" to indicate that the test used a sample taken at a single point in time.", "figure_ref": null, "candidates": [{"md_atom_id": "md_dmLB_ex_a014", "md_file": "knowledge_base/domains/LB/examples.md", "md_atom_type": "SENTENCE", "md_parent_section": "§LB.1 [Example 1]", "md_verbatim": "**Row 17:** Shows use of LBPTFL set to \"Y\" to indicate that the test used a sample taken at a single point in time.", "score": 0.91, "match_basis": "verbatim_token+domain_route:LB"}, {"md_atom_id": "md_dmLB_ex_a010", "md_file": "knowledge_base/domains/LB/examples.md", "md_atom_type": "SENTENCE", "md_parent_section": "§LB.1 [Example 1]", "md_verbatim": "**Row 9:** Shows use of LBPDUR to represent the planned duration of \"PT24H\" for collection of urine samples for the protein test. LBPTFL is set to indicate that this test was not conducted at a single point in time.", "score": 0.5418, "match_basis": "verbatim_token+domain_route:LB"}, {"md_atom_id": "md_dmLB_ex_a005", "md_file": "knowledge_base/domains/LB/examples.md", "md_atom_type": "SENTENCE", "md_parent_section": "§LB.1 [Example 1]", "md_verbatim": "**Rows 2-3:** Show 2 records for alkaline phosphatase done at the same visit, a day apart. LBPTFL is set to \"Y\" for both rows because each result is based on a sample from a single point in time.", "score": 0.498, "match_basis": "verbatim_token+domain_route:LB"}, {"md_atom_id": "md_dmLB_assn_a005", "md_file": "knowledge_base/domains/LB/assumptions.md", "md_atom_type": "LIST_ITEM", "md_parent_section": "§LB [LB — Assumptions]", "md_verbatim": "4. For lab tests where the specimen is collected over time (e.g., 24-hour urine collection), the start date/time of the collection goes into LBDTC and the end date/time of collection goes into LBENDTC. See Section 4.4.8, Date and Time Reported in a Domain Based on Findings.", "score": 0.468, "match_basis": "verbatim_token+domain_route:LB"}, {"md_atom_id": "md_dmLB_assn_a006", "md_file": "knowledge_base/domains/LB/assumptions.md", "md_atom_type": "LIST_ITEM", "md_parent_section": "§LB [LB — Assumptions]", "md_verbatim": "5. Any Identifiers, Timing variables, or Findings general observation class qualifiers may be added to the LB domain, but the following qualifiers would not generally be used: --BODSYS, --SEV.", "score": 0.4393, "match_basis": "verbatim_token+domain_route:LB"}], "candidate_count": 5, "zero_candidate": false}
{"pdf_atom_id": "ig34_p0247_a003", "pdf_atom_type": "LIST_ITEM", "pdf_source": "SDTMIG_v3.4", "pdf_page": 247, "pdf_parent_section": "§6.3.5.6 Laboratory Test Results (LB)", "pdf_verbatim": "Row 18:   Shows use of LBSTNRC for urine protein that is not reported as a continuous numeric result. The result was evaluated by the investigator and determined to be not clinically significant.", "figure_ref": null, "candidates": [{"md_atom_id": "md_dmLB_ex_a015", "md_file": "knowledge_base/domains/LB/examples.md", "md_atom_type": "SENTENCE", "md_parent_section": "§LB.1 [Example 1]", "md_verbatim": "**Row 18:** Shows use of LBSTNRC for urine protein that is not reported as a continuous numeric result. The result was evaluated by the investigator and determined to be not clinically significant.", "score": 0.91, "match_basis": "verbatim_token+domain_route:LB"}, {"md_atom_id": "md_dmLB_assn_a003", "md_file": "knowledge_base/domains/LB/assumptions.md", "md_atom_type": "LIST_ITEM", "md_parent_section": "§LB [LB — Assumptions]", "md_verbatim": "2. For lab tests that do not have continuous numeric results (e.g., urine protein as measured by dipstick, descriptive tests such as urine color), LBSTNRC could be populated either with normal range values that are a range of character values for an ordinal scale (e.g., \"NEGATIVE to TRACE\") or a delimited set of values that are considered to be normal (e.g., \"YELLOW\", \"AMBER\"). LBORNRLO, LBORNRHI, LBSTNRLO, and LBSTNRHI should be null for these types of tests.", "score": 0.5423, "match_basis": "verbatim_token+domain_route:LB"}, {"md_atom_id": "md_dmLB_ex_a011", "md_file": "knowledge_base/domains/LB/examples.md", "md_atom_type": "SENTENCE", "md_parent_section": "§LB.1 [Example 1]", "md_verbatim": "**Rows 12-13:** Show a suggested use of the LBSCAT variable. LBSCAT could be used to further classify types of tests within a laboratory panel (e.g., \"DIFFERENTIAL\"). The LYMLE result was evaluated by the investigator and determined to be not clinically significant.", "score": 0.5417, "match_basis": "verbatim_token+domain_route:LB"}, {"md_atom_id": "md_dmLB_ex_a004", "md_file": "knowledge_base/domains/LB/examples.md", "md_atom_type": "SENTENCE", "md_parent_section": "§LB.1 [Example 1]", "md_verbatim": "**Row 1:** Shows a value collected in 1 unit, but converted to selected standard unit. See Section 4.5.1, Original and Standardized Results of Findings and Tests Not Done, for additional examples for the population of result qualifiers. The result was evaluated by the investigator and determined to be not clinically significant.", "score": 0.524, "match_basis": "verbatim_token+domain_route:LB"}, {"md_atom_id": "md_dmLB_assn_a004", "md_file": "knowledge_base/domains/LB/assumptions.md", "md_atom_type": "LIST_ITEM", "md_parent_section": "§LB [LB — Assumptions]", "md_verbatim": "3. LBNRIND can be added to indicate where a result falls with respect to reference range defined by LBORNRLO and LBORNRHI. Examples: \"HIGH\", \"LOW\". If toxicity grading is available, values would be represented in the variables LBTOX and LBTOXGR. Clinical significance would be represented as described in Section 4.5.5, Clinical Significance for Findings Observation Class Data, in LBCLSIG (see also LB Example 1).", "score": 0.4845, "match_basis": "verbatim_token+domain_route:LB"}], "candidate_count": 5, "zero_candidate": false}
{"pdf_atom_id": "ig34_p0247_a004", "pdf_atom_type": "CODE_LITERAL", "pdf_source": "SDTMIG_v3.4", "pdf_page": 247, "pdf_parent_section": "§6.3.5.6 Laboratory Test Results (LB)", "pdf_verbatim": "lb.xpt", "figure_ref": null, "candidates": [{"md_atom_id": "md_dmLB_ex_a016", "md_file": "knowledge_base/domains/LB/examples.md", "md_atom_type": "SENTENCE", "md_parent_section": "§LB.1 [Example 1]", "md_verbatim": "**lb.xpt**", "score": 0.79, "match_basis": "verbatim_token+domain_route:LB"}, {"md_atom_id": "md_dmLB_ex_a022", "md_file": "knowledge_base/domains/LB/examples.md", "md_atom_type": "SENTENCE", "md_parent_section": "§LB.2 [Example 2]", "md_verbatim": "**lb.xpt**", "score": 0.79, "match_basis": "verbatim_token+domain_route:LB"}, {"md_atom_id": "md_dmLB_ex_a031", "md_file": "knowledge_base/domains/LB/examples.md", "md_atom_type": "SENTENCE", "md_parent_section": "§LB.3 [Example 3]", "md_verbatim": "**lb.xpt**", "score": 0.79, "match_basis": "verbatim_token+domain_route:LB"}, {"md_atom_id": "md_dmLB_ex_a040", "md_file": "knowledge_base/domains/LB/examples.md", "md_atom_type": "SENTENCE", "md_parent_section": "§LB.4 [Example 4]", "md_verbatim": "**lb.xpt**", "score": 0.79, "match_basis": "verbatim_token+domain_route:LB"}, {"md_atom_id": "md_dmLB_ex_a051", "md_file": "knowledge_base/domains/LB/examples.md", "md_atom_type": "SENTENCE", "md_parent_section": "§LB.5 [Example 5]", "md_verbatim": "**lb.xpt**", "score": 0.79, "match_basis": "verbatim_token+domain_route:LB"}, {"md_atom_id": "md_dmLB_assn_a001", "md_file": "knowledge_base/domains/LB/assumptions.md", "md_atom_type": "HEADING", "md_parent_section": "§LB [LB — Assumptions]", "md_verbatim": "# LB — Assumptions", "score": 0.19, "match_basis": "verbatim_token+domain_route:LB"}, {"md_atom_id": "md_dmLB_assn_a002", "md_file": "knowledge_base/domains/LB/assumptions.md", "md_atom_type": "LIST_ITEM", "md_parent_section": "§LB [LB — Assumptions]", "md_verbatim": "1. This domain captures laboratory data collected on the CRF or received from a central provider or vendor.", "score": 0.19, "match_basis": "verbatim_token+domain_route:LB"}, {"md_atom_id": "md_dmLB_assn_a003", "md_file": "knowledge_base/domains/LB/assumptions.md", "md_atom_type": "LIST_ITEM", "md_parent_section": "§LB [LB — Assumptions]", "md_verbatim": "2. For lab tests that do not have continuous numeric results (e.g., urine protein as measured by dipstick, descriptive tests such as urine color), LBSTNRC could be populated either with normal range values that are a range of character values for an ordinal scale (e.g., \"NEGATIVE to TRACE\") or a delimited set of values that are considered to be normal (e.g., \"YELLOW\", \"AMBER\"). LBORNRLO, LBORNRHI, LBSTNRLO, and LBSTNRHI should be null for these types of tests.", "score": 0.19, "match_basis": "verbatim_token+domain_route:LB"}, {"md_atom_id": "md_dmLB_assn_a004", "md_file": "knowledge_base/domains/LB/assumptions.md", "md_atom_type": "LIST_ITEM", "md_parent_section": "§LB [LB — Assumptions]", "md_verbatim": "3. LBNRIND can be added to indicate where a result falls with respect to reference range defined by LBORNRLO and LBORNRHI. Examples: \"HIGH\", \"LOW\". If toxicity grading is available, values would be represented in the variables LBTOX and LBTOXGR. Clinical significance would be represented as described in Section 4.5.5, Clinical Significance for Findings Observation Class Data, in LBCLSIG (see also LB Example 1).", "score": 0.19, "match_basis": "verbatim_token+domain_route:LB"}, {"md_atom_id": "md_dmLB_assn_a005", "md_file": "knowledge_base/domains/LB/assumptions.md", "md_atom_type": "LIST_ITEM", "md_parent_section": "§LB [LB — Assumptions]", "md_verbatim": "4. For lab tests where the specimen is collected over time (e.g., 24-hour urine collection), the start date/time of the collection goes into LBDTC and the end date/time of collection goes into LBENDTC. See Section 4.4.8, Date and Time Reported in a Domain Based on Findings.", "score": 0.19, "match_basis": "verbatim_token+domain_route:LB"}], "candidate_count": 10, "zero_candidate": false}
{"pdf_atom_id": "ig34_p0247_a005", "pdf_atom_type": "TABLE_HEADER", "pdf_source": "SDTMIG_v3.4", "pdf_page": 247, "pdf_parent_section": "§6.3.5.6 Laboratory Test Results (LB)", "pdf_verbatim": "| Row | STUDYID | DOMAIN | USUBJID | LBSEQ | LBTESTCD | LBTEST | LBCAT | LBSCAT | LBORRES | LBORRESU | LBRESSCL | LBRESTYP | LBCOLSRT | LBSTRESC | LBSTRESN | LBSTRESU | LBSTNRLO | LBSTNRHI | LBSTNRC | LBNRIND | LBSTAT | LBREASND | LBLOINC | LBSPEC | LBSPCCND | LBMETHOD | LBANMETH | LBBLFL | LBLOBXFL | LBFAST | LBDRVFL | LBPTFL | LBPDUR | VISITNUM | VISIT | LBDTC | LBENDTC | LBSTDTC | LBTMTHSN | LBTSTCND | LBLLOD | LBPOS | LBBDAGNT | LBTSTOPO | LBRESTYP | LBLOC | LBTPT | LBTPTREF | LBTPTNUM | LBELTM | LBRFTDTC |", "figure_ref": null, "candidates": [{"md_atom_id": "md_dmLB_ex_a023", "md_file": "knowledge_base/domains/LB/examples.md", "md_atom_type": "TABLE_HEADER", "md_parent_section": "§LB.2 [Example 2]", "md_verbatim": "| Row | STUDYID | DOMAIN | USUBJID | LBSEQ | LBTESTCD | LBTEST | LBCAT | LBORRES | LBORRESU | LBSTRESC | LBSTRESN | LBSTRESU | LBSPEC | LBMETHOD | LBBLFL | LBDRVFL | LBLOINC | LBPTFL | LBPDUR | LBTPT | LBTPTNUM | LBTPTREF | LBRFDTC | LBELTM | VISITNUM | VISIT | LBDTC | LBENDTC |\n|-----|---------|--------|---------|-------|----------|--------|-------|---------|----------|----------|----------|----------|--------|----------|--------|---------|---------|--------|--------|-------|----------|----------|---------|--------|----------|-------|-------|---------|", "score": 0.7273, "match_basis": "verbatim_token+domain_route:LB"}, {"md_atom_id": "md_dmLB_ex_a032", "md_file": "knowledge_base/domains/LB/examples.md", "md_atom_type": "TABLE_HEADER", "md_parent_section": "§LB.3 [Example 3]", "md_verbatim": "| Row | STUDYID | DOMAIN | USUBJID | LBSEQ | LBTESTCD | LBTEST | LBCAT | LBORRES | LBORRESU | LBSTRESC | LBSTRESN | LBSTRESU | LBNRIND | LBSTAT | LBREASND | LBLOINC | LBSPEC | LBMETHOD | VISITNUM | VISIT | LBDTC | LBPTFL |\n|-----|---------|--------|---------|-------|----------|--------|-------|---------|----------|----------|----------|----------|---------|--------|----------|---------|--------|----------|----------|-------|-------|--------|", "score": 0.6871, "match_basis": "verbatim_token+domain_route:LB"}, {"md_atom_id": "md_dmLB_ex_a041", "md_file": "knowledge_base/domains/LB/examples.md", "md_atom_type": "TABLE_HEADER", "md_parent_section": "§LB.4 [Example 4]", "md_verbatim": "| Row | STUDYID | DOMAIN | USUBJID | LBGRPID | LBSEQ | LBTESTCD | LBTEST | LBTSTOPO | LBCAT | LBORRES | LBORRESU | LBSTRESC | LBSTRESN | LBSTRESU | LBLOINC | LBSPEC | LBMETHOD | LBLOBXFL | LBDTC | VISITNUM | VISIT |\n|-----|---------|--------|---------|---------|-------|----------|--------|----------|-------|---------|----------|----------|----------|----------|---------|--------|----------|----------|-------|----------|-------|", "score": 0.65, "match_basis": "verbatim_token+domain_route:LB"}, {"md_atom_id": "md_dmLB_ex_a052", "md_file": "knowledge_base/domains/LB/examples.md", "md_atom_type": "TABLE_HEADER", "md_parent_section": "§LB.5 [Example 5]", "md_verbatim": "| Row | STUDYID | DOMAIN | USUBJID | LBSEQ | LBTESTCD | LBTEST | LBBDAGNT | LBCAT | LBORRES | LBORRESU | LBSTRESC | LBSTRESN | LBSTRESU | LBSPEC | LBMETHOD | LBDTC | VISITNUM | VISIT |\n|-----|---------|--------|---------|-------|----------|--------|----------|-------|---------|----------|----------|----------|----------|--------|----------|-------|----------|-------|", "score": 0.6282, "match_basis": "verbatim_token+domain_route:LB"}, {"md_atom_id": "md_dmLB_ex_a017", "md_file": "knowledge_base/domains/LB/examples.md", "md_atom_type": "SENTENCE", "md_parent_section": "§LB.1 [Example 1]", "md_verbatim": "*Note: The LB Example 1 table contains 18 rows and over 30 columns including STUDYID, DOMAIN, USUBJID, LBSEQ, LBGRPID, LBTESTCD, LBTEST, LBCAT, LBSCAT, LBORRES, LBORRESU, LBORNRLO, LBORNRHI, LBSTRESC, LBSTRESN, LBSTRESU, LBSTNRLO, LBSTNRHI, LBSTNRC, LBNRIND, LBSTAT, LBREASND, LBNAM, LBLOINC, LBSPEC, LBMETHOD, LBBLFL, LBFAST, LBDRVFL, LBTOX, LBTOXGR, LBCLSIG, LBRESSCL, LBRESTYP, LBCOLSRT, LBLLOD, LBTMTHSN, LBTSTCND, LBPTFL, LBPDUR, VISITNUM, VISIT, LBDTC, LBENDTC. Representative test types include Albumin, Alkaline Phosphatase (with derived mean/max), C-Reactive Protein (high sensitivity), Cryoglobulin, Prostate Specific Antigen, Protein (24h urine), Platelet Aggregation, WBC, Lymphocytes, Monocytes, Neutrophils, Cholesterol, and Urine Protein.*", "score": 0.4253, "match_basis": "verbatim_token+domain_route:LB"}], "candidate_count": 5, "zero_candidate": false}
{"pdf_atom_id": "ig34_p0247_a006", "pdf_atom_type": "HEADING", "pdf_source": "SDTMIG_v3.4", "pdf_page": 247, "pdf_parent_section": "§6.3.5.6 Laboratory Test Results (LB)", "pdf_verbatim": "Example 2", "figure_ref": null, "candidates": [{"md_atom_id": "md_dmLB_ex_a002", "md_file": "knowledge_base/domains/LB/examples.md", "md_atom_type": "HEADING", "md_parent_section": "§LB [LB — Examples]", "md_verbatim": "## Example 1", "score": 1.0, "match_basis": "verbatim_token+domain_route:LB"}, {"md_atom_id": "md_dmLB_ex_a018", "md_file": "knowledge_base/domains/LB/examples.md", "md_atom_type": "HEADING", "md_parent_section": "§LB [LB — Examples]", "md_verbatim": "## Example 2", "score": 1.0, "match_basis": "verbatim_token+domain_route:LB"}, {"md_atom_id": "md_dmLB_ex_a027", "md_file": "knowledge_base/domains/LB/examples.md", "md_atom_type": "HEADING", "md_parent_section": "§LB [LB — Examples]", "md_verbatim": "## Example 3", "score": 1.0, "match_basis": "verbatim_token+domain_route:LB"}, {"md_atom_id": "md_dmLB_ex_a035", "md_file": "knowledge_base/domains/LB/examples.md", "md_atom_type": "HEADING", "md_parent_section": "§LB [LB — Examples]", "md_verbatim": "## Example 4", "score": 1.0, "match_basis": "verbatim_token+domain_route:LB"}, {"md_atom_id": "md_dmLB_ex_a045", "md_file": "knowledge_base/domains/LB/examples.md", "md_atom_type": "HEADING", "md_parent_section": "§LB [LB — Examples]", "md_verbatim": "## Example 5", "score": 1.0, "match_basis": "verbatim_token+domain_route:LB"}, {"md_atom_id": "md_dmLB_ex_a001", "md_file": "knowledge_base/domains/LB/examples.md", "md_atom_type": "HEADING", "md_parent_section": "§LB [LB — Examples]", "md_verbatim": "# LB — Examples", "score": 0.9, "match_basis": "verbatim_token+domain_route:LB"}, {"md_atom_id": "md_dmLB_assn_a001", "md_file": "knowledge_base/domains/LB/assumptions.md", "md_atom_type": "HEADING", "md_parent_section": "§LB [LB — Assumptions]", "md_verbatim": "# LB — Assumptions", "score": 0.4, "match_basis": "verbatim_token+domain_route:LB"}], "candidate_count": 7, "zero_candidate": false}
{"pdf_atom_id": "ig34_p0247_a007", "pdf_atom_type": "SENTENCE", "pdf_source": "SDTMIG_v3.4", "pdf_page": 247, "pdf_parent_section": "§6.3.5.6 Laboratory Test Results (LB)", "pdf_verbatim": "This example illustrates the use of timing variables for pre- and post-dose timed urine collections.", "figure_ref": null, "candidates": [{"md_atom_id": "md_dmLB_ex_a019", "md_file": "knowledge_base/domains/LB/examples.md", "md_atom_type": "SENTENCE", "md_parent_section": "§LB.2 [Example 2]", "md_verbatim": "This example illustrates the use of timing variables for pre- and post-dose timed urine collections.", "score": 1.0, "match_basis": "verbatim_token+domain_route:LB"}, {"md_atom_id": "md_dmLB_ex_a036", "md_file": "knowledge_base/domains/LB/examples.md", "md_atom_type": "SENTENCE", "md_parent_section": "§LB.4 [Example 4]", "md_verbatim": "This example illustrates the use of the LBTSTOPO variable to identify the tests that screen, confirm, and quantify the presence of a substance.", "score": 0.5753, "match_basis": "verbatim_token+domain_route:LB"}, {"md_atom_id": "md_dmLB_ex_a010", "md_file": "knowledge_base/domains/LB/examples.md", "md_atom_type": "SENTENCE", "md_parent_section": "§LB.1 [Example 1]", "md_verbatim": "**Row 9:** Shows use of LBPDUR to represent the planned duration of \"PT24H\" for collection of urine samples for the protein test. LBPTFL is set to indicate that this test was not conducted at a single point in time.", "score": 0.5514, "match_basis": "verbatim_token+domain_route:LB"}, {"md_atom_id": "md_dmLB_ex_a028", "md_file": "knowledge_base/domains/LB/examples.md", "md_atom_type": "SENTENCE", "md_parent_section": "§LB.3 [Example 3]", "md_verbatim": "This example illustrates the use of LBSTAT and LBREASND when there is no data value reported in LBORRES.", "score": 0.5425, "match_basis": "verbatim_token+domain_route:LB"}, {"md_atom_id": "md_dmLB_ex_a021", "md_file": "knowledge_base/domains/LB/examples.md", "md_atom_type": "SENTENCE", "md_parent_section": "§LB.2 [Example 2]", "md_verbatim": "**Rows 2-3:** Show an example of post-dose urine collection intervals with values for LBELTM that reflect the end of the intervals in reference to the fixed reference LBTPTREF, the date of which is recorded in LBRFDTC.", "score": 0.5314, "match_basis": "verbatim_token+domain_route:LB"}], "candidate_count": 5, "zero_candidate": false}
{"pdf_atom_id": "ig34_p0247_a008", "pdf_atom_type": "LIST_ITEM", "pdf_source": "SDTMIG_v3.4", "pdf_page": 247, "pdf_parent_section": "§6.3.5.6 Laboratory Test Results (LB)", "pdf_verbatim": "Row 1:   Shows an example of a pre-dose urine collection interval (from 4 hours prior to dosing until 15 minutes prior to dosing) with a negative value for LBELTM that reflects the end of the interval in reference to the fixed reference LBTPTREF, the date of which is recorded in LBRFTDTC.", "figure_ref": null, "candidates": [{"md_atom_id": "md_dmLB_ex_a020", "md_file": "knowledge_base/domains/LB/examples.md", "md_atom_type": "SENTENCE", "md_parent_section": "§LB.2 [Example 2]", "md_verbatim": "**Row 1:** Shows an example of a pre-dose urine collection interval (from 4 hours prior to dosing until 15 minutes prior to dosing) with a negative value for LBELTM that reflects the end of the interval in reference to the fixed reference LBTPTREF, the date of which is recorded in LBRFDTC.", "score": 0.8812, "match_basis": "verbatim_token+domain_route:LB"}, {"md_atom_id": "md_dmLB_ex_a021", "md_file": "knowledge_base/domains/LB/examples.md", "md_atom_type": "SENTENCE", "md_parent_section": "§LB.2 [Example 2]", "md_verbatim": "**Rows 2-3:** Show an example of post-dose urine collection intervals with values for LBELTM that reflect the end of the intervals in reference to the fixed reference LBTPTREF, the date of which is recorded in LBRFDTC.", "score": 0.71, "match_basis": "verbatim_token+domain_route:LB"}, {"md_atom_id": "md_dmLB_assn_a004", "md_file": "knowledge_base/domains/LB/assumptions.md", "md_atom_type": "LIST_ITEM", "md_parent_section": "§LB [LB — Assumptions]", "md_verbatim": "3. LBNRIND can be added to indicate where a result falls with respect to reference range defined by LBORNRLO and LBORNRHI. Examples: \"HIGH\", \"LOW\". If toxicity grading is available, values would be represented in the variables LBTOX and LBTOXGR. Clinical significance would be represented as described in Section 4.5.5, Clinical Significance for Findings Observation Class Data, in LBCLSIG (see also LB Example 1).", "score": 0.4977, "match_basis": "verbatim_token+domain_route:LB"}, {"md_atom_id": "md_dmLB_assn_a005", "md_file": "knowledge_base/domains/LB/assumptions.md", "md_atom_type": "LIST_ITEM", "md_parent_section": "§LB [LB — Assumptions]", "md_verbatim": "4. For lab tests where the specimen is collected over time (e.g., 24-hour urine collection), the start date/time of the collection goes into LBDTC and the end date/time of collection goes into LBENDTC. See Section 4.4.8, Date and Time Reported in a Domain Based on Findings.", "score": 0.4973, "match_basis": "verbatim_token+domain_route:LB"}, {"md_atom_id": "md_dmLB_assn_a007", "md_file": "knowledge_base/domains/LB/assumptions.md", "md_atom_type": "LIST_ITEM", "md_parent_section": "§LB [LB — Assumptions]", "md_verbatim": "6. A value derived by a central lab according to its procedures is considered collected rather than derived. See Section 4.1.8.1, Origin Metadata for Variables.", "score": 0.4774, "match_basis": "verbatim_token+domain_route:LB"}], "candidate_count": 5, "zero_candidate": false}
{"pdf_atom_id": "ig34_p0247_a009", "pdf_atom_type": "LIST_ITEM", "pdf_source": "SDTMIG_v3.4", "pdf_page": 247, "pdf_parent_section": "§6.3.5.6 Laboratory Test Results (LB)", "pdf_verbatim": "Rows 2-3:   Show an example of post-dose urine collection intervals with values for LBELTM that reflect the end of the intervals in reference to the fixed reference LBTPTREF, the date of which is recorded in LBRFTDTC.", "figure_ref": null, "candidates": [{"md_atom_id": "md_dmLB_ex_a021", "md_file": "knowledge_base/domains/LB/examples.md", "md_atom_type": "SENTENCE", "md_parent_section": "§LB.2 [Example 2]", "md_verbatim": "**Rows 2-3:** Show an example of post-dose urine collection intervals with values for LBELTM that reflect the end of the intervals in reference to the fixed reference LBTPTREF, the date of which is recorded in LBRFDTC.", "score": 0.873, "match_basis": "verbatim_token+domain_route:LB"}, {"md_atom_id": "md_dmLB_ex_a020", "md_file": "knowledge_base/domains/LB/examples.md", "md_atom_type": "SENTENCE", "md_parent_section": "§LB.2 [Example 2]", "md_verbatim": "**Row 1:** Shows an example of a pre-dose urine collection interval (from 4 hours prior to dosing until 15 minutes prior to dosing) with a negative value for LBELTM that reflects the end of the interval in reference to the fixed reference LBTPTREF, the date of which is recorded in LBRFDTC.", "score": 0.71, "match_basis": "verbatim_token+domain_route:LB"}, {"md_atom_id": "md_dmLB_assn_a004", "md_file": "knowledge_base/domains/LB/assumptions.md", "md_atom_type": "LIST_ITEM", "md_parent_section": "§LB [LB — Assumptions]", "md_verbatim": "3. LBNRIND can be added to indicate where a result falls with respect to reference range defined by LBORNRLO and LBORNRHI. Examples: \"HIGH\", \"LOW\". If toxicity grading is available, values would be represented in the variables LBTOX and LBTOXGR. Clinical significance would be represented as described in Section 4.5.5, Clinical Significance for Findings Observation Class Data, in LBCLSIG (see also LB Example 1).", "score": 0.5057, "match_basis": "verbatim_token+domain_route:LB"}, {"md_atom_id": "md_dmLB_assn_a005", "md_file": "knowledge_base/domains/LB/assumptions.md", "md_atom_type": "LIST_ITEM", "md_parent_section": "§LB [LB — Assumptions]", "md_verbatim": "4. For lab tests where the specimen is collected over time (e.g., 24-hour urine collection), the start date/time of the collection goes into LBDTC and the end date/time of collection goes into LBENDTC. See Section 4.4.8, Date and Time Reported in a Domain Based on Findings.", "score": 0.493, "match_basis": "verbatim_token+domain_route:LB"}, {"md_atom_id": "md_dmLB_assn_a007", "md_file": "knowledge_base/domains/LB/assumptions.md", "md_atom_type": "LIST_ITEM", "md_parent_section": "§LB [LB — Assumptions]", "md_verbatim": "6. A value derived by a central lab according to its procedures is considered collected rather than derived. See Section 4.1.8.1, Origin Metadata for Variables.", "score": 0.4806, "match_basis": "verbatim_token+domain_route:LB"}], "candidate_count": 5, "zero_candidate": false}
{"pdf_atom_id": "ig34_p0247_a010", "pdf_atom_type": "CODE_LITERAL", "pdf_source": "SDTMIG_v3.4", "pdf_page": 247, "pdf_parent_section": "§6.3.5.6 Laboratory Test Results (LB)", "pdf_verbatim": "lb.xpt", "figure_ref": null, "candidates": [{"md_atom_id": "md_dmLB_ex_a016", "md_file": "knowledge_base/domains/LB/examples.md", "md_atom_type": "SENTENCE", "md_parent_section": "§LB.1 [Example 1]", "md_verbatim": "**lb.xpt**", "score": 0.79, "match_basis": "verbatim_token+domain_route:LB"}, {"md_atom_id": "md_dmLB_ex_a022", "md_file": "knowledge_base/domains/LB/examples.md", "md_atom_type": "SENTENCE", "md_parent_section": "§LB.2 [Example 2]", "md_verbatim": "**lb.xpt**", "score": 0.79, "match_basis": "verbatim_token+domain_route:LB"}, {"md_atom_id": "md_dmLB_ex_a031", "md_file": "knowledge_base/domains/LB/examples.md", "md_atom_type": "SENTENCE", "md_parent_section": "§LB.3 [Example 3]", "md_verbatim": "**lb.xpt**", "score": 0.79, "match_basis": "verbatim_token+domain_route:LB"}, {"md_atom_id": "md_dmLB_ex_a040", "md_file": "knowledge_base/domains/LB/examples.md", "md_atom_type": "SENTENCE", "md_parent_section": "§LB.4 [Example 4]", "md_verbatim": "**lb.xpt**", "score": 0.79, "match_basis": "verbatim_token+domain_route:LB"}, {"md_atom_id": "md_dmLB_ex_a051", "md_file": "knowledge_base/domains/LB/examples.md", "md_atom_type": "SENTENCE", "md_parent_section": "§LB.5 [Example 5]", "md_verbatim": "**lb.xpt**", "score": 0.79, "match_basis": "verbatim_token+domain_route:LB"}, {"md_atom_id": "md_dmLB_assn_a001", "md_file": "knowledge_base/domains/LB/assumptions.md", "md_atom_type": "HEADING", "md_parent_section": "§LB [LB — Assumptions]", "md_verbatim": "# LB — Assumptions", "score": 0.19, "match_basis": "verbatim_token+domain_route:LB"}, {"md_atom_id": "md_dmLB_assn_a002", "md_file": "knowledge_base/domains/LB/assumptions.md", "md_atom_type": "LIST_ITEM", "md_parent_section": "§LB [LB — Assumptions]", "md_verbatim": "1. This domain captures laboratory data collected on the CRF or received from a central provider or vendor.", "score": 0.19, "match_basis": "verbatim_token+domain_route:LB"}, {"md_atom_id": "md_dmLB_assn_a003", "md_file": "knowledge_base/domains/LB/assumptions.md", "md_atom_type": "LIST_ITEM", "md_parent_section": "§LB [LB — Assumptions]", "md_verbatim": "2. For lab tests that do not have continuous numeric results (e.g., urine protein as measured by dipstick, descriptive tests such as urine color), LBSTNRC could be populated either with normal range values that are a range of character values for an ordinal scale (e.g., \"NEGATIVE to TRACE\") or a delimited set of values that are considered to be normal (e.g., \"YELLOW\", \"AMBER\"). LBORNRLO, LBORNRHI, LBSTNRLO, and LBSTNRHI should be null for these types of tests.", "score": 0.19, "match_basis": "verbatim_token+domain_route:LB"}, {"md_atom_id": "md_dmLB_assn_a004", "md_file": "knowledge_base/domains/LB/assumptions.md", "md_atom_type": "LIST_ITEM", "md_parent_section": "§LB [LB — Assumptions]", "md_verbatim": "3. LBNRIND can be added to indicate where a result falls with respect to reference range defined by LBORNRLO and LBORNRHI. Examples: \"HIGH\", \"LOW\". If toxicity grading is available, values would be represented in the variables LBTOX and LBTOXGR. Clinical significance would be represented as described in Section 4.5.5, Clinical Significance for Findings Observation Class Data, in LBCLSIG (see also LB Example 1).", "score": 0.19, "match_basis": "verbatim_token+domain_route:LB"}, {"md_atom_id": "md_dmLB_assn_a005", "md_file": "knowledge_base/domains/LB/assumptions.md", "md_atom_type": "LIST_ITEM", "md_parent_section": "§LB [LB — Assumptions]", "md_verbatim": "4. For lab tests where the specimen is collected over time (e.g., 24-hour urine collection), the start date/time of the collection goes into LBDTC and the end date/time of collection goes into LBENDTC. See Section 4.4.8, Date and Time Reported in a Domain Based on Findings.", "score": 0.19, "match_basis": "verbatim_token+domain_route:LB"}], "candidate_count": 10, "zero_candidate": false}
{"pdf_atom_id": "ig34_p0247_a011", "pdf_atom_type": "TABLE_HEADER", "pdf_source": "SDTMIG_v3.4", "pdf_page": 247, "pdf_parent_section": "§6.3.5.6 Laboratory Test Results (LB)", "pdf_verbatim": "| Row | STUDYID | DOMAIN | USUBJID | LBSEQ | LBTESTCD | LBTEST | LBCAT | LBORRES | LBORRESU | LBRESSCL | LBRESTYP | LBORNRLO | LBORNRHI | LBSTRESC | LBSTRESN | LBSTRESU | LBSTNRLO | LBSTNRHI | LBNRIND | LBSPEC | LBMETHOD | LBLOBXFL | VISITNUM | VISIT | LBDTC | LBENDTC | LBTPT | LBTPTNUM | LBELTM | LBTPTREF | LBRFTDTC | LBPTFL |", "figure_ref": null, "candidates": [{"md_atom_id": "md_dmLB_ex_a023", "md_file": "knowledge_base/domains/LB/examples.md", "md_atom_type": "TABLE_HEADER", "md_parent_section": "§LB.2 [Example 2]", "md_verbatim": "| Row | STUDYID | DOMAIN | USUBJID | LBSEQ | LBTESTCD | LBTEST | LBCAT | LBORRES | LBORRESU | LBSTRESC | LBSTRESN | LBSTRESU | LBSPEC | LBMETHOD | LBBLFL | LBDRVFL | LBLOINC | LBPTFL | LBPDUR | LBTPT | LBTPTNUM | LBTPTREF | LBRFDTC | LBELTM | VISITNUM | VISIT | LBDTC | LBENDTC |\n|-----|---------|--------|---------|-------|----------|--------|-------|---------|----------|----------|----------|----------|--------|----------|--------|---------|---------|--------|--------|-------|----------|----------|---------|--------|----------|-------|-------|---------|", "score": 0.7864, "match_basis": "verbatim_token+domain_route:LB"}, {"md_atom_id": "md_dmLB_ex_a032", "md_file": "knowledge_base/domains/LB/examples.md", "md_atom_type": "TABLE_HEADER", "md_parent_section": "§LB.3 [Example 3]", "md_verbatim": "| Row | STUDYID | DOMAIN | USUBJID | LBSEQ | LBTESTCD | LBTEST | LBCAT | LBORRES | LBORRESU | LBSTRESC | LBSTRESN | LBSTRESU | LBNRIND | LBSTAT | LBREASND | LBLOINC | LBSPEC | LBMETHOD | VISITNUM | VISIT | LBDTC | LBPTFL |\n|-----|---------|--------|---------|-------|----------|--------|-------|---------|----------|----------|----------|----------|---------|--------|----------|---------|--------|----------|----------|-------|-------|--------|", "score": 0.773, "match_basis": "verbatim_token+domain_route:LB"}, {"md_atom_id": "md_dmLB_ex_a041", "md_file": "knowledge_base/domains/LB/examples.md", "md_atom_type": "TABLE_HEADER", "md_parent_section": "§LB.4 [Example 4]", "md_verbatim": "| Row | STUDYID | DOMAIN | USUBJID | LBGRPID | LBSEQ | LBTESTCD | LBTEST | LBTSTOPO | LBCAT | LBORRES | LBORRESU | LBSTRESC | LBSTRESN | LBSTRESU | LBLOINC | LBSPEC | LBMETHOD | LBLOBXFL | LBDTC | VISITNUM | VISIT |\n|-----|---------|--------|---------|---------|-------|----------|--------|----------|-------|---------|----------|----------|----------|----------|---------|--------|----------|----------|-------|----------|-------|", "score": 0.7235, "match_basis": "verbatim_token+domain_route:LB"}, {"md_atom_id": "md_dmLB_ex_a052", "md_file": "knowledge_base/domains/LB/examples.md", "md_atom_type": "TABLE_HEADER", "md_parent_section": "§LB.5 [Example 5]", "md_verbatim": "| Row | STUDYID | DOMAIN | USUBJID | LBSEQ | LBTESTCD | LBTEST | LBBDAGNT | LBCAT | LBORRES | LBORRESU | LBSTRESC | LBSTRESN | LBSTRESU | LBSPEC | LBMETHOD | LBDTC | VISITNUM | VISIT |\n|-----|---------|--------|---------|-------|----------|--------|----------|-------|---------|----------|----------|----------|----------|--------|----------|-------|----------|-------|", "score": 0.7111, "match_basis": "verbatim_token+domain_route:LB"}, {"md_atom_id": "md_dmLB_ex_a043", "md_file": "knowledge_base/domains/LB/examples.md", "md_atom_type": "TABLE_ROW", "md_parent_section": "§LB.4 [Example 4]", "md_verbatim": "| 2 | ABC | LB | ABC-001-001 | 1 | 2 | CANNAB | Cannabinoids | CONFIRM | DRUG TOXICITY | POSITIVE | | POSITIVE | | | 19289-8 | URINE | MASS SPECTROMETRY | Y | 2013-02-16 | 1 | Week 1 |", "score": 0.36, "match_basis": "verbatim_token+domain_route:LB"}], "candidate_count": 5, "zero_candidate": false}
{"pdf_atom_id": "ig34_p0247_a012", "pdf_atom_type": "TABLE_ROW", "pdf_source": "SDTMIG_v3.4", "pdf_page": 247, "pdf_parent_section": "§6.3.5.6 Laboratory Test Results (LB)", "pdf_verbatim": "| 1 | ABC | LB | ABC-001-001 | 1 | GLUC | Glucose | URINALYSIS | 1 | mg/dL | QUANTITATIVE | MASS CONCENTRATION | | | | | mmol/L | 0.1 | | 0.8 | NORMAL | 07627 | URINE | FAST TEST STRIP | | 2 | TOTAL DOSING | 1999-05-03T14:00 | 1999-05-03 05:01:45 | | Pre-dose | Dosing | PT15M | | | 1999-05-03 | Y |", "figure_ref": null, "candidates": [{"md_atom_id": "md_dmLB_ex_a024", "md_file": "knowledge_base/domains/LB/examples.md", "md_atom_type": "TABLE_ROW", "md_parent_section": "§LB.2 [Example 2]", "md_verbatim": "| 1 | ABC | LB | ABC-001-001 | 1 | CREAT | Creatinine Concentration | | 0.563 | g | 5.63 | 5.63 | g/L | URINE | | Y | | 2161-7 | | PT4H | -15 min pre-dose | 1 | PREVIOUS DOSE | 2000-02-01 | -PT15M | 1 | VISIT 1 | 2000-02-01T04:00 | 2000-02-01T07:45 |", "score": 0.5375, "match_basis": "verbatim_token+domain_route:LB"}, {"md_atom_id": "md_dmLB_ex_a025", "md_file": "knowledge_base/domains/LB/examples.md", "md_atom_type": "TABLE_ROW", "md_parent_section": "§LB.2 [Example 2]", "md_verbatim": "| 2 | ABC | LB | ABC-001-001 | 2 | CREAT | Creatinine Concentration | | 0.879 | g | 8.79 | 8.79 | g/L | URINE | | | | 2161-7 | | PT12H | 12 h post-dose | 2 | PREVIOUS DOSE | 2000-02-01 | PT12H | 1 | VISIT 1 | 2000-02-01T08:00 | 2000-02-01T20:00 |", "score": 0.5224, "match_basis": "verbatim_token+domain_route:LB"}, {"md_atom_id": "md_dmLB_ex_a026", "md_file": "knowledge_base/domains/LB/examples.md", "md_atom_type": "TABLE_ROW", "md_parent_section": "§LB.2 [Example 2]", "md_verbatim": "| 3 | ABC | LB | ABC-001-001 | 3 | CREAT | Creatinine Concentration | | 0.541 | g | 5.41 | 5.41 | g/L | URINE | | | | 2161-7 | | PT24H | 24 h post-dose | 3 | PREVIOUS DOSE | 2000-02-01 | PT24H | 1 | VISIT 1 | 2000-02-01T20:00 | 2000-02-02T08:00 |", "score": 0.514, "match_basis": "verbatim_token+domain_route:LB"}, {"md_atom_id": "md_dmLB_ex_a043", "md_file": "knowledge_base/domains/LB/examples.md", "md_atom_type": "TABLE_ROW", "md_parent_section": "§LB.4 [Example 4]", "md_verbatim": "| 2 | ABC | LB | ABC-001-001 | 1 | 2 | CANNAB | Cannabinoids | CONFIRM | DRUG TOXICITY | POSITIVE | | POSITIVE | | | 19289-8 | URINE | MASS SPECTROMETRY | Y | 2013-02-16 | 1 | Week 1 |", "score": 0.4589, "match_basis": "verbatim_token+domain_route:LB"}, {"md_atom_id": "md_dmLB_ex_a033", "md_file": "knowledge_base/domains/LB/examples.md", "md_atom_type": "TABLE_ROW", "md_parent_section": "§LB.3 [Example 3]", "md_verbatim": "| 1 | ABC | LB | ABC-001-001 | 1 | HCG | Choriogonadotropin Beta | | - | | NEGATIVE | | | | | | 2106-3 | URINE | | 1 | BASELINE | 1999-06-09T10:00 | Y |", "score": 0.4588, "match_basis": "verbatim_token+domain_route:LB"}], "candidate_count": 5, "zero_candidate": false}
