{"pdf_atom_id": "ig34_p0448_a026", "pdf_atom_type": "TABLE_ROW", "pdf_source": "SDTMIG_v3.4", "pdf_page": 448, "pdf_parent_section": "Appendix D: CDISC Variable-naming Fragments", "pdf_verbatim": "| CLINICAL | CL |", "figure_ref": null, "candidates": [{"md_atom_id": "md_ch10_a086", "md_file": "knowledge_base/chapters/ch10_appendices.md", "md_atom_type": "TABLE_ROW", "md_parent_section": "§10.D [CDISC Variable-naming Fragments]", "md_verbatim": "| CLINICAL | CL | | NUMERIC | N |", "score": 0.6273, "match_basis": "verbatim_token+global_search"}, {"md_atom_id": "md_model02_a190", "md_file": "knowledge_base/model/02_observation_classes.md", "md_atom_type": "TABLE_ROW", "md_parent_section": "§3.1.5 > Visit and Epoch Variables", "md_verbatim": "| 6 | RPHASE | Repro Phase | Char | Not in human clinical trials |", "score": 0.4565, "match_basis": "verbatim_token+global_search"}, {"md_atom_id": "md_model05_a080", "md_file": "knowledge_base/model/05_study_level_data.md", "md_atom_type": "TABLE_ROW", "md_parent_section": "§ Trial Reproductive Paths (TP)", "md_verbatim": "| 8 | TPBRANCH | Branch | Char | Rule | Not in human clinical trials |", "score": 0.45, "match_basis": "verbatim_token+global_search"}, {"md_atom_id": "md_ch10_a047", "md_file": "knowledge_base/chapters/ch10_appendices.md", "md_atom_type": "TABLE_ROW", "md_parent_section": "§10.B [Glossary and Abbreviations]", "md_verbatim": "| SEND | Standard for Exchange of Non-Clinical Data |", "score": 0.45, "match_basis": "verbatim_token+global_search"}, {"md_atom_id": "md_model02_a242", "md_file": "knowledge_base/model/02_observation_classes.md", "md_atom_type": "TABLE_ROW", "md_parent_section": "§3.1.5 > Assessment Interval and Other Timing Variables", "md_verbatim": "| 46 | --DETECT | Time in Days to Detection | Num | Not in human clinical trials |", "score": 0.4385, "match_basis": "verbatim_token+global_search"}], "candidate_count": 5, "zero_candidate": false}
{"pdf_atom_id": "ig34_p0448_a027", "pdf_atom_type": "TABLE_ROW", "pdf_source": "SDTMIG_v3.4", "pdf_page": 448, "pdf_parent_section": "Appendix D: CDISC Variable-naming Fragments", "pdf_verbatim": "| CODE | CD |", "figure_ref": null, "candidates": [{"md_atom_id": "md_varindex_a1663", "md_file": "knowledge_base/VARIABLE_INDEX.md", "md_atom_type": "TABLE_HEADER", "md_parent_section": "§ 三、CDISC Controlled Terminology 交叉引用（共 135 个 CT Code）", "md_verbatim": "| CT Code | 引用数 | 引用此 CT 的变量 (域.变量名) |\n|---------|--------|---------------------------|", "score": 0.84, "match_basis": "verbatim_token+global_search"}, {"md_atom_id": "md_ch10_a087", "md_file": "knowledge_base/chapters/ch10_appendices.md", "md_atom_type": "TABLE_ROW", "md_parent_section": "§10.D [CDISC Variable-naming Fragments]", "md_verbatim": "| CODE | CD | | OBJECT | OBJ |", "score": 0.5, "match_basis": "verbatim_token+global_search"}, {"md_atom_id": "md_ch10_a081", "md_file": "knowledge_base/chapters/ch10_appendices.md", "md_atom_type": "TABLE_ROW", "md_parent_section": "§10.D [CDISC Variable-naming Fragments]", "md_verbatim": "| BODY | BOD | | LOINC CODE | LOINC |", "score": 0.4714, "match_basis": "verbatim_token+global_search"}, {"md_atom_id": "md_varindex_a1718", "md_file": "knowledge_base/VARIABLE_INDEX.md", "md_atom_type": "TABLE_ROW", "md_parent_section": "§ 三、CDISC Controlled Terminology 交叉引用（共 135 个 CT Code）", "md_verbatim": "| C171444 | 1 | HO.HODECOD |", "score": 0.42, "match_basis": "verbatim_token+global_search"}, {"md_atom_id": "md_routing_a008", "md_file": "knowledge_base/ROUTING.md", "md_atom_type": "TABLE_ROW", "md_parent_section": "§ 快速入口", "md_verbatim": "| 按 CT Code 查找 | [VARIABLE_INDEX.md](VARIABLE_INDEX.md) § 三、CT 交叉引用 |", "score": 0.4091, "match_basis": "verbatim_token+global_search"}, {"md_atom_id": "md_ch10_a095", "md_file": "knowledge_base/chapters/ch10_appendices.md", "md_atom_type": "TABLE_ROW", "md_parent_section": "§10.D [CDISC Variable-naming Fragments]", "md_verbatim": "| DECODE | DECOD | | PARAMETER | PARM |", "score": 0.4, "match_basis": "verbatim_token+global_search"}, {"md_atom_id": "md_routing_a044", "md_file": "knowledge_base/ROUTING.md", "md_atom_type": "TABLE_ROW", "md_parent_section": "§ 文件类型速查", "md_verbatim": "| model/*.md | model/01-06_*.md | SDTM v2.0 概念模型 | 查模型定义/变量模板 |", "score": 0.4, "match_basis": "verbatim_token+global_search"}, {"md_atom_id": "md_model05_a023", "md_file": "knowledge_base/model/05_study_level_data.md", "md_atom_type": "TABLE_ROW", "md_parent_section": "§ Trial Elements (TE)", "md_verbatim": "| 3 | ETCD | Element Code | Char | Topic |", "score": 0.3857, "match_basis": "verbatim_token+global_search"}, {"md_atom_id": "md_model01_a068", "md_file": "knowledge_base/model/01_concepts_and_terms.md", "md_atom_type": "TABLE_ROW", "md_parent_section": "§2.2 [Table Structure]", "md_verbatim": "| **Variable C-code** | NCI-EVS concept code |", "score": 0.38, "match_basis": "verbatim_token+global_search"}, {"md_atom_id": "md_model05_a036", "md_file": "knowledge_base/model/05_study_level_data.md", "md_atom_type": "TABLE_ROW", "md_parent_section": "§ Trial Arms (TA)", "md_verbatim": "| 3 | ARMCD | Planned Arm Code | Char | Topic |", "score": 0.38, "match_basis": "verbatim_token+global_search"}], "candidate_count": 10, "zero_candidate": false}
{"pdf_atom_id": "ig34_p0448_a028", "pdf_atom_type": "TABLE_ROW", "pdf_source": "SDTMIG_v3.4", "pdf_page": 448, "pdf_parent_section": "Appendix D: CDISC Variable-naming Fragments", "pdf_verbatim": "| COMMENT | COM |", "figure_ref": null, "candidates": [{"md_atom_id": "md_ch10_a088", "md_file": "knowledge_base/chapters/ch10_appendices.md", "md_atom_type": "TABLE_ROW", "md_parent_section": "§10.D [CDISC Variable-naming Fragments]", "md_verbatim": "| COMMENT | COM | | ONGOING | ONGO |", "score": 0.6, "match_basis": "verbatim_token+global_search"}, {"md_atom_id": "md_model03_a080", "md_file": "knowledge_base/model/03_special_purpose_domains.md", "md_atom_type": "TABLE_ROW", "md_parent_section": "§ Comments (CO) > Variables (15 variables)", "md_verbatim": "| 11 | COVAL | Comment | Char | Topic |", "score": 0.5308, "match_basis": "verbatim_token+global_search"}, {"md_atom_id": "md_model03_a063", "md_file": "knowledge_base/model/03_special_purpose_domains.md", "md_atom_type": "HEADING", "md_parent_section": "§ Comments (CO)", "md_verbatim": "## Comments (CO)", "score": 0.53, "match_basis": "verbatim_token+global_search"}, {"md_atom_id": "md_varindex_a249", "md_file": "knowledge_base/VARIABLE_INDEX.md", "md_atom_type": "TABLE_ROW", "md_parent_section": "§ 二、领域专属变量（仅 1 个域，共 1499 个），按域分组", "md_verbatim": "| COVAL | Comment | Char | Topic | Req | — |", "score": 0.5143, "match_basis": "verbatim_token+global_search"}, {"md_atom_id": "md_model03_a084", "md_file": "knowledge_base/model/03_special_purpose_domains.md", "md_atom_type": "TABLE_ROW", "md_parent_section": "§ Comments (CO) > Variables (15 variables)", "md_verbatim": "| 15 | CODY | Study Day of Comment | Num | Timing |", "score": 0.4875, "match_basis": "verbatim_token+global_search"}, {"md_atom_id": "md_model03_a083", "md_file": "knowledge_base/model/03_special_purpose_domains.md", "md_atom_type": "TABLE_ROW", "md_parent_section": "§ Comments (CO) > Variables (15 variables)", "md_verbatim": "| 14 | CODTC | Date/Time of Comment | Char | Timing |", "score": 0.4765, "match_basis": "verbatim_token+global_search"}, {"md_atom_id": "md_varindex_a253", "md_file": "knowledge_base/VARIABLE_INDEX.md", "md_atom_type": "TABLE_ROW", "md_parent_section": "§ 二、领域专属变量（仅 1 个域，共 1499 个），按域分组", "md_verbatim": "| CODY | Study Day of Comment | Num | Timing | Perm | — |", "score": 0.4667, "match_basis": "verbatim_token+global_search"}, {"md_atom_id": "md_model03_a079", "md_file": "knowledge_base/model/03_special_purpose_domains.md", "md_atom_type": "TABLE_ROW", "md_parent_section": "§ Comments (CO) > Variables (15 variables)", "md_verbatim": "| 10 | COREF | Comment Reference | Char | Record Qualifier |", "score": 0.4154, "match_basis": "verbatim_token+global_search"}, {"md_atom_id": "md_dmCO_ex_a020", "md_file": "knowledge_base/domains/CO/examples.md", "md_atom_type": "TABLE_ROW", "md_parent_section": "§CO.1 [Example 1]", "md_verbatim": "| 8 | 1234 | CO | | AB-99 | 8 | | | | Comment Text | | | PRINCIPAL INVESTIGATOR | 4 | |", "score": 0.4154, "match_basis": "verbatim_token+global_search"}, {"md_atom_id": "md_ch10_a128", "md_file": "knowledge_base/chapters/ch10_appendices.md", "md_atom_type": "TABLE_ROW", "md_parent_section": "§10.D [CDISC Variable-naming Fragments]", "md_verbatim": "| | | | TREATMENT | TRT |", "score": 0.4091, "match_basis": "verbatim_token+global_search"}], "candidate_count": 10, "zero_candidate": false}
{"pdf_atom_id": "ig34_p0448_a029", "pdf_atom_type": "TABLE_ROW", "pdf_source": "SDTMIG_v3.4", "pdf_page": 448, "pdf_parent_section": "Appendix D: CDISC Variable-naming Fragments", "pdf_verbatim": "| CONCOMITANT | CON |", "figure_ref": null, "candidates": [{"md_atom_id": "md_ch10_a089", "md_file": "knowledge_base/chapters/ch10_appendices.md", "md_atom_type": "TABLE_ROW", "md_parent_section": "§10.D [CDISC Variable-naming Fragments]", "md_verbatim": "| CONCOMITANT | CON | | ORDER | ORD |", "score": 0.75, "match_basis": "verbatim_token+global_search"}, {"md_atom_id": "md_ch10_a196", "md_file": "knowledge_base/chapters/ch10_appendices.md", "md_atom_type": "TABLE_ROW", "md_parent_section": "§10.E [Revision History]", "md_verbatim": "| 6.1.2 | Concomitant/Prior Medications (CM) | Example 5 is new |", "score": 0.5, "match_basis": "verbatim_token+global_search"}, {"md_atom_id": "md_index_a038", "md_file": "knowledge_base/INDEX.md", "md_atom_type": "TABLE_ROW", "md_parent_section": "§ Domains (63 domains)", "md_verbatim": "| [CM](domains/CM/) | Concomitant/Prior Medications | [spec](domains/CM/spec.md) · [assumptions](domains/CM/assumptions.md) · [examples](domains/CM/examples.md) |", "score": 0.435, "match_basis": "verbatim_token+global_search"}, {"md_atom_id": "md_model02_a118", "md_file": "knowledge_base/model/02_observation_classes.md", "md_atom_type": "TABLE_ROW", "md_parent_section": "§3.1.2 > Topic and Qualifier Variables (56 variables)", "md_verbatim": "| 53 | --CONTRT | Concomitant or Additional Trtmnt Given | Char | Record Qualifier | \"Y\", \"N\", and null |", "score": 0.4286, "match_basis": "verbatim_token+global_search"}, {"md_atom_id": "md_varindex_a083", "md_file": "knowledge_base/VARIABLE_INDEX.md", "md_atom_type": "TABLE_ROW", "md_parent_section": "§ 二、领域专属变量（仅 1 个域，共 1499 个），按域分组", "md_verbatim": "| AECONTRT | Concomitant or Additional Trtmnt Given | Char | Record Qualifier | Perm | C66742 |", "score": 0.4174, "match_basis": "verbatim_token+global_search"}], "candidate_count": 5, "zero_candidate": false}
{"pdf_atom_id": "ig34_p0448_a030", "pdf_atom_type": "TABLE_ROW", "pdf_source": "SDTMIG_v3.4", "pdf_page": 448, "pdf_parent_section": "Appendix D: CDISC Variable-naming Fragments", "pdf_verbatim": "| CONDITION | CND |", "figure_ref": null, "candidates": [{"md_atom_id": "md_ch10_a090", "md_file": "knowledge_base/chapters/ch10_appendices.md", "md_atom_type": "TABLE_ROW", "md_parent_section": "§10.D [CDISC Variable-naming Fragments]", "md_verbatim": "| CONDITION | CND | | ORIGIN | ORIG |", "score": 0.7, "match_basis": "verbatim_token+global_search"}, {"md_atom_id": "md_model02_a151", "md_file": "knowledge_base/model/02_observation_classes.md", "md_atom_type": "TABLE_ROW", "md_parent_section": "§3.1.3 > Topic and Qualifier Variables (100 variables)", "md_verbatim": "| --SPCCND | Specimen Condition | \"HEMOLYZED\", \"LIPEMIC\" |", "score": 0.4655, "match_basis": "verbatim_token+global_search"}, {"md_atom_id": "md_varindex_a268", "md_file": "knowledge_base/VARIABLE_INDEX.md", "md_atom_type": "TABLE_ROW", "md_parent_section": "§ 二、领域专属变量（仅 1 个域，共 1499 个），按域分组", "md_verbatim": "| CPCNDAGT | Test Condition Agent | Char | Record Qualifier | Perm | — |", "score": 0.4455, "match_basis": "verbatim_token+global_search"}, {"md_atom_id": "md_varindex_a696", "md_file": "knowledge_base/VARIABLE_INDEX.md", "md_atom_type": "TABLE_ROW", "md_parent_section": "§ 二、领域专属变量（仅 1 个域，共 1499 个），按域分组", "md_verbatim": "| ISCNDAGT | Test Condition Agent | Char | Record Qualifier | Perm | — |", "score": 0.4455, "match_basis": "verbatim_token+global_search"}, {"md_atom_id": "md_ch10_a127", "md_file": "knowledge_base/chapters/ch10_appendices.md", "md_atom_type": "TABLE_ROW", "md_parent_section": "§10.D [CDISC Variable-naming Fragments]", "md_verbatim": "| | | | TRANSITION | TRANS |", "score": 0.4385, "match_basis": "verbatim_token+global_search"}], "candidate_count": 5, "zero_candidate": false}
{"pdf_atom_id": "ig34_p0448_a031", "pdf_atom_type": "TABLE_ROW", "pdf_source": "SDTMIG_v3.4", "pdf_page": 448, "pdf_parent_section": "Appendix D: CDISC Variable-naming Fragments", "pdf_verbatim": "| CONGENITAL | CONG |", "figure_ref": null, "candidates": [{"md_atom_id": "md_ch10_a091", "md_file": "knowledge_base/chapters/ch10_appendices.md", "md_atom_type": "TABLE_ROW", "md_parent_section": "§10.D [CDISC Variable-naming Fragments]", "md_verbatim": "| CONGENITAL | CONG | | ORIGINAL | OR |", "score": 0.6429, "match_basis": "verbatim_token+global_search"}, {"md_atom_id": "md_varindex_a072", "md_file": "knowledge_base/VARIABLE_INDEX.md", "md_atom_type": "TABLE_ROW", "md_parent_section": "§ 二、领域专属变量（仅 1 个域，共 1499 个），按域分组", "md_verbatim": "| AESCONG | Congenital Anomaly or Birth Defect | Char | Record Qualifier | Perm | C66742 |", "score": 0.4143, "match_basis": "verbatim_token+global_search"}, {"md_atom_id": "md_model02_a107", "md_file": "knowledge_base/model/02_observation_classes.md", "md_atom_type": "TABLE_ROW", "md_parent_section": "§3.1.2 > Topic and Qualifier Variables (56 variables)", "md_verbatim": "| 42 | --SCONG | Congenital Anomaly or Birth Defect | Char | Record Qualifier | \"Y\", \"N\", and null. Not in nonclinical trials |", "score": 0.3941, "match_basis": "verbatim_token+global_search"}, {"md_atom_id": "md_ch10_a116", "md_file": "knowledge_base/chapters/ch10_appendices.md", "md_atom_type": "TABLE_ROW", "md_parent_section": "§10.D [CDISC Variable-naming Fragments]", "md_verbatim": "| HOSPITALIZATION | HOSP | | NORMAL RANGE | NR |", "score": 0.372, "match_basis": "verbatim_token+global_search"}, {"md_atom_id": "md_ch10_a089", "md_file": "knowledge_base/chapters/ch10_appendices.md", "md_atom_type": "TABLE_ROW", "md_parent_section": "§10.D [CDISC Variable-naming Fragments]", "md_verbatim": "| CONCOMITANT | CON | | ORDER | ORD |", "score": 0.3667, "match_basis": "verbatim_token+global_search"}], "candidate_count": 5, "zero_candidate": false}
{"pdf_atom_id": "ig34_p0448_a032", "pdf_atom_type": "TABLE_ROW", "pdf_source": "SDTMIG_v3.4", "pdf_page": 448, "pdf_parent_section": "Appendix D: CDISC Variable-naming Fragments", "pdf_verbatim": "| DATE TIME - CHARACTER | DTC |", "figure_ref": null, "candidates": [{"md_atom_id": "md_ch10_a092", "md_file": "knowledge_base/chapters/ch10_appendices.md", "md_atom_type": "TABLE_ROW", "md_parent_section": "§10.D [CDISC Variable-naming Fragments]", "md_verbatim": "| DATE TIME - CHARACTER | DTC | | OTHER | OTH, O |", "score": 0.78, "match_basis": "verbatim_token+global_search"}, {"md_atom_id": "md_ch10_a084", "md_file": "knowledge_base/chapters/ch10_appendices.md", "md_atom_type": "TABLE_ROW", "md_parent_section": "§10.D [CDISC Variable-naming Fragments]", "md_verbatim": "| CHARACTER | C | | NOT DONE | ND |", "score": 0.58, "match_basis": "verbatim_token+global_search"}, {"md_atom_id": "md_model03_a083", "md_file": "knowledge_base/model/03_special_purpose_domains.md", "md_atom_type": "TABLE_ROW", "md_parent_section": "§ Comments (CO) > Variables (15 variables)", "md_verbatim": "| 14 | CODTC | Date/Time of Comment | Char | Timing |", "score": 0.4909, "match_basis": "verbatim_token+global_search"}, {"md_atom_id": "md_model03_a142", "md_file": "knowledge_base/model/03_special_purpose_domains.md", "md_atom_type": "TABLE_ROW", "md_parent_section": "§ Subject Visits (SV) > Variables (16 variables)", "md_verbatim": "| 13 | SVENDTC | End Date/Time of Visit | Char | Timing | |", "score": 0.4909, "match_basis": "verbatim_token+global_search"}, {"md_atom_id": "md_model03_a101", "md_file": "knowledge_base/model/03_special_purpose_domains.md", "md_atom_type": "TABLE_ROW", "md_parent_section": "§ Subject Elements (SE) > Variables (13 variables)", "md_verbatim": "| 10 | SEENDTC | End Date/Time of Element | Char | Timing | |", "score": 0.475, "match_basis": "verbatim_token+global_search"}], "candidate_count": 5, "zero_candidate": false}
{"pdf_atom_id": "ig34_p0448_a033", "pdf_atom_type": "TABLE_ROW", "pdf_source": "SDTMIG_v3.4", "pdf_page": 448, "pdf_parent_section": "Appendix D: CDISC Variable-naming Fragments", "pdf_verbatim": "| DAY | DY |", "figure_ref": null, "candidates": [{"md_atom_id": "md_ch04_a583", "md_file": "knowledge_base/chapters/ch04_general_assumptions.md", "md_atom_type": "TABLE_ROW", "md_parent_section": "§4.4.3.1 [Intervals of Time and Use of Duration]", "md_verbatim": "| 3 days | P3D |", "score": 0.5, "match_basis": "verbatim_token+global_search"}, {"md_atom_id": "md_ch04_a740", "md_file": "knowledge_base/chapters/ch04_general_assumptions.md", "md_atom_type": "TABLE_ROW", "md_parent_section": "§4.4.10 [Representing Time Points]", "md_verbatim": "| | | PRE-DOSE | 1 | DAY 1, PM DOSE |", "score": 0.45, "match_basis": "verbatim_token+global_search"}, {"md_atom_id": "md_ch04_a743", "md_file": "knowledge_base/chapters/ch04_general_assumptions.md", "md_atom_type": "TABLE_ROW", "md_parent_section": "§4.4.10 [Representing Time Points]", "md_verbatim": "| | | PRE-DOSE | 1 | DAY 5, AM DOSE |", "score": 0.45, "match_basis": "verbatim_token+global_search"}, {"md_atom_id": "md_ch04_a746", "md_file": "knowledge_base/chapters/ch04_general_assumptions.md", "md_atom_type": "TABLE_ROW", "md_parent_section": "§4.4.10 [Representing Time Points]", "md_verbatim": "| | | PRE-DOSE | 1 | DAY 5, PM DOSE |", "score": 0.45, "match_basis": "verbatim_token+global_search"}, {"md_atom_id": "md_ch04_a752", "md_file": "knowledge_base/chapters/ch04_general_assumptions.md", "md_atom_type": "TABLE_ROW", "md_parent_section": "§4.4.10 [Representing Time Points]", "md_verbatim": "| | | PRE-DOSE | 1 | DAY 1, PM DOSE |", "score": 0.45, "match_basis": "verbatim_token+global_search"}, {"md_atom_id": "md_ch10_a093", "md_file": "knowledge_base/chapters/ch10_appendices.md", "md_atom_type": "TABLE_ROW", "md_parent_section": "§10.D [CDISC Variable-naming Fragments]", "md_verbatim": "| DAY | DY | | OUTCOME | OUT |", "score": 0.4, "match_basis": "verbatim_token+global_search"}, {"md_atom_id": "md_ch04_a737", "md_file": "knowledge_base/chapters/ch04_general_assumptions.md", "md_atom_type": "TABLE_ROW", "md_parent_section": "§4.4.10 [Representing Time Points]", "md_verbatim": "| PERIOD 1 | 3 | PRE-DOSE | 1 | DAY 1, AM DOSE |", "score": 0.375, "match_basis": "verbatim_token+global_search"}, {"md_atom_id": "md_ch04_a749", "md_file": "knowledge_base/chapters/ch04_general_assumptions.md", "md_atom_type": "TABLE_ROW", "md_parent_section": "§4.4.10 [Representing Time Points]", "md_verbatim": "| PERIOD 2 | 4 | PRE-DOSE | 1 | DAY 1, AM DOSE |", "score": 0.375, "match_basis": "verbatim_token+global_search"}, {"md_atom_id": "md_ch04_a757", "md_file": "knowledge_base/chapters/ch04_general_assumptions.md", "md_atom_type": "TABLE_ROW", "md_parent_section": "§4.4.10 [Representing Time Points]", "md_verbatim": "| PERIOD 1, DAY 1 | 3 | PRE-DOSE | 1 | AM DOSE |", "score": 0.375, "match_basis": "verbatim_token+global_search"}, {"md_atom_id": "md_ch04_a763", "md_file": "knowledge_base/chapters/ch04_general_assumptions.md", "md_atom_type": "TABLE_ROW", "md_parent_section": "§4.4.10 [Representing Time Points]", "md_verbatim": "| PERIOD 1, DAY 5 | 4 | PRE-DOSE | 1 | AM DOSE |", "score": 0.375, "match_basis": "verbatim_token+global_search"}], "candidate_count": 10, "zero_candidate": false}
{"pdf_atom_id": "ig34_p0448_a034", "pdf_atom_type": "TABLE_ROW", "pdf_source": "SDTMIG_v3.4", "pdf_page": 448, "pdf_parent_section": "Appendix D: CDISC Variable-naming Fragments", "pdf_verbatim": "| DEATH | DTH |", "figure_ref": null, "candidates": [{"md_atom_id": "md_ch10_a094", "md_file": "knowledge_base/chapters/ch10_appendices.md", "md_atom_type": "TABLE_ROW", "md_parent_section": "§10.D [CDISC Variable-naming Fragments]", "md_verbatim": "| DEATH | DTH | | OVERDOSE | OD |", "score": 0.54, "match_basis": "verbatim_token+global_search"}, {"md_atom_id": "md_dmDD_ex_a010", "md_file": "knowledge_base/domains/DD/examples.md", "md_atom_type": "TABLE_ROW", "md_parent_section": "§DD.1 [Example 1]", "md_verbatim": "| 2 | ABC123 | DD | ABC12301001 | 2 | LOCDTH | Location of Death | HOME | HOME | 2011-01-12 |", "score": 0.396, "match_basis": "verbatim_token+global_search"}, {"md_atom_id": "md_dmDD_ex_a012", "md_file": "knowledge_base/domains/DD/examples.md", "md_atom_type": "TABLE_ROW", "md_parent_section": "§DD.1 [Example 1]", "md_verbatim": "| 4 | ABC123 | DD | ABC12301002 | 2 | LOCDTH | Location of Death | UNKNOWN | UNKNOWN | 2011-03-15 |", "score": 0.3857, "match_basis": "verbatim_token+global_search"}, {"md_atom_id": "md_varindex_a074", "md_file": "knowledge_base/VARIABLE_INDEX.md", "md_atom_type": "TABLE_ROW", "md_parent_section": "§ 二、领域专属变量（仅 1 个域，共 1499 个），按域分组", "md_verbatim": "| AESDTH | Results in Death | Char | Record Qualifier | Perm | C66742 |", "score": 0.3774, "match_basis": "verbatim_token+global_search"}, {"md_atom_id": "md_varindex_a390", "md_file": "knowledge_base/VARIABLE_INDEX.md", "md_atom_type": "TABLE_ROW", "md_parent_section": "§ 二、领域专属变量（仅 1 个域，共 1499 个），按域分组", "md_verbatim": "| DTHFL | Subject Death Flag | Char | Record Qualifier | Exp | C66742 |", "score": 0.3774, "match_basis": "verbatim_token+global_search"}, {"md_atom_id": "md_dmDD_ex_a011", "md_file": "knowledge_base/domains/DD/examples.md", "md_atom_type": "TABLE_ROW", "md_parent_section": "§DD.1 [Example 1]", "md_verbatim": "| 3 | ABC123 | DD | ABC12301002 | 1 | PRCDTH | Primary Cause of Death | UNKNOWN | UNKNOWN | 2011-03-15 |", "score": 0.3774, "match_basis": "verbatim_token+global_search"}, {"md_atom_id": "md_dmDD_ex_a009", "md_file": "knowledge_base/domains/DD/examples.md", "md_atom_type": "TABLE_ROW", "md_parent_section": "§DD.1 [Example 1]", "md_verbatim": "| 1 | ABC123 | DD | ABC12301001 | 1 | PRCDTH | Primary Cause of Death | SUDDEN CARDIAC DEATH | SUDDEN CARDIAC DEATH | 2011-01-12 |", "score": 0.3686, "match_basis": "verbatim_token+global_search"}, {"md_atom_id": "md_dmDD_ex_a015", "md_file": "knowledge_base/domains/DD/examples.md", "md_atom_type": "TABLE_ROW", "md_parent_section": "§DD.1 [Example 1]", "md_verbatim": "| 7 | ABC123 | DD | ABC12301023 | 3 | LOCDTH | Location of Death | MEMORIAL HOSPITAL | HOSPITAL | 2011-09-09 |", "score": 0.3686, "match_basis": "verbatim_token+global_search"}, {"md_atom_id": "md_dmDD_ex_a024", "md_file": "knowledge_base/domains/DD/examples.md", "md_atom_type": "TABLE_ROW", "md_parent_section": "§DD.2 [Example 2]", "md_verbatim": "| 1 | ABC123 | DD | ABC12301001 | 1 | PRCDTH | Primary Cause of Death | SUDDEN CARDIAC DEATH | SUDDEN CARDIAC DEATH | 2011-01-12 |", "score": 0.3686, "match_basis": "verbatim_token+global_search"}, {"md_atom_id": "md_varindex_a389", "md_file": "knowledge_base/VARIABLE_INDEX.md", "md_atom_type": "TABLE_ROW", "md_parent_section": "§ 二、领域专属变量（仅 1 个域，共 1499 个），按域分组", "md_verbatim": "| DTHDTC | Date/Time of Death | Char | Record Qualifier | Exp | ISO 8601 datetime or interval |", "score": 0.3667, "match_basis": "verbatim_token+global_search"}], "candidate_count": 10, "zero_candidate": false}
{"pdf_atom_id": "ig34_p0448_a035", "pdf_atom_type": "TABLE_ROW", "pdf_source": "SDTMIG_v3.4", "pdf_page": 448, "pdf_parent_section": "Appendix D: CDISC Variable-naming Fragments", "pdf_verbatim": "| DECODE | DECOD |", "figure_ref": null, "candidates": [{"md_atom_id": "md_varindex_a1663", "md_file": "knowledge_base/VARIABLE_INDEX.md", "md_atom_type": "TABLE_HEADER", "md_parent_section": "§ 三、CDISC Controlled Terminology 交叉引用（共 135 个 CT Code）", "md_verbatim": "| CT Code | 引用数 | 引用此 CT 的变量 (域.变量名) |\n|---------|--------|---------------------------|", "score": 0.54, "match_basis": "verbatim_token+global_search"}, {"md_atom_id": "md_varindex_a1718", "md_file": "knowledge_base/VARIABLE_INDEX.md", "md_atom_type": "TABLE_ROW", "md_parent_section": "§ 三、CDISC Controlled Terminology 交叉引用（共 135 个 CT Code）", "md_verbatim": "| C171444 | 1 | HO.HODECOD |", "score": 0.54, "match_basis": "verbatim_token+global_search"}, {"md_atom_id": "md_ch10_a095", "md_file": "knowledge_base/chapters/ch10_appendices.md", "md_atom_type": "TABLE_ROW", "md_parent_section": "§10.D [CDISC Variable-naming Fragments]", "md_verbatim": "| DECODE | DECOD | | PARAMETER | PARM |", "score": 0.5, "match_basis": "verbatim_token+global_search"}, {"md_atom_id": "md_ch04_a463", "md_file": "knowledge_base/chapters/ch04_general_assumptions.md", "md_atom_type": "TABLE_ROW", "md_parent_section": "§4.3.6 [Storing Topic Variables for General Domain Models]", "md_verbatim": "| DS | DSTERM | | DSDECOD |", "score": 0.48, "match_basis": "verbatim_token+global_search"}, {"md_atom_id": "md_varindex_a1742", "md_file": "knowledge_base/VARIABLE_INDEX.md", "md_atom_type": "TABLE_ROW", "md_parent_section": "§ 三、CDISC Controlled Terminology 交叉引用（共 135 个 CT Code）", "md_verbatim": "| C66727 | 1 | DS.DSDECOD |", "score": 0.48, "match_basis": "verbatim_token+global_search"}, {"md_atom_id": "md_varindex_a1670", "md_file": "knowledge_base/VARIABLE_INDEX.md", "md_atom_type": "TABLE_ROW", "md_parent_section": "§ 三、CDISC Controlled Terminology 交叉引用（共 135 个 CT Code）", "md_verbatim": "| C101858 | 1 | PR.PRDECOD |", "score": 0.4636, "match_basis": "verbatim_token+global_search"}, {"md_atom_id": "md_varindex_a1694", "md_file": "knowledge_base/VARIABLE_INDEX.md", "md_atom_type": "TABLE_ROW", "md_parent_section": "§ 三、CDISC Controlled Terminology 交叉引用（共 135 个 CT Code）", "md_verbatim": "| C124297 | 1 | BE.BEDECOD |", "score": 0.4636, "match_basis": "verbatim_token+global_search"}, {"md_atom_id": "md_ch10_a087", "md_file": "knowledge_base/chapters/ch10_appendices.md", "md_atom_type": "TABLE_ROW", "md_parent_section": "§10.D [CDISC Variable-naming Fragments]", "md_verbatim": "| CODE | CD | | OBJECT | OBJ |", "score": 0.45, "match_basis": "verbatim_token+global_search"}, {"md_atom_id": "md_ch10_a081", "md_file": "knowledge_base/chapters/ch10_appendices.md", "md_atom_type": "TABLE_ROW", "md_parent_section": "§10.D [CDISC Variable-naming Fragments]", "md_verbatim": "| BODY | BOD | | LOINC CODE | LOINC |", "score": 0.4333, "match_basis": "verbatim_token+global_search"}, {"md_atom_id": "md_ch04_a464", "md_file": "knowledge_base/chapters/ch04_general_assumptions.md", "md_atom_type": "TABLE_ROW", "md_parent_section": "§4.3.6 [Storing Topic Variables for General Domain Models]", "md_verbatim": "| CM | CMTRT | CMMODIFY | CMDECOD |", "score": 0.42, "match_basis": "verbatim_token+global_search"}], "candidate_count": 10, "zero_candidate": false}
{"pdf_atom_id": "ig34_p0448_a036", "pdf_atom_type": "TABLE_ROW", "pdf_source": "SDTMIG_v3.4", "pdf_page": 448, "pdf_parent_section": "Appendix D: CDISC Variable-naming Fragments", "pdf_verbatim": "| DERIVED | DRV |", "figure_ref": null, "candidates": [{"md_atom_id": "md_ch10_a096", "md_file": "knowledge_base/chapters/ch10_appendices.md", "md_atom_type": "TABLE_ROW", "md_parent_section": "§10.D [CDISC Variable-naming Fragments]", "md_verbatim": "| DERIVED | DRV | | PATTERN | PATT |", "score": 0.6273, "match_basis": "verbatim_token+global_search"}, {"md_atom_id": "md_ch02_a043", "md_file": "knowledge_base/chapters/ch02_fundamentals.md", "md_atom_type": "LIST_ITEM", "md_parent_section": "§2.2 [Datasets and Domains]", "md_verbatim": "- Derived data", "score": 0.495, "match_basis": "verbatim_token+global_search"}, {"md_atom_id": "md_varindex_a301", "md_file": "knowledge_base/VARIABLE_INDEX.md", "md_atom_type": "TABLE_ROW", "md_parent_section": "§ 二、领域专属变量（仅 1 个域，共 1499 个），按域分组", "md_verbatim": "| CPDRVFL | Derived Flag | Char | Record Qualifier | Perm | C66742 |", "score": 0.4161, "match_basis": "verbatim_token+global_search"}, {"md_atom_id": "md_varindex_a336", "md_file": "knowledge_base/VARIABLE_INDEX.md", "md_atom_type": "TABLE_ROW", "md_parent_section": "§ 二、领域专属变量（仅 1 个域，共 1499 个），按域分组", "md_verbatim": "| CVDRVFL | Derived Flag | Char | Record Qualifier | Perm | C66742 |", "score": 0.4161, "match_basis": "verbatim_token+global_search"}, {"md_atom_id": "md_varindex_a501", "md_file": "knowledge_base/VARIABLE_INDEX.md", "md_atom_type": "TABLE_ROW", "md_parent_section": "§ 二、领域专属变量（仅 1 个域，共 1499 个），按域分组", "md_verbatim": "| EGDRVFL | Derived Flag | Char | Record Qualifier | Perm | C66742 |", "score": 0.4161, "match_basis": "verbatim_token+global_search"}], "candidate_count": 5, "zero_candidate": false}
{"pdf_atom_id": "ig34_p0448_a037", "pdf_atom_type": "TABLE_ROW", "pdf_source": "SDTMIG_v3.4", "pdf_page": 448, "pdf_parent_section": "Appendix D: CDISC Variable-naming Fragments", "pdf_verbatim": "| DESCRIPTION | DESC |", "figure_ref": null, "candidates": [{"md_atom_id": "md_ch10_a097", "md_file": "knowledge_base/chapters/ch10_appendices.md", "md_atom_type": "TABLE_ROW", "md_parent_section": "§10.D [CDISC Variable-naming Fragments]", "md_verbatim": "| DESCRIPTION | DESC | | POPULATION | POP |", "score": 0.66, "match_basis": "verbatim_token+global_search"}, {"md_atom_id": "md_model01_a060", "md_file": "knowledge_base/model/01_concepts_and_terms.md", "md_atom_type": "TABLE_HEADER", "md_parent_section": "§2.2 [Table Structure]", "md_verbatim": "| Column | Description |\n|--------|-------------|", "score": 0.6554, "match_basis": "verbatim_token+global_search"}, {"md_atom_id": "md_ch01_a070", "md_file": "knowledge_base/chapters/ch01_introduction.md", "md_atom_type": "TABLE_HEADER", "md_parent_section": "§1.4.1 [How to Read a Domain Specification]", "md_verbatim": "| Column | Description |\n|--------|-------------|", "score": 0.6554, "match_basis": "verbatim_token+global_search"}, {"md_atom_id": "md_ch10_a153", "md_file": "knowledge_base/chapters/ch10_appendices.md", "md_atom_type": "TABLE_HEADER", "md_parent_section": "§10.E [Revision History]", "md_verbatim": "| Domain | Description |\n|--------|-------------|", "score": 0.6554, "match_basis": "verbatim_token+global_search"}, {"md_atom_id": "md_ch01_a011", "md_file": "knowledge_base/chapters/ch01_introduction.md", "md_atom_type": "TABLE_HEADER", "md_parent_section": "§1.2 [Organization of this Document]", "md_verbatim": "| Section | Title | Description |\n|---------|-------|-------------|", "score": 0.6, "match_basis": "verbatim_token+global_search"}], "candidate_count": 5, "zero_candidate": false}
{"pdf_atom_id": "ig34_p0448_a038", "pdf_atom_type": "TABLE_ROW", "pdf_source": "SDTMIG_v3.4", "pdf_page": 448, "pdf_parent_section": "Appendix D: CDISC Variable-naming Fragments", "pdf_verbatim": "| DISABILITY | DISAB |", "figure_ref": null, "candidates": [{"md_atom_id": "md_ch10_a098", "md_file": "knowledge_base/chapters/ch10_appendices.md", "md_atom_type": "TABLE_ROW", "md_parent_section": "§10.D [CDISC Variable-naming Fragments]", "md_verbatim": "| DISABILITY | DISAB | | POSITION | POS |", "score": 0.6429, "match_basis": "verbatim_token+global_search"}, {"md_atom_id": "md_model02_a152", "md_file": "knowledge_base/model/02_observation_classes.md", "md_atom_type": "TABLE_ROW", "md_parent_section": "§3.1.3 > Topic and Qualifier Variables (100 variables)", "md_verbatim": "| --SPCUFL | Specimen Usability for the Test | \"Y\" or null |", "score": 0.444, "match_basis": "verbatim_token+global_search"}, {"md_atom_id": "md_varindex_a073", "md_file": "knowledge_base/VARIABLE_INDEX.md", "md_atom_type": "TABLE_ROW", "md_parent_section": "§ 二、领域专属变量（仅 1 个域，共 1499 个），按域分组", "md_verbatim": "| AESDISAB | Persist or Signif Disability/Incapacity | Char | Record Qualifier | Perm | C66742 |", "score": 0.4067, "match_basis": "verbatim_token+global_search"}, {"md_atom_id": "md_model02_a108", "md_file": "knowledge_base/model/02_observation_classes.md", "md_atom_type": "TABLE_ROW", "md_parent_section": "§3.1.2 > Topic and Qualifier Variables (56 variables)", "md_verbatim": "| 43 | --SDISAB | Persist or Signif Disability/Incapacity | Char | Record Qualifier | Not in nonclinical trials |", "score": 0.3923, "match_basis": "verbatim_token+global_search"}, {"md_atom_id": "md_dmHO_ex_a042", "md_file": "knowledge_base/domains/HO/examples.md", "md_atom_type": "TABLE_ROW", "md_parent_section": "§HO.2 [Example 2]", "md_verbatim": "| 3 | ABC | HO | ABC123101 | 3 | REHABILITATION FACILITY | FOLLOW-UP CARE | 2011-06-12 | 2011-06-22 | | |", "score": 0.3882, "match_basis": "verbatim_token+global_search"}], "candidate_count": 5, "zero_candidate": false}
{"pdf_atom_id": "ig34_p0448_a039", "pdf_atom_type": "TABLE_ROW", "pdf_source": "SDTMIG_v3.4", "pdf_page": 448, "pdf_parent_section": "Appendix D: CDISC Variable-naming Fragments", "pdf_verbatim": "| DOSE, DOSAGE | DOS, DOSE |", "figure_ref": null, "candidates": [{"md_atom_id": "md_ch10_a099", "md_file": "knowledge_base/chapters/ch10_appendices.md", "md_atom_type": "TABLE_ROW", "md_parent_section": "§10.D [CDISC Variable-naming Fragments]", "md_verbatim": "| DOSE, DOSAGE | DOS, DOSE | | QUALIFIER | QUAL |", "score": 0.55, "match_basis": "verbatim_token+global_search"}, {"md_atom_id": "md_ch04_a760", "md_file": "knowledge_base/chapters/ch04_general_assumptions.md", "md_atom_type": "TABLE_ROW", "md_parent_section": "§4.4.10 [Representing Time Points]", "md_verbatim": "| | | PRE-DOSE | 1 | PM DOSE |", "score": 0.5, "match_basis": "verbatim_token+global_search"}, {"md_atom_id": "md_ch04_a766", "md_file": "knowledge_base/chapters/ch04_general_assumptions.md", "md_atom_type": "TABLE_ROW", "md_parent_section": "§4.4.10 [Representing Time Points]", "md_verbatim": "| | | PRE-DOSE | 1 | PM DOSE |", "score": 0.5, "match_basis": "verbatim_token+global_search"}, {"md_atom_id": "md_ch04_a772", "md_file": "knowledge_base/chapters/ch04_general_assumptions.md", "md_atom_type": "TABLE_ROW", "md_parent_section": "§4.4.10 [Representing Time Points]", "md_verbatim": "| | | PRE-DOSE | 1 | PM DOSE |", "score": 0.5, "match_basis": "verbatim_token+global_search"}, {"md_atom_id": "md_ch04_a740", "md_file": "knowledge_base/chapters/ch04_general_assumptions.md", "md_atom_type": "TABLE_ROW", "md_parent_section": "§4.4.10 [Representing Time Points]", "md_verbatim": "| | | PRE-DOSE | 1 | DAY 1, PM DOSE |", "score": 0.4714, "match_basis": "verbatim_token+global_search"}, {"md_atom_id": "md_ch04_a743", "md_file": "knowledge_base/chapters/ch04_general_assumptions.md", "md_atom_type": "TABLE_ROW", "md_parent_section": "§4.4.10 [Representing Time Points]", "md_verbatim": "| | | PRE-DOSE | 1 | DAY 5, AM DOSE |", "score": 0.4714, "match_basis": "verbatim_token+global_search"}, {"md_atom_id": "md_ch04_a746", "md_file": "knowledge_base/chapters/ch04_general_assumptions.md", "md_atom_type": "TABLE_ROW", "md_parent_section": "§4.4.10 [Representing Time Points]", "md_verbatim": "| | | PRE-DOSE | 1 | DAY 5, PM DOSE |", "score": 0.4714, "match_basis": "verbatim_token+global_search"}, {"md_atom_id": "md_ch04_a752", "md_file": "knowledge_base/chapters/ch04_general_assumptions.md", "md_atom_type": "TABLE_ROW", "md_parent_section": "§4.4.10 [Representing Time Points]", "md_verbatim": "| | | PRE-DOSE | 1 | DAY 1, PM DOSE |", "score": 0.4714, "match_basis": "verbatim_token+global_search"}, {"md_atom_id": "md_dmTS_assn_a026", "md_file": "knowledge_base/domains/TS/assumptions.md", "md_atom_type": "TABLE_ROW", "md_parent_section": "§TS [TS — Assumptions]", "md_verbatim": "    | 1 | | DOSU | Dose Units | mg |", "score": 0.4333, "match_basis": "verbatim_token+global_search"}, {"md_atom_id": "md_ch04_a737", "md_file": "knowledge_base/chapters/ch04_general_assumptions.md", "md_atom_type": "TABLE_ROW", "md_parent_section": "§4.4.10 [Representing Time Points]", "md_verbatim": "| PERIOD 1 | 3 | PRE-DOSE | 1 | DAY 1, AM DOSE |", "score": 0.4091, "match_basis": "verbatim_token+global_search"}], "candidate_count": 10, "zero_candidate": false}
{"pdf_atom_id": "ig34_p0448_a040", "pdf_atom_type": "TABLE_ROW", "pdf_source": "SDTMIG_v3.4", "pdf_page": 448, "pdf_parent_section": "Appendix D: CDISC Variable-naming Fragments", "pdf_verbatim": "| DURATION | DUR |", "figure_ref": null, "candidates": [{"md_atom_id": "md_ch10_a100", "md_file": "knowledge_base/chapters/ch10_appendices.md", "md_atom_type": "TABLE_ROW", "md_parent_section": "§10.D [CDISC Variable-naming Fragments]", "md_verbatim": "| DURATION | DUR | | REASON | REAS |", "score": 0.66, "match_basis": "verbatim_token+global_search"}, {"md_atom_id": "md_model02_a215", "md_file": "knowledge_base/model/02_observation_classes.md", "md_atom_type": "TABLE_ROW", "md_parent_section": "§3.1.5 > Study Day Variables", "md_verbatim": "| 27 | --DUR | Collected Duration | Char | ISO 8601 duration |", "score": 0.5, "match_basis": "verbatim_token+global_search"}, {"md_atom_id": "md_varindex_a238", "md_file": "knowledge_base/VARIABLE_INDEX.md", "md_atom_type": "TABLE_ROW", "md_parent_section": "§ 二、领域专属变量（仅 1 个域，共 1499 个），按域分组", "md_verbatim": "| CMDUR | Duration | Char | Timing | Perm | ISO 8601 duration |", "score": 0.4895, "match_basis": "verbatim_token+global_search"}, {"md_atom_id": "md_varindex_a997", "md_file": "knowledge_base/VARIABLE_INDEX.md", "md_atom_type": "TABLE_ROW", "md_parent_section": "§ 二、领域专属变量（仅 1 个域，共 1499 个），按域分组", "md_verbatim": "| MSDUR | Duration | Char | Timing | Perm | ISO 8601 duration |", "score": 0.4895, "match_basis": "verbatim_token+global_search"}, {"md_atom_id": "md_varindex_a1320", "md_file": "knowledge_base/VARIABLE_INDEX.md", "md_atom_type": "TABLE_ROW", "md_parent_section": "§ 二、领域专属变量（仅 1 个域，共 1499 个），按域分组", "md_verbatim": "| RPDUR | Duration | Char | Timing | Perm | ISO 8601 duration |", "score": 0.4895, "match_basis": "verbatim_token+global_search"}], "candidate_count": 5, "zero_candidate": false}
{"pdf_atom_id": "ig34_p0448_a041", "pdf_atom_type": "TABLE_ROW", "pdf_source": "SDTMIG_v3.4", "pdf_page": 448, "pdf_parent_section": "Appendix D: CDISC Variable-naming Fragments", "pdf_verbatim": "| ELAPSED | EL |", "figure_ref": null, "candidates": [{"md_atom_id": "md_ch10_a101", "md_file": "knowledge_base/chapters/ch10_appendices.md", "md_atom_type": "TABLE_ROW", "md_parent_section": "§10.D [CDISC Variable-naming Fragments]", "md_verbatim": "| ELAPSED | EL | | REFERENCE | REF, RF |", "score": 0.55, "match_basis": "verbatim_token+global_search"}, {"md_atom_id": "md_model02_a220", "md_file": "knowledge_base/model/02_observation_classes.md", "md_atom_type": "TABLE_ROW", "md_parent_section": "§3.1.5 > Time Point Variables", "md_verbatim": "| 30 | --ELTM | Planned Elapsed Time from Time Point Ref | Char | ISO 8601 duration |", "score": 0.3968, "match_basis": "verbatim_token+global_search"}, {"md_atom_id": "md_ch04_a710", "md_file": "knowledge_base/chapters/ch04_general_assumptions.md", "md_atom_type": "TABLE_ROW", "md_parent_section": "§4.4.10 [Representing Time Points]", "md_verbatim": "| --ELTM | Planned Elapsed Time from Reference (ISO 8601 duration) |", "score": 0.3937, "match_basis": "verbatim_token+global_search"}, {"md_atom_id": "md_varindex_a175", "md_file": "knowledge_base/VARIABLE_INDEX.md", "md_atom_type": "TABLE_ROW", "md_parent_section": "§ 二、领域专属变量（仅 1 个域，共 1499 个），按域分组", "md_verbatim": "| BSELTM | Planned Elapsed Time from Time Point Ref | Char | Timing | Perm | ISO 8601 duration |", "score": 0.3789, "match_basis": "verbatim_token+global_search"}, {"md_atom_id": "md_varindex_a307", "md_file": "knowledge_base/VARIABLE_INDEX.md", "md_atom_type": "TABLE_ROW", "md_parent_section": "§ 二、领域专属变量（仅 1 个域，共 1499 个），按域分组", "md_verbatim": "| CPELTM | Planned Elapsed Time from Time Point Ref | Char | Timing | Perm | ISO 8601 duration |", "score": 0.3789, "match_basis": "verbatim_token+global_search"}, {"md_atom_id": "md_varindex_a343", "md_file": "knowledge_base/VARIABLE_INDEX.md", "md_atom_type": "TABLE_ROW", "md_parent_section": "§ 二、领域专属变量（仅 1 个域，共 1499 个），按域分组", "md_verbatim": "| CVELTM | Planned Elapsed Time from Time Point Ref | Char | Timing | Perm | ISO 8601 duration |", "score": 0.3789, "match_basis": "verbatim_token+global_search"}, {"md_atom_id": "md_varindex_a473", "md_file": "knowledge_base/VARIABLE_INDEX.md", "md_atom_type": "TABLE_ROW", "md_parent_section": "§ 二、领域专属变量（仅 1 个域，共 1499 个），按域分组", "md_verbatim": "| ECELTM | Planned Elapsed Time from Time Point Ref | Char | Timing | Perm | ISO 8601 duration |", "score": 0.3789, "match_basis": "verbatim_token+global_search"}, {"md_atom_id": "md_varindex_a510", "md_file": "knowledge_base/VARIABLE_INDEX.md", "md_atom_type": "TABLE_ROW", "md_parent_section": "§ 二、领域专属变量（仅 1 个域，共 1499 个），按域分组", "md_verbatim": "| EGELTM | Planned Elapsed Time from Time Point Ref | Char | Timing | Perm | ISO 8601 duration |", "score": 0.3789, "match_basis": "verbatim_token+global_search"}, {"md_atom_id": "md_varindex_a544", "md_file": "knowledge_base/VARIABLE_INDEX.md", "md_atom_type": "TABLE_ROW", "md_parent_section": "§ 二、领域专属变量（仅 1 个域，共 1499 个），按域分组", "md_verbatim": "| EXELTM | Planned Elapsed Time from Time Point Ref | Char | Timing | Perm | ISO 8601 duration |", "score": 0.3789, "match_basis": "verbatim_token+global_search"}, {"md_atom_id": "md_varindex_a600", "md_file": "knowledge_base/VARIABLE_INDEX.md", "md_atom_type": "TABLE_ROW", "md_parent_section": "§ 二、领域专属变量（仅 1 个域，共 1499 个），按域分组", "md_verbatim": "| FTELTM | Planned Elapsed Time from Time Point Ref | Char | Timing | Perm | ISO 8601 duration |", "score": 0.3789, "match_basis": "verbatim_token+global_search"}], "candidate_count": 10, "zero_candidate": false}
{"pdf_atom_id": "ig34_p0448_a042", "pdf_atom_type": "TABLE_ROW", "pdf_source": "SDTMIG_v3.4", "pdf_page": 448, "pdf_parent_section": "Appendix D: CDISC Variable-naming Fragments", "pdf_verbatim": "| ELEMENT | ET |", "figure_ref": null, "candidates": [{"md_atom_id": "md_ch10_a102", "md_file": "knowledge_base/chapters/ch10_appendices.md", "md_atom_type": "TABLE_ROW", "md_parent_section": "§10.D [CDISC Variable-naming Fragments]", "md_verbatim": "| ELEMENT | ET | | REGIMEN | RGM |", "score": 0.6, "match_basis": "verbatim_token+global_search"}, {"md_atom_id": "md_model05_a023", "md_file": "knowledge_base/model/05_study_level_data.md", "md_atom_type": "TABLE_ROW", "md_parent_section": "§ Trial Elements (TE)", "md_verbatim": "| 3 | ETCD | Element Code | Char | Topic |", "score": 0.5143, "match_basis": "verbatim_token+global_search"}, {"md_atom_id": "md_model05_a026", "md_file": "knowledge_base/model/05_study_level_data.md", "md_atom_type": "TABLE_ROW", "md_parent_section": "§ Trial Elements (TE)", "md_verbatim": "| 6 | TEENRL | Rule for End of Element | Char | Rule |", "score": 0.5, "match_basis": "verbatim_token+global_search"}, {"md_atom_id": "md_varindex_a024", "md_file": "knowledge_base/VARIABLE_INDEX.md", "md_atom_type": "TABLE_ROW", "md_parent_section": "§ 一、通用变量（出现在 2+ 个域，共 24 个）", "md_verbatim": "| ETCD | 3 | SE, TA, TE | Element Code | Char | Topic* | Req |", "score": 0.5, "match_basis": "verbatim_token+global_search"}, {"md_atom_id": "md_model05_a025", "md_file": "knowledge_base/model/05_study_level_data.md", "md_atom_type": "TABLE_ROW", "md_parent_section": "§ Trial Elements (TE)", "md_verbatim": "| 5 | TESTRL | Rule for Start of Element | Char | Rule |", "score": 0.4765, "match_basis": "verbatim_token+global_search"}, {"md_atom_id": "md_varindex_a1517", "md_file": "knowledge_base/VARIABLE_INDEX.md", "md_atom_type": "TABLE_ROW", "md_parent_section": "§ 二、领域专属变量（仅 1 个域，共 1499 个），按域分组", "md_verbatim": "| TEENRL | Rule for End of Element | Char | Rule | Perm | — |", "score": 0.4765, "match_basis": "verbatim_token+global_search"}, {"md_atom_id": "md_model03_a096", "md_file": "knowledge_base/model/03_special_purpose_domains.md", "md_atom_type": "TABLE_ROW", "md_parent_section": "§ Subject Elements (SE) > Variables (13 variables)", "md_verbatim": "| 5 | ETCD | Element Code | Char | Topic | Code for the Element (from TE) |", "score": 0.4667, "match_basis": "verbatim_token+global_search"}, {"md_atom_id": "md_model03_a103", "md_file": "knowledge_base/model/03_special_purpose_domains.md", "md_atom_type": "TABLE_ROW", "md_parent_section": "§ Subject Elements (SE) > Variables (13 variables)", "md_verbatim": "| 12 | SEENDY | Study Day of End of Element | Num | Timing | |", "score": 0.4667, "match_basis": "verbatim_token+global_search"}, {"md_atom_id": "md_varindex_a1516", "md_file": "knowledge_base/VARIABLE_INDEX.md", "md_atom_type": "TABLE_ROW", "md_parent_section": "§ 二、领域专属变量（仅 1 个域，共 1499 个），按域分组", "md_verbatim": "| TESTRL | Rule for Start of Element | Char | Rule | Req | — |", "score": 0.4667, "match_basis": "verbatim_token+global_search"}, {"md_atom_id": "md_model03_a101", "md_file": "knowledge_base/model/03_special_purpose_domains.md", "md_atom_type": "TABLE_ROW", "md_parent_section": "§ Subject Elements (SE) > Variables (13 variables)", "md_verbatim": "| 10 | SEENDTC | End Date/Time of Element | Char | Timing | |", "score": 0.4579, "match_basis": "verbatim_token+global_search"}], "candidate_count": 10, "zero_candidate": false}
{"pdf_atom_id": "ig34_p0448_a043", "pdf_atom_type": "TABLE_ROW", "pdf_source": "SDTMIG_v3.4", "pdf_page": 448, "pdf_parent_section": "Appendix D: CDISC Variable-naming Fragments", "pdf_verbatim": "| EMERGENT | EM |", "figure_ref": null, "candidates": [{"md_atom_id": "md_ch10_a103", "md_file": "knowledge_base/chapters/ch10_appendices.md", "md_atom_type": "TABLE_ROW", "md_parent_section": "§10.D [CDISC Variable-naming Fragments]", "md_verbatim": "| EMERGENT | EM | | RELATED | REL, R |", "score": 0.6273, "match_basis": "verbatim_token+global_search"}, {"md_atom_id": "md_ch10_a065", "md_file": "knowledge_base/chapters/ch10_appendices.md", "md_atom_type": "TABLE_ROW", "md_parent_section": "§10.C [Controlled Terminology]", "md_verbatim": "| AETRTEM | Treatment Emergent Flag | AE |", "score": 0.4895, "match_basis": "verbatim_token+global_search"}, {"md_atom_id": "md_ch08_a190", "md_file": "knowledge_base/chapters/ch08_relationships.md", "md_atom_type": "TABLE_ROW", "md_parent_section": "§8.4.3 [Examples]", "md_verbatim": "| 2 | 1996001 | AE | 99-401 | AESEQ | 1 | AETRTEM | Treatment Emergent Flag | N | Derived | SPONSOR |", "score": 0.3947, "match_basis": "verbatim_token+global_search"}, {"md_atom_id": "md_dmSUPPQUAL_ex_a008", "md_file": "knowledge_base/domains/SUPPQUAL/examples.md", "md_atom_type": "TABLE_ROW", "md_parent_section": "§SUPPQUAL.1 [Example 1]", "md_verbatim": "| 2 | 1996001 | AE | 99-401 | AESEQ | 1 | AETRTEMA | Treatment Emergent Flag | N | Derived | SPONSOR |", "score": 0.3923, "match_basis": "verbatim_token+global_search"}, {"md_atom_id": "md_ch10_a102", "md_file": "knowledge_base/chapters/ch10_appendices.md", "md_atom_type": "TABLE_ROW", "md_parent_section": "§10.D [CDISC Variable-naming Fragments]", "md_verbatim": "| ELEMENT | ET | | REGIMEN | RGM |", "score": 0.3857, "match_basis": "verbatim_token+global_search"}], "candidate_count": 5, "zero_candidate": false}
{"pdf_atom_id": "ig34_p0448_a044", "pdf_atom_type": "TABLE_ROW", "pdf_source": "SDTMIG_v3.4", "pdf_page": 448, "pdf_parent_section": "Appendix D: CDISC Variable-naming Fragments", "pdf_verbatim": "| END | END, EN |", "figure_ref": null, "candidates": [{"md_atom_id": "md_ch10_a240", "md_file": "knowledge_base/chapters/ch10_appendices.md", "md_atom_type": "TABLE_ROW", "md_parent_section": "§10.E [Revision History]", "md_verbatim": "| **Appendices** | | |", "score": 0.375, "match_basis": "verbatim_token+global_search"}, {"md_atom_id": "md_dmEX_ex_a208", "md_file": "knowledge_base/domains/EX/examples.md", "md_atom_type": "TABLE_ROW", "md_parent_section": "§EX.7 [Example 7]", "md_verbatim": "| Intended Dose | 10 mg/kg | 10 mg/kg / 7.5 mg/kg | 10 mg/kg / 7.5 mg/kg |", "score": 0.375, "match_basis": "verbatim_token+global_search"}, {"md_atom_id": "md_dmEX_ex_a213", "md_file": "knowledge_base/domains/EX/examples.md", "md_atom_type": "TABLE_ROW", "md_parent_section": "§EX.7 [Example 7]", "md_verbatim": "| End Time (24 hour clock) | 10:45 | 11:20 | |", "score": 0.375, "match_basis": "verbatim_token+global_search"}, {"md_atom_id": "md_ch10_a104", "md_file": "knowledge_base/chapters/ch10_appendices.md", "md_atom_type": "TABLE_ROW", "md_parent_section": "§10.D [CDISC Variable-naming Fragments]", "md_verbatim": "| END | END, EN | | RELATIONSHIP | REL |", "score": 0.3545, "match_basis": "verbatim_token+global_search"}, {"md_atom_id": "md_model05_a095", "md_file": "knowledge_base/model/05_study_level_data.md", "md_atom_type": "TABLE_ROW", "md_parent_section": "§ Trial Visits (TV)", "md_verbatim": "| 9 | TVENRL | Visit End Rule | Char | Rule |", "score": 0.35, "match_basis": "verbatim_token+global_search"}, {"md_atom_id": "md_varindex_a1592", "md_file": "knowledge_base/VARIABLE_INDEX.md", "md_atom_type": "TABLE_ROW", "md_parent_section": "§ 二、领域专属变量（仅 1 个域，共 1499 个），按域分组", "md_verbatim": "| TVENRL | Visit End Rule | Char | Rule | Perm | — |", "score": 0.3429, "match_basis": "verbatim_token+global_search"}, {"md_atom_id": "md_dmPR_ex_a009", "md_file": "knowledge_base/domains/PR/examples.md", "md_atom_type": "TABLE_ROW", "md_parent_section": "§PR.1 [Example 1]", "md_verbatim": "| 4 | XYZ | PR | XYZ789-002 | 4 | Endoscopy | 2010-12-12 | 2010-12-12 |", "score": 0.3429, "match_basis": "verbatim_token+global_search"}, {"md_atom_id": "md_model05_a026", "md_file": "knowledge_base/model/05_study_level_data.md", "md_atom_type": "TABLE_ROW", "md_parent_section": "§ Trial Elements (TE)", "md_verbatim": "| 6 | TEENRL | Rule for End of Element | Char | Rule |", "score": 0.34, "match_basis": "verbatim_token+global_search"}, {"md_atom_id": "md_dmTS_ex_a049", "md_file": "knowledge_base/domains/TS/examples.md", "md_atom_type": "TABLE_ROW", "md_parent_section": "§TS.1 [Example 1]", "md_verbatim": "| 44 | XYZ | TS | 1 | | SENDTC | Study End Date | 2011-04-01 | | | ISO 8601 | |", "score": 0.34, "match_basis": "verbatim_token+global_search"}, {"md_atom_id": "md_model02_a203", "md_file": "knowledge_base/model/02_observation_classes.md", "md_atom_type": "TABLE_ROW", "md_parent_section": "§3.1.5 > Study Day Variables", "md_verbatim": "| 15 | --ENDY | Study Day of End of Observation | Num | |", "score": 0.3375, "match_basis": "verbatim_token+global_search"}], "candidate_count": 10, "zero_candidate": false}
{"pdf_atom_id": "ig34_p0448_a045", "pdf_atom_type": "TABLE_ROW", "pdf_source": "SDTMIG_v3.4", "pdf_page": 448, "pdf_parent_section": "Appendix D: CDISC Variable-naming Fragments", "pdf_verbatim": "| ETHNICITY | ETHNIC |", "figure_ref": null, "candidates": [{"md_atom_id": "md_ch10_a105", "md_file": "knowledge_base/chapters/ch10_appendices.md", "md_atom_type": "TABLE_ROW", "md_parent_section": "§10.D [CDISC Variable-naming Fragments]", "md_verbatim": "| ETHNICITY | ETHNIC | | RESULT | RES |", "score": 0.6818, "match_basis": "verbatim_token+global_search"}, {"md_atom_id": "md_varindex_a1757", "md_file": "knowledge_base/VARIABLE_INDEX.md", "md_atom_type": "TABLE_ROW", "md_parent_section": "§ 三、CDISC Controlled Terminology 交叉引用（共 135 个 CT Code）", "md_verbatim": "| C66790 | 1 | DM.ETHNIC |", "score": 0.5182, "match_basis": "verbatim_token+global_search"}, {"md_atom_id": "md_ch10_a126", "md_file": "knowledge_base/chapters/ch10_appendices.md", "md_atom_type": "TABLE_ROW", "md_parent_section": "§10.D [CDISC Variable-naming Fragments]", "md_verbatim": "| | | | TOXICITY | TOX |", "score": 0.48, "match_basis": "verbatim_token+global_search"}, {"md_atom_id": "md_dmDM_ex_a133", "md_file": "knowledge_base/domains/DM/examples.md", "md_atom_type": "TABLE_ROW", "md_parent_section": "§DM.5 [Example 5]", "md_verbatim": "| 2 | ABC789 | DM | ABC789-010-047 | | | ETHNIC1 | Collected Ethnicity 1 | MIAO | CRF | |", "score": 0.475, "match_basis": "verbatim_token+global_search"}, {"md_atom_id": "md_varindex_a399", "md_file": "knowledge_base/VARIABLE_INDEX.md", "md_atom_type": "TABLE_ROW", "md_parent_section": "§ 二、领域专属变量（仅 1 个域，共 1499 个），按域分组", "md_verbatim": "| ETHNIC | Ethnicity | Char | Record Qualifier | Perm | C66790 |", "score": 0.4615, "match_basis": "verbatim_token+global_search"}], "candidate_count": 5, "zero_candidate": false}
{"pdf_atom_id": "ig34_p0448_a046", "pdf_atom_type": "TABLE_ROW", "pdf_source": "SDTMIG_v3.4", "pdf_page": 448, "pdf_parent_section": "Appendix D: CDISC Variable-naming Fragments", "pdf_verbatim": "| EVALUATION | EVL |", "figure_ref": null, "candidates": [{"md_atom_id": "md_ch10_a106", "md_file": "knowledge_base/chapters/ch10_appendices.md", "md_atom_type": "TABLE_ROW", "md_parent_section": "§10.D [CDISC Variable-naming Fragments]", "md_verbatim": "| EVALUATION | EVL | | RULE | RL |", "score": 0.7909, "match_basis": "verbatim_token+global_search"}, {"md_atom_id": "md_model05_a128", "md_file": "knowledge_base/model/05_study_level_data.md", "md_atom_type": "TABLE_ROW", "md_parent_section": "§ Trial Inclusion/Exclusion Criteria (TI)", "md_verbatim": "| 7 | TIRL | Criterion Evaluation Rule | Char | Rule |", "score": 0.5286, "match_basis": "verbatim_token+global_search"}, {"md_atom_id": "md_model02_a227", "md_file": "knowledge_base/model/02_observation_classes.md", "md_atom_type": "TABLE_ROW", "md_parent_section": "§3.1.5 > Relative Timing Variables", "md_verbatim": "| 35 | --EVLINT | Evaluation Interval | Char | ISO 8601 duration or interval |", "score": 0.525, "match_basis": "verbatim_token+global_search"}, {"md_atom_id": "md_dmML_ex_a029", "md_file": "knowledge_base/domains/ML/examples.md", "md_atom_type": "TABLE_ROW", "md_parent_section": "§ML.1 [Example 1]", "md_verbatim": "| 5 | XYZ | ML | XYZ-001-001 | 5 | ACKEE FRUIT | DILI EVALUATION | Y | N | | | 2015-12-27 | | | -P1W | | | |", "score": 0.5182, "match_basis": "verbatim_token+global_search"}, {"md_atom_id": "md_dmML_ex_a030", "md_file": "knowledge_base/domains/ML/examples.md", "md_atom_type": "TABLE_ROW", "md_parent_section": "§ML.1 [Example 1]", "md_verbatim": "| 6 | XYZ | ML | XYZ-001-001 | 6 | CYCAD SEEDS | DILI EVALUATION | Y | N | | | 2015-12-27 | | | -P1W | | | |", "score": 0.5182, "match_basis": "verbatim_token+global_search"}], "candidate_count": 5, "zero_candidate": false}
{"pdf_atom_id": "ig34_p0448_a047", "pdf_atom_type": "TABLE_ROW", "pdf_source": "SDTMIG_v3.4", "pdf_page": 448, "pdf_parent_section": "Appendix D: CDISC Variable-naming Fragments", "pdf_verbatim": "| EVALUATOR | EVAL |", "figure_ref": null, "candidates": [{"md_atom_id": "md_ch10_a107", "md_file": "knowledge_base/chapters/ch10_appendices.md", "md_atom_type": "TABLE_ROW", "md_parent_section": "§10.D [CDISC Variable-naming Fragments]", "md_verbatim": "| EVALUATOR | EVAL | | SEQUENCE | SEQ |", "score": 0.6231, "match_basis": "verbatim_token+global_search"}, {"md_atom_id": "md_ch10_a106", "md_file": "knowledge_base/chapters/ch10_appendices.md", "md_atom_type": "TABLE_ROW", "md_parent_section": "§10.D [CDISC Variable-naming Fragments]", "md_verbatim": "| EVALUATION | EVL | | RULE | RL |", "score": 0.5308, "match_basis": "verbatim_token+global_search"}, {"md_atom_id": "md_model03_a081", "md_file": "knowledge_base/model/03_special_purpose_domains.md", "md_atom_type": "TABLE_ROW", "md_parent_section": "§ Comments (CO) > Variables (15 variables)", "md_verbatim": "| 12 | COEVAL | Evaluator | Char | Record Qualifier |", "score": 0.4909, "match_basis": "verbatim_token+global_search"}, {"md_atom_id": "md_model06_a052", "md_file": "knowledge_base/model/06_relationship_datasets.md", "md_atom_type": "TABLE_ROW", "md_parent_section": "§6.2 Supplemental Qualifiers (SUPP--)", "md_verbatim": "| 13 | QEVAL | Evaluator | Char | Record Qualifier | Role of the evaluator |", "score": 0.475, "match_basis": "verbatim_token+global_search"}, {"md_atom_id": "md_varindex_a1488", "md_file": "knowledge_base/VARIABLE_INDEX.md", "md_atom_type": "TABLE_ROW", "md_parent_section": "§ 二、领域专属变量（仅 1 个域，共 1499 个），按域分组", "md_verbatim": "| QEVAL | Evaluator | Char | Record Qualifier | Exp | C78735 |", "score": 0.4615, "match_basis": "verbatim_token+global_search"}], "candidate_count": 5, "zero_candidate": false}
{"pdf_atom_id": "ig34_p0449_a001", "pdf_atom_type": "TABLE_ROW", "pdf_source": "SDTMIG_v3.4", "pdf_page": 449, "pdf_parent_section": "Appendix D: CDISC Variable-naming Fragments", "pdf_verbatim": "| EXTERNAL | X |", "figure_ref": null, "candidates": [{"md_atom_id": "md_ch10_a108", "md_file": "knowledge_base/chapters/ch10_appendices.md", "md_atom_type": "TABLE_ROW", "md_parent_section": "§10.D [CDISC Variable-naming Fragments]", "md_verbatim": "| EXTERNAL | X | | SERIOUS | S, SER |", "score": 0.6273, "match_basis": "verbatim_token+global_search"}, {"md_atom_id": "md_varindex_a589", "md_file": "knowledge_base/VARIABLE_INDEX.md", "md_atom_type": "TABLE_ROW", "md_parent_section": "§ 二、领域专属变量（仅 1 个域，共 1499 个），按域分组", "md_verbatim": "| FTXFN | External File Path | Char | Record Qualifier | Perm | — |", "score": 0.4286, "match_basis": "verbatim_token+global_search"}, {"md_atom_id": "md_varindex_a637", "md_file": "knowledge_base/VARIABLE_INDEX.md", "md_atom_type": "TABLE_ROW", "md_parent_section": "§ 二、领域专属变量（仅 1 个域，共 1499 个），按域分组", "md_verbatim": "| GFXFN | External File Path | Char | Record Qualifier | Perm | — |", "score": 0.4286, "match_basis": "verbatim_token+global_search"}, {"md_atom_id": "md_varindex_a975", "md_file": "knowledge_base/VARIABLE_INDEX.md", "md_atom_type": "TABLE_ROW", "md_parent_section": "§ 二、领域专属变量（仅 1 个域，共 1499 个），按域分组", "md_verbatim": "| MSXFN | External File Path | Char | Record Qualifier | Perm | — |", "score": 0.4286, "match_basis": "verbatim_token+global_search"}, {"md_atom_id": "md_varindex_a1065", "md_file": "knowledge_base/VARIABLE_INDEX.md", "md_atom_type": "TABLE_ROW", "md_parent_section": "§ 二、领域专属变量（仅 1 个域，共 1499 个），按域分组", "md_verbatim": "| OEXFN | External File Path | Char | Record Qualifier | Perm | — |", "score": 0.4286, "match_basis": "verbatim_token+global_search"}], "candidate_count": 5, "zero_candidate": false}
{"pdf_atom_id": "ig34_p0449_a002", "pdf_atom_type": "TABLE_ROW", "pdf_source": "SDTMIG_v3.4", "pdf_page": 449, "pdf_parent_section": "Appendix D: CDISC Variable-naming Fragments", "pdf_verbatim": "| FASTING | FAST |", "figure_ref": null, "candidates": [{"md_atom_id": "md_ch10_a109", "md_file": "knowledge_base/chapters/ch10_appendices.md", "md_atom_type": "TABLE_ROW", "md_parent_section": "§10.D [CDISC Variable-naming Fragments]", "md_verbatim": "| FASTING | FAST | | SEVERITY | SEV |", "score": 0.5727, "match_basis": "verbatim_token+global_search"}, {"md_atom_id": "md_varindex_a462", "md_file": "knowledge_base/VARIABLE_INDEX.md", "md_atom_type": "TABLE_ROW", "md_parent_section": "§ 二、领域专属变量（仅 1 个域，共 1499 个），按域分组", "md_verbatim": "| ECFAST | Fasting Status | Char | Record Qualifier | Perm | C66742 |", "score": 0.4, "match_basis": "verbatim_token+global_search"}, {"md_atom_id": "md_varindex_a535", "md_file": "knowledge_base/VARIABLE_INDEX.md", "md_atom_type": "TABLE_ROW", "md_parent_section": "§ 二、领域专属变量（仅 1 个域，共 1499 个），按域分组", "md_verbatim": "| EXFAST | Fasting Status | Char | Record Qualifier | Perm | C66742 |", "score": 0.4, "match_basis": "verbatim_token+global_search"}, {"md_atom_id": "md_varindex_a774", "md_file": "knowledge_base/VARIABLE_INDEX.md", "md_atom_type": "TABLE_ROW", "md_parent_section": "§ 二、领域专属变量（仅 1 个域，共 1499 个），按域分组", "md_verbatim": "| LBFAST | Fasting Status | Char | Record Qualifier | Perm | C66742 |", "score": 0.4, "match_basis": "verbatim_token+global_search"}, {"md_atom_id": "md_varindex_a821", "md_file": "knowledge_base/VARIABLE_INDEX.md", "md_atom_type": "TABLE_ROW", "md_parent_section": "§ 二、领域专属变量（仅 1 个域，共 1499 个），按域分组", "md_verbatim": "| MBFAST | Fasting Status | Char | Record Qualifier | Perm | C66742 |", "score": 0.4, "match_basis": "verbatim_token+global_search"}, {"md_atom_id": "md_varindex_a987", "md_file": "knowledge_base/VARIABLE_INDEX.md", "md_atom_type": "TABLE_ROW", "md_parent_section": "§ 二、领域专属变量（仅 1 个域，共 1499 个），按域分组", "md_verbatim": "| MSFAST | Fasting Status | Char | Record Qualifier | Perm | C66742 |", "score": 0.4, "match_basis": "verbatim_token+global_search"}, {"md_atom_id": "md_varindex_a1112", "md_file": "knowledge_base/VARIABLE_INDEX.md", "md_atom_type": "TABLE_ROW", "md_parent_section": "§ 二、领域专属变量（仅 1 个域，共 1499 个），按域分组", "md_verbatim": "| PCFAST | Fasting Status | Char | Record Qualifier | Perm | C66742 |", "score": 0.4, "match_basis": "verbatim_token+global_search"}, {"md_atom_id": "md_model02_a048", "md_file": "knowledge_base/model/02_observation_classes.md", "md_atom_type": "TABLE_ROW", "md_parent_section": "§3.1.1 > Topic and Qualifier Variables (43 variables)", "md_verbatim": "| 33 | --FAST | Fasting Status | Char | Record Qualifier | \"Y\", \"N\", \"U\", or null if not relevant |", "score": 0.3968, "match_basis": "verbatim_token+global_search"}, {"md_atom_id": "md_dmCE_ex_a050", "md_file": "knowledge_base/domains/CE/examples.md", "md_atom_type": "TABLE_ROW", "md_parent_section": "§CE.2 [Example 2]", "md_verbatim": "| 3 | ABC123 | CE | 123 | 3 | VOMIT | Vomiting | Y | N | | | | |", "score": 0.3923, "match_basis": "verbatim_token+global_search"}, {"md_atom_id": "md_ch02_a108", "md_file": "knowledge_base/chapters/ch02_fundamentals.md", "md_atom_type": "TABLE_ROW", "md_parent_section": "§2.7 [SDTM Variables Not Allowed in the SDTMIG]", "md_verbatim": "| --RSTIND | Interventions, Findings |", "score": 0.3818, "match_basis": "verbatim_token+global_search"}], "candidate_count": 10, "zero_candidate": false}
{"pdf_atom_id": "ig34_p0449_a003", "pdf_atom_type": "TABLE_ROW", "pdf_source": "SDTMIG_v3.4", "pdf_page": 449, "pdf_parent_section": "Appendix D: CDISC Variable-naming Fragments", "pdf_verbatim": "| FILENAME | FN |", "figure_ref": null, "candidates": [{"md_atom_id": "md_ch10_a110", "md_file": "knowledge_base/chapters/ch10_appendices.md", "md_atom_type": "TABLE_ROW", "md_parent_section": "§10.D [CDISC Variable-naming Fragments]", "md_verbatim": "| FILENAME | FN | | SIGNIFICANT | SIG |", "score": 0.54, "match_basis": "verbatim_token+global_search"}, {"md_atom_id": "md_index_a036", "md_file": "knowledge_base/INDEX.md", "md_atom_type": "TABLE_HEADER", "md_parent_section": "§ Domains (63 domains)", "md_verbatim": "| Domain | Name | Files |\n|--------|------|-------|", "score": 0.4582, "match_basis": "verbatim_token+global_search"}, {"md_atom_id": "md_index_a045", "md_file": "knowledge_base/INDEX.md", "md_atom_type": "TABLE_HEADER", "md_parent_section": "§ Domains (63 domains)", "md_verbatim": "| Domain | Name | Files |\n|--------|------|-------|", "score": 0.4582, "match_basis": "verbatim_token+global_search"}, {"md_atom_id": "md_index_a054", "md_file": "knowledge_base/INDEX.md", "md_atom_type": "TABLE_HEADER", "md_parent_section": "§ Domains (63 domains)", "md_verbatim": "| Domain | Name | Files |\n|--------|------|-------|", "score": 0.4582, "match_basis": "verbatim_token+global_search"}, {"md_atom_id": "md_index_a088", "md_file": "knowledge_base/INDEX.md", "md_atom_type": "TABLE_HEADER", "md_parent_section": "§ Domains (63 domains)", "md_verbatim": "| Domain | Name | Files |\n|--------|------|-------|", "score": 0.4582, "match_basis": "verbatim_token+global_search"}], "candidate_count": 5, "zero_candidate": false}
{"pdf_atom_id": "ig34_p0449_a004", "pdf_atom_type": "TABLE_ROW", "pdf_source": "SDTMIG_v3.4", "pdf_page": 449, "pdf_parent_section": "Appendix D: CDISC Variable-naming Fragments", "pdf_verbatim": "| FLAG | FL |", "figure_ref": null, "candidates": [{"md_atom_id": "md_ch10_a111", "md_file": "knowledge_base/chapters/ch10_appendices.md", "md_atom_type": "TABLE_ROW", "md_parent_section": "§10.D [CDISC Variable-naming Fragments]", "md_verbatim": "| FLAG | FL | | SPECIMEN | SPEC, SPC |", "score": 0.4333, "match_basis": "verbatim_token+global_search"}, {"md_atom_id": "md_dmRE_ex_a039", "md_file": "knowledge_base/domains/RE/examples.md", "md_atom_type": "TABLE_ROW", "md_parent_section": "§RE.2 [Example 2]", "md_verbatim": "| 1 | XYZ | RE | XYZ-001-001 | RESEQ | 1 | REBRESFL | Best Result Flag | Y | CRF | |", "score": 0.3667, "match_basis": "verbatim_token+global_search"}, {"md_atom_id": "md_ch10_a065", "md_file": "knowledge_base/chapters/ch10_appendices.md", "md_atom_type": "TABLE_ROW", "md_parent_section": "§10.C [Controlled Terminology]", "md_verbatim": "| AETRTEM | Treatment Emergent Flag | AE |", "score": 0.3632, "match_basis": "verbatim_token+global_search"}, {"md_atom_id": "md_varindex_a788", "md_file": "knowledge_base/VARIABLE_INDEX.md", "md_atom_type": "TABLE_ROW", "md_parent_section": "§ 二、领域专属变量（仅 1 个域，共 1499 个），按域分组", "md_verbatim": "| LBPTFL | Point in Time Flag | Char | Timing | Perm | C66742 |", "score": 0.3545, "match_basis": "verbatim_token+global_search"}, {"md_atom_id": "md_dmRE_ex_a040", "md_file": "knowledge_base/domains/RE/examples.md", "md_atom_type": "TABLE_ROW", "md_parent_section": "§RE.2 [Example 2]", "md_verbatim": "| 2 | XYZ | RE | XYZ-001-001 | RESEQ | 4 | REIRESFL | Inadequate Results Flag | Y | CRF | |", "score": 0.348, "match_basis": "verbatim_token+global_search"}, {"md_atom_id": "md_varindex_a170", "md_file": "knowledge_base/VARIABLE_INDEX.md", "md_atom_type": "TABLE_ROW", "md_parent_section": "§ 二、领域专属变量（仅 1 个域，共 1499 个），按域分组", "md_verbatim": "| BSBLFL | Baseline Flag | Char | Record Qualifier | Perm | C66742 |", "score": 0.3387, "match_basis": "verbatim_token+global_search"}, {"md_atom_id": "md_varindex_a300", "md_file": "knowledge_base/VARIABLE_INDEX.md", "md_atom_type": "TABLE_ROW", "md_parent_section": "§ 二、领域专属变量（仅 1 个域，共 1499 个），按域分组", "md_verbatim": "| CPBLFL | Baseline Flag | Char | Record Qualifier | Perm | C66742 |", "score": 0.3387, "match_basis": "verbatim_token+global_search"}, {"md_atom_id": "md_varindex_a301", "md_file": "knowledge_base/VARIABLE_INDEX.md", "md_atom_type": "TABLE_ROW", "md_parent_section": "§ 二、领域专属变量（仅 1 个域，共 1499 个），按域分组", "md_verbatim": "| CPDRVFL | Derived Flag | Char | Record Qualifier | Perm | C66742 |", "score": 0.3387, "match_basis": "verbatim_token+global_search"}, {"md_atom_id": "md_varindex_a335", "md_file": "knowledge_base/VARIABLE_INDEX.md", "md_atom_type": "TABLE_ROW", "md_parent_section": "§ 二、领域专属变量（仅 1 个域，共 1499 个），按域分组", "md_verbatim": "| CVBLFL | Baseline Flag | Char | Record Qualifier | Perm | C66742 |", "score": 0.3387, "match_basis": "verbatim_token+global_search"}, {"md_atom_id": "md_varindex_a336", "md_file": "knowledge_base/VARIABLE_INDEX.md", "md_atom_type": "TABLE_ROW", "md_parent_section": "§ 二、领域专属变量（仅 1 个域，共 1499 个），按域分组", "md_verbatim": "| CVDRVFL | Derived Flag | Char | Record Qualifier | Perm | C66742 |", "score": 0.3387, "match_basis": "verbatim_token+global_search"}], "candidate_count": 10, "zero_candidate": false}
{"pdf_atom_id": "ig34_p0449_a005", "pdf_atom_type": "TABLE_ROW", "pdf_source": "SDTMIG_v3.4", "pdf_page": 449, "pdf_parent_section": "Appendix D: CDISC Variable-naming Fragments", "pdf_verbatim": "| FORMULATION, FORM | FRM |", "figure_ref": null, "candidates": [{"md_atom_id": "md_ch10_a112", "md_file": "knowledge_base/chapters/ch10_appendices.md", "md_atom_type": "TABLE_ROW", "md_parent_section": "§10.D [CDISC Variable-naming Fragments]", "md_verbatim": "| FORMULATION, FORM | FRM | | SPONSOR | SP |", "score": 0.7, "match_basis": "verbatim_token+global_search"}, {"md_atom_id": "md_ch10_a097", "md_file": "knowledge_base/chapters/ch10_appendices.md", "md_atom_type": "TABLE_ROW", "md_parent_section": "§10.D [CDISC Variable-naming Fragments]", "md_verbatim": "| DESCRIPTION | DESC | | POPULATION | POP |", "score": 0.45, "match_basis": "verbatim_token+global_search"}, {"md_atom_id": "md_ch10_a104", "md_file": "knowledge_base/chapters/ch10_appendices.md", "md_atom_type": "TABLE_ROW", "md_parent_section": "§10.D [CDISC Variable-naming Fragments]", "md_verbatim": "| END | END, EN | | RELATIONSHIP | REL |", "score": 0.4412, "match_basis": "verbatim_token+global_search"}, {"md_atom_id": "md_ch10_a042", "md_file": "knowledge_base/chapters/ch10_appendices.md", "md_atom_type": "TABLE_ROW", "md_parent_section": "§10.B [Glossary and Abbreviations]", "md_verbatim": "| SDTM | Study Data Tabulation Model |", "score": 0.4304, "match_basis": "verbatim_token+global_search"}, {"md_atom_id": "md_index_a138", "md_file": "knowledge_base/INDEX.md", "md_atom_type": "TABLE_ROW", "md_parent_section": "§ Source Documents", "md_verbatim": "| SDTM (Study Data Tabulation Model) | v2.0 Final (2021-11-29) | 74 |", "score": 0.4071, "match_basis": "verbatim_token+global_search"}], "candidate_count": 5, "zero_candidate": false}
{"pdf_atom_id": "ig34_p0449_a006", "pdf_atom_type": "TABLE_ROW", "pdf_source": "SDTMIG_v3.4", "pdf_page": 449, "pdf_parent_section": "Appendix D: CDISC Variable-naming Fragments", "pdf_verbatim": "| FREQUENCY | FRQ |", "figure_ref": null, "candidates": [{"md_atom_id": "md_ch10_a113", "md_file": "knowledge_base/chapters/ch10_appendices.md", "md_atom_type": "TABLE_ROW", "md_parent_section": "§10.D [CDISC Variable-naming Fragments]", "md_verbatim": "| FREQUENCY | FRQ | | STANDARD | ST, STD |", "score": 0.62, "match_basis": "verbatim_token+global_search"}, {"md_atom_id": "md_dmTS_assn_a023", "md_file": "knowledge_base/domains/TS/assumptions.md", "md_atom_type": "TABLE_ROW", "md_parent_section": "§TS [TS — Assumptions]", "md_verbatim": "    | 1 | A | DOSFREQ | Dosing Frequency | BID |", "score": 0.58, "match_basis": "verbatim_token+global_search"}, {"md_atom_id": "md_dmTS_assn_a025", "md_file": "knowledge_base/domains/TS/assumptions.md", "md_atom_type": "TABLE_ROW", "md_parent_section": "§TS [TS — Assumptions]", "md_verbatim": "    | 2 | B | DOSFREQ | Dosing Frequency | Q24H |", "score": 0.5625, "match_basis": "verbatim_token+global_search"}, {"md_atom_id": "md_ch10_a107", "md_file": "knowledge_base/chapters/ch10_appendices.md", "md_atom_type": "TABLE_ROW", "md_parent_section": "§10.D [CDISC Variable-naming Fragments]", "md_verbatim": "| EVALUATOR | EVAL | | SEQUENCE | SEQ |", "score": 0.4412, "match_basis": "verbatim_token+global_search"}, {"md_atom_id": "md_dmTS_ex_a117", "md_file": "knowledge_base/domains/TS/examples.md", "md_atom_type": "TABLE_ROW", "md_parent_section": "§TS.4 [Example 4]", "md_verbatim": "| 32 | ABC123 | TS | 1 | DRUG X | DOSFRQ | Dosing Frequency | EVERY WEEK | | C67069 | CDISC CT | 2018-12-21 |", "score": 0.4412, "match_basis": "verbatim_token+global_search"}], "candidate_count": 5, "zero_candidate": false}
{"pdf_atom_id": "ig34_p0449_a007", "pdf_atom_type": "TABLE_ROW", "pdf_source": "SDTMIG_v3.4", "pdf_page": 449, "pdf_parent_section": "Appendix D: CDISC Variable-naming Fragments", "pdf_verbatim": "| GRADE | GR |", "figure_ref": null, "candidates": [{"md_atom_id": "md_ch10_a114", "md_file": "knowledge_base/chapters/ch10_appendices.md", "md_atom_type": "TABLE_ROW", "md_parent_section": "§10.D [CDISC Variable-naming Fragments]", "md_verbatim": "| GRADE | GR | | START | ST |", "score": 0.6, "match_basis": "verbatim_token+global_search"}, {"md_atom_id": "md_dmSR_ex_a023", "md_file": "knowledge_base/domains/SR/examples.md", "md_atom_type": "TABLE_ROW", "md_parent_section": "§SR.2 [Example 2]", "md_verbatim": "| 1 | CC-001 | SR | CC-001-101 | 1 | 1 | REACTGR | Reaction Grade | Dog Epi 0 mg | NEGATIVE | | NEGATIVE | | | FOREARM | 1 | WEEK 1 |", "score": 0.3667, "match_basis": "verbatim_token+global_search"}, {"md_atom_id": "md_dmSR_ex_a024", "md_file": "knowledge_base/domains/SR/examples.md", "md_atom_type": "TABLE_ROW", "md_parent_section": "§SR.2 [Example 2]", "md_verbatim": "| 2 | CC-001 | SR | CC-001-101 | 2 | 2 | REACTGR | Reaction Grade | Dog Epi 0.1 mg | NEGATIVE | | NEGATIVE | | | FOREARM | 1 | WEEK 1 |", "score": 0.3667, "match_basis": "verbatim_token+global_search"}, {"md_atom_id": "md_model02_a120", "md_file": "knowledge_base/model/02_observation_classes.md", "md_atom_type": "TABLE_ROW", "md_parent_section": "§3.1.2 > Topic and Qualifier Variables (56 variables)", "md_verbatim": "| 55 | --TOXGR | Toxicity Grade | Char | Record Qualifier | A toxicity grade from NCI CTCAE |", "score": 0.36, "match_basis": "verbatim_token+global_search"}, {"md_atom_id": "md_varindex_a084", "md_file": "knowledge_base/VARIABLE_INDEX.md", "md_atom_type": "TABLE_ROW", "md_parent_section": "§ 二、领域专属变量（仅 1 个域，共 1499 个），按域分组", "md_verbatim": "| AETOXGR | Standard Toxicity Grade | Char | Record Qualifier | Perm | — |", "score": 0.3529, "match_basis": "verbatim_token+global_search"}, {"md_atom_id": "md_varindex_a194", "md_file": "knowledge_base/VARIABLE_INDEX.md", "md_atom_type": "TABLE_ROW", "md_parent_section": "§ 二、领域专属变量（仅 1 个域，共 1499 个），按域分组", "md_verbatim": "| CETOXGR | Standard Toxicity Grade | Char | Record Qualifier | Perm | — |", "score": 0.3529, "match_basis": "verbatim_token+global_search"}, {"md_atom_id": "md_varindex_a777", "md_file": "knowledge_base/VARIABLE_INDEX.md", "md_atom_type": "TABLE_ROW", "md_parent_section": "§ 二、领域专属变量（仅 1 个域，共 1499 个），按域分组", "md_verbatim": "| LBTOXGR | Standard Toxicity Grade | Char | Record Qualifier | Perm | — |", "score": 0.3529, "match_basis": "verbatim_token+global_search"}, {"md_atom_id": "md_varindex_a1653", "md_file": "knowledge_base/VARIABLE_INDEX.md", "md_atom_type": "TABLE_ROW", "md_parent_section": "§ 二、领域专属变量（仅 1 个域，共 1499 个），按域分组", "md_verbatim": "| VSTOXGR | Standard Toxicity Grade | Char | Record Qualifier | Perm | — |", "score": 0.3529, "match_basis": "verbatim_token+global_search"}, {"md_atom_id": "md_ch04_a312", "md_file": "knowledge_base/chapters/ch04_general_assumptions.md", "md_atom_type": "TABLE_ROW", "md_parent_section": "§4.2.7.2 [\"Specify\" Values for Result Qualifier Variables]", "md_verbatim": "   | Eye Color | BLUEISH GRAY | GRAY     |", "score": 0.3462, "match_basis": "verbatim_token+global_search"}, {"md_atom_id": "md_ch04_a315", "md_file": "knowledge_base/chapters/ch04_general_assumptions.md", "md_atom_type": "TABLE_ROW", "md_parent_section": "§4.2.7.2 [\"Specify\" Values for Result Qualifier Variables]", "md_verbatim": "   | Eye Color | BLUEISH GRAY | BLUEISH GRAY |", "score": 0.3462, "match_basis": "verbatim_token+global_search"}], "candidate_count": 10, "zero_candidate": false}
{"pdf_atom_id": "ig34_p0449_a008", "pdf_atom_type": "TABLE_ROW", "pdf_source": "SDTMIG_v3.4", "pdf_page": 449, "pdf_parent_section": "Appendix D: CDISC Variable-naming Fragments", "pdf_verbatim": "| GROUP | GRP |", "figure_ref": null, "candidates": [{"md_atom_id": "md_ch10_a115", "md_file": "knowledge_base/chapters/ch10_appendices.md", "md_atom_type": "TABLE_ROW", "md_parent_section": "§10.D [CDISC Variable-naming Fragments]", "md_verbatim": "| GROUP | GRP | | STATUS | STAT |", "score": 0.6, "match_basis": "verbatim_token+global_search"}, {"md_atom_id": "md_model05_a137", "md_file": "knowledge_base/model/05_study_level_data.md", "md_atom_type": "TABLE_ROW", "md_parent_section": "§ Trial Summary (TS)", "md_verbatim": "| 4 | TSGRPID | Group ID | Char | Identifier |", "score": 0.4333, "match_basis": "verbatim_token+global_search"}, {"md_atom_id": "md_model05_a153", "md_file": "knowledge_base/model/05_study_level_data.md", "md_atom_type": "TABLE_ROW", "md_parent_section": "§ Challenge Agent Characterization (AC)", "md_verbatim": "| 4 | ACGRPID | Group ID | Char | Identifier |", "score": 0.4333, "match_basis": "verbatim_token+global_search"}, {"md_atom_id": "md_dmOI_ex_a012", "md_file": "knowledge_base/domains/OI/examples.md", "md_atom_type": "TABLE_ROW", "md_parent_section": "§OI.1 [Example 1]", "md_verbatim": "| 3 | STUDY123 | OI | HIV1MC | 3 | GROUP | Group | M |", "score": 0.4286, "match_basis": "verbatim_token+global_search"}, {"md_atom_id": "md_dmOI_ex_a016", "md_file": "knowledge_base/domains/OI/examples.md", "md_atom_type": "TABLE_ROW", "md_parent_section": "§OI.1 [Example 1]", "md_verbatim": "| 7 | STUDY123 | OI | HIV1MB | 3 | GROUP | Group | M |", "score": 0.4286, "match_basis": "verbatim_token+global_search"}, {"md_atom_id": "md_varindex_a040", "md_file": "knowledge_base/VARIABLE_INDEX.md", "md_atom_type": "TABLE_ROW", "md_parent_section": "§ 二、领域专属变量（仅 1 个域，共 1499 个），按域分组", "md_verbatim": "| AEGRPID | Group ID | Char | Identifier | Perm | — |", "score": 0.42, "match_basis": "verbatim_token+global_search"}, {"md_atom_id": "md_varindex_a096", "md_file": "knowledge_base/VARIABLE_INDEX.md", "md_atom_type": "TABLE_ROW", "md_parent_section": "§ 二、领域专属变量（仅 1 个域，共 1499 个），按域分组", "md_verbatim": "| AGGRPID | Group ID | Char | Identifier | Perm | — |", "score": 0.42, "match_basis": "verbatim_token+global_search"}, {"md_atom_id": "md_varindex_a131", "md_file": "knowledge_base/VARIABLE_INDEX.md", "md_atom_type": "TABLE_ROW", "md_parent_section": "§ 二、领域专属变量（仅 1 个域，共 1499 个），按域分组", "md_verbatim": "| BEGRPID | Group ID | Char | Identifier | Perm | — |", "score": 0.42, "match_basis": "verbatim_token+global_search"}, {"md_atom_id": "md_varindex_a151", "md_file": "knowledge_base/VARIABLE_INDEX.md", "md_atom_type": "TABLE_ROW", "md_parent_section": "§ 二、领域专属变量（仅 1 个域，共 1499 个），按域分组", "md_verbatim": "| BSGRPID | Group ID | Char | Identifier | Perm | — |", "score": 0.42, "match_basis": "verbatim_token+global_search"}, {"md_atom_id": "md_varindex_a181", "md_file": "knowledge_base/VARIABLE_INDEX.md", "md_atom_type": "TABLE_ROW", "md_parent_section": "§ 二、领域专属变量（仅 1 个域，共 1499 个），按域分组", "md_verbatim": "| CEGRPID | Group ID | Char | Identifier | Perm | — |", "score": 0.42, "match_basis": "verbatim_token+global_search"}], "candidate_count": 10, "zero_candidate": false}
{"pdf_atom_id": "ig34_p0449_a009", "pdf_atom_type": "TABLE_ROW", "pdf_source": "SDTMIG_v3.4", "pdf_page": 449, "pdf_parent_section": "Appendix D: CDISC Variable-naming Fragments", "pdf_verbatim": "| HOSPITALIZATION | HOSP |", "figure_ref": null, "candidates": [{"md_atom_id": "md_ch10_a116", "md_file": "knowledge_base/chapters/ch10_appendices.md", "md_atom_type": "TABLE_ROW", "md_parent_section": "§10.D [CDISC Variable-naming Fragments]", "md_verbatim": "| HOSPITALIZATION | HOSP | | NORMAL RANGE | NR |", "score": 0.69, "match_basis": "verbatim_token+global_search"}, {"md_atom_id": "md_dmHO_ex_a046", "md_file": "knowledge_base/domains/HO/examples.md", "md_atom_type": "TABLE_ROW", "md_parent_section": "§HO.2 [Example 2]", "md_verbatim": "| 7 | ABC | HO | ABC123101 | 7 | HOSPITAL | REPEAT HOSPITALIZATION | 2011-07-23 | 2011-07-24 | | |", "score": 0.6, "match_basis": "verbatim_token+global_search"}, {"md_atom_id": "md_dmHO_ex_a040", "md_file": "knowledge_base/domains/HO/examples.md", "md_atom_type": "TABLE_ROW", "md_parent_section": "§HO.2 [Example 2]", "md_verbatim": "| 1 | ABC | HO | ABC123101 | 1 | HOSPITAL | INITIAL HOSPITALIZATION | 2011-06-08 | 2011-06-12 | | |", "score": 0.5889, "match_basis": "verbatim_token+global_search"}, {"md_atom_id": "md_dmHO_ex_a047", "md_file": "knowledge_base/domains/HO/examples.md", "md_atom_type": "TABLE_ROW", "md_parent_section": "§HO.2 [Example 2]", "md_verbatim": "| 8 | ABC | HO | ABC123102 | 1 | HOSPITAL | INITIAL HOSPITALIZATION | 2011-06-19 | 2011-07-02 | | |", "score": 0.5889, "match_basis": "verbatim_token+global_search"}, {"md_atom_id": "md_dmHO_ex_a041", "md_file": "knowledge_base/domains/HO/examples.md", "md_atom_type": "TABLE_ROW", "md_parent_section": "§HO.2 [Example 2]", "md_verbatim": "| 2 | ABC | HO | ABC123101 | 2 | ICU | INITIAL HOSPITALIZATION | 2011-06-08T11:00 | 2011-06-09T14:30 | | |", "score": 0.5294, "match_basis": "verbatim_token+global_search"}], "candidate_count": 5, "zero_candidate": false}
{"pdf_atom_id": "ig34_p0449_a010", "pdf_atom_type": "TABLE_ROW", "pdf_source": "SDTMIG_v3.4", "pdf_page": 449, "pdf_parent_section": "Appendix D: CDISC Variable-naming Fragments", "pdf_verbatim": "| IDENTIFIER | ID |", "figure_ref": null, "candidates": [{"md_atom_id": "md_ch10_a117", "md_file": "knowledge_base/chapters/ch10_appendices.md", "md_atom_type": "TABLE_ROW", "md_parent_section": "§10.D [CDISC Variable-naming Fragments]", "md_verbatim": "| IDENTIFIER | ID | | SUBJECT | SUBJ |", "score": 0.6692, "match_basis": "verbatim_token+global_search"}, {"md_atom_id": "md_model06_a044", "md_file": "knowledge_base/model/06_relationship_datasets.md", "md_atom_type": "TABLE_ROW", "md_parent_section": "§6.2 Supplemental Qualifiers (SUPP--)", "md_verbatim": "| 5 | POOLID | Pool Identifier | Char | Identifier | |", "score": 0.6429, "match_basis": "verbatim_token+global_search"}, {"md_atom_id": "md_model06_a061", "md_file": "knowledge_base/model/06_relationship_datasets.md", "md_atom_type": "TABLE_ROW", "md_parent_section": "§6.3 Pool Definition (POOLDEF)", "md_verbatim": "| 2 | POOLID | Pool Identifier | Char | Identifier |", "score": 0.6429, "match_basis": "verbatim_token+global_search"}, {"md_atom_id": "md_model06_a070", "md_file": "knowledge_base/model/06_relationship_datasets.md", "md_atom_type": "TABLE_ROW", "md_parent_section": "§6.4 Related Subjects (RELSUB)", "md_verbatim": "| 3 | POOLID | Pool Identifier | Char | Identifier |", "score": 0.6429, "match_basis": "verbatim_token+global_search"}, {"md_atom_id": "md_model03_a074", "md_file": "knowledge_base/model/03_special_purpose_domains.md", "md_atom_type": "TABLE_ROW", "md_parent_section": "§ Comments (CO) > Variables (15 variables)", "md_verbatim": "| 5 | POOLID | Pool Identifier | Char | Identifier |", "score": 0.6429, "match_basis": "verbatim_token+global_search"}], "candidate_count": 5, "zero_candidate": false}
{"pdf_atom_id": "ig34_p0449_a011", "pdf_atom_type": "TABLE_ROW", "pdf_source": "SDTMIG_v3.4", "pdf_page": 449, "pdf_parent_section": "Appendix D: CDISC Variable-naming Fragments", "pdf_verbatim": "| INDICATION | INDC |", "figure_ref": null, "candidates": [{"md_atom_id": "md_ch10_a075", "md_file": "knowledge_base/chapters/ch10_appendices.md", "md_atom_type": "TABLE_ROW", "md_parent_section": "§10.D [CDISC Variable-naming Fragments]", "md_verbatim": "| ACTION | ACN | | INDICATOR | IND |", "score": 0.6, "match_basis": "verbatim_token+global_search"}, {"md_atom_id": "md_ch10_a118", "md_file": "knowledge_base/chapters/ch10_appendices.md", "md_atom_type": "TABLE_ROW", "md_parent_section": "§10.D [CDISC Variable-naming Fragments]", "md_verbatim": "| INDICATION | INDC | | SUBCATEGORY | SCAT |", "score": 0.6, "match_basis": "verbatim_token+global_search"}, {"md_atom_id": "md_varindex_a221", "md_file": "knowledge_base/VARIABLE_INDEX.md", "md_atom_type": "TABLE_ROW", "md_parent_section": "§ 二、领域专属变量（仅 1 个域，共 1499 个），按域分组", "md_verbatim": "| CMINDC | Indication | Char | Record Qualifier | Perm | — |", "score": 0.5077, "match_basis": "verbatim_token+global_search"}, {"md_atom_id": "md_varindex_a1186", "md_file": "knowledge_base/VARIABLE_INDEX.md", "md_atom_type": "TABLE_ROW", "md_parent_section": "§ 二、领域专属变量（仅 1 个域，共 1499 个），按域分组", "md_verbatim": "| PRINDC | Indication | Char | Record Qualifier | Perm | — |", "score": 0.5077, "match_basis": "verbatim_token+global_search"}, {"md_atom_id": "md_dmHO_ex_a054", "md_file": "knowledge_base/domains/HO/examples.md", "md_atom_type": "TABLE_ROW", "md_parent_section": "§HO.2 [Example 2]", "md_verbatim": "| 1 | ABC | HO | ABC123101 | HOSEQ | 7 | HOINDC | Indication | STROKE | CRF | |", "score": 0.5077, "match_basis": "verbatim_token+global_search"}], "candidate_count": 5, "zero_candidate": false}
{"pdf_atom_id": "ig34_p0449_a012", "pdf_atom_type": "TABLE_ROW", "pdf_source": "SDTMIG_v3.4", "pdf_page": 449, "pdf_parent_section": "Appendix D: CDISC Variable-naming Fragments", "pdf_verbatim": "| INDICATOR | IND |", "figure_ref": null, "candidates": [{"md_atom_id": "md_ch10_a075", "md_file": "knowledge_base/chapters/ch10_appendices.md", "md_atom_type": "TABLE_ROW", "md_parent_section": "§10.D [CDISC Variable-naming Fragments]", "md_verbatim": "| ACTION | ACN | | INDICATOR | IND |", "score": 0.65, "match_basis": "verbatim_token+global_search"}, {"md_atom_id": "md_dmTU_assn_a051", "md_file": "knowledge_base/domains/TU/assumptions.md", "md_atom_type": "TABLE_ROW", "md_parent_section": "§TU [TU — Assumptions]", "md_verbatim": "| | TIND | Target Indicator | N | | CT SCAN |", "score": 0.6, "match_basis": "verbatim_token+global_search"}, {"md_atom_id": "md_dmTU_assn_a050", "md_file": "knowledge_base/domains/TU/assumptions.md", "md_atom_type": "TABLE_ROW", "md_parent_section": "§TU [TU — Assumptions]", "md_verbatim": "| | NTIND | Non-Target Indicator | Y | | CT SCAN |", "score": 0.5625, "match_basis": "verbatim_token+global_search"}, {"md_atom_id": "md_dmSC_ex_a028", "md_file": "knowledge_base/domains/SC/examples.md", "md_atom_type": "TABLE_ROW", "md_parent_section": "§SC.3 [Example 3]", "md_verbatim": "| 2 | ABC123 | SC | 305 | 2 | STDNTIND | Student Indicator | Y | Y | 2012-01-14 | -2 |", "score": 0.475, "match_basis": "verbatim_token+global_search"}, {"md_atom_id": "md_dmSC_ex_a030", "md_file": "knowledge_base/domains/SC/examples.md", "md_atom_type": "TABLE_ROW", "md_parent_section": "§SC.3 [Example 3]", "md_verbatim": "| 4 | ABC123 | SC | 305 | 4 | STDNTIND | Student Indicator | Y | Y | 2013-01-22 | 374 |", "score": 0.468, "match_basis": "verbatim_token+global_search"}], "candidate_count": 5, "zero_candidate": false}
{"pdf_atom_id": "ig34_p0449_a013", "pdf_atom_type": "TABLE_ROW", "pdf_source": "SDTMIG_v3.4", "pdf_page": 449, "pdf_parent_section": "Appendix D: CDISC Variable-naming Fragments", "pdf_verbatim": "| INTERPRETATION | INTP |", "figure_ref": null, "candidates": [{"md_atom_id": "md_ch04_a873", "md_file": "knowledge_base/chapters/ch04_general_assumptions.md", "md_atom_type": "TABLE_ROW", "md_parent_section": "§4.5.1.3 [Examples of Original and Standard Units and Test Not Done]", "md_verbatim": "| 5 | INTP | Interpretation | ABNORMAL | | ABNORMAL | | | | 1 | 2015-03-07 |", "score": 0.6714, "match_basis": "verbatim_token+global_search"}, {"md_atom_id": "md_ch10_a076", "md_file": "knowledge_base/chapters/ch10_appendices.md", "md_atom_type": "TABLE_ROW", "md_parent_section": "§10.D [CDISC Variable-naming Fragments]", "md_verbatim": "| ADJUSTMENT | ADJ | | INTERPRETATION | INTP |", "score": 0.6714, "match_basis": "verbatim_token+global_search"}, {"md_atom_id": "md_ch08_a259", "md_file": "knowledge_base/chapters/ch08_relationships.md", "md_atom_type": "TABLE_HEADER", "md_parent_section": "§8.6.3 [Guidelines for Differentiating Between Interventions, Events, Findings, and Findings About Events or Interventions]", "md_verbatim": "| Question | Interpretation of Answers |\n|----------|--------------------------|", "score": 0.5673, "match_basis": "verbatim_token+global_search"}, {"md_atom_id": "md_dmEG_ex_a035", "md_file": "knowledge_base/domains/EG/examples.md", "md_atom_type": "TABLE_ROW", "md_parent_section": "§EG.2 [Example 2]", "md_verbatim": "| 5 | ABC | EG | ABC-99-CA-456 | 5 | Comp 1 | INTP | Interpretation | SUPINE | ABNORMAL | ABNORMAL | | CARDIOLOGIST | 4 | DAY 15 | 15 | 2003-12-12 | 15 |", "score": 0.495, "match_basis": "verbatim_token+global_search"}, {"md_atom_id": "md_dmEG_ex_a024", "md_file": "knowledge_base/domains/EG/examples.md", "md_atom_type": "TABLE_ROW", "md_parent_section": "§EG.1 [Example 1]", "md_verbatim": "| 12 | XYZ | EG | XYZ-US-701-002 | 12 | 334PT89 | INTP | Interpretation | | SUPINE | ABNORMAL | | ABNORMAL | | | | | | | 1 | Screening | 15T11:58 | -36 |", "score": 0.4902, "match_basis": "verbatim_token+global_search"}], "candidate_count": 5, "zero_candidate": false}
{"pdf_atom_id": "ig34_p0449_a014", "pdf_atom_type": "TABLE_ROW", "pdf_source": "SDTMIG_v3.4", "pdf_page": 449, "pdf_parent_section": "Appendix D: CDISC Variable-naming Fragments", "pdf_verbatim": "| INTERVAL | INT |", "figure_ref": null, "candidates": [{"md_atom_id": "md_ch04_a691", "md_file": "knowledge_base/chapters/ch04_general_assumptions.md", "md_atom_type": "TABLE_ROW", "md_parent_section": "§4.4.8 [Date and Time Reported in a Domain Based on Findings]", "md_verbatim": "| Interval Collection | X | | X |", "score": 0.5571, "match_basis": "verbatim_token+global_search"}, {"md_atom_id": "md_ch10_a077", "md_file": "knowledge_base/chapters/ch10_appendices.md", "md_atom_type": "TABLE_ROW", "md_parent_section": "§10.D [CDISC Variable-naming Fragments]", "md_verbatim": "| ANALYSIS DATASET | AD | | INTERVAL | INT |", "score": 0.5118, "match_basis": "verbatim_token+global_search"}, {"md_atom_id": "md_ch04_a869", "md_file": "knowledge_base/chapters/ch04_general_assumptions.md", "md_atom_type": "TABLE_ROW", "md_parent_section": "§4.5.1.3 [Examples of Original and Standard Units and Test Not Done]", "md_verbatim": "| 1 | QRSAG | PR Interval, Aggregate | 0.362 | sec | 0.362 | 0.362 | sec | | 1 | 2015-03-07 |", "score": 0.48, "match_basis": "verbatim_token+global_search"}, {"md_atom_id": "md_ch04_a870", "md_file": "knowledge_base/chapters/ch04_general_assumptions.md", "md_atom_type": "TABLE_ROW", "md_parent_section": "§4.5.1.3 [Examples of Original and Standard Units and Test Not Done]", "md_verbatim": "| 2 | QTAG | QT Interval, Aggregate | 221 | msec | 0.221 | 0.221 | sec | | 1 | 2015-03-07 |", "score": 0.48, "match_basis": "verbatim_token+global_search"}, {"md_atom_id": "md_ch04_a874", "md_file": "knowledge_base/chapters/ch04_general_assumptions.md", "md_atom_type": "TABLE_ROW", "md_parent_section": "§4.5.1.3 [Examples of Original and Standard Units and Test Not Done]", "md_verbatim": "| 6 | PRAG | PR Interval, Aggregate | | | | | | NOT DONE | 2 | 2015-03-14 |", "score": 0.48, "match_basis": "verbatim_token+global_search"}], "candidate_count": 5, "zero_candidate": false}
{"pdf_atom_id": "ig34_p0449_a015", "pdf_atom_type": "TABLE_ROW", "pdf_source": "SDTMIG_v3.4", "pdf_page": 449, "pdf_parent_section": "Appendix D: CDISC Variable-naming Fragments", "pdf_verbatim": "| INVESTIGATOR | INV |", "figure_ref": null, "candidates": [{"md_atom_id": "md_ch10_a078", "md_file": "knowledge_base/chapters/ch10_appendices.md", "md_atom_type": "TABLE_ROW", "md_parent_section": "§10.D [CDISC Variable-naming Fragments]", "md_verbatim": "| ASSAY | AS | | INVESTIGATOR | INV |", "score": 0.7615, "match_basis": "verbatim_token+global_search"}, {"md_atom_id": "md_dmCO_ex_a020", "md_file": "knowledge_base/domains/CO/examples.md", "md_atom_type": "TABLE_ROW", "md_parent_section": "§CO.1 [Example 1]", "md_verbatim": "| 8 | 1234 | CO | | AB-99 | 8 | | | | Comment Text | | | PRINCIPAL INVESTIGATOR | 4 | |", "score": 0.5308, "match_basis": "verbatim_token+global_search"}, {"md_atom_id": "md_dmTR_ex_a028", "md_file": "knowledge_base/domains/TR/examples.md", "md_atom_type": "TABLE_ROW", "md_parent_section": "§TR.1 [Example 2 (continued from TU)]", "md_verbatim": "| 14 | ABC | TR | 44444 | 14 | TARGET | A2 | | SUMDIAM | Sum of Diameter | 30 | mm | 30 | 30 | mm | | | | INVESTIGATOR | 40 | | WEEK 6 | |", "score": 0.5222, "match_basis": "verbatim_token+global_search"}, {"md_atom_id": "md_dmCO_ex_a013", "md_file": "knowledge_base/domains/CO/examples.md", "md_atom_type": "TABLE_ROW", "md_parent_section": "§CO.1 [Example 1]", "md_verbatim": "| 1 | 1234 | CO | | AB-99 | 1 | | | | Comment text | | | PRINCIPAL INVESTIGATOR | | 2003-11-08 |", "score": 0.5143, "match_basis": "verbatim_token+global_search"}, {"md_atom_id": "md_dmTR_ex_a025", "md_file": "knowledge_base/domains/TR/examples.md", "md_atom_type": "TABLE_ROW", "md_parent_section": "§TR.1 [Example 2 (continued from TU)]", "md_verbatim": "| 11 | ABC | TR | 44444 | 11 | TARGET | A2 | T03 | DIAMETER | Diameter | 12 | mm | 12 | 12 | mm | | | MRI | INVESTIGATOR | 40 | WEEK 6 | 2010-02-19 | 47 |", "score": 0.5143, "match_basis": "verbatim_token+global_search"}], "candidate_count": 5, "zero_candidate": false}
{"pdf_atom_id": "ig34_p0449_a016", "pdf_atom_type": "TABLE_ROW", "pdf_source": "SDTMIG_v3.4", "pdf_page": 449, "pdf_parent_section": "Appendix D: CDISC Variable-naming Fragments", "pdf_verbatim": "| LIFE-THREATENING | LIFE |", "figure_ref": null, "candidates": [{"md_atom_id": "md_ch10_a079", "md_file": "knowledge_base/chapters/ch10_appendices.md", "md_atom_type": "TABLE_ROW", "md_parent_section": "§10.D [CDISC Variable-naming Fragments]", "md_verbatim": "| BASELINE | BL | | LIFE-THREATENING | LIFE |", "score": 0.6882, "match_basis": "verbatim_token+global_search"}, {"md_atom_id": "md_varindex_a076", "md_file": "knowledge_base/VARIABLE_INDEX.md", "md_atom_type": "TABLE_ROW", "md_parent_section": "§ 二、领域专属变量（仅 1 个域，共 1499 个），按域分组", "md_verbatim": "| AESLIFE | Is Life Threatening | Char | Record Qualifier | Perm | C66742 |", "score": 0.5062, "match_basis": "verbatim_token+global_search"}, {"md_atom_id": "md_model02_a111", "md_file": "knowledge_base/model/02_observation_classes.md", "md_atom_type": "TABLE_ROW", "md_parent_section": "§3.1.2 > Topic and Qualifier Variables (56 variables)", "md_verbatim": "| 46 | --SLIFE | Is Life Threatening | Char | Record Qualifier | Not in nonclinical trials |", "score": 0.4737, "match_basis": "verbatim_token+global_search"}, {"md_atom_id": "md_dmTA_ex_a035", "md_file": "knowledge_base/domains/TA/examples.md", "md_atom_type": "TABLE_ROW", "md_parent_section": "§TA.1 [Example 1]", "md_verbatim": "| 4 | EX1 | TA | A | A | 1 | SCRN | Screen | | | SCREENING |", "score": 0.4059, "match_basis": "verbatim_token+global_search"}, {"md_atom_id": "md_dmTA_ex_a038", "md_file": "knowledge_base/domains/TA/examples.md", "md_atom_type": "TABLE_ROW", "md_parent_section": "§TA.1 [Example 1]", "md_verbatim": "| 7 | EX1 | TA | B | B | 1 | SCRN | Screen | | | SCREENING |", "score": 0.4059, "match_basis": "verbatim_token+global_search"}], "candidate_count": 5, "zero_candidate": false}
{"pdf_atom_id": "ig34_p0449_a017", "pdf_atom_type": "TABLE_ROW", "pdf_source": "SDTMIG_v3.4", "pdf_page": 449, "pdf_parent_section": "Appendix D: CDISC Variable-naming Fragments", "pdf_verbatim": "| LOCATION | LOC |", "figure_ref": null, "candidates": [{"md_atom_id": "md_ch10_a080", "md_file": "knowledge_base/chapters/ch10_appendices.md", "md_atom_type": "TABLE_ROW", "md_parent_section": "§10.D [CDISC Variable-naming Fragments]", "md_verbatim": "| BIRTH | BRTH | | LOCATION | LOC |", "score": 0.66, "match_basis": "verbatim_token+global_search"}, {"md_atom_id": "md_dmEX_ex_a042", "md_file": "knowledge_base/domains/EX/examples.md", "md_atom_type": "TABLE_ROW", "md_parent_section": "§EX.2 [Example 2]", "md_verbatim": "| Location | ABDOMEN |", "score": 0.6273, "match_basis": "verbatim_token+global_search"}, {"md_atom_id": "md_dmEX_ex_a046", "md_file": "knowledge_base/domains/EX/examples.md", "md_atom_type": "TABLE_ROW", "md_parent_section": "§EX.2 [Example 2]", "md_verbatim": "| Location | ABDOMEN |", "score": 0.6273, "match_basis": "verbatim_token+global_search"}, {"md_atom_id": "md_dmEX_ex_a050", "md_file": "knowledge_base/domains/EX/examples.md", "md_atom_type": "TABLE_ROW", "md_parent_section": "§EX.2 [Example 2]", "md_verbatim": "| Location | ABDOMEN |", "score": 0.6273, "match_basis": "verbatim_token+global_search"}, {"md_atom_id": "md_ch04_a373", "md_file": "knowledge_base/chapters/ch04_general_assumptions.md", "md_atom_type": "TABLE_ROW", "md_parent_section": "§4.2.8.3 [Multiple Values for a Non-result Qualifier Variable]", "md_verbatim": "| AELOC1 | Location of the Reaction 1 | FACE |", "score": 0.525, "match_basis": "verbatim_token+global_search"}], "candidate_count": 5, "zero_candidate": false}
{"pdf_atom_id": "ig34_p0449_a018", "pdf_atom_type": "TABLE_ROW", "pdf_source": "SDTMIG_v3.4", "pdf_page": 449, "pdf_parent_section": "Appendix D: CDISC Variable-naming Fragments", "pdf_verbatim": "| LOINC CODE | LOINC |", "figure_ref": null, "candidates": [{"md_atom_id": "md_ch10_a081", "md_file": "knowledge_base/chapters/ch10_appendices.md", "md_atom_type": "TABLE_ROW", "md_parent_section": "§10.D [CDISC Variable-naming Fragments]", "md_verbatim": "| BODY | BOD | | LOINC CODE | LOINC |", "score": 0.7286, "match_basis": "verbatim_token+global_search"}, {"md_atom_id": "md_varindex_a1663", "md_file": "knowledge_base/VARIABLE_INDEX.md", "md_atom_type": "TABLE_HEADER", "md_parent_section": "§ 三、CDISC Controlled Terminology 交叉引用（共 135 个 CT Code）", "md_verbatim": "| CT Code | 引用数 | 引用此 CT 的变量 (域.变量名) |\n|---------|--------|---------------------------|", "score": 0.48, "match_basis": "verbatim_token+global_search"}, {"md_atom_id": "md_ch10_a087", "md_file": "knowledge_base/chapters/ch10_appendices.md", "md_atom_type": "TABLE_ROW", "md_parent_section": "§10.D [CDISC Variable-naming Fragments]", "md_verbatim": "| CODE | CD | | OBJECT | OBJ |", "score": 0.4333, "match_basis": "verbatim_token+global_search"}, {"md_atom_id": "md_varindex_a294", "md_file": "knowledge_base/VARIABLE_INDEX.md", "md_atom_type": "TABLE_ROW", "md_parent_section": "§ 二、领域专属变量（仅 1 个域，共 1499 个），按域分组", "md_verbatim": "| CPLOINC | LOINC Code | Char | Synonym Qualifier | Perm | LOINC |", "score": 0.4304, "match_basis": "verbatim_token+global_search"}, {"md_atom_id": "md_varindex_a765", "md_file": "knowledge_base/VARIABLE_INDEX.md", "md_atom_type": "TABLE_ROW", "md_parent_section": "§ 二、领域专属变量（仅 1 个域，共 1499 个），按域分组", "md_verbatim": "| LBLOINC | LOINC Code | Char | Synonym Qualifier | Perm | LOINC |", "score": 0.4304, "match_basis": "verbatim_token+global_search"}, {"md_atom_id": "md_varindex_a812", "md_file": "knowledge_base/VARIABLE_INDEX.md", "md_atom_type": "TABLE_ROW", "md_parent_section": "§ 二、领域专属变量（仅 1 个域，共 1499 个），按域分组", "md_verbatim": "| MBLOINC | LOINC Code | Char | Synonym Qualifier | Perm | — |", "score": 0.4304, "match_basis": "verbatim_token+global_search"}, {"md_atom_id": "md_varindex_a977", "md_file": "knowledge_base/VARIABLE_INDEX.md", "md_atom_type": "TABLE_ROW", "md_parent_section": "§ 二、领域专属变量（仅 1 个域，共 1499 个），按域分组", "md_verbatim": "| MSLOINC | LOINC Code | Char | Synonym Qualifier | Perm | — |", "score": 0.4304, "match_basis": "verbatim_token+global_search"}, {"md_atom_id": "md_varindex_a1718", "md_file": "knowledge_base/VARIABLE_INDEX.md", "md_atom_type": "TABLE_ROW", "md_parent_section": "§ 三、CDISC Controlled Terminology 交叉引用（共 135 个 CT Code）", "md_verbatim": "| C171444 | 1 | HO.HODECOD |", "score": 0.3923, "match_basis": "verbatim_token+global_search"}, {"md_atom_id": "md_ch10_a035", "md_file": "knowledge_base/chapters/ch10_appendices.md", "md_atom_type": "TABLE_ROW", "md_parent_section": "§10.B [Glossary and Abbreviations]", "md_verbatim": "| LOINC | Logical Observation, Identifiers, Names, and Codes |", "score": 0.3909, "match_basis": "verbatim_token+global_search"}, {"md_atom_id": "md_routing_a008", "md_file": "knowledge_base/ROUTING.md", "md_atom_type": "TABLE_ROW", "md_parent_section": "§ 快速入口", "md_verbatim": "| 按 CT Code 查找 | [VARIABLE_INDEX.md](VARIABLE_INDEX.md) § 三、CT 交叉引用 |", "score": 0.3857, "match_basis": "verbatim_token+global_search"}], "candidate_count": 10, "zero_candidate": false}
{"pdf_atom_id": "ig34_p0449_a019", "pdf_atom_type": "TABLE_ROW", "pdf_source": "SDTMIG_v3.4", "pdf_page": 449, "pdf_parent_section": "Appendix D: CDISC Variable-naming Fragments", "pdf_verbatim": "| LOWER LIMIT | LO |", "figure_ref": null, "candidates": [{"md_atom_id": "md_ch10_a082", "md_file": "knowledge_base/chapters/ch10_appendices.md", "md_atom_type": "TABLE_ROW", "md_parent_section": "§10.D [CDISC Variable-naming Fragments]", "md_verbatim": "| CANCER | CAN | | LOWER LIMIT | LO |", "score": 0.66, "match_basis": "verbatim_token+global_search"}, {"md_atom_id": "md_ch10_a132", "md_file": "knowledge_base/chapters/ch10_appendices.md", "md_atom_type": "TABLE_ROW", "md_parent_section": "§10.D [CDISC Variable-naming Fragments]", "md_verbatim": "| | | | UPPER LIMIT | HI |", "score": 0.5, "match_basis": "verbatim_token+global_search"}, {"md_atom_id": "md_model02_a142", "md_file": "knowledge_base/model/02_observation_classes.md", "md_atom_type": "TABLE_ROW", "md_parent_section": "§3.1.3 > Topic and Qualifier Variables (100 variables)", "md_verbatim": "| --ORNRLO | Reference Range Lower Limit in Orig Unit | Original units |", "score": 0.4241, "match_basis": "verbatim_token+global_search"}, {"md_atom_id": "md_model02_a144", "md_file": "knowledge_base/model/02_observation_classes.md", "md_atom_type": "TABLE_ROW", "md_parent_section": "§3.1.3 > Topic and Qualifier Variables (100 variables)", "md_verbatim": "| --STNRLO | Reference Range Lower Limit-Std Units | Standard units |", "score": 0.42, "match_basis": "verbatim_token+global_search"}, {"md_atom_id": "md_varindex_a724", "md_file": "knowledge_base/VARIABLE_INDEX.md", "md_atom_type": "TABLE_ROW", "md_parent_section": "§ 二、领域专属变量（仅 1 个域，共 1499 个），按域分组", "md_verbatim": "| ISLLOQ | Lower Limit of Quantitation | Num | Variable Qualifier | Exp | — |", "score": 0.4059, "match_basis": "verbatim_token+global_search"}], "candidate_count": 5, "zero_candidate": false}
{"pdf_atom_id": "ig34_p0449_a020", "pdf_atom_type": "TABLE_ROW", "pdf_source": "SDTMIG_v3.4", "pdf_page": 449, "pdf_parent_section": "Appendix D: CDISC Variable-naming Fragments", "pdf_verbatim": "| MEDICALLY-IMPORTANT EVENT | MIE |", "figure_ref": null, "candidates": [{"md_atom_id": "md_ch10_a119", "md_file": "knowledge_base/chapters/ch10_appendices.md", "md_atom_type": "TABLE_ROW", "md_parent_section": "§10.D [CDISC Variable-naming Fragments]", "md_verbatim": "| MEDICALLY-IMPORTANT EVENT | MIE | | SUPPLEMENTAL | SUPP |", "score": 0.7, "match_basis": "verbatim_token+global_search"}, {"md_atom_id": "md_ch10_a064", "md_file": "knowledge_base/chapters/ch10_appendices.md", "md_atom_type": "TABLE_ROW", "md_parent_section": "§10.C [Controlled Terminology]", "md_verbatim": "| AESOSP | Other Medically Important SAE | AE |", "score": 0.6231, "match_basis": "verbatim_token+global_search"}, {"md_atom_id": "md_varindex_a078", "md_file": "knowledge_base/VARIABLE_INDEX.md", "md_atom_type": "TABLE_ROW", "md_parent_section": "§ 二、领域专属变量（仅 1 个域，共 1499 个），按域分组", "md_verbatim": "| AESMIE | Other Medically Important Serious Event | Char | Record Qualifier | Perm | C66742 |", "score": 0.525, "match_basis": "verbatim_token+global_search"}, {"md_atom_id": "md_model02_a113", "md_file": "knowledge_base/model/02_observation_classes.md", "md_atom_type": "TABLE_ROW", "md_parent_section": "§3.1.2 > Topic and Qualifier Variables (56 variables)", "md_verbatim": "| 48 | --SMIE | Other Medically Important Serious Event | Char | Record Qualifier | Not in nonclinical trials |", "score": 0.5077, "match_basis": "verbatim_token+global_search"}, {"md_atom_id": "md_ch08_a189", "md_file": "knowledge_base/chapters/ch08_relationships.md", "md_atom_type": "TABLE_ROW", "md_parent_section": "§8.4.3 [Examples]", "md_verbatim": "| 1 | 1996001 | AE | 99-401 | AESEQ | 1 | AESOSP | Other Medically Important SAE | Spontaneous Abortion | CRF | |", "score": 0.475, "match_basis": "verbatim_token+global_search"}], "candidate_count": 5, "zero_candidate": false}
{"pdf_atom_id": "ig34_p0449_a021", "pdf_atom_type": "TABLE_ROW", "pdf_source": "SDTMIG_v3.4", "pdf_page": 449, "pdf_parent_section": "Appendix D: CDISC Variable-naming Fragments", "pdf_verbatim": "| NAME | NAM |", "figure_ref": null, "candidates": [{"md_atom_id": "md_ch10_a083", "md_file": "knowledge_base/chapters/ch10_appendices.md", "md_atom_type": "TABLE_ROW", "md_parent_section": "§10.D [CDISC Variable-naming Fragments]", "md_verbatim": "| CATEGORY | CAT | | NAME | NAM |", "score": 0.45, "match_basis": "verbatim_token+global_search"}, {"md_atom_id": "md_varindex_a016", "md_file": "knowledge_base/VARIABLE_INDEX.md", "md_atom_type": "TABLE_ROW", "md_parent_section": "§ 一、通用变量（出现在 2+ 个域，共 24 个）", "md_verbatim": "| VISIT | 36 | AG, BE, BS, CP, CV, DA, EG, FA, FT, GF, IE, IS, LB, MB, MI, MK, ML, MS, NV, OE, PC, PE, PR, QS, RE, RP, RS, SC, SR, SS, SV, TR, TU, TV, UR, VS | Visit Name | Char | Timing* | Perm* |", "score": 0.3923, "match_basis": "verbatim_token+global_search"}, {"md_atom_id": "md_varindex_a926", "md_file": "knowledge_base/VARIABLE_INDEX.md", "md_atom_type": "TABLE_ROW", "md_parent_section": "§ 二、领域专属变量（仅 1 个域，共 1499 个），按域分组", "md_verbatim": "| MLTRT | Name of Meal | Char | Topic | Req | — |", "score": 0.3923, "match_basis": "verbatim_token+global_search"}, {"md_atom_id": "md_ch10_a110", "md_file": "knowledge_base/chapters/ch10_appendices.md", "md_atom_type": "TABLE_ROW", "md_parent_section": "§10.D [CDISC Variable-naming Fragments]", "md_verbatim": "| FILENAME | FN | | SIGNIFICANT | SIG |", "score": 0.38, "match_basis": "verbatim_token+global_search"}, {"md_atom_id": "md_index_a036", "md_file": "knowledge_base/INDEX.md", "md_atom_type": "TABLE_HEADER", "md_parent_section": "§ Domains (63 domains)", "md_verbatim": "| Domain | Name | Files |\n|--------|------|-------|", "score": 0.3733, "match_basis": "verbatim_token+global_search"}, {"md_atom_id": "md_index_a045", "md_file": "knowledge_base/INDEX.md", "md_atom_type": "TABLE_HEADER", "md_parent_section": "§ Domains (63 domains)", "md_verbatim": "| Domain | Name | Files |\n|--------|------|-------|", "score": 0.3733, "match_basis": "verbatim_token+global_search"}, {"md_atom_id": "md_index_a054", "md_file": "knowledge_base/INDEX.md", "md_atom_type": "TABLE_HEADER", "md_parent_section": "§ Domains (63 domains)", "md_verbatim": "| Domain | Name | Files |\n|--------|------|-------|", "score": 0.3733, "match_basis": "verbatim_token+global_search"}, {"md_atom_id": "md_index_a088", "md_file": "knowledge_base/INDEX.md", "md_atom_type": "TABLE_HEADER", "md_parent_section": "§ Domains (63 domains)", "md_verbatim": "| Domain | Name | Files |\n|--------|------|-------|", "score": 0.3733, "match_basis": "verbatim_token+global_search"}, {"md_atom_id": "md_index_a097", "md_file": "knowledge_base/INDEX.md", "md_atom_type": "TABLE_HEADER", "md_parent_section": "§ Domains (63 domains)", "md_verbatim": "| Domain | Name | Files |\n|--------|------|-------|", "score": 0.3733, "match_basis": "verbatim_token+global_search"}, {"md_atom_id": "md_index_a103", "md_file": "knowledge_base/INDEX.md", "md_atom_type": "TABLE_HEADER", "md_parent_section": "§ Domains (63 domains)", "md_verbatim": "| Domain | Name | Files |\n|--------|------|-------|", "score": 0.3733, "match_basis": "verbatim_token+global_search"}], "candidate_count": 10, "zero_candidate": false}
{"pdf_atom_id": "ig34_p0449_a022", "pdf_atom_type": "TABLE_ROW", "pdf_source": "SDTMIG_v3.4", "pdf_page": 449, "pdf_parent_section": "Appendix D: CDISC Variable-naming Fragments", "pdf_verbatim": "| NON-STUDY THERAPY | NST |", "figure_ref": null, "candidates": [{"md_atom_id": "md_ch10_a120", "md_file": "knowledge_base/chapters/ch10_appendices.md", "md_atom_type": "TABLE_ROW", "md_parent_section": "§10.D [CDISC Variable-naming Fragments]", "md_verbatim": "| NON-STUDY THERAPY | NST | | |", "score": 0.9, "match_basis": "verbatim_token+global_search"}, {"md_atom_id": "md_dmPR_ex_a034", "md_file": "knowledge_base/domains/PR/examples.md", "md_atom_type": "TABLE_ROW", "md_parent_section": "§PR.3 [Example 3]", "md_verbatim": "| 3 | ABC123 | PR | ABC123-3003 | 1 | Radiotherapy | 300 | cGy | BONE | | 2011-08-19 | 2011-08-22 |", "score": 0.4154, "match_basis": "verbatim_token+global_search"}, {"md_atom_id": "md_varindex_a212", "md_file": "knowledge_base/VARIABLE_INDEX.md", "md_atom_type": "TABLE_ROW", "md_parent_section": "§ 二、领域专属变量（仅 1 个域，共 1499 个），按域分组", "md_verbatim": "| CMTRT | Reported Name of Drug, Med, or Therapy | Char | Topic | Req | — |", "score": 0.4, "match_basis": "verbatim_token+global_search"}, {"md_atom_id": "md_dmPR_ex_a033", "md_file": "knowledge_base/domains/PR/examples.md", "md_atom_type": "TABLE_ROW", "md_parent_section": "§PR.3 [Example 3]", "md_verbatim": "| 2 | ABC123 | PR | ABC123-2002 | 1 | Brachytherapy | 25 | Gy | PROSTATE | | 2011-07-15 | 2011-07-15 |", "score": 0.4, "match_basis": "verbatim_token+global_search"}, {"md_atom_id": "md_dmOI_ex_a011", "md_file": "knowledge_base/domains/OI/examples.md", "md_atom_type": "TABLE_ROW", "md_parent_section": "§OI.1 [Example 1]", "md_verbatim": "| 2 | STUDY123 | OI | HIV1MC | 2 | TYPE | Type | 1 |", "score": 0.3947, "match_basis": "verbatim_token+global_search"}], "candidate_count": 5, "zero_candidate": false}
{"pdf_atom_id": "ig34_p0449_a023", "pdf_atom_type": "TABLE_ROW", "pdf_source": "SDTMIG_v3.4", "pdf_page": 449, "pdf_parent_section": "Appendix D: CDISC Variable-naming Fragments", "pdf_verbatim": "| NORMAL RANGE | NR |", "figure_ref": null, "candidates": [{"md_atom_id": "md_ch10_a116", "md_file": "knowledge_base/chapters/ch10_appendices.md", "md_atom_type": "TABLE_ROW", "md_parent_section": "§10.D [CDISC Variable-naming Fragments]", "md_verbatim": "| HOSPITALIZATION | HOSP | | NORMAL RANGE | NR |", "score": 0.51, "match_basis": "verbatim_token+global_search"}, {"md_atom_id": "md_model02_a147", "md_file": "knowledge_base/model/02_observation_classes.md", "md_atom_type": "TABLE_ROW", "md_parent_section": "§3.1.3 > Topic and Qualifier Variables (100 variables)", "md_verbatim": "| --NRIND | Reference Range Indicator | \"NORMAL\", \"HIGH\", \"LOW\" |", "score": 0.4615, "match_basis": "verbatim_token+global_search"}, {"md_atom_id": "md_dmPE_ex_a008", "md_file": "knowledge_base/domains/PE/examples.md", "md_atom_type": "TABLE_ROW", "md_parent_section": "§PE.1 [Example 1]", "md_verbatim": "| 1 | ABC | PE | ABC-001-001 | 1 | | HEAD | Head | | | | NORMAL | NORMAL | -1 | BASELINE | -1 | 1999-06-06 | -3 |", "score": 0.4263, "match_basis": "verbatim_token+global_search"}, {"md_atom_id": "md_dmPE_ex_a013", "md_file": "knowledge_base/domains/PE/examples.md", "md_atom_type": "TABLE_ROW", "md_parent_section": "§PE.1 [Example 1]", "md_verbatim": "| 6 | ABC | PE | ABC-001-001 | 6 | | HEART | Heart | | | | NORMAL | NORMAL | -1 | BASELINE | -1 | 1999-06-06 | -3 |", "score": 0.42, "match_basis": "verbatim_token+global_search"}, {"md_atom_id": "md_varindex_a1060", "md_file": "knowledge_base/VARIABLE_INDEX.md", "md_atom_type": "TABLE_ROW", "md_parent_section": "§ 二、领域专属变量（仅 1 个域，共 1499 个），按域分组", "md_verbatim": "| OESTNRC | Normal Range for Character Results | Char | Variable Qualifier | Perm | — |", "score": 0.405, "match_basis": "verbatim_token+global_search"}], "candidate_count": 5, "zero_candidate": false}
{"pdf_atom_id": "ig34_p0449_a024", "pdf_atom_type": "TABLE_ROW", "pdf_source": "SDTMIG_v3.4", "pdf_page": 449, "pdf_parent_section": "Appendix D: CDISC Variable-naming Fragments", "pdf_verbatim": "| NOT DONE | ND |", "figure_ref": null, "candidates": [{"md_atom_id": "md_model02_a059", "md_file": "knowledge_base/model/02_observation_classes.md", "md_atom_type": "CODE_LITERAL", "md_parent_section": "§3.1.1 > Topic and Qualifier Variables (43 variables)", "md_verbatim": "\"NOT DONE\"", "score": 0.69, "match_basis": "verbatim_token+global_search"}, {"md_atom_id": "md_ch04_a886", "md_file": "knowledge_base/chapters/ch04_general_assumptions.md", "md_atom_type": "TABLE_ROW", "md_parent_section": "§4.5.1.3 [Examples of Original and Standard Units and Test Not Done]", "md_verbatim": "| 3 | HR | | | | | | NOT DONE | | 1 | 2016-07-18 |", "score": 0.66, "match_basis": "verbatim_token+global_search"}, {"md_atom_id": "md_ch04_a857", "md_file": "knowledge_base/chapters/ch04_general_assumptions.md", "md_atom_type": "TABLE_ROW", "md_parent_section": "§4.5.1.3 [Examples of Original and Standard Units and Test Not Done]", "md_verbatim": "| 10 | LBALL | | | | | | | NOT DONE | | 4 | 2016-02-22 |", "score": 0.525, "match_basis": "verbatim_token+global_search"}, {"md_atom_id": "md_ch04_a890", "md_file": "knowledge_base/chapters/ch04_general_assumptions.md", "md_atom_type": "TABLE_ROW", "md_parent_section": "§4.5.1.3 [Examples of Original and Standard Units and Test Not Done]", "md_verbatim": "| 7 | VSALL | | | | | | NOT DONE | | 2 | 2016-07-25 |", "score": 0.525, "match_basis": "verbatim_token+global_search"}, {"md_atom_id": "md_ch10_a084", "md_file": "knowledge_base/chapters/ch10_appendices.md", "md_atom_type": "TABLE_ROW", "md_parent_section": "§10.D [CDISC Variable-naming Fragments]", "md_verbatim": "| CHARACTER | C | | NOT DONE | ND |", "score": 0.48, "match_basis": "verbatim_token+global_search"}, {"md_atom_id": "md_ch04_a855", "md_file": "knowledge_base/chapters/ch04_general_assumptions.md", "md_atom_type": "TABLE_ROW", "md_parent_section": "§4.5.1.3 [Examples of Original and Standard Units and Test Not Done]", "md_verbatim": "| 8 | HCT | HEMATOLOGY | | | | | | NOT DONE | | 2 | 2016-02-08 |", "score": 0.4286, "match_basis": "verbatim_token+global_search"}, {"md_atom_id": "md_ch04_a824", "md_file": "knowledge_base/chapters/ch04_general_assumptions.md", "md_atom_type": "SENTENCE", "md_parent_section": "§4.5.1 [Original and Standardized Results]", "md_verbatim": "**Tests Not Done (§4.5.1.2):**", "score": 0.42, "match_basis": "verbatim_token+global_search"}, {"md_atom_id": "md_ch04_a856", "md_file": "knowledge_base/chapters/ch04_general_assumptions.md", "md_atom_type": "TABLE_ROW", "md_parent_section": "§4.5.1.3 [Examples of Original and Standard Units and Test Not Done]", "md_verbatim": "| 9 | LBALL | HEMATOLOGY | | | | | | NOT DONE | | 3 | 2016-02-29 |", "score": 0.4125, "match_basis": "verbatim_token+global_search"}, {"md_atom_id": "md_ch04_a875", "md_file": "knowledge_base/chapters/ch04_general_assumptions.md", "md_atom_type": "TABLE_ROW", "md_parent_section": "§4.5.1.3 [Examples of Original and Standard Units and Test Not Done]", "md_verbatim": "| 7 | EGALL | ECG Test Results | | | | | | NOT DONE | 3 | 2015-03-21 |", "score": 0.4125, "match_basis": "verbatim_token+global_search"}, {"md_atom_id": "md_dmCE_ex_a051", "md_file": "knowledge_base/domains/CE/examples.md", "md_atom_type": "TABLE_ROW", "md_parent_section": "§CE.2 [Example 2]", "md_verbatim": "| 4 | ABC123 | CE | 123 | 4 | DIARRHEA | Diarrhoea | Y | | NOT DONE | | | |", "score": 0.4125, "match_basis": "verbatim_token+global_search"}], "candidate_count": 10, "zero_candidate": false}
{"pdf_atom_id": "ig34_p0449_a025", "pdf_atom_type": "TABLE_ROW", "pdf_source": "SDTMIG_v3.4", "pdf_page": 449, "pdf_parent_section": "Appendix D: CDISC Variable-naming Fragments", "pdf_verbatim": "| NUMBER | NUM |", "figure_ref": null, "candidates": [{"md_atom_id": "md_ch10_a085", "md_file": "knowledge_base/chapters/ch10_appendices.md", "md_atom_type": "TABLE_ROW", "md_parent_section": "§10.D [CDISC Variable-naming Fragments]", "md_verbatim": "| CLASS | CLAS | | NUMBER | NUM |", "score": 0.6429, "match_basis": "verbatim_token+global_search"}, {"md_atom_id": "md_dmOE_ex_a076", "md_file": "knowledge_base/domains/OE/examples.md", "md_atom_type": "TABLE_ROW", "md_parent_section": "§OE.3 [Example 3]", "md_verbatim": "| 4 | XYZ | DI | 100 | 4 | SERIAL | Serial Number | yyyyyy |", "score": 0.5182, "match_basis": "verbatim_token+global_search"}, {"md_atom_id": "md_model03_a133", "md_file": "knowledge_base/model/03_special_purpose_domains.md", "md_atom_type": "TABLE_ROW", "md_parent_section": "§ Subject Visits (SV) > Variables (16 variables)", "md_verbatim": "| 4 | VISITNUM | Visit Number | Num | Topic | |", "score": 0.5, "match_basis": "verbatim_token+global_search"}, {"md_atom_id": "md_model05_a089", "md_file": "knowledge_base/model/05_study_level_data.md", "md_atom_type": "TABLE_ROW", "md_parent_section": "§ Trial Visits (TV)", "md_verbatim": "| 3 | VISITNUM | Visit Number | Num | Topic |", "score": 0.5, "match_basis": "verbatim_token+global_search"}, {"md_atom_id": "md_dmTS_ex_a045", "md_file": "knowledge_base/domains/TS/examples.md", "md_atom_type": "TABLE_ROW", "md_parent_section": "§TS.1 [Example 1]", "md_verbatim": "| 40 | XYZ | TS | 1 | | NARMS | Planned Number of Arms | 3 | | | | |", "score": 0.4846, "match_basis": "verbatim_token+global_search"}, {"md_atom_id": "md_varindex_a018", "md_file": "knowledge_base/VARIABLE_INDEX.md", "md_atom_type": "TABLE_ROW", "md_parent_section": "§ 一、通用变量（出现在 2+ 个域，共 24 个）", "md_verbatim": "| VISITNUM | 36 | AG, BE, BS, CP, CV, DA, EG, FA, FT, GF, IE, IS, LB, MB, MI, MK, ML, MS, NV, OE, PC, PE, PR, QS, RE, RP, RS, SC, SR, SS, SV, TR, TU, TV, UR, VS | Visit Number | Num | Timing* | Exp* |", "score": 0.4714, "match_basis": "verbatim_token+global_search"}, {"md_atom_id": "md_dmTS_ex_a050", "md_file": "knowledge_base/domains/TS/examples.md", "md_atom_type": "TABLE_ROW", "md_parent_section": "§TS.1 [Example 1]", "md_verbatim": "| 45 | XYZ | TS | 1 | | ACTSUB | Actual Number of Subjects | 304 | | | | |", "score": 0.4412, "match_basis": "verbatim_token+global_search"}, {"md_atom_id": "md_dmTS_assn_a042", "md_file": "knowledge_base/domains/TS/assumptions.md", "md_atom_type": "TABLE_ROW", "md_parent_section": "§TS [TS — Use of Null Flavor]", "md_verbatim": "| 4 | PINF | Positive infinity | Positive infinity of numbers |", "score": 0.4333, "match_basis": "verbatim_token+global_search"}, {"md_atom_id": "md_dmTS_assn_a043", "md_file": "knowledge_base/domains/TS/assumptions.md", "md_atom_type": "TABLE_ROW", "md_parent_section": "§TS [TS — Use of Null Flavor]", "md_verbatim": "| 4 | NINF | Negative infinity | Negative infinity of numbers |", "score": 0.4333, "match_basis": "verbatim_token+global_search"}, {"md_atom_id": "md_dmTS_ex_a010", "md_file": "knowledge_base/domains/TS/examples.md", "md_atom_type": "TABLE_ROW", "md_parent_section": "§TS.1 [Example 1]", "md_verbatim": "| 5 | XYZ | TS | 1 | | PLANSUB | Planned Number of Subjects | 300 | | | | |", "score": 0.4263, "match_basis": "verbatim_token+global_search"}], "candidate_count": 10, "zero_candidate": false}
{"pdf_atom_id": "ig34_p0449_a026", "pdf_atom_type": "TABLE_ROW", "pdf_source": "SDTMIG_v3.4", "pdf_page": 449, "pdf_parent_section": "Appendix D: CDISC Variable-naming Fragments", "pdf_verbatim": "| NUMERIC | N |", "figure_ref": null, "candidates": [{"md_atom_id": "md_ch10_a086", "md_file": "knowledge_base/chapters/ch10_appendices.md", "md_atom_type": "TABLE_ROW", "md_parent_section": "§10.D [CDISC Variable-naming Fragments]", "md_verbatim": "| CLINICAL | CL | | NUMERIC | N |", "score": 0.5727, "match_basis": "verbatim_token+global_search"}, {"md_atom_id": "md_model03_a033", "md_file": "knowledge_base/model/03_special_purpose_domains.md", "md_atom_type": "TABLE_ROW", "md_parent_section": "§ Demographics (DM) > Variables (38 variables)", "md_verbatim": "| 19 | AGE | Age | Num | Record Qualifier | Numeric age at RFSTDTC |", "score": 0.4364, "match_basis": "verbatim_token+global_search"}, {"md_atom_id": "md_model02_a185", "md_file": "knowledge_base/model/02_observation_classes.md", "md_atom_type": "TABLE_ROW", "md_parent_section": "§3.1.5 > Visit and Epoch Variables", "md_verbatim": "| 1 | VISITNUM | Visit Number | Num | Numeric version of VISIT for sorting |", "score": 0.425, "match_basis": "verbatim_token+global_search"}, {"md_atom_id": "md_dmDM_ex_a162", "md_file": "knowledge_base/domains/DM/examples.md", "md_atom_type": "TABLE_ROW", "md_parent_section": "§DM.6 [Example 6]", "md_verbatim": "| 2 | ABC789 | DM | ABC789-010-002 | 010-002 | BLACK OR AFRICAN AMERICAN |", "score": 0.3947, "match_basis": "verbatim_token+global_search"}, {"md_atom_id": "md_dmDM_ex_a163", "md_file": "knowledge_base/domains/DM/examples.md", "md_atom_type": "TABLE_ROW", "md_parent_section": "§DM.6 [Example 6]", "md_verbatim": "| 3 | ABC789 | DM | ABC789-010-003 | 010-003 | BLACK OR AFRICAN AMERICAN |", "score": 0.3947, "match_basis": "verbatim_token+global_search"}, {"md_atom_id": "md_model02_a219", "md_file": "knowledge_base/model/02_observation_classes.md", "md_atom_type": "TABLE_ROW", "md_parent_section": "§3.1.5 > Time Point Variables", "md_verbatim": "| 29 | --TPTNUM | Planned Time Point Number | Num | Numeric version for sorting |", "score": 0.3937, "match_basis": "verbatim_token+global_search"}, {"md_atom_id": "md_varindex_a708", "md_file": "knowledge_base/VARIABLE_INDEX.md", "md_atom_type": "TABLE_ROW", "md_parent_section": "§ 二、领域专属变量（仅 1 个域，共 1499 个），按域分组", "md_verbatim": "| ISSTRESN | Numeric Results/Findings in Std. Units | Num | Result Qualifier | Exp | — |", "score": 0.3909, "match_basis": "verbatim_token+global_search"}, {"md_atom_id": "md_varindex_a1413", "md_file": "knowledge_base/VARIABLE_INDEX.md", "md_atom_type": "TABLE_ROW", "md_parent_section": "§ 二、领域专属变量（仅 1 个域，共 1499 个），按域分组", "md_verbatim": "| SRSTRESN | Numeric Results/Findings in Std. Units | Num | Result Qualifier | Exp | — |", "score": 0.3909, "match_basis": "verbatim_token+global_search"}, {"md_atom_id": "md_dmOE_ex_a076", "md_file": "knowledge_base/domains/OE/examples.md", "md_atom_type": "TABLE_ROW", "md_parent_section": "§OE.3 [Example 3]", "md_verbatim": "| 4 | XYZ | DI | 100 | 4 | SERIAL | Serial Number | yyyyyy |", "score": 0.3857, "match_basis": "verbatim_token+global_search"}, {"md_atom_id": "md_varindex_a161", "md_file": "knowledge_base/VARIABLE_INDEX.md", "md_atom_type": "TABLE_ROW", "md_parent_section": "§ 二、领域专属变量（仅 1 个域，共 1499 个），按域分组", "md_verbatim": "| BSSTRESN | Numeric Result/Finding in Standard Units | Num | Result Qualifier | Exp | — |", "score": 0.3833, "match_basis": "verbatim_token+global_search"}], "candidate_count": 10, "zero_candidate": false}
{"pdf_atom_id": "ig34_p0449_a027", "pdf_atom_type": "TABLE_ROW", "pdf_source": "SDTMIG_v3.4", "pdf_page": 449, "pdf_parent_section": "Appendix D: CDISC Variable-naming Fragments", "pdf_verbatim": "| OBJECT | OBJ |", "figure_ref": null, "candidates": [{"md_atom_id": "md_ch10_a087", "md_file": "knowledge_base/chapters/ch10_appendices.md", "md_atom_type": "TABLE_ROW", "md_parent_section": "§10.D [CDISC Variable-naming Fragments]", "md_verbatim": "| CODE | CD | | OBJECT | OBJ |", "score": 0.7, "match_basis": "verbatim_token+global_search"}, {"md_atom_id": "md_dmEX_ex_a040", "md_file": "knowledge_base/domains/EX/examples.md", "md_atom_type": "TABLE_ROW", "md_parent_section": "§EX.2 [Example 2]", "md_verbatim": "| **Injection 1** | |", "score": 0.4333, "match_basis": "verbatim_token+global_search"}, {"md_atom_id": "md_dmEX_ex_a044", "md_file": "knowledge_base/domains/EX/examples.md", "md_atom_type": "TABLE_ROW", "md_parent_section": "§EX.2 [Example 2]", "md_verbatim": "| **Injection 2** | |", "score": 0.4333, "match_basis": "verbatim_token+global_search"}, {"md_atom_id": "md_dmEX_ex_a048", "md_file": "knowledge_base/domains/EX/examples.md", "md_atom_type": "TABLE_ROW", "md_parent_section": "§EX.2 [Example 2]", "md_verbatim": "| **Injection 3** | |", "score": 0.4333, "match_basis": "verbatim_token+global_search"}, {"md_atom_id": "md_ch10_a117", "md_file": "knowledge_base/chapters/ch10_appendices.md", "md_atom_type": "TABLE_ROW", "md_parent_section": "§10.D [CDISC Variable-naming Fragments]", "md_verbatim": "| IDENTIFIER | ID | | SUBJECT | SUBJ |", "score": 0.4286, "match_basis": "verbatim_token+global_search"}, {"md_atom_id": "md_dmTS_ex_a050", "md_file": "knowledge_base/domains/TS/examples.md", "md_atom_type": "TABLE_ROW", "md_parent_section": "§TS.1 [Example 1]", "md_verbatim": "| 45 | XYZ | TS | 1 | | ACTSUB | Actual Number of Subjects | 304 | | | | |", "score": 0.4, "match_basis": "verbatim_token+global_search"}, {"md_atom_id": "md_model06_a108", "md_file": "knowledge_base/model/06_relationship_datasets.md", "md_atom_type": "TABLE_ROW", "md_parent_section": "§ Summary of Relationship Datasets", "md_verbatim": "| AP Related Subjects | APRELSUB | AP-subject links | AP |", "score": 0.3947, "match_basis": "verbatim_token+global_search"}, {"md_atom_id": "md_dmTS_ex_a010", "md_file": "knowledge_base/domains/TS/examples.md", "md_atom_type": "TABLE_ROW", "md_parent_section": "§TS.1 [Example 1]", "md_verbatim": "| 5 | XYZ | TS | 1 | | PLANSUB | Planned Number of Subjects | 300 | | | | |", "score": 0.39, "match_basis": "verbatim_token+global_search"}, {"md_atom_id": "md_varindex_a554", "md_file": "knowledge_base/VARIABLE_INDEX.md", "md_atom_type": "TABLE_ROW", "md_parent_section": "§ 二、领域专属变量（仅 1 个域，共 1499 个），按域分组", "md_verbatim": "| FAOBJ | Object of the Observation | Char | Record Qualifier | Req | — |", "score": 0.38, "match_basis": "verbatim_token+global_search"}, {"md_atom_id": "md_varindex_a1407", "md_file": "knowledge_base/VARIABLE_INDEX.md", "md_atom_type": "TABLE_ROW", "md_parent_section": "§ 二、领域专属变量（仅 1 个域，共 1499 个），按域分组", "md_verbatim": "| SROBJ | Object of the Observation | Char | Record Qualifier | Req | — |", "score": 0.38, "match_basis": "verbatim_token+global_search"}], "candidate_count": 10, "zero_candidate": false}
{"pdf_atom_id": "ig34_p0449_a028", "pdf_atom_type": "TABLE_ROW", "pdf_source": "SDTMIG_v3.4", "pdf_page": 449, "pdf_parent_section": "Appendix D: CDISC Variable-naming Fragments", "pdf_verbatim": "| ONGOING | ONGO |", "figure_ref": null, "candidates": [{"md_atom_id": "md_ch10_a088", "md_file": "knowledge_base/chapters/ch10_appendices.md", "md_atom_type": "TABLE_ROW", "md_parent_section": "§10.D [CDISC Variable-naming Fragments]", "md_verbatim": "| COMMENT | COM | | ONGOING | ONGO |", "score": 0.6, "match_basis": "verbatim_token+global_search"}, {"md_atom_id": "md_dmSU_ex_a022", "md_file": "knowledge_base/domains/SU/examples.md", "md_atom_type": "TABLE_ROW", "md_parent_section": "§SU.1 [Example 1]", "md_verbatim": "| 1 | 1234 | SU | 1234005 | 1 | CIGARETTES | TOBACCO | | | 2 | PACK | QD | | | 2006-01-01 | BEFORE | 2006-01-01 | ONGOING |", "score": 0.3968, "match_basis": "verbatim_token+global_search"}, {"md_atom_id": "md_ch04_a659", "md_file": "knowledge_base/chapters/ch04_general_assumptions.md", "md_atom_type": "LIST_ITEM", "md_parent_section": "§4.4.7 [Use of Relative Timing Variables]", "md_verbatim": "- MHENRTPT = \"ONGOING\"", "score": 0.3927, "match_basis": "verbatim_token+global_search"}, {"md_atom_id": "md_ch04_a670", "md_file": "knowledge_base/chapters/ch04_general_assumptions.md", "md_atom_type": "LIST_ITEM", "md_parent_section": "§4.4.7 [Use of Relative Timing Variables]", "md_verbatim": "- CMENRTPT = \"ONGOING\"", "score": 0.3927, "match_basis": "verbatim_token+global_search"}, {"md_atom_id": "md_dmHO_ex_a050", "md_file": "knowledge_base/domains/HO/examples.md", "md_atom_type": "TABLE_ROW", "md_parent_section": "§HO.2 [Example 2]", "md_verbatim": "| 11 | ABC | HO | ABC123102 | 4 | SKILLED NURSING FACILITY | FOLLOW-UP CARE | 2011-07-02 | | ONGOING | END OF STUDY |", "score": 0.3769, "match_basis": "verbatim_token+global_search"}, {"md_atom_id": "md_ch04_a690", "md_file": "knowledge_base/chapters/ch04_general_assumptions.md", "md_atom_type": "TABLE_ROW", "md_parent_section": "§4.4.8 [Date and Time Reported in a Domain Based on Findings]", "md_verbatim": "| Single-point Collection | X | | |", "score": 0.3667, "match_basis": "verbatim_token+global_search"}, {"md_atom_id": "md_model02_a231", "md_file": "knowledge_base/model/02_observation_classes.md", "md_atom_type": "TABLE_ROW", "md_parent_section": "§3.1.5 > Relative Timing Variables", "md_verbatim": "| 39 | --ENRTPT | End Relative to Reference Time Point | Char | BEFORE, COINCIDENT, AFTER, ONGOING, UNKNOWN |", "score": 0.3625, "match_basis": "verbatim_token+global_search"}, {"md_atom_id": "md_ch10_a124", "md_file": "knowledge_base/chapters/ch10_appendices.md", "md_atom_type": "TABLE_ROW", "md_parent_section": "§10.D [CDISC Variable-naming Fragments]", "md_verbatim": "| | | | TIME POINT | TPT |", "score": 0.36, "match_basis": "verbatim_token+global_search"}, {"md_atom_id": "md_dmMH_ex_a019", "md_file": "knowledge_base/domains/MH/examples.md", "md_atom_type": "TABLE_ROW", "md_parent_section": "§MH.1 [Example 1]", "md_verbatim": "| 1 | ABC123 | MH | 123101 | 1 | | ASTHMA | Asthma | GENERAL MEDICAL HISTORY | RESPIRATORY | Respiratory system disorders | 2004-09-18 | ONGOING | |", "score": 0.3588, "match_basis": "verbatim_token+global_search"}, {"md_atom_id": "md_ch04_a645", "md_file": "knowledge_base/chapters/ch04_general_assumptions.md", "md_atom_type": "TABLE_ROW", "md_parent_section": "§4.4.7 [Use of Relative Timing Variables]", "md_verbatim": "| --ENRTPT | BEFORE, COINCIDENT, AFTER, ONGOING, UNKNOWN | End relative to a specific reference time point |", "score": 0.3577, "match_basis": "verbatim_token+global_search"}], "candidate_count": 10, "zero_candidate": false}
{"pdf_atom_id": "ig34_p0449_a029", "pdf_atom_type": "TABLE_ROW", "pdf_source": "SDTMIG_v3.4", "pdf_page": 449, "pdf_parent_section": "Appendix D: CDISC Variable-naming Fragments", "pdf_verbatim": "| ORDER | ORD |", "figure_ref": null, "candidates": [{"md_atom_id": "md_ch10_a089", "md_file": "knowledge_base/chapters/ch10_appendices.md", "md_atom_type": "TABLE_ROW", "md_parent_section": "§10.D [CDISC Variable-naming Fragments]", "md_verbatim": "| CONCOMITANT | CON | | ORDER | ORD |", "score": 0.45, "match_basis": "verbatim_token+global_search"}, {"md_atom_id": "md_routing_a041", "md_file": "knowledge_base/ROUTING.md", "md_atom_type": "TABLE_ROW", "md_parent_section": "§ 文件类型速查", "md_verbatim": "| spec.md | domains/{DOMAIN}/spec.md | 变量定义表 (Order, Label, Type, CT, Role, Core, Notes) | 查变量属性 |", "score": 0.3818, "match_basis": "verbatim_token+global_search"}, {"md_atom_id": "md_model05_a038", "md_file": "knowledge_base/model/05_study_level_data.md", "md_atom_type": "TABLE_ROW", "md_parent_section": "§ Trial Arms (TA)", "md_verbatim": "| 5 | TAETORD | Planned Order of Element within Arm | Num | Timing |", "score": 0.3667, "match_basis": "verbatim_token+global_search"}, {"md_atom_id": "md_varindex_a015", "md_file": "knowledge_base/VARIABLE_INDEX.md", "md_atom_type": "TABLE_ROW", "md_parent_section": "§ 一、通用变量（出现在 2+ 个域，共 24 个）", "md_verbatim": "| TAETORD | 43 | AE, AG, CE, CM, CP, CV, DA, DV, EC, EG, EX, FA, FT, HO, IE, IS, LB, MB, MH, MI, MK, ML, MS, NV, OE, PC, PE, PP, PR, QS, RE, RP, RS, SC, SE, SR, SS, SU, TA, TR, TU, UR, VS | Planned Order of Element within Arm | Num | Timing | Perm* |", "score": 0.3621, "match_basis": "verbatim_token+global_search"}, {"md_atom_id": "md_model03_a098", "md_file": "knowledge_base/model/03_special_purpose_domains.md", "md_atom_type": "TABLE_ROW", "md_parent_section": "§ Subject Elements (SE) > Variables (13 variables)", "md_verbatim": "| 7 | TAETORD | Planned Order of Element within Arm | Num | Timing | C83438 |", "score": 0.3581, "match_basis": "verbatim_token+global_search"}, {"md_atom_id": "md_dmAE_ex_a047", "md_file": "knowledge_base/domains/AE/examples.md", "md_atom_type": "TABLE_ROW", "md_parent_section": "§AE.3 [Example 3]", "md_verbatim": "| 1 | ABC123 | AE | 123101 | 1 | NAUSEA | Nausea | Y | Gastrointestinal disorders | | 2005-10-29 | 19 |", "score": 0.3529, "match_basis": "verbatim_token+global_search"}, {"md_atom_id": "md_dmFA_ex_a100", "md_file": "knowledge_base/domains/FA/examples.md", "md_atom_type": "TABLE_ROW", "md_parent_section": "§FA.4 [Example 4]", "md_verbatim": "| 1 | ABC101 | AE | 1234 | 1 | Headache | Headache | Y | Nervous system disorders | MILD | NONE | 2005-09-30 | 2005-10-03 |", "score": 0.3529, "match_basis": "verbatim_token+global_search"}, {"md_atom_id": "md_model05_a102", "md_file": "knowledge_base/model/05_study_level_data.md", "md_atom_type": "TABLE_ROW", "md_parent_section": "§ Trial Disease Assessments (TD)", "md_verbatim": "| 3 | TDORDER | Sequence of Planned Assessment Schedule | Num | Timing |", "score": 0.3514, "match_basis": "verbatim_token+global_search"}, {"md_atom_id": "md_dmAE_ex_a048", "md_file": "knowledge_base/domains/AE/examples.md", "md_atom_type": "TABLE_ROW", "md_parent_section": "§AE.3 [Example 3]", "md_verbatim": "| 2 | ABC123 | AE | 123101 | 2 | VOMITING | Vomiting | Y | Gastrointestinal disorders | | 2005-10-29 | 19 |", "score": 0.3514, "match_basis": "verbatim_token+global_search"}, {"md_atom_id": "md_model06_a031", "md_file": "knowledge_base/model/06_relationship_datasets.md", "md_atom_type": "TABLE_ROW", "md_parent_section": "§6.1 Related Records (RELREC)", "md_verbatim": "| ONE | ONE | One record relates to one record |", "score": 0.35, "match_basis": "verbatim_token+global_search"}], "candidate_count": 10, "zero_candidate": false}
{"pdf_atom_id": "ig34_p0449_a030", "pdf_atom_type": "TABLE_ROW", "pdf_source": "SDTMIG_v3.4", "pdf_page": 449, "pdf_parent_section": "Appendix D: CDISC Variable-naming Fragments", "pdf_verbatim": "| ORIGIN | ORIG |", "figure_ref": null, "candidates": [{"md_atom_id": "md_ch10_a090", "md_file": "knowledge_base/chapters/ch10_appendices.md", "md_atom_type": "TABLE_ROW", "md_parent_section": "§10.D [CDISC Variable-naming Fragments]", "md_verbatim": "| CONDITION | CND | | ORIGIN | ORIG |", "score": 0.5, "match_basis": "verbatim_token+global_search"}, {"md_atom_id": "md_ch10_a091", "md_file": "knowledge_base/chapters/ch10_appendices.md", "md_atom_type": "TABLE_ROW", "md_parent_section": "§10.D [CDISC Variable-naming Fragments]", "md_verbatim": "| CONGENITAL | CONG | | ORIGINAL | OR |", "score": 0.4714, "match_basis": "verbatim_token+global_search"}, {"md_atom_id": "md_dmSC_ex_a010", "md_file": "knowledge_base/domains/SC/examples.md", "md_atom_type": "TABLE_ROW", "md_parent_section": "§SC.1 [Example 1]", "md_verbatim": "| 5 | ABC | SC | ABC-001-003 | 1 | NATORIG | National Origin | USA | USA | 1999-05-03 |", "score": 0.4333, "match_basis": "verbatim_token+global_search"}, {"md_atom_id": "md_varindex_a1487", "md_file": "knowledge_base/VARIABLE_INDEX.md", "md_atom_type": "TABLE_ROW", "md_parent_section": "§ 二、领域专属变量（仅 1 个域，共 1499 个），按域分组", "md_verbatim": "| QORIG | Origin | Char | Record Qualifier | Req | — |", "score": 0.4263, "match_basis": "verbatim_token+global_search"}, {"md_atom_id": "md_dmSC_ex_a008", "md_file": "knowledge_base/domains/SC/examples.md", "md_atom_type": "TABLE_ROW", "md_parent_section": "§SC.1 [Example 1]", "md_verbatim": "| 3 | ABC | SC | ABC-001-002 | 1 | NATORIG | National Origin | CANADA | CAN | 1999-03-19 |", "score": 0.4143, "match_basis": "verbatim_token+global_search"}, {"md_atom_id": "md_dmSC_ex_a012", "md_file": "knowledge_base/domains/SC/examples.md", "md_atom_type": "TABLE_ROW", "md_parent_section": "§SC.1 [Example 1]", "md_verbatim": "| 7 | ABC | SC | ABC-001-201 | 1 | NATORIG | National Origin | JAPAN | JPN | 1999-06-14 |", "score": 0.4143, "match_basis": "verbatim_token+global_search"}, {"md_atom_id": "md_dmSC_ex_a006", "md_file": "knowledge_base/domains/SC/examples.md", "md_atom_type": "TABLE_ROW", "md_parent_section": "§SC.1 [Example 1]", "md_verbatim": "| 1 | ABC | SC | ABC-001-001 | 1 | NATORIG | National Origin | UNITED STATES | USA | 1999-06-19 |", "score": 0.396, "match_basis": "verbatim_token+global_search"}, {"md_atom_id": "md_model02_a136", "md_file": "knowledge_base/model/02_observation_classes.md", "md_atom_type": "TABLE_ROW", "md_parent_section": "§3.1.3 > Topic and Qualifier Variables (100 variables)", "md_verbatim": "| --ORRESU | Original Units | Char | Variable Qualifier (--ORRES) | |", "score": 0.3857, "match_basis": "verbatim_token+global_search"}, {"md_atom_id": "md_model02_a142", "md_file": "knowledge_base/model/02_observation_classes.md", "md_atom_type": "TABLE_ROW", "md_parent_section": "§3.1.3 > Topic and Qualifier Variables (100 variables)", "md_verbatim": "| --ORNRLO | Reference Range Lower Limit in Orig Unit | Original units |", "score": 0.3828, "match_basis": "verbatim_token+global_search"}, {"md_atom_id": "md_model02_a143", "md_file": "knowledge_base/model/02_observation_classes.md", "md_atom_type": "TABLE_ROW", "md_parent_section": "§3.1.3 > Topic and Qualifier Variables (100 variables)", "md_verbatim": "| --ORNRHI | Reference Range Upper Limit in Orig Unit | Original units |", "score": 0.3828, "match_basis": "verbatim_token+global_search"}], "candidate_count": 10, "zero_candidate": false}
{"pdf_atom_id": "ig34_p0449_a031", "pdf_atom_type": "TABLE_ROW", "pdf_source": "SDTMIG_v3.4", "pdf_page": 449, "pdf_parent_section": "Appendix D: CDISC Variable-naming Fragments", "pdf_verbatim": "| ORIGINAL | OR |", "figure_ref": null, "candidates": [{"md_atom_id": "md_ch10_a091", "md_file": "knowledge_base/chapters/ch10_appendices.md", "md_atom_type": "TABLE_ROW", "md_parent_section": "§10.D [CDISC Variable-naming Fragments]", "md_verbatim": "| CONGENITAL | CONG | | ORIGINAL | OR |", "score": 0.5571, "match_basis": "verbatim_token+global_search"}, {"md_atom_id": "md_ch10_a090", "md_file": "knowledge_base/chapters/ch10_appendices.md", "md_atom_type": "TABLE_ROW", "md_parent_section": "§10.D [CDISC Variable-naming Fragments]", "md_verbatim": "| CONDITION | CND | | ORIGIN | ORIG |", "score": 0.4714, "match_basis": "verbatim_token+global_search"}, {"md_atom_id": "md_dmSC_ex_a010", "md_file": "knowledge_base/domains/SC/examples.md", "md_atom_type": "TABLE_ROW", "md_parent_section": "§SC.1 [Example 1]", "md_verbatim": "| 5 | ABC | SC | ABC-001-003 | 1 | NATORIG | National Origin | USA | USA | 1999-05-03 |", "score": 0.4579, "match_basis": "verbatim_token+global_search"}, {"md_atom_id": "md_dmSC_ex_a008", "md_file": "knowledge_base/domains/SC/examples.md", "md_atom_type": "TABLE_ROW", "md_parent_section": "§SC.1 [Example 1]", "md_verbatim": "| 3 | ABC | SC | ABC-001-002 | 1 | NATORIG | National Origin | CANADA | CAN | 1999-03-19 |", "score": 0.4364, "match_basis": "verbatim_token+global_search"}, {"md_atom_id": "md_dmSC_ex_a012", "md_file": "knowledge_base/domains/SC/examples.md", "md_atom_type": "TABLE_ROW", "md_parent_section": "§SC.1 [Example 1]", "md_verbatim": "| 7 | ABC | SC | ABC-001-201 | 1 | NATORIG | National Origin | JAPAN | JPN | 1999-06-14 |", "score": 0.4364, "match_basis": "verbatim_token+global_search"}], "candidate_count": 5, "zero_candidate": false}
{"pdf_atom_id": "ig34_p0449_a032", "pdf_atom_type": "TABLE_ROW", "pdf_source": "SDTMIG_v3.4", "pdf_page": 449, "pdf_parent_section": "Appendix D: CDISC Variable-naming Fragments", "pdf_verbatim": "| OTHER | OTH, O |", "figure_ref": null, "candidates": [{"md_atom_id": "md_dmDM_ex_a183", "md_file": "knowledge_base/domains/DM/examples.md", "md_atom_type": "LIST_ITEM", "md_parent_section": "§DM.7 [Example 7]", "md_verbatim": "- Other", "score": 0.72, "match_basis": "verbatim_token+global_search"}, {"md_atom_id": "md_ch04_a284", "md_file": "knowledge_base/chapters/ch04_general_assumptions.md", "md_atom_type": "TABLE_ROW", "md_parent_section": "§4.2.7.1 [\"Specify\" Values for Non-Result Qualifier Variables]", "md_verbatim": "|                          | [ ] Other, specify: _________  |", "score": 0.525, "match_basis": "verbatim_token+global_search"}, {"md_atom_id": "md_ch04_a304", "md_file": "knowledge_base/chapters/ch04_general_assumptions.md", "md_atom_type": "TABLE_ROW", "md_parent_section": "§4.2.7.2 [\"Specify\" Values for Result Qualifier Variables]", "md_verbatim": "|           | [ ] Other, specify: _________ |", "score": 0.525, "match_basis": "verbatim_token+global_search"}, {"md_atom_id": "md_ch04_a326", "md_file": "knowledge_base/chapters/ch04_general_assumptions.md", "md_atom_type": "TABLE_ROW", "md_parent_section": "§4.2.7.3 [\"Specify\" Values for Topic Variables]", "md_verbatim": "|                                                                                                    | [ ] Other, specify: _________ |", "score": 0.525, "match_basis": "verbatim_token+global_search"}, {"md_atom_id": "md_dmPC_ex_a373", "md_file": "knowledge_base/domains/PC/examples.md", "md_atom_type": "TABLE_ROW", "md_parent_section": "§PC.2.7 [Example 4 (Complex exclusions)]", "md_verbatim": "| 13 | ABC-123 | PP | ABC-123-0001 | PPGRPID | OTHER | | 4 |", "score": 0.45, "match_basis": "verbatim_token+global_search"}, {"md_atom_id": "md_ch04_a309", "md_file": "knowledge_base/chapters/ch04_general_assumptions.md", "md_atom_type": "TABLE_ROW", "md_parent_section": "§4.2.7.2 [\"Specify\" Values for Result Qualifier Variables]", "md_verbatim": "   | Eye Color | BLUEISH GRAY | OTHER    |", "score": 0.4286, "match_basis": "verbatim_token+global_search"}, {"md_atom_id": "md_ch10_a092", "md_file": "knowledge_base/chapters/ch10_appendices.md", "md_atom_type": "TABLE_ROW", "md_parent_section": "§10.D [CDISC Variable-naming Fragments]", "md_verbatim": "| DATE TIME - CHARACTER | DTC | | OTHER | OTH, O |", "score": 0.42, "match_basis": "verbatim_token+global_search"}, {"md_atom_id": "md_ch10_a120", "md_file": "knowledge_base/chapters/ch10_appendices.md", "md_atom_type": "TABLE_ROW", "md_parent_section": "§10.D [CDISC Variable-naming Fragments]", "md_verbatim": "| NON-STUDY THERAPY | NST | | |", "score": 0.4091, "match_basis": "verbatim_token+global_search"}, {"md_atom_id": "md_ch08_a308", "md_file": "knowledge_base/chapters/ch08_relationships.md", "md_atom_type": "TABLE_ROW", "md_parent_section": "§8.7 [Related Subjects (RELSUB)]", "md_verbatim": "| 1 | HEM021 | HEM021-001 | HEM021-002 | MOTHER, BIOLOGICAL |", "score": 0.4, "match_basis": "verbatim_token+global_search"}, {"md_atom_id": "md_ch08_a309", "md_file": "knowledge_base/chapters/ch08_relationships.md", "md_atom_type": "TABLE_ROW", "md_parent_section": "§8.7 [Related Subjects (RELSUB)]", "md_verbatim": "| 2 | HEM021 | HEM021-001 | HEM021-003 | MOTHER, BIOLOGICAL |", "score": 0.4, "match_basis": "verbatim_token+global_search"}], "candidate_count": 10, "zero_candidate": false}
{"pdf_atom_id": "ig34_p0449_a033", "pdf_atom_type": "TABLE_ROW", "pdf_source": "SDTMIG_v3.4", "pdf_page": 449, "pdf_parent_section": "Appendix D: CDISC Variable-naming Fragments", "pdf_verbatim": "| OUTCOME | OUT |", "figure_ref": null, "candidates": [{"md_atom_id": "md_ch10_a093", "md_file": "knowledge_base/chapters/ch10_appendices.md", "md_atom_type": "TABLE_ROW", "md_parent_section": "§10.D [CDISC Variable-naming Fragments]", "md_verbatim": "| DAY | DY | | OUTCOME | OUT |", "score": 0.8, "match_basis": "verbatim_token+global_search"}, {"md_atom_id": "md_ch10_a039", "md_file": "knowledge_base/chapters/ch10_appendices.md", "md_atom_type": "TABLE_ROW", "md_parent_section": "§10.B [Glossary and Abbreviations]", "md_verbatim": "| PRO | Patient-reported outcome |", "score": 0.4765, "match_basis": "verbatim_token+global_search"}, {"md_atom_id": "md_dmTS_ex_a033", "md_file": "knowledge_base/domains/TS/examples.md", "md_atom_type": "TABLE_ROW", "md_parent_section": "§TS.1 [Example 1]", "md_verbatim": "| 28 | XYZ | TS | 1 | | OUTMSPRI | Primary Outcome Measure | SEIZURE FREQUENCY | | | | |", "score": 0.3968, "match_basis": "verbatim_token+global_search"}, {"md_atom_id": "md_dmTS_ex_a035", "md_file": "knowledge_base/domains/TS/examples.md", "md_atom_type": "TABLE_ROW", "md_parent_section": "§TS.1 [Example 1]", "md_verbatim": "| 30 | XYZ | TS | 2 | | OUTMSSEC | Secondary Outcome Measure | SEIZURE DURATION | | | | |", "score": 0.3937, "match_basis": "verbatim_token+global_search"}, {"md_atom_id": "md_dmTS_ex_a034", "md_file": "knowledge_base/domains/TS/examples.md", "md_atom_type": "TABLE_ROW", "md_parent_section": "§TS.1 [Example 1]", "md_verbatim": "| 29 | XYZ | TS | 1 | | OUTMSSEC | Secondary Outcome Measure | SEIZURE FREQUENCY | | | | |", "score": 0.3909, "match_basis": "verbatim_token+global_search"}, {"md_atom_id": "md_varindex_a070", "md_file": "knowledge_base/VARIABLE_INDEX.md", "md_atom_type": "TABLE_ROW", "md_parent_section": "§ 二、领域专属变量（仅 1 个域，共 1499 个），按域分组", "md_verbatim": "| AEOUT | Outcome of Adverse Event | Char | Record Qualifier | Perm | C66768 |", "score": 0.3882, "match_basis": "verbatim_token+global_search"}, {"md_atom_id": "md_model02_a105", "md_file": "knowledge_base/model/02_observation_classes.md", "md_atom_type": "TABLE_ROW", "md_parent_section": "§3.1.2 > Topic and Qualifier Variables (56 variables)", "md_verbatim": "| 40 | --OUT | Outcome of Event | Char | Record Qualifier | \"RECOVERED/RESOLVED\", \"FATAL\" |", "score": 0.3857, "match_basis": "verbatim_token+global_search"}, {"md_atom_id": "md_dmTS_ex_a036", "md_file": "knowledge_base/domains/TS/examples.md", "md_atom_type": "TABLE_ROW", "md_parent_section": "§TS.1 [Example 1]", "md_verbatim": "| 31 | XYZ | TS | 1 | | OUTMSEXP | Exploratory Outcome Measure | SEIZURE INTENSITY | | | | |", "score": 0.3857, "match_basis": "verbatim_token+global_search"}, {"md_atom_id": "md_dmTS_ex_a101", "md_file": "knowledge_base/domains/TS/examples.md", "md_atom_type": "TABLE_ROW", "md_parent_section": "§TS.4 [Example 4]", "md_verbatim": "| 16 | ABC123 | TS | 1 | PHASE 1B | OUTMEAS | Primary Outcome Measure | Incidence of dose limiting toxicities | | | | |", "score": 0.3652, "match_basis": "verbatim_token+global_search"}, {"md_atom_id": "md_varindex_a1751", "md_file": "knowledge_base/VARIABLE_INDEX.md", "md_atom_type": "TABLE_ROW", "md_parent_section": "§ 三、CDISC Controlled Terminology 交叉引用（共 135 个 CT Code）", "md_verbatim": "| C66768 | 1 | AE.AEOUT |", "score": 0.3545, "match_basis": "verbatim_token+global_search"}], "candidate_count": 10, "zero_candidate": false}
{"pdf_atom_id": "ig34_p0449_a034", "pdf_atom_type": "TABLE_ROW", "pdf_source": "SDTMIG_v3.4", "pdf_page": 449, "pdf_parent_section": "Appendix D: CDISC Variable-naming Fragments", "pdf_verbatim": "| OVERDOSE | OD |", "figure_ref": null, "candidates": [{"md_atom_id": "md_ch10_a094", "md_file": "knowledge_base/chapters/ch10_appendices.md", "md_atom_type": "TABLE_ROW", "md_parent_section": "§10.D [CDISC Variable-naming Fragments]", "md_verbatim": "| DEATH | DTH | | OVERDOSE | OD |", "score": 0.66, "match_basis": "verbatim_token+global_search"}, {"md_atom_id": "md_ch04_a760", "md_file": "knowledge_base/chapters/ch04_general_assumptions.md", "md_atom_type": "TABLE_ROW", "md_parent_section": "§4.4.10 [Representing Time Points]", "md_verbatim": "| | | PRE-DOSE | 1 | PM DOSE |", "score": 0.4714, "match_basis": "verbatim_token+global_search"}, {"md_atom_id": "md_ch04_a766", "md_file": "knowledge_base/chapters/ch04_general_assumptions.md", "md_atom_type": "TABLE_ROW", "md_parent_section": "§4.4.10 [Representing Time Points]", "md_verbatim": "| | | PRE-DOSE | 1 | PM DOSE |", "score": 0.4714, "match_basis": "verbatim_token+global_search"}, {"md_atom_id": "md_ch04_a772", "md_file": "knowledge_base/chapters/ch04_general_assumptions.md", "md_atom_type": "TABLE_ROW", "md_parent_section": "§4.4.10 [Representing Time Points]", "md_verbatim": "| | | PRE-DOSE | 1 | PM DOSE |", "score": 0.4714, "match_basis": "verbatim_token+global_search"}, {"md_atom_id": "md_ch04_a740", "md_file": "knowledge_base/chapters/ch04_general_assumptions.md", "md_atom_type": "TABLE_ROW", "md_parent_section": "§4.4.10 [Representing Time Points]", "md_verbatim": "| | | PRE-DOSE | 1 | DAY 1, PM DOSE |", "score": 0.45, "match_basis": "verbatim_token+global_search"}], "candidate_count": 5, "zero_candidate": false}
{"pdf_atom_id": "ig34_p0449_a035", "pdf_atom_type": "TABLE_ROW", "pdf_source": "SDTMIG_v3.4", "pdf_page": 449, "pdf_parent_section": "Appendix D: CDISC Variable-naming Fragments", "pdf_verbatim": "| PARAMETER | PARM |", "figure_ref": null, "candidates": [{"md_atom_id": "md_ch10_a095", "md_file": "knowledge_base/chapters/ch10_appendices.md", "md_atom_type": "TABLE_ROW", "md_parent_section": "§10.D [CDISC Variable-naming Fragments]", "md_verbatim": "| DECODE | DECOD | | PARAMETER | PARM |", "score": 0.7, "match_basis": "verbatim_token+global_search"}, {"md_atom_id": "md_model05_a053", "md_file": "knowledge_base/model/05_study_level_data.md", "md_atom_type": "TABLE_ROW", "md_parent_section": "§ Trial Sets (TX)", "md_verbatim": "| 6 | TXPARMCD | Trial Set Parameter Short Name | Char | Topic |", "score": 0.492, "match_basis": "verbatim_token+global_search"}, {"md_atom_id": "md_model05_a054", "md_file": "knowledge_base/model/05_study_level_data.md", "md_atom_type": "TABLE_ROW", "md_parent_section": "§ Trial Sets (TX)", "md_verbatim": "| 7 | TXPARM | Trial Set Parameter Name | Char | Synonym Qualifier |", "score": 0.4655, "match_basis": "verbatim_token+global_search"}, {"md_atom_id": "md_model05_a138", "md_file": "knowledge_base/model/05_study_level_data.md", "md_atom_type": "TABLE_ROW", "md_parent_section": "§ Trial Summary (TS)", "md_verbatim": "| 5 | TSPARMCD | Trial Summary Parameter Short Name | Char | Topic |", "score": 0.4655, "match_basis": "verbatim_token+global_search"}, {"md_atom_id": "md_model05_a055", "md_file": "knowledge_base/model/05_study_level_data.md", "md_atom_type": "TABLE_ROW", "md_parent_section": "§ Trial Sets (TX)", "md_verbatim": "| 8 | TXVAL | Parameter Value | Char | Result Qualifier |", "score": 0.4615, "match_basis": "verbatim_token+global_search"}], "candidate_count": 5, "zero_candidate": false}
{"pdf_atom_id": "ig34_p0449_a036", "pdf_atom_type": "TABLE_ROW", "pdf_source": "SDTMIG_v3.4", "pdf_page": 449, "pdf_parent_section": "Appendix D: CDISC Variable-naming Fragments", "pdf_verbatim": "| PATTERN | PATT |", "figure_ref": null, "candidates": [{"md_atom_id": "md_ch10_a096", "md_file": "knowledge_base/chapters/ch10_appendices.md", "md_atom_type": "TABLE_ROW", "md_parent_section": "§10.D [CDISC Variable-naming Fragments]", "md_verbatim": "| DERIVED | DRV | | PATTERN | PATT |", "score": 0.5727, "match_basis": "verbatim_token+global_search"}, {"md_atom_id": "md_varindex_a069", "md_file": "knowledge_base/VARIABLE_INDEX.md", "md_atom_type": "TABLE_ROW", "md_parent_section": "§ 二、领域专属变量（仅 1 个域，共 1499 个），按域分组", "md_verbatim": "| AEPATT | Pattern of Adverse Event | Char | Record Qualifier | Perm | — |", "score": 0.4, "match_basis": "verbatim_token+global_search"}, {"md_atom_id": "md_ch10_a108", "md_file": "knowledge_base/chapters/ch10_appendices.md", "md_atom_type": "TABLE_ROW", "md_parent_section": "§10.D [CDISC Variable-naming Fragments]", "md_verbatim": "| EXTERNAL | X | | SERIOUS | S, SER |", "score": 0.3857, "match_basis": "verbatim_token+global_search"}, {"md_atom_id": "md_model02_a104", "md_file": "knowledge_base/model/02_observation_classes.md", "md_atom_type": "TABLE_ROW", "md_parent_section": "§3.1.2 > Topic and Qualifier Variables (56 variables)", "md_verbatim": "| 39 | --PATT | Pattern of Event | Char | Record Qualifier | \"INTERMITTENT\", \"CONTINUOUS\", \"SINGLE EVENT\" |", "score": 0.375, "match_basis": "verbatim_token+global_search"}, {"md_atom_id": "md_varindex_a589", "md_file": "knowledge_base/VARIABLE_INDEX.md", "md_atom_type": "TABLE_ROW", "md_parent_section": "§ 二、领域专属变量（仅 1 个域，共 1499 个），按域分组", "md_verbatim": "| FTXFN | External File Path | Char | Record Qualifier | Perm | — |", "score": 0.36, "match_basis": "verbatim_token+global_search"}, {"md_atom_id": "md_varindex_a637", "md_file": "knowledge_base/VARIABLE_INDEX.md", "md_atom_type": "TABLE_ROW", "md_parent_section": "§ 二、领域专属变量（仅 1 个域，共 1499 个），按域分组", "md_verbatim": "| GFXFN | External File Path | Char | Record Qualifier | Perm | — |", "score": 0.36, "match_basis": "verbatim_token+global_search"}, {"md_atom_id": "md_varindex_a975", "md_file": "knowledge_base/VARIABLE_INDEX.md", "md_atom_type": "TABLE_ROW", "md_parent_section": "§ 二、领域专属变量（仅 1 个域，共 1499 个），按域分组", "md_verbatim": "| MSXFN | External File Path | Char | Record Qualifier | Perm | — |", "score": 0.36, "match_basis": "verbatim_token+global_search"}, {"md_atom_id": "md_varindex_a1065", "md_file": "knowledge_base/VARIABLE_INDEX.md", "md_atom_type": "TABLE_ROW", "md_parent_section": "§ 二、领域专属变量（仅 1 个域，共 1499 个），按域分组", "md_verbatim": "| OEXFN | External File Path | Char | Record Qualifier | Perm | — |", "score": 0.36, "match_basis": "verbatim_token+global_search"}, {"md_atom_id": "md_dmEX_ex_a047", "md_file": "knowledge_base/domains/EX/examples.md", "md_atom_type": "TABLE_ROW", "md_parent_section": "§EX.2 [Example 2]", "md_verbatim": "| Side | CENTER |", "score": 0.36, "match_basis": "verbatim_token+global_search"}, {"md_atom_id": "md_varindex_a495", "md_file": "knowledge_base/VARIABLE_INDEX.md", "md_atom_type": "TABLE_ROW", "md_parent_section": "§ 二、领域专属变量（仅 1 个域，共 1499 个），按域分组", "md_verbatim": "| EGXFN | ECG External File Path | Char | Record Qualifier | Perm | — |", "score": 0.3581, "match_basis": "verbatim_token+global_search"}], "candidate_count": 10, "zero_candidate": false}
{"pdf_atom_id": "ig34_p0449_a037", "pdf_atom_type": "TABLE_ROW", "pdf_source": "SDTMIG_v3.4", "pdf_page": 449, "pdf_parent_section": "Appendix D: CDISC Variable-naming Fragments", "pdf_verbatim": "| POPULATION | POP |", "figure_ref": null, "candidates": [{"md_atom_id": "md_ch10_a097", "md_file": "knowledge_base/chapters/ch10_appendices.md", "md_atom_type": "TABLE_ROW", "md_parent_section": "§10.D [CDISC Variable-naming Fragments]", "md_verbatim": "| DESCRIPTION | DESC | | POPULATION | POP |", "score": 0.62, "match_basis": "verbatim_token+global_search"}, {"md_atom_id": "md_ch10_a112", "md_file": "knowledge_base/chapters/ch10_appendices.md", "md_atom_type": "TABLE_ROW", "md_parent_section": "§10.D [CDISC Variable-naming Fragments]", "md_verbatim": "| FORMULATION, FORM | FRM | | SPONSOR | SP |", "score": 0.4667, "match_basis": "verbatim_token+global_search"}, {"md_atom_id": "md_ch10_a104", "md_file": "knowledge_base/chapters/ch10_appendices.md", "md_atom_type": "TABLE_ROW", "md_parent_section": "§10.D [CDISC Variable-naming Fragments]", "md_verbatim": "| END | END, EN | | RELATIONSHIP | REL |", "score": 0.46, "match_basis": "verbatim_token+global_search"}, {"md_atom_id": "md_ch10_a042", "md_file": "knowledge_base/chapters/ch10_appendices.md", "md_atom_type": "TABLE_ROW", "md_parent_section": "§10.B [Glossary and Abbreviations]", "md_verbatim": "| SDTM | Study Data Tabulation Model |", "score": 0.4429, "match_basis": "verbatim_token+global_search"}, {"md_atom_id": "md_ch10_a080", "md_file": "knowledge_base/chapters/ch10_appendices.md", "md_atom_type": "TABLE_ROW", "md_parent_section": "§10.D [CDISC Variable-naming Fragments]", "md_verbatim": "| BIRTH | BRTH | | LOCATION | LOC |", "score": 0.42, "match_basis": "verbatim_token+global_search"}], "candidate_count": 5, "zero_candidate": false}
{"pdf_atom_id": "ig34_p0449_a038", "pdf_atom_type": "TABLE_ROW", "pdf_source": "SDTMIG_v3.4", "pdf_page": 449, "pdf_parent_section": "Appendix D: CDISC Variable-naming Fragments", "pdf_verbatim": "| POSITION | POS |", "figure_ref": null, "candidates": [{"md_atom_id": "md_ch10_a098", "md_file": "knowledge_base/chapters/ch10_appendices.md", "md_atom_type": "TABLE_ROW", "md_parent_section": "§10.D [CDISC Variable-naming Fragments]", "md_verbatim": "| DISABILITY | DISAB | | POSITION | POS |", "score": 0.5571, "match_basis": "verbatim_token+global_search"}, {"md_atom_id": "md_ch10_a127", "md_file": "knowledge_base/chapters/ch10_appendices.md", "md_atom_type": "TABLE_ROW", "md_parent_section": "§10.D [CDISC Variable-naming Fragments]", "md_verbatim": "| | | | TRANSITION | TRANS |", "score": 0.54, "match_basis": "verbatim_token+global_search"}, {"md_atom_id": "md_model05_a042", "md_file": "knowledge_base/model/05_study_level_data.md", "md_atom_type": "TABLE_ROW", "md_parent_section": "§ Trial Arms (TA)", "md_verbatim": "| 9 | TATRANS | Transition Rule | Char | Rule |", "score": 0.45, "match_basis": "verbatim_token+global_search"}, {"md_atom_id": "md_varindex_a1504", "md_file": "knowledge_base/VARIABLE_INDEX.md", "md_atom_type": "TABLE_ROW", "md_parent_section": "§ 二、领域专属变量（仅 1 个域，共 1499 个），按域分组", "md_verbatim": "| TATRANS | Transition Rule | Char | Rule | Exp | — |", "score": 0.4412, "match_basis": "verbatim_token+global_search"}, {"md_atom_id": "md_index_a111", "md_file": "knowledge_base/INDEX.md", "md_atom_type": "TABLE_ROW", "md_parent_section": "§ Terminology (91 files)", "md_verbatim": "| [disposition.md](terminology/core/disposition.md) | Disposition codelists |", "score": 0.4333, "match_basis": "verbatim_token+global_search"}], "candidate_count": 5, "zero_candidate": false}
{"pdf_atom_id": "ig34_p0449_a039", "pdf_atom_type": "TABLE_ROW", "pdf_source": "SDTMIG_v3.4", "pdf_page": 449, "pdf_parent_section": "Appendix D: CDISC Variable-naming Fragments", "pdf_verbatim": "| QUALIFIER | QUAL |", "figure_ref": null, "candidates": [{"md_atom_id": "md_ch10_a099", "md_file": "knowledge_base/chapters/ch10_appendices.md", "md_atom_type": "TABLE_ROW", "md_parent_section": "§10.D [CDISC Variable-naming Fragments]", "md_verbatim": "| DOSE, DOSAGE | DOS, DOSE | | QUALIFIER | QUAL |", "score": 0.65, "match_basis": "verbatim_token+global_search"}, {"md_atom_id": "md_varindex_a395", "md_file": "knowledge_base/VARIABLE_INDEX.md", "md_atom_type": "TABLE_ROW", "md_parent_section": "§ 二、领域专属变量（仅 1 个域，共 1499 个），按域分组", "md_verbatim": "| AGE | Age | Num | Record Qualifier | Exp | — |", "score": 0.6, "match_basis": "verbatim_token+global_search"}, {"md_atom_id": "md_varindex_a449", "md_file": "knowledge_base/VARIABLE_INDEX.md", "md_atom_type": "TABLE_ROW", "md_parent_section": "§ 二、领域专属变量（仅 1 个域，共 1499 个），按域分组", "md_verbatim": "| ECDOSE | Dose | Num | Record Qualifier | Exp | — |", "score": 0.5471, "match_basis": "verbatim_token+global_search"}, {"md_atom_id": "md_varindex_a524", "md_file": "knowledge_base/VARIABLE_INDEX.md", "md_atom_type": "TABLE_ROW", "md_parent_section": "§ 二、领域专属变量（仅 1 个域，共 1499 个），按域分组", "md_verbatim": "| EXDOSE | Dose | Num | Record Qualifier | Exp | — |", "score": 0.5471, "match_basis": "verbatim_token+global_search"}, {"md_atom_id": "md_varindex_a933", "md_file": "knowledge_base/VARIABLE_INDEX.md", "md_atom_type": "TABLE_ROW", "md_parent_section": "§ 二、领域专属变量（仅 1 个域，共 1499 个），按域分组", "md_verbatim": "| MLDOSE | Dose | Num | Record Qualifier | Perm | — |", "score": 0.5333, "match_basis": "verbatim_token+global_search"}], "candidate_count": 5, "zero_candidate": false}
{"pdf_atom_id": "ig34_p0449_a040", "pdf_atom_type": "TABLE_ROW", "pdf_source": "SDTMIG_v3.4", "pdf_page": 449, "pdf_parent_section": "Appendix D: CDISC Variable-naming Fragments", "pdf_verbatim": "| REASON | REAS |", "figure_ref": null, "candidates": [{"md_atom_id": "md_ch04_a271", "md_file": "knowledge_base/chapters/ch04_general_assumptions.md", "md_atom_type": "TABLE_ROW", "md_parent_section": "§4.2.7.1 [\"Specify\" Values for Non-Result Qualifier Variables]", "md_verbatim": "| [ ] Non-medical Reason             |          |", "score": 0.54, "match_basis": "verbatim_token+global_search"}, {"md_atom_id": "md_ch10_a100", "md_file": "knowledge_base/chapters/ch10_appendices.md", "md_atom_type": "TABLE_ROW", "md_parent_section": "§10.D [CDISC Variable-naming Fragments]", "md_verbatim": "| DURATION | DUR | | REASON | REAS |", "score": 0.54, "match_basis": "verbatim_token+global_search"}, {"md_atom_id": "md_ch02_a114", "md_file": "knowledge_base/chapters/ch02_fundamentals.md", "md_atom_type": "TABLE_ROW", "md_parent_section": "§2.7 [SDTM Variables Not Allowed in the SDTMIG]", "md_verbatim": "| --REASEX | Findings |", "score": 0.4, "match_basis": "verbatim_token+global_search"}, {"md_atom_id": "md_ch04_a986", "md_file": "knowledge_base/chapters/ch04_general_assumptions.md", "md_atom_type": "TABLE_ROW", "md_parent_section": "§4.5.6 [Supplemental Reason Variables]", "md_verbatim": "| 1 | 12345 | HO | 99-123 | HOSEQ | 3 | HOREAS | Reason | REHABILITATION | CRF |", "score": 0.396, "match_basis": "verbatim_token+global_search"}, {"md_atom_id": "md_model02_a083", "md_file": "knowledge_base/model/02_observation_classes.md", "md_atom_type": "TABLE_ROW", "md_parent_section": "§3.1.2 > Topic and Qualifier Variables (56 variables)", "md_verbatim": "| 18 | --REASND | Reason Not Done | Char | Record Qualifier | Not in AE domain |", "score": 0.3923, "match_basis": "verbatim_token+global_search"}, {"md_atom_id": "md_varindex_a292", "md_file": "knowledge_base/VARIABLE_INDEX.md", "md_atom_type": "TABLE_ROW", "md_parent_section": "§ 二、领域专属变量（仅 1 个域，共 1499 个），按域分组", "md_verbatim": "| CPREASND | Reason Not Done | Char | Record Qualifier | Perm | — |", "score": 0.3923, "match_basis": "verbatim_token+global_search"}, {"md_atom_id": "md_varindex_a329", "md_file": "knowledge_base/VARIABLE_INDEX.md", "md_atom_type": "TABLE_ROW", "md_parent_section": "§ 二、领域专属变量（仅 1 个域，共 1499 个），按域分组", "md_verbatim": "| CVREASND | Reason Not Done | Char | Record Qualifier | Perm | — |", "score": 0.3923, "match_basis": "verbatim_token+global_search"}, {"md_atom_id": "md_varindex_a364", "md_file": "knowledge_base/VARIABLE_INDEX.md", "md_atom_type": "TABLE_ROW", "md_parent_section": "§ 二、领域专属变量（仅 1 个域，共 1499 个），按域分组", "md_verbatim": "| DAREASND | Reason Not Done | Char | Record Qualifier | Perm | — |", "score": 0.3923, "match_basis": "verbatim_token+global_search"}, {"md_atom_id": "md_varindex_a588", "md_file": "knowledge_base/VARIABLE_INDEX.md", "md_atom_type": "TABLE_ROW", "md_parent_section": "§ 二、领域专属变量（仅 1 个域，共 1499 个），按域分组", "md_verbatim": "| FTREASND | Reason Not Done | Char | Record Qualifier | Perm | — |", "score": 0.3923, "match_basis": "verbatim_token+global_search"}, {"md_atom_id": "md_varindex_a715", "md_file": "knowledge_base/VARIABLE_INDEX.md", "md_atom_type": "TABLE_ROW", "md_parent_section": "§ 二、领域专属变量（仅 1 个域，共 1499 个），按域分组", "md_verbatim": "| ISREASND | Reason Not Done | Char | Record Qualifier | Perm | — |", "score": 0.3923, "match_basis": "verbatim_token+global_search"}], "candidate_count": 10, "zero_candidate": false}
{"pdf_atom_id": "ig34_p0449_a041", "pdf_atom_type": "TABLE_ROW", "pdf_source": "SDTMIG_v3.4", "pdf_page": 449, "pdf_parent_section": "Appendix D: CDISC Variable-naming Fragments", "pdf_verbatim": "| REFERENCE | REF, RF |", "figure_ref": null, "candidates": [{"md_atom_id": "md_ch10_a101", "md_file": "knowledge_base/chapters/ch10_appendices.md", "md_atom_type": "TABLE_ROW", "md_parent_section": "§10.D [CDISC Variable-naming Fragments]", "md_verbatim": "| ELAPSED | EL | | REFERENCE | REF, RF |", "score": 0.65, "match_basis": "verbatim_token+global_search"}, {"md_atom_id": "md_dmBE_ex_a119", "md_file": "knowledge_base/domains/BE/examples.md", "md_atom_type": "SENTENCE", "md_parent_section": "§BE.2 [Example 2]", "md_verbatim": "**References**", "score": 0.645, "match_basis": "verbatim_token+global_search"}, {"md_atom_id": "md_dmDV_ex_a013", "md_file": "knowledge_base/domains/DV/examples.md", "md_atom_type": "SENTENCE", "md_parent_section": "§DV.1 [Example 1]", "md_verbatim": "**References**", "score": 0.645, "match_basis": "verbatim_token+global_search"}, {"md_atom_id": "md_ch10_a238", "md_file": "knowledge_base/chapters/ch10_appendices.md", "md_atom_type": "TABLE_ROW", "md_parent_section": "§10.E [Revision History]", "md_verbatim": "| **Section 9. Study References** | | |", "score": 0.5625, "match_basis": "verbatim_token+global_search"}, {"md_atom_id": "md_dmRS_ex_a063", "md_file": "knowledge_base/domains/RS/examples.md", "md_atom_type": "HEADING", "md_parent_section": "§RS.2 [RS — Examples - Clinical Classifications]", "md_verbatim": "### References", "score": 0.555, "match_basis": "verbatim_token+global_search"}], "candidate_count": 5, "zero_candidate": false}
{"pdf_atom_id": "ig34_p0449_a042", "pdf_atom_type": "TABLE_ROW", "pdf_source": "SDTMIG_v3.4", "pdf_page": 449, "pdf_parent_section": "Appendix D: CDISC Variable-naming Fragments", "pdf_verbatim": "| REGIMEN | RGM |", "figure_ref": null, "candidates": [{"md_atom_id": "md_ch10_a102", "md_file": "knowledge_base/chapters/ch10_appendices.md", "md_atom_type": "TABLE_ROW", "md_parent_section": "§10.D [CDISC Variable-naming Fragments]", "md_verbatim": "| ELEMENT | ET | | REGIMEN | RGM |", "score": 0.66, "match_basis": "verbatim_token+global_search"}, {"md_atom_id": "md_varindex_a230", "md_file": "knowledge_base/VARIABLE_INDEX.md", "md_atom_type": "TABLE_ROW", "md_parent_section": "§ 二、领域专属变量（仅 1 个域，共 1499 个），按域分组", "md_verbatim": "| CMDOSRGM | Intended Dose Regimen | Char | Record Qualifier | Perm | — |", "score": 0.4091, "match_basis": "verbatim_token+global_search"}, {"md_atom_id": "md_varindex_a455", "md_file": "knowledge_base/VARIABLE_INDEX.md", "md_atom_type": "TABLE_ROW", "md_parent_section": "§ 二、领域专属变量（仅 1 个域，共 1499 个），按域分组", "md_verbatim": "| ECDOSRGM | Intended Dose Regimen | Char | Record Qualifier | Perm | — |", "score": 0.4091, "match_basis": "verbatim_token+global_search"}, {"md_atom_id": "md_varindex_a529", "md_file": "knowledge_base/VARIABLE_INDEX.md", "md_atom_type": "TABLE_ROW", "md_parent_section": "§ 二、领域专属变量（仅 1 个域，共 1499 个），按域分组", "md_verbatim": "| EXDOSRGM | Intended Dose Regimen | Char | Record Qualifier | Perm | — |", "score": 0.4091, "match_basis": "verbatim_token+global_search"}, {"md_atom_id": "md_varindex_a1192", "md_file": "knowledge_base/VARIABLE_INDEX.md", "md_atom_type": "TABLE_ROW", "md_parent_section": "§ 二、领域专属变量（仅 1 个域，共 1499 个），按域分组", "md_verbatim": "| PRDOSRGM | Intended Dose Regimen | Char | Record Qualifier | Perm | — |", "score": 0.4091, "match_basis": "verbatim_token+global_search"}], "candidate_count": 5, "zero_candidate": false}
{"pdf_atom_id": "ig34_p0449_a043", "pdf_atom_type": "TABLE_ROW", "pdf_source": "SDTMIG_v3.4", "pdf_page": 449, "pdf_parent_section": "Appendix D: CDISC Variable-naming Fragments", "pdf_verbatim": "| RELATED | REL, R |", "figure_ref": null, "candidates": [{"md_atom_id": "md_ch10_a103", "md_file": "knowledge_base/chapters/ch10_appendices.md", "md_atom_type": "TABLE_ROW", "md_parent_section": "§10.D [CDISC Variable-naming Fragments]", "md_verbatim": "| EMERGENT | EM | | RELATED | REL, R |", "score": 0.5727, "match_basis": "verbatim_token+global_search"}, {"md_atom_id": "md_model06_a031", "md_file": "knowledge_base/model/06_relationship_datasets.md", "md_atom_type": "TABLE_ROW", "md_parent_section": "§6.1 Related Records (RELREC)", "md_verbatim": "| ONE | ONE | One record relates to one record |", "score": 0.5182, "match_basis": "verbatim_token+global_search"}, {"md_atom_id": "md_ch10_a158", "md_file": "knowledge_base/chapters/ch10_appendices.md", "md_atom_type": "TABLE_ROW", "md_parent_section": "§10.E [Revision History]", "md_verbatim": "| RELSPEC | Related Specimens |", "score": 0.5143, "match_basis": "verbatim_token+global_search"}, {"md_atom_id": "md_model06_a034", "md_file": "knowledge_base/model/06_relationship_datasets.md", "md_atom_type": "TABLE_ROW", "md_parent_section": "§6.1 Related Records (RELREC)", "md_verbatim": "| MANY | MANY | Many records relate to many records |", "score": 0.5, "match_basis": "verbatim_token+global_search"}, {"md_atom_id": "md_model06_a033", "md_file": "knowledge_base/model/06_relationship_datasets.md", "md_atom_type": "TABLE_ROW", "md_parent_section": "§6.1 Related Records (RELREC)", "md_verbatim": "| MANY | ONE | Many records relate to one record |", "score": 0.4846, "match_basis": "verbatim_token+global_search"}, {"md_atom_id": "md_model06_a032", "md_file": "knowledge_base/model/06_relationship_datasets.md", "md_atom_type": "TABLE_ROW", "md_parent_section": "§6.1 Related Records (RELREC)", "md_verbatim": "| ONE | MANY | One record relates to many records |", "score": 0.4714, "match_basis": "verbatim_token+global_search"}, {"md_atom_id": "md_model06_a108", "md_file": "knowledge_base/model/06_relationship_datasets.md", "md_atom_type": "TABLE_ROW", "md_parent_section": "§ Summary of Relationship Datasets", "md_verbatim": "| AP Related Subjects | APRELSUB | AP-subject links | AP |", "score": 0.4667, "match_basis": "verbatim_token+global_search"}, {"md_atom_id": "md_model06_a109", "md_file": "knowledge_base/model/06_relationship_datasets.md", "md_atom_type": "TABLE_ROW", "md_parent_section": "§ Summary of Relationship Datasets", "md_verbatim": "| Related Specimens | RELSPEC | Specimen lineage | Yes |", "score": 0.45, "match_basis": "verbatim_token+global_search"}, {"md_atom_id": "md_ch04_a393", "md_file": "knowledge_base/chapters/ch04_general_assumptions.md", "md_atom_type": "TABLE_ROW", "md_parent_section": "§4.2.8.3 [Multiple Values for a Non-result Qualifier Variable]", "md_verbatim": "| RASH | POSSIBLY RELATED | DOSE REDUCED |", "score": 0.45, "match_basis": "verbatim_token+global_search"}, {"md_atom_id": "md_model06_a088", "md_file": "knowledge_base/model/06_relationship_datasets.md", "md_atom_type": "TABLE_ROW", "md_parent_section": "§6.6 Associated Persons Related Subjects (APRELSUB)", "md_verbatim": "| 4 | RDEVID | Related Device Identifier | Char | Identifier |", "score": 0.4429, "match_basis": "verbatim_token+global_search"}], "candidate_count": 10, "zero_candidate": false}
{"pdf_atom_id": "ig34_p0449_a044", "pdf_atom_type": "TABLE_ROW", "pdf_source": "SDTMIG_v3.4", "pdf_page": 449, "pdf_parent_section": "Appendix D: CDISC Variable-naming Fragments", "pdf_verbatim": "| RELATIONSHIP | REL |", "figure_ref": null, "candidates": [{"md_atom_id": "md_ch10_a104", "md_file": "knowledge_base/chapters/ch10_appendices.md", "md_atom_type": "TABLE_ROW", "md_parent_section": "§10.D [CDISC Variable-naming Fragments]", "md_verbatim": "| END | END, EN | | RELATIONSHIP | REL |", "score": 0.8455, "match_basis": "verbatim_token+global_search"}, {"md_atom_id": "md_model06_a106", "md_file": "knowledge_base/model/06_relationship_datasets.md", "md_atom_type": "TABLE_ROW", "md_parent_section": "§ Summary of Relationship Datasets", "md_verbatim": "| Related Subjects | RELSUB | Subject relationships | Yes |", "score": 0.5727, "match_basis": "verbatim_token+global_search"}, {"md_atom_id": "md_ch08_a282", "md_file": "knowledge_base/chapters/ch08_relationships.md", "md_atom_type": "TABLE_ROW", "md_parent_section": "§8.7 [Related Subjects (RELSUB)]", "md_verbatim": "| SREL | Subject Relationship to Related Subject/Pool | Char | Req |", "score": 0.5609, "match_basis": "verbatim_token+global_search"}, {"md_atom_id": "md_model06_a107", "md_file": "knowledge_base/model/06_relationship_datasets.md", "md_atom_type": "TABLE_ROW", "md_parent_section": "§ Summary of Relationship Datasets", "md_verbatim": "| Device-subject Relationships | DR | Device-subject links | Yes |", "score": 0.55, "match_basis": "verbatim_token+global_search"}, {"md_atom_id": "md_ch10_a231", "md_file": "knowledge_base/chapters/ch10_appendices.md", "md_atom_type": "TABLE_ROW", "md_parent_section": "§10.E [Revision History]", "md_verbatim": "| **Section 8. Representing Relationships and Data** | | |", "score": 0.5222, "match_basis": "verbatim_token+global_search"}], "candidate_count": 5, "zero_candidate": false}
{"pdf_atom_id": "ig34_p0449_a045", "pdf_atom_type": "TABLE_ROW", "pdf_source": "SDTMIG_v3.4", "pdf_page": 449, "pdf_parent_section": "Appendix D: CDISC Variable-naming Fragments", "pdf_verbatim": "| RESULT | RES |", "figure_ref": null, "candidates": [{"md_atom_id": "md_ch10_a105", "md_file": "knowledge_base/chapters/ch10_appendices.md", "md_atom_type": "TABLE_ROW", "md_parent_section": "§10.D [CDISC Variable-naming Fragments]", "md_verbatim": "| ETHNICITY | ETHNIC | | RESULT | RES |", "score": 0.5182, "match_basis": "verbatim_token+global_search"}, {"md_atom_id": "md_ch04_a875", "md_file": "knowledge_base/chapters/ch04_general_assumptions.md", "md_atom_type": "TABLE_ROW", "md_parent_section": "§4.5.1.3 [Examples of Original and Standard Units and Test Not Done]", "md_verbatim": "| 7 | EGALL | ECG Test Results | | | | | | NOT DONE | 3 | 2015-03-21 |", "score": 0.45, "match_basis": "verbatim_token+global_search"}, {"md_atom_id": "md_dmRE_ex_a039", "md_file": "knowledge_base/domains/RE/examples.md", "md_atom_type": "TABLE_ROW", "md_parent_section": "§RE.2 [Example 2]", "md_verbatim": "| 1 | XYZ | RE | XYZ-001-001 | RESEQ | 1 | REBRESFL | Best Result Flag | Y | CRF | |", "score": 0.4333, "match_basis": "verbatim_token+global_search"}, {"md_atom_id": "md_varindex_a1486", "md_file": "knowledge_base/VARIABLE_INDEX.md", "md_atom_type": "TABLE_ROW", "md_parent_section": "§ 二、领域专属变量（仅 1 个域，共 1499 个），按域分组", "md_verbatim": "| QVAL | Data Value | Char | Result Qualifier | Req | — |", "score": 0.42, "match_basis": "verbatim_token+global_search"}, {"md_atom_id": "md_model06_a050", "md_file": "knowledge_base/model/06_relationship_datasets.md", "md_atom_type": "TABLE_ROW", "md_parent_section": "§6.2 Supplemental Qualifiers (SUPP--)", "md_verbatim": "| 11 | QVAL | Data Value | Char | Result Qualifier | The actual data value |", "score": 0.4043, "match_basis": "verbatim_token+global_search"}, {"md_atom_id": "md_model05_a055", "md_file": "knowledge_base/model/05_study_level_data.md", "md_atom_type": "TABLE_ROW", "md_parent_section": "§ Trial Sets (TX)", "md_verbatim": "| 8 | TXVAL | Parameter Value | Char | Result Qualifier |", "score": 0.396, "match_basis": "verbatim_token+global_search"}, {"md_atom_id": "md_model05_a140", "md_file": "knowledge_base/model/05_study_level_data.md", "md_atom_type": "TABLE_ROW", "md_parent_section": "§ Trial Summary (TS)", "md_verbatim": "| 7 | TSVAL | Parameter Value | Char | Result Qualifier |", "score": 0.396, "match_basis": "verbatim_token+global_search"}, {"md_atom_id": "md_model05_a156", "md_file": "knowledge_base/model/05_study_level_data.md", "md_atom_type": "TABLE_ROW", "md_parent_section": "§ Challenge Agent Characterization (AC)", "md_verbatim": "| 7 | ACVAL | Parameter Value | Char | Result Qualifier |", "score": 0.396, "match_basis": "verbatim_token+global_search"}, {"md_atom_id": "md_varindex_a1574", "md_file": "knowledge_base/VARIABLE_INDEX.md", "md_atom_type": "TABLE_ROW", "md_parent_section": "§ 二、领域专属变量（仅 1 个域，共 1499 个），按域分组", "md_verbatim": "| TUORRES | Tumor/Lesion ID Result | Char | Result Qualifier | Exp | — |", "score": 0.396, "match_basis": "verbatim_token+global_search"}, {"md_atom_id": "md_dmRE_ex_a040", "md_file": "knowledge_base/domains/RE/examples.md", "md_atom_type": "TABLE_ROW", "md_parent_section": "§RE.2 [Example 2]", "md_verbatim": "| 2 | XYZ | RE | XYZ-001-001 | RESEQ | 4 | REIRESFL | Inadequate Results Flag | Y | CRF | |", "score": 0.396, "match_basis": "verbatim_token+global_search"}], "candidate_count": 10, "zero_candidate": false}
{"pdf_atom_id": "ig34_p0449_a046", "pdf_atom_type": "TABLE_ROW", "pdf_source": "SDTMIG_v3.4", "pdf_page": 449, "pdf_parent_section": "Appendix D: CDISC Variable-naming Fragments", "pdf_verbatim": "| RULE | RL |", "figure_ref": null, "candidates": [{"md_atom_id": "md_model05_a041", "md_file": "knowledge_base/model/05_study_level_data.md", "md_atom_type": "TABLE_ROW", "md_parent_section": "§ Trial Arms (TA)", "md_verbatim": "| 8 | TABRANCH | Branch | Char | Rule |", "score": 0.42, "match_basis": "verbatim_token+global_search"}, {"md_atom_id": "md_ch04_a818", "md_file": "knowledge_base/chapters/ch04_general_assumptions.md", "md_atom_type": "SENTENCE", "md_parent_section": "§4.5.1 [Original and Standardized Results]", "md_verbatim": "**Key rules:**", "score": 0.42, "match_basis": "verbatim_token+global_search"}, {"md_atom_id": "md_ch10_a106", "md_file": "knowledge_base/chapters/ch10_appendices.md", "md_atom_type": "TABLE_ROW", "md_parent_section": "§10.D [CDISC Variable-naming Fragments]", "md_verbatim": "| EVALUATION | EVL | | RULE | RL |", "score": 0.4091, "match_basis": "verbatim_token+global_search"}, {"md_atom_id": "md_varindex_a1503", "md_file": "knowledge_base/VARIABLE_INDEX.md", "md_atom_type": "TABLE_ROW", "md_parent_section": "§ 二、领域专属变量（仅 1 个域，共 1499 个），按域分组", "md_verbatim": "| TABRANCH | Branch | Char | Rule | Exp | — |", "score": 0.4091, "match_basis": "verbatim_token+global_search"}, {"md_atom_id": "md_model05_a095", "md_file": "knowledge_base/model/05_study_level_data.md", "md_atom_type": "TABLE_ROW", "md_parent_section": "§ Trial Visits (TV)", "md_verbatim": "| 9 | TVENRL | Visit End Rule | Char | Rule |", "score": 0.4, "match_basis": "verbatim_token+global_search"}, {"md_atom_id": "md_model05_a042", "md_file": "knowledge_base/model/05_study_level_data.md", "md_atom_type": "TABLE_ROW", "md_parent_section": "§ Trial Arms (TA)", "md_verbatim": "| 9 | TATRANS | Transition Rule | Char | Rule |", "score": 0.3857, "match_basis": "verbatim_token+global_search"}, {"md_atom_id": "md_model05_a094", "md_file": "knowledge_base/model/05_study_level_data.md", "md_atom_type": "TABLE_ROW", "md_parent_section": "§ Trial Visits (TV)", "md_verbatim": "| 8 | TVSTRL | Visit Start Rule | Char | Rule |", "score": 0.3857, "match_basis": "verbatim_token+global_search"}, {"md_atom_id": "md_varindex_a1592", "md_file": "knowledge_base/VARIABLE_INDEX.md", "md_atom_type": "TABLE_ROW", "md_parent_section": "§ 二、领域专属变量（仅 1 个域，共 1499 个），按域分组", "md_verbatim": "| TVENRL | Visit End Rule | Char | Rule | Perm | — |", "score": 0.3857, "match_basis": "verbatim_token+global_search"}, {"md_atom_id": "md_model05_a026", "md_file": "knowledge_base/model/05_study_level_data.md", "md_atom_type": "TABLE_ROW", "md_parent_section": "§ Trial Elements (TE)", "md_verbatim": "| 6 | TEENRL | Rule for End of Element | Char | Rule |", "score": 0.38, "match_basis": "verbatim_token+global_search"}, {"md_atom_id": "md_varindex_a1504", "md_file": "knowledge_base/VARIABLE_INDEX.md", "md_atom_type": "TABLE_ROW", "md_parent_section": "§ 二、领域专属变量（仅 1 个域，共 1499 个），按域分组", "md_verbatim": "| TATRANS | Transition Rule | Char | Rule | Exp | — |", "score": 0.38, "match_basis": "verbatim_token+global_search"}], "candidate_count": 10, "zero_candidate": false}
{"pdf_atom_id": "ig34_p0449_a047", "pdf_atom_type": "TABLE_ROW", "pdf_source": "SDTMIG_v3.4", "pdf_page": 449, "pdf_parent_section": "Appendix D: CDISC Variable-naming Fragments", "pdf_verbatim": "| SEQUENCE | SEQ |", "figure_ref": null, "candidates": [{"md_atom_id": "md_ch10_a107", "md_file": "knowledge_base/chapters/ch10_appendices.md", "md_atom_type": "TABLE_ROW", "md_parent_section": "§10.D [CDISC Variable-naming Fragments]", "md_verbatim": "| EVALUATOR | EVAL | | SEQUENCE | SEQ |", "score": 0.5769, "match_basis": "verbatim_token+global_search"}, {"md_atom_id": "md_model03_a076", "md_file": "knowledge_base/model/03_special_purpose_domains.md", "md_atom_type": "TABLE_ROW", "md_parent_section": "§ Comments (CO) > Variables (15 variables)", "md_verbatim": "| 7 | COSEQ | Sequence Number | Num | Identifier |", "score": 0.48, "match_basis": "verbatim_token+global_search"}, {"md_atom_id": "md_model03_a095", "md_file": "knowledge_base/model/03_special_purpose_domains.md", "md_atom_type": "TABLE_ROW", "md_parent_section": "§ Subject Elements (SE) > Variables (13 variables)", "md_verbatim": "| 4 | SESEQ | Sequence Number | Num | Identifier | |", "score": 0.48, "match_basis": "verbatim_token+global_search"}, {"md_atom_id": "md_model03_a154", "md_file": "knowledge_base/model/03_special_purpose_domains.md", "md_atom_type": "TABLE_ROW", "md_parent_section": "§ Subject Disease Milestones (SM) > Variables (10 variables)", "md_verbatim": "| 4 | SMSEQ | Sequence Number | Num | Identifier | |", "score": 0.48, "match_basis": "verbatim_token+global_search"}, {"md_atom_id": "md_model05_a052", "md_file": "knowledge_base/model/05_study_level_data.md", "md_atom_type": "TABLE_ROW", "md_parent_section": "§ Trial Sets (TX)", "md_verbatim": "| 5 | TXSEQ | Sequence Number | Num | Identifier |", "score": 0.48, "match_basis": "verbatim_token+global_search"}], "candidate_count": 5, "zero_candidate": false}
{"pdf_atom_id": "ig34_p0450_a001", "pdf_atom_type": "TABLE_ROW", "pdf_source": "SDTMIG_v3.4", "pdf_page": 450, "pdf_parent_section": "Appendix D: CDISC Variable-naming Fragments", "pdf_verbatim": "| SERIOUS | S, SER |", "figure_ref": null, "candidates": [{"md_atom_id": "md_dmAE_assn_a028", "md_file": "knowledge_base/domains/AE/assumptions.md", "md_atom_type": "TABLE_HEADER", "md_parent_section": "§AE [AE — Assumptions]", "md_verbatim": "      | Serious? | [ ] Yes  [ ] No |\n      |----------|-----------------|", "score": 0.74, "match_basis": "verbatim_token+global_search"}, {"md_atom_id": "md_ch10_a108", "md_file": "knowledge_base/chapters/ch10_appendices.md", "md_atom_type": "TABLE_ROW", "md_parent_section": "§10.D [CDISC Variable-naming Fragments]", "md_verbatim": "| EXTERNAL | X | | SERIOUS | S, SER |", "score": 0.5727, "match_basis": "verbatim_token+global_search"}, {"md_atom_id": "md_model02_a097", "md_file": "knowledge_base/model/02_observation_classes.md", "md_atom_type": "TABLE_ROW", "md_parent_section": "§3.1.2 > Topic and Qualifier Variables (56 variables)", "md_verbatim": "| 32 | --SER | Serious Event | Char | Record Qualifier | \"Y\" and \"N\" |", "score": 0.4364, "match_basis": "verbatim_token+global_search"}, {"md_atom_id": "md_dmEX_ex_a149", "md_file": "knowledge_base/domains/EX/examples.md", "md_atom_type": "TABLE_HEADER", "md_parent_section": "§EX.6 [Example 6]", "md_verbatim": "| | Period 1 | | | | | Period 2 | | | | |\n|---|---|---|---|---|---|---|---|---|---|---|", "score": 0.4114, "match_basis": "verbatim_token+global_search"}, {"md_atom_id": "md_dmEX_ex_a155", "md_file": "knowledge_base/domains/EX/examples.md", "md_atom_type": "TABLE_HEADER", "md_parent_section": "§EX.6 [Example 6]", "md_verbatim": "| | Period 1 | | | | | Period 2 | | | | |\n|---|---|---|---|---|---|---|---|---|---|---|", "score": 0.4114, "match_basis": "verbatim_token+global_search"}, {"md_atom_id": "md_ch04_a737", "md_file": "knowledge_base/chapters/ch04_general_assumptions.md", "md_atom_type": "TABLE_ROW", "md_parent_section": "§4.4.10 [Representing Time Points]", "md_verbatim": "| PERIOD 1 | 3 | PRE-DOSE | 1 | DAY 1, AM DOSE |", "score": 0.4091, "match_basis": "verbatim_token+global_search"}, {"md_atom_id": "md_ch04_a749", "md_file": "knowledge_base/chapters/ch04_general_assumptions.md", "md_atom_type": "TABLE_ROW", "md_parent_section": "§4.4.10 [Representing Time Points]", "md_verbatim": "| PERIOD 2 | 4 | PRE-DOSE | 1 | DAY 1, AM DOSE |", "score": 0.4091, "match_basis": "verbatim_token+global_search"}, {"md_atom_id": "md_ch04_a757", "md_file": "knowledge_base/chapters/ch04_general_assumptions.md", "md_atom_type": "TABLE_ROW", "md_parent_section": "§4.4.10 [Representing Time Points]", "md_verbatim": "| PERIOD 1, DAY 1 | 3 | PRE-DOSE | 1 | AM DOSE |", "score": 0.4091, "match_basis": "verbatim_token+global_search"}, {"md_atom_id": "md_ch04_a763", "md_file": "knowledge_base/chapters/ch04_general_assumptions.md", "md_atom_type": "TABLE_ROW", "md_parent_section": "§4.4.10 [Representing Time Points]", "md_verbatim": "| PERIOD 1, DAY 5 | 4 | PRE-DOSE | 1 | AM DOSE |", "score": 0.4091, "match_basis": "verbatim_token+global_search"}, {"md_atom_id": "md_ch04_a769", "md_file": "knowledge_base/chapters/ch04_general_assumptions.md", "md_atom_type": "TABLE_ROW", "md_parent_section": "§4.4.10 [Representing Time Points]", "md_verbatim": "| PERIOD 2, DAY 1 | 5 | PRE-DOSE | 1 | AM DOSE |", "score": 0.4091, "match_basis": "verbatim_token+global_search"}], "candidate_count": 10, "zero_candidate": false}
{"pdf_atom_id": "ig34_p0450_a002", "pdf_atom_type": "TABLE_ROW", "pdf_source": "SDTMIG_v3.4", "pdf_page": 450, "pdf_parent_section": "Appendix D: CDISC Variable-naming Fragments", "pdf_verbatim": "| SEVERITY | SEV |", "figure_ref": null, "candidates": [{"md_atom_id": "md_ch10_a109", "md_file": "knowledge_base/chapters/ch10_appendices.md", "md_atom_type": "TABLE_ROW", "md_parent_section": "§10.D [CDISC Variable-naming Fragments]", "md_verbatim": "| FASTING | FAST | | SEVERITY | SEV |", "score": 0.6273, "match_basis": "verbatim_token+global_search"}, {"md_atom_id": "md_ch04_a076", "md_file": "knowledge_base/chapters/ch04_general_assumptions.md", "md_atom_type": "TABLE_ROW", "md_parent_section": "§4.1.7.1 [Example of Splitting Questionnaires]", "md_verbatim": "| 2 | CDISC01 | QS | CDISC01.100008 | 2 | CGI0201 | CGI02-Severity | CGI | Mild | 3 | 3 | | 2 | WEEK 2 | 7 | 2003-04-21 | 7 |", "score": 0.444, "match_basis": "verbatim_token+global_search"}, {"md_atom_id": "md_dmCE_ex_a028", "md_file": "knowledge_base/domains/CE/examples.md", "md_atom_type": "TABLE_HEADER", "md_parent_section": "§CE.2 [Example 2]", "md_verbatim": "| Event | | Date Started | Date Ended | Severity |\n|-------|---|-------------|-----------|----------|", "score": 0.44, "match_basis": "verbatim_token+global_search"}, {"md_atom_id": "md_ch04_a080", "md_file": "knowledge_base/chapters/ch04_general_assumptions.md", "md_atom_type": "TABLE_ROW", "md_parent_section": "§4.1.7.1 [Example of Splitting Questionnaires]", "md_verbatim": "| 6 | CDISC01 | QS | CDISC01.100014 | 2 | CGI0201 | CGI02-Severity | CGI | Mild | 3 | 3 | | 2 | WEEK 2 | 7 | 2003-04-21 | 7 |", "score": 0.4385, "match_basis": "verbatim_token+global_search"}, {"md_atom_id": "md_ch04_a075", "md_file": "knowledge_base/chapters/ch04_general_assumptions.md", "md_atom_type": "TABLE_ROW", "md_parent_section": "§4.1.7.1 [Example of Splitting Questionnaires]", "md_verbatim": "| 1 | CDISC01 | QS | CDISC01.100008 | 1 | CGI0201 | CGI02-Severity | CGI | Moderate | 4 | 4 | | 1 | WEEK 1 | 7 | 2003-04-15 | 1 |", "score": 0.4241, "match_basis": "verbatim_token+global_search"}], "candidate_count": 5, "zero_candidate": false}
{"pdf_atom_id": "ig34_p0450_a003", "pdf_atom_type": "TABLE_ROW", "pdf_source": "SDTMIG_v3.4", "pdf_page": 450, "pdf_parent_section": "Appendix D: CDISC Variable-naming Fragments", "pdf_verbatim": "| SIGNIFICANT | SIG |", "figure_ref": null, "candidates": [{"md_atom_id": "md_ch10_a110", "md_file": "knowledge_base/chapters/ch10_appendices.md", "md_atom_type": "TABLE_ROW", "md_parent_section": "§10.D [CDISC Variable-naming Fragments]", "md_verbatim": "| FILENAME | FN | | SIGNIFICANT | SIG |", "score": 0.66, "match_basis": "verbatim_token+global_search"}, {"md_atom_id": "md_varindex_a302", "md_file": "knowledge_base/VARIABLE_INDEX.md", "md_atom_type": "TABLE_ROW", "md_parent_section": "§ 二、领域专属变量（仅 1 个域，共 1499 个），按域分组", "md_verbatim": "| CPCLSIG | Clinically Significant, Collected | Char | Record Qualifier | Perm | C66742 |", "score": 0.42, "match_basis": "verbatim_token+global_search"}, {"md_atom_id": "md_varindex_a504", "md_file": "knowledge_base/VARIABLE_INDEX.md", "md_atom_type": "TABLE_ROW", "md_parent_section": "§ 二、领域专属变量（仅 1 个域，共 1499 个），按域分组", "md_verbatim": "| EGCLSIG | Clinically Significant, Collected | Char | Record Qualifier | Perm | C66742 |", "score": 0.42, "match_basis": "verbatim_token+global_search"}, {"md_atom_id": "md_varindex_a778", "md_file": "knowledge_base/VARIABLE_INDEX.md", "md_atom_type": "TABLE_ROW", "md_parent_section": "§ 二、领域专属变量（仅 1 个域，共 1499 个），按域分组", "md_verbatim": "| LBCLSIG | Clinically Significant, Collected | Char | Record Qualifier | Perm | C66742 |", "score": 0.42, "match_basis": "verbatim_token+global_search"}, {"md_atom_id": "md_varindex_a1654", "md_file": "knowledge_base/VARIABLE_INDEX.md", "md_atom_type": "TABLE_ROW", "md_parent_section": "§ 二、领域专属变量（仅 1 个域，共 1499 个），按域分组", "md_verbatim": "| VSCLSIG | Clinically Significant, Collected | Char | Record Qualifier | Perm | C66742 |", "score": 0.42, "match_basis": "verbatim_token+global_search"}], "candidate_count": 5, "zero_candidate": false}
{"pdf_atom_id": "ig34_p0450_a004", "pdf_atom_type": "TABLE_ROW", "pdf_source": "SDTMIG_v3.4", "pdf_page": 450, "pdf_parent_section": "Appendix D: CDISC Variable-naming Fragments", "pdf_verbatim": "| SPECIMEN | SPEC, SPC |", "figure_ref": null, "candidates": [{"md_atom_id": "md_ch10_a111", "md_file": "knowledge_base/chapters/ch10_appendices.md", "md_atom_type": "TABLE_ROW", "md_parent_section": "§10.D [CDISC Variable-naming Fragments]", "md_verbatim": "| FLAG | FL | | SPECIMEN | SPEC, SPC |", "score": 0.7667, "match_basis": "verbatim_token+global_search"}, {"md_atom_id": "md_ch10_a154", "md_file": "knowledge_base/chapters/ch10_appendices.md", "md_atom_type": "TABLE_ROW", "md_parent_section": "§10.E [Revision History]", "md_verbatim": "| BE | Biospecimen Events |", "score": 0.5571, "match_basis": "verbatim_token+global_search"}, {"md_atom_id": "md_ch10_a158", "md_file": "knowledge_base/chapters/ch10_appendices.md", "md_atom_type": "TABLE_ROW", "md_parent_section": "§10.E [Revision History]", "md_verbatim": "| RELSPEC | Related Specimens |", "score": 0.54, "match_basis": "verbatim_token+global_search"}, {"md_atom_id": "md_ch10_a155", "md_file": "knowledge_base/chapters/ch10_appendices.md", "md_atom_type": "TABLE_ROW", "md_parent_section": "§10.E [Revision History]", "md_verbatim": "| BS | Biospecimen Findings |", "score": 0.525, "match_basis": "verbatim_token+global_search"}, {"md_atom_id": "md_model02_a152", "md_file": "knowledge_base/model/02_observation_classes.md", "md_atom_type": "TABLE_ROW", "md_parent_section": "§3.1.3 > Topic and Qualifier Variables (100 variables)", "md_verbatim": "| --SPCUFL | Specimen Usability for the Test | \"Y\" or null |", "score": 0.4826, "match_basis": "verbatim_token+global_search"}], "candidate_count": 5, "zero_candidate": false}
{"pdf_atom_id": "ig34_p0450_a005", "pdf_atom_type": "TABLE_ROW", "pdf_source": "SDTMIG_v3.4", "pdf_page": 450, "pdf_parent_section": "Appendix D: CDISC Variable-naming Fragments", "pdf_verbatim": "| SPONSOR | SP |", "figure_ref": null, "candidates": [{"md_atom_id": "md_ch10_a112", "md_file": "knowledge_base/chapters/ch10_appendices.md", "md_atom_type": "TABLE_ROW", "md_parent_section": "§10.D [CDISC Variable-naming Fragments]", "md_verbatim": "| FORMULATION, FORM | FRM | | SPONSOR | SP |", "score": 0.5, "match_basis": "verbatim_token+global_search"}, {"md_atom_id": "md_model06_a024", "md_file": "knowledge_base/model/06_relationship_datasets.md", "md_atom_type": "TABLE_ROW", "md_parent_section": "§6.1 Related Records (RELREC)", "md_verbatim": "| 6 | SPDEVID | Sponsor Device Identifier | Char | Identifier | |", "score": 0.4364, "match_basis": "verbatim_token+global_search"}, {"md_atom_id": "md_model06_a045", "md_file": "knowledge_base/model/06_relationship_datasets.md", "md_atom_type": "TABLE_ROW", "md_parent_section": "§6.2 Supplemental Qualifiers (SUPP--)", "md_verbatim": "| 6 | SPDEVID | Sponsor Device Identifier | Char | Identifier | |", "score": 0.4364, "match_basis": "verbatim_token+global_search"}, {"md_atom_id": "md_model06_a080", "md_file": "knowledge_base/model/06_relationship_datasets.md", "md_atom_type": "TABLE_ROW", "md_parent_section": "§6.5 Device-subject Relationships (DR)", "md_verbatim": "| 4 | SPDEVID | Sponsor Device Identifier | Char | Identifier |", "score": 0.4364, "match_basis": "verbatim_token+global_search"}, {"md_atom_id": "md_model02_a169", "md_file": "knowledge_base/model/02_observation_classes.md", "md_atom_type": "TABLE_ROW", "md_parent_section": "§3.1.4 Identifiers for All Classes", "md_verbatim": "| 5 | SPDEVID | Sponsor Device Identifier | Char | Identifier | |", "score": 0.4364, "match_basis": "verbatim_token+global_search"}, {"md_atom_id": "md_model03_a075", "md_file": "knowledge_base/model/03_special_purpose_domains.md", "md_atom_type": "TABLE_ROW", "md_parent_section": "§ Comments (CO) > Variables (15 variables)", "md_verbatim": "| 6 | SPDEVID | Sponsor Device Identifier | Char | Identifier |", "score": 0.4364, "match_basis": "verbatim_token+global_search"}, {"md_atom_id": "md_model05_a174", "md_file": "knowledge_base/model/05_study_level_data.md", "md_atom_type": "TABLE_ROW", "md_parent_section": "§ Device Identifiers (DI)", "md_verbatim": "| 3 | SPDEVID | Sponsor Device Identifier | Char | Identifier |", "score": 0.4364, "match_basis": "verbatim_token+global_search"}, {"md_atom_id": "md_varindex_a019", "md_file": "knowledge_base/VARIABLE_INDEX.md", "md_atom_type": "TABLE_ROW", "md_parent_section": "§ 一、通用变量（出现在 2+ 个域，共 24 个）", "md_verbatim": "| SPDEVID | 6 | AE, BE, BS, EG, GF, RE | Sponsor Device Identifier | Char | Identifier | Perm |", "score": 0.425, "match_basis": "verbatim_token+global_search"}, {"md_atom_id": "md_varindex_a042", "md_file": "knowledge_base/VARIABLE_INDEX.md", "md_atom_type": "TABLE_ROW", "md_parent_section": "§ 二、领域专属变量（仅 1 个域，共 1499 个），按域分组", "md_verbatim": "| AESPID | Sponsor-Defined Identifier | Char | Identifier | Perm | — |", "score": 0.4154, "match_basis": "verbatim_token+global_search"}, {"md_atom_id": "md_varindex_a097", "md_file": "knowledge_base/VARIABLE_INDEX.md", "md_atom_type": "TABLE_ROW", "md_parent_section": "§ 二、领域专属变量（仅 1 个域，共 1499 个），按域分组", "md_verbatim": "| AGSPID | Sponsor-Defined Identifier | Char | Identifier | Perm | — |", "score": 0.4154, "match_basis": "verbatim_token+global_search"}], "candidate_count": 10, "zero_candidate": false}
{"pdf_atom_id": "ig34_p0450_a006", "pdf_atom_type": "TABLE_ROW", "pdf_source": "SDTMIG_v3.4", "pdf_page": 450, "pdf_parent_section": "Appendix D: CDISC Variable-naming Fragments", "pdf_verbatim": "| STANDARD | ST, STD |", "figure_ref": null, "candidates": [{"md_atom_id": "md_ch10_a113", "md_file": "knowledge_base/chapters/ch10_appendices.md", "md_atom_type": "TABLE_ROW", "md_parent_section": "§10.D [CDISC Variable-naming Fragments]", "md_verbatim": "| FREQUENCY | FRQ | | STANDARD | ST, STD |", "score": 0.58, "match_basis": "verbatim_token+global_search"}, {"md_atom_id": "md_ch10_a038", "md_file": "knowledge_base/chapters/ch10_appendices.md", "md_atom_type": "TABLE_ROW", "md_parent_section": "§10.B [Glossary and Abbreviations]", "md_verbatim": "| NSV | Non-standard variable |", "score": 0.54, "match_basis": "verbatim_token+global_search"}, {"md_atom_id": "md_model01_a064", "md_file": "knowledge_base/model/01_concepts_and_terms.md", "md_atom_type": "TABLE_ROW", "md_parent_section": "§2.2 [Table Structure]", "md_verbatim": "| **Format** | ISO format standard or description (e.g., \"number-number\") |", "score": 0.444, "match_basis": "verbatim_token+global_search"}, {"md_atom_id": "md_ch10_a047", "md_file": "knowledge_base/chapters/ch10_appendices.md", "md_atom_type": "TABLE_ROW", "md_parent_section": "§10.B [Glossary and Abbreviations]", "md_verbatim": "| SEND | Standard for Exchange of Non-Clinical Data |", "score": 0.444, "match_basis": "verbatim_token+global_search"}, {"md_atom_id": "md_model02_a144", "md_file": "knowledge_base/model/02_observation_classes.md", "md_atom_type": "TABLE_ROW", "md_parent_section": "§3.1.3 > Topic and Qualifier Variables (100 variables)", "md_verbatim": "| --STNRLO | Reference Range Lower Limit-Std Units | Standard units |", "score": 0.44, "match_basis": "verbatim_token+global_search"}], "candidate_count": 5, "zero_candidate": false}
{"pdf_atom_id": "ig34_p0450_a007", "pdf_atom_type": "TABLE_ROW", "pdf_source": "SDTMIG_v3.4", "pdf_page": 450, "pdf_parent_section": "Appendix D: CDISC Variable-naming Fragments", "pdf_verbatim": "| START | ST |", "figure_ref": null, "candidates": [{"md_atom_id": "md_ch10_a114", "md_file": "knowledge_base/chapters/ch10_appendices.md", "md_atom_type": "TABLE_ROW", "md_parent_section": "§10.D [CDISC Variable-naming Fragments]", "md_verbatim": "| GRADE | GR | | START | ST |", "score": 0.6, "match_basis": "verbatim_token+global_search"}, {"md_atom_id": "md_dmEX_ex_a212", "md_file": "knowledge_base/domains/EX/examples.md", "md_atom_type": "TABLE_ROW", "md_parent_section": "§EX.7 [Example 7]", "md_verbatim": "| Start Time (24 hour clock) | 10:00 | 11:00 | |", "score": 0.48, "match_basis": "verbatim_token+global_search"}, {"md_atom_id": "md_dmTV_ex_a023", "md_file": "knowledge_base/domains/TV/examples.md", "md_atom_type": "TABLE_ROW", "md_parent_section": "§TV.1 [Example 1]", "md_verbatim": "| 1 | EX1 | TV | 1 | Start of Screen Epoch | |", "score": 0.4636, "match_basis": "verbatim_token+global_search"}, {"md_atom_id": "md_model05_a094", "md_file": "knowledge_base/model/05_study_level_data.md", "md_atom_type": "TABLE_ROW", "md_parent_section": "§ Trial Visits (TV)", "md_verbatim": "| 8 | TVSTRL | Visit Start Rule | Char | Rule |", "score": 0.4286, "match_basis": "verbatim_token+global_search"}, {"md_atom_id": "md_varindex_a1591", "md_file": "knowledge_base/VARIABLE_INDEX.md", "md_atom_type": "TABLE_ROW", "md_parent_section": "§ 二、领域专属变量（仅 1 个域，共 1499 个），按域分组", "md_verbatim": "| TVSTRL | Visit Start Rule | Char | Rule | Req | — |", "score": 0.42, "match_basis": "verbatim_token+global_search"}, {"md_atom_id": "md_model05_a025", "md_file": "knowledge_base/model/05_study_level_data.md", "md_atom_type": "TABLE_ROW", "md_parent_section": "§ Trial Elements (TE)", "md_verbatim": "| 5 | TESTRL | Rule for Start of Element | Char | Rule |", "score": 0.4059, "match_basis": "verbatim_token+global_search"}, {"md_atom_id": "md_varindex_a1516", "md_file": "knowledge_base/VARIABLE_INDEX.md", "md_atom_type": "TABLE_ROW", "md_parent_section": "§ 二、领域专属变量（仅 1 个域，共 1499 个），按域分组", "md_verbatim": "| TESTRL | Rule for Start of Element | Char | Rule | Req | — |", "score": 0.4, "match_basis": "verbatim_token+global_search"}, {"md_atom_id": "md_dmTS_ex_a048", "md_file": "knowledge_base/domains/TS/examples.md", "md_atom_type": "TABLE_ROW", "md_parent_section": "§TS.1 [Example 1]", "md_verbatim": "| 43 | XYZ | TS | 1 | | SSTDTC | Study Start Date | 2009-03-11 | | | ISO 8601 | |", "score": 0.4, "match_basis": "verbatim_token+global_search"}, {"md_atom_id": "md_model03_a143", "md_file": "knowledge_base/model/03_special_purpose_domains.md", "md_atom_type": "TABLE_ROW", "md_parent_section": "§ Subject Visits (SV) > Variables (16 variables)", "md_verbatim": "| 14 | SVSTDY | Study Day of Start of Visit | Num | Timing | |", "score": 0.3947, "match_basis": "verbatim_token+global_search"}, {"md_atom_id": "md_dmTV_ex_a016", "md_file": "knowledge_base/domains/TV/examples.md", "md_atom_type": "TABLE_ROW", "md_parent_section": "§TV.1 [Example 1]", "md_verbatim": "| 1 | EX1 | TV | 1 | Start of Screen Epoch | 1 hour after start of Visit |", "score": 0.3947, "match_basis": "verbatim_token+global_search"}], "candidate_count": 10, "zero_candidate": false}
{"pdf_atom_id": "ig34_p0450_a008", "pdf_atom_type": "TABLE_ROW", "pdf_source": "SDTMIG_v3.4", "pdf_page": 450, "pdf_parent_section": "Appendix D: CDISC Variable-naming Fragments", "pdf_verbatim": "| STATUS | STAT |", "figure_ref": null, "candidates": [{"md_atom_id": "md_ch10_a115", "md_file": "knowledge_base/chapters/ch10_appendices.md", "md_atom_type": "TABLE_ROW", "md_parent_section": "§10.D [CDISC Variable-naming Fragments]", "md_verbatim": "| GROUP | GRP | | STATUS | STAT |", "score": 0.6, "match_basis": "verbatim_token+global_search"}, {"md_atom_id": "md_dmSC_ex_a009", "md_file": "knowledge_base/domains/SC/examples.md", "md_atom_type": "TABLE_ROW", "md_parent_section": "§SC.1 [Example 1]", "md_verbatim": "| 4 | ABC | SC | ABC-001-002 | 2 | MARISTAT | Marital Status | MARRIED | MARRIED | 1999-03-19 |", "score": 0.42, "match_basis": "verbatim_token+global_search"}, {"md_atom_id": "md_dmSC_ex_a007", "md_file": "knowledge_base/domains/SC/examples.md", "md_atom_type": "TABLE_ROW", "md_parent_section": "§SC.1 [Example 1]", "md_verbatim": "| 2 | ABC | SC | ABC-001-001 | 2 | MARISTAT | Marital Status | DIVORCED | DIVORCED | 1999-06-19 |", "score": 0.4143, "match_basis": "verbatim_token+global_search"}, {"md_atom_id": "md_dmSC_ex_a013", "md_file": "knowledge_base/domains/SC/examples.md", "md_atom_type": "TABLE_ROW", "md_parent_section": "§SC.1 [Example 1]", "md_verbatim": "| 8 | ABC | SC | ABC-002-001 | 2 | MARISTAT | Marital Status | WIDOWED | WIDOWED | 1999-06-14 |", "score": 0.4143, "match_basis": "verbatim_token+global_search"}, {"md_atom_id": "md_dmSC_ex_a011", "md_file": "knowledge_base/domains/SC/examples.md", "md_atom_type": "TABLE_ROW", "md_parent_section": "§SC.1 [Example 1]", "md_verbatim": "| 6 | ABC | SC | ABC-001-003 | 2 | MARISTAT | Marital Status | NEVER MARRIED | NEVER MARRIED | 1999-05-03 |", "score": 0.4043, "match_basis": "verbatim_token+global_search"}, {"md_atom_id": "md_dmSC_ex_a031", "md_file": "knowledge_base/domains/SC/examples.md", "md_atom_type": "TABLE_ROW", "md_parent_section": "§SC.3 [Example 3]", "md_verbatim": "| 5 | ABC123 | SC | 305 | 5 | MARISTAT | Marital Status | MARRIED | MARRIED | 2014-01-16 | 734 |", "score": 0.4043, "match_basis": "verbatim_token+global_search"}, {"md_atom_id": "md_dmOE_ex_a038", "md_file": "knowledge_base/domains/OE/examples.md", "md_atom_type": "TABLE_ROW", "md_parent_section": "§OE.2 [Example 2]", "md_verbatim": "| 1 | XXX | OE | XXX-450-120 | OESEQ | 7 | OEEDILST | Eye Dilation Status | DILATED |", "score": 0.4, "match_basis": "verbatim_token+global_search"}, {"md_atom_id": "md_dmOE_ex_a039", "md_file": "knowledge_base/domains/OE/examples.md", "md_atom_type": "TABLE_ROW", "md_parent_section": "§OE.2 [Example 2]", "md_verbatim": "| 2 | XXX | OE | XXX-450-120 | OESEQ | 8 | OEEDILST | Eye Dilation Status | DILATED |", "score": 0.4, "match_basis": "verbatim_token+global_search"}, {"md_atom_id": "md_dmSC_ex_a027", "md_file": "knowledge_base/domains/SC/examples.md", "md_atom_type": "TABLE_ROW", "md_parent_section": "§SC.3 [Example 3]", "md_verbatim": "| 1 | ABC123 | SC | 305 | 1 | MARISTAT | Marital Status | NEVER MARRIED | NEVER MARRIED | 2012-01-14 | -2 |", "score": 0.396, "match_basis": "verbatim_token+global_search"}, {"md_atom_id": "md_varindex_a1437", "md_file": "knowledge_base/VARIABLE_INDEX.md", "md_atom_type": "TABLE_ROW", "md_parent_section": "§ 二、领域专属变量（仅 1 个域，共 1499 个），按域分组", "md_verbatim": "| SSTESTCD | Status Short Name | Char | Topic | Req | C124305 |", "score": 0.3923, "match_basis": "verbatim_token+global_search"}], "candidate_count": 10, "zero_candidate": false}
