{"pdf_atom_id": "ig34_p0195_a020", "pdf_atom_type": "TABLE_ROW", "pdf_source": "SDTMIG_v3.4", "pdf_page": 195, "pdf_parent_section": "§6.3.5.1 Generic Specimen-based Lab Findings Domain Specification", "pdf_verbatim": "| --ORRESU | Original Units | Char | * | Variable Qualifier | Unit for --ORRES and --ORREF. Subject to domain-specific test code controlled terminology. | Perm |", "figure_ref": null, "candidates": [{"md_atom_id": "md_model03_a036", "md_file": "knowledge_base/model/03_special_purpose_domains.md", "md_atom_type": "TABLE_ROW", "md_parent_section": "§ Demographics (DM) > Variables (38 variables)", "md_verbatim": "| 22 | SEX | Sex | Char | Record Qualifier | Subject to controlled terminology |", "score": 0.5583, "match_basis": "verbatim_token+global_search"}, {"md_atom_id": "md_varindex_a617", "md_file": "knowledge_base/VARIABLE_INDEX.md", "md_atom_type": "TABLE_ROW", "md_parent_section": "§ 二、领域专属变量（仅 1 个域，共 1499 个），按域分组", "md_verbatim": "| GFORRESU | Original Units | Char | Variable Qualifier | Perm | C71620 |", "score": 0.5583, "match_basis": "verbatim_token+global_search"}, {"md_atom_id": "md_varindex_a618", "md_file": "knowledge_base/VARIABLE_INDEX.md", "md_atom_type": "TABLE_ROW", "md_parent_section": "§ 二、领域专属变量（仅 1 个域，共 1499 个），按域分组", "md_verbatim": "| GFORREF | Reference Result in Original Units | Char | Variable Qualifier | Perm | — |", "score": 0.5526, "match_basis": "verbatim_token+global_search"}, {"md_atom_id": "md_model02_a136", "md_file": "knowledge_base/model/02_observation_classes.md", "md_atom_type": "TABLE_ROW", "md_parent_section": "§3.1.3 > Topic and Qualifier Variables (100 variables)", "md_verbatim": "| --ORRESU | Original Units | Char | Variable Qualifier (--ORRES) | |", "score": 0.5507, "match_basis": "verbatim_token+global_search"}, {"md_atom_id": "md_varindex_a279", "md_file": "knowledge_base/VARIABLE_INDEX.md", "md_atom_type": "TABLE_ROW", "md_parent_section": "§ 二、领域专属变量（仅 1 个域，共 1499 个），按域分组", "md_verbatim": "| CPORRESU | Original Units | Char | Variable Qualifier | Perm | C71620 |", "score": 0.5466, "match_basis": "verbatim_token+global_search"}], "candidate_count": 5, "zero_candidate": false}
{"pdf_atom_id": "ig34_p0195_a021", "pdf_atom_type": "TABLE_ROW", "pdf_source": "SDTMIG_v3.4", "pdf_page": 195, "pdf_parent_section": "§6.3.5.1 Generic Specimen-based Lab Findings Domain Specification", "pdf_verbatim": "| --LLOD | Lower Limit of Detection | Char | | Variable Qualifier | The lowest threshold (as originally received or collected) for reliably detecting the presence or absence of substance measured by a specific test. The value for the field will be as described in documentation from the instrument or lab vendor. | Perm |", "figure_ref": null, "candidates": [{"md_atom_id": "md_varindex_a754", "md_file": "knowledge_base/VARIABLE_INDEX.md", "md_atom_type": "TABLE_ROW", "md_parent_section": "§ 二、领域专属变量（仅 1 个域，共 1499 个），按域分组", "md_verbatim": "| LBLLOD | Lower Limit of Detection | Char | Variable Qualifier | Perm | — |", "score": 0.4466, "match_basis": "verbatim_token+global_search"}, {"md_atom_id": "md_varindex_a963", "md_file": "knowledge_base/VARIABLE_INDEX.md", "md_atom_type": "TABLE_ROW", "md_parent_section": "§ 二、领域专属变量（仅 1 个域，共 1499 个），按域分组", "md_verbatim": "| MSTSTDTL | Measurement, Test or Examination Detail | Char | Variable Qualifier | Perm | — |", "score": 0.4283, "match_basis": "verbatim_token+global_search"}, {"md_atom_id": "md_varindex_a1461", "md_file": "knowledge_base/VARIABLE_INDEX.md", "md_atom_type": "TABLE_ROW", "md_parent_section": "§ 二、领域专属变量（仅 1 个域，共 1499 个），按域分组", "md_verbatim": "| SUREASND | Reason Substance Use Not Collected | Char | Record Qualifier | Perm | — |", "score": 0.4252, "match_basis": "verbatim_token+global_search"}, {"md_atom_id": "md_varindex_a613", "md_file": "knowledge_base/VARIABLE_INDEX.md", "md_atom_type": "TABLE_ROW", "md_parent_section": "§ 二、领域专属变量（仅 1 个域，共 1499 个），按域分组", "md_verbatim": "| GFTSTDTL | Measurement, Test, or Examination Detail | Char | Variable Qualifier | Perm | C181180 |", "score": 0.424, "match_basis": "verbatim_token+global_search"}, {"md_atom_id": "md_varindex_a800", "md_file": "knowledge_base/VARIABLE_INDEX.md", "md_atom_type": "TABLE_ROW", "md_parent_section": "§ 二、领域专属变量（仅 1 个域，共 1499 个），按域分组", "md_verbatim": "| MBTSTDTL | Measurement, Test or Examination Detail | Char | Variable Qualifier | Perm | C174225 |", "score": 0.424, "match_basis": "verbatim_token+global_search"}], "candidate_count": 5, "zero_candidate": false}
{"pdf_atom_id": "ig34_p0195_a022", "pdf_atom_type": "TABLE_ROW", "pdf_source": "SDTMIG_v3.4", "pdf_page": 195, "pdf_parent_section": "§6.3.5.1 Generic Specimen-based Lab Findings Domain Specification", "pdf_verbatim": "| --STRESC | Result or Finding in Standard Format | Char | | Result Qualifier | Contains the result value for all findings copied or derived from --ORRES, in a standard format or in standard units. --STRESC should store all results or findings in character format; if results are numeric, they should also be stored in numeric format in --STRESN. | Exp |", "figure_ref": null, "candidates": [{"md_atom_id": "md_model02_a137", "md_file": "knowledge_base/model/02_observation_classes.md", "md_atom_type": "TABLE_ROW", "md_parent_section": "§3.1.3 > Topic and Qualifier Variables (100 variables)", "md_verbatim": "| --STRESC | Character Result/Finding in Std Format | Char | Result Qualifier | Standardized result |", "score": 0.5455, "match_basis": "verbatim_token+global_search"}, {"md_atom_id": "md_varindex_a161", "md_file": "knowledge_base/VARIABLE_INDEX.md", "md_atom_type": "TABLE_ROW", "md_parent_section": "§ 二、领域专属变量（仅 1 个域，共 1499 个），按域分组", "md_verbatim": "| BSSTRESN | Numeric Result/Finding in Standard Units | Num | Result Qualifier | Exp | — |", "score": 0.54, "match_basis": "verbatim_token+global_search"}, {"md_atom_id": "md_varindex_a756", "md_file": "knowledge_base/VARIABLE_INDEX.md", "md_atom_type": "TABLE_ROW", "md_parent_section": "§ 二、领域专属变量（仅 1 个域，共 1499 个），按域分组", "md_verbatim": "| LBSTRESN | Numeric Result/Finding in Standard Units | Num | Result Qualifier | Exp | — |", "score": 0.54, "match_basis": "verbatim_token+global_search"}, {"md_atom_id": "md_varindex_a1056", "md_file": "knowledge_base/VARIABLE_INDEX.md", "md_atom_type": "TABLE_ROW", "md_parent_section": "§ 二、领域专属变量（仅 1 个域，共 1499 个），按域分组", "md_verbatim": "| OESTRESN | Numeric Result/Finding in Standard Units | Num | Result Qualifier | Exp | — |", "score": 0.54, "match_basis": "verbatim_token+global_search"}, {"md_atom_id": "md_varindex_a1104", "md_file": "knowledge_base/VARIABLE_INDEX.md", "md_atom_type": "TABLE_ROW", "md_parent_section": "§ 二、领域专属变量（仅 1 个域，共 1499 个），按域分组", "md_verbatim": "| PCSTRESN | Numeric Result/Finding in Standard Units | Num | Result Qualifier | Exp | — |", "score": 0.54, "match_basis": "verbatim_token+global_search"}], "candidate_count": 5, "zero_candidate": false}
{"pdf_atom_id": "ig34_p0195_a023", "pdf_atom_type": "TABLE_ROW", "pdf_source": "SDTMIG_v3.4", "pdf_page": 195, "pdf_parent_section": "§6.3.5.1 Generic Specimen-based Lab Findings Domain Specification", "pdf_verbatim": "| --STRESN | Numeric Result/Finding in Standard Units | Num | | Result Qualifier | Used for continuous or numeric results or findings in standard format; copied in numeric format from --STRESC. --STRESN should store all numeric test results or findings. | Perm |", "figure_ref": null, "candidates": [{"md_atom_id": "md_varindex_a1258", "md_file": "knowledge_base/VARIABLE_INDEX.md", "md_atom_type": "TABLE_ROW", "md_parent_section": "§ 二、领域专属变量（仅 1 个域，共 1499 个），按域分组", "md_verbatim": "| RESTRESN | Numeric Result/Finding in Standard Units | Num | Result Qualifier | Perm | — |", "score": 0.6176, "match_basis": "verbatim_token+global_search"}, {"md_atom_id": "md_varindex_a286", "md_file": "knowledge_base/VARIABLE_INDEX.md", "md_atom_type": "TABLE_ROW", "md_parent_section": "§ 二、领域专属变量（仅 1 个域，共 1499 个），按域分组", "md_verbatim": "| CPSTRESN | Numeric Result/Finding in Standard Units | Num | Result Qualifier | Perm | — |", "score": 0.6, "match_basis": "verbatim_token+global_search"}, {"md_atom_id": "md_varindex_a326", "md_file": "knowledge_base/VARIABLE_INDEX.md", "md_atom_type": "TABLE_ROW", "md_parent_section": "§ 二、领域专属变量（仅 1 个域，共 1499 个），按域分组", "md_verbatim": "| CVSTRESN | Numeric Result/Finding in Standard Units | Num | Result Qualifier | Perm | — |", "score": 0.6, "match_basis": "verbatim_token+global_search"}, {"md_atom_id": "md_varindex_a361", "md_file": "knowledge_base/VARIABLE_INDEX.md", "md_atom_type": "TABLE_ROW", "md_parent_section": "§ 二、领域专属变量（仅 1 个域，共 1499 个），按域分组", "md_verbatim": "| DASTRESN | Numeric Result/Finding in Standard Units | Num | Result Qualifier | Perm | — |", "score": 0.6, "match_basis": "verbatim_token+global_search"}, {"md_atom_id": "md_varindex_a491", "md_file": "knowledge_base/VARIABLE_INDEX.md", "md_atom_type": "TABLE_ROW", "md_parent_section": "§ 二、领域专属变量（仅 1 个域，共 1499 个），按域分组", "md_verbatim": "| EGSTRESN | Numeric Result/Finding in Standard Units | Num | Result Qualifier | Perm | — |", "score": 0.6, "match_basis": "verbatim_token+global_search"}], "candidate_count": 5, "zero_candidate": false}
{"pdf_atom_id": "ig34_p0195_a024", "pdf_atom_type": "TABLE_ROW", "pdf_source": "SDTMIG_v3.4", "pdf_page": 195, "pdf_parent_section": "§6.3.5.1 Generic Specimen-based Lab Findings Domain Specification", "pdf_verbatim": "| --STRESU | Standard Units | Char | * | Variable Qualifier | Standardized units used for --STRESC, --STRESN, --STREFC, and --STREFN. Subject to domain-specific test code controlled terminology. | Perm |", "figure_ref": null, "candidates": [{"md_atom_id": "md_model02_a139", "md_file": "knowledge_base/model/02_observation_classes.md", "md_atom_type": "TABLE_ROW", "md_parent_section": "§3.1.3 > Topic and Qualifier Variables (100 variables)", "md_verbatim": "| --STRESU | Standard Units | Char | Variable Qualifier (--STRESC/--STRESN) | |", "score": 0.5368, "match_basis": "verbatim_token+global_search"}, {"md_atom_id": "md_varindex_a1259", "md_file": "knowledge_base/VARIABLE_INDEX.md", "md_atom_type": "TABLE_ROW", "md_parent_section": "§ 二、领域专属变量（仅 1 个域，共 1499 个），按域分组", "md_verbatim": "| RESTRESU | Standard Units | Char | Variable Qualifier | Perm | C71620 |", "score": 0.5325, "match_basis": "verbatim_token+global_search"}, {"md_atom_id": "md_model03_a036", "md_file": "knowledge_base/model/03_special_purpose_domains.md", "md_atom_type": "TABLE_ROW", "md_parent_section": "§ Demographics (DM) > Variables (38 variables)", "md_verbatim": "| 22 | SEX | Sex | Char | Record Qualifier | Subject to controlled terminology |", "score": 0.5296, "match_basis": "verbatim_token+global_search"}, {"md_atom_id": "md_varindex_a287", "md_file": "knowledge_base/VARIABLE_INDEX.md", "md_atom_type": "TABLE_ROW", "md_parent_section": "§ 二、领域专属变量（仅 1 个域，共 1499 个），按域分组", "md_verbatim": "| CPSTRESU | Standard Units | Char | Variable Qualifier | Perm | C71620 |", "score": 0.5195, "match_basis": "verbatim_token+global_search"}, {"md_atom_id": "md_varindex_a327", "md_file": "knowledge_base/VARIABLE_INDEX.md", "md_atom_type": "TABLE_ROW", "md_parent_section": "§ 二、领域专属变量（仅 1 个域，共 1499 个），按域分组", "md_verbatim": "| CVSTRESU | Standard Units | Char | Variable Qualifier | Perm | C71620 |", "score": 0.5195, "match_basis": "verbatim_token+global_search"}], "candidate_count": 5, "zero_candidate": false}
{"pdf_atom_id": "ig34_p0196_a001", "pdf_atom_type": "TABLE_ROW", "pdf_source": "SDTMIG_v3.4", "pdf_page": 196, "pdf_parent_section": "§6.3.5.1 Generic Specimen-based Lab Findings Domain Specification", "pdf_verbatim": "| --STAT | Completion Status | Char | * | Record Qualifier | Used to indicate that a question was not asked or a test was not done, or a test was attempted but did not generate a result. Should be null or have a value of \"NOT DONE\". | Perm |", "figure_ref": null, "candidates": [{"md_atom_id": "md_model02_a025", "md_file": "knowledge_base/model/02_observation_classes.md", "md_atom_type": "TABLE_ROW", "md_parent_section": "§3.1.1 > Topic and Qualifier Variables (43 variables)", "md_verbatim": "| 10 | --STAT | Completion Status | Char | Record Qualifier | \"NOT DONE\" or null |", "score": 0.5308, "match_basis": "verbatim_token+global_search"}, {"md_atom_id": "md_varindex_a1262", "md_file": "knowledge_base/VARIABLE_INDEX.md", "md_atom_type": "TABLE_ROW", "md_parent_section": "§ 二、领域专属变量（仅 1 个域，共 1499 个），按域分组", "md_verbatim": "| RESTAT | Completion Status | Char | Record Qualifier | Perm | C66789 |", "score": 0.5122, "match_basis": "verbatim_token+global_search"}, {"md_atom_id": "md_varindex_a190", "md_file": "knowledge_base/VARIABLE_INDEX.md", "md_atom_type": "TABLE_ROW", "md_parent_section": "§ 二、领域专属变量（仅 1 个域，共 1499 个），按域分组", "md_verbatim": "| CESTAT | Completion Status | Char | Record Qualifier | Perm | C66789 |", "score": 0.5024, "match_basis": "verbatim_token+global_search"}, {"md_atom_id": "md_varindex_a1063", "md_file": "knowledge_base/VARIABLE_INDEX.md", "md_atom_type": "TABLE_ROW", "md_parent_section": "§ 二、领域专属变量（仅 1 个域，共 1499 个），按域分组", "md_verbatim": "| OESTAT | Completion Status | Char | Record Qualifier | Perm | C66789 |", "score": 0.5024, "match_basis": "verbatim_token+global_search"}, {"md_atom_id": "md_varindex_a1140", "md_file": "knowledge_base/VARIABLE_INDEX.md", "md_atom_type": "TABLE_ROW", "md_parent_section": "§ 二、领域专属变量（仅 1 个域，共 1499 个），按域分组", "md_verbatim": "| PESTAT | Completion Status | Char | Record Qualifier | Perm | C66789 |", "score": 0.5024, "match_basis": "verbatim_token+global_search"}], "candidate_count": 5, "zero_candidate": false}
{"pdf_atom_id": "ig34_p0196_a002", "pdf_atom_type": "TABLE_ROW", "pdf_source": "SDTMIG_v3.4", "pdf_page": 196, "pdf_parent_section": "§6.3.5.1 Generic Specimen-based Lab Findings Domain Specification", "pdf_verbatim": "| --REASND | Reason Not Done | Char |  | Record Qualifier | Reason not done. Used in conjunction with --STAT when value is \"NOT DONE\". | Perm |", "figure_ref": null, "candidates": [{"md_atom_id": "md_model02_a026", "md_file": "knowledge_base/model/02_observation_classes.md", "md_atom_type": "TABLE_ROW", "md_parent_section": "§3.1.1 > Topic and Qualifier Variables (43 variables)", "md_verbatim": "| 11 | --REASND | Reason Not Done | Char | Record Qualifier | Used with --STAT when value is \"NOT DONE\" |", "score": 0.75, "match_basis": "verbatim_token+global_search"}, {"md_atom_id": "md_varindex_a292", "md_file": "knowledge_base/VARIABLE_INDEX.md", "md_atom_type": "TABLE_ROW", "md_parent_section": "§ 二、领域专属变量（仅 1 个域，共 1499 个），按域分组", "md_verbatim": "| CPREASND | Reason Not Done | Char | Record Qualifier | Perm | — |", "score": 0.613, "match_basis": "verbatim_token+global_search"}, {"md_atom_id": "md_varindex_a329", "md_file": "knowledge_base/VARIABLE_INDEX.md", "md_atom_type": "TABLE_ROW", "md_parent_section": "§ 二、领域专属变量（仅 1 个域，共 1499 个），按域分组", "md_verbatim": "| CVREASND | Reason Not Done | Char | Record Qualifier | Perm | — |", "score": 0.613, "match_basis": "verbatim_token+global_search"}, {"md_atom_id": "md_varindex_a364", "md_file": "knowledge_base/VARIABLE_INDEX.md", "md_atom_type": "TABLE_ROW", "md_parent_section": "§ 二、领域专属变量（仅 1 个域，共 1499 个），按域分组", "md_verbatim": "| DAREASND | Reason Not Done | Char | Record Qualifier | Perm | — |", "score": 0.613, "match_basis": "verbatim_token+global_search"}, {"md_atom_id": "md_varindex_a588", "md_file": "knowledge_base/VARIABLE_INDEX.md", "md_atom_type": "TABLE_ROW", "md_parent_section": "§ 二、领域专属变量（仅 1 个域，共 1499 个），按域分组", "md_verbatim": "| FTREASND | Reason Not Done | Char | Record Qualifier | Perm | — |", "score": 0.613, "match_basis": "verbatim_token+global_search"}], "candidate_count": 5, "zero_candidate": false}
{"pdf_atom_id": "ig34_p0196_a003", "pdf_atom_type": "TABLE_ROW", "pdf_source": "SDTMIG_v3.4", "pdf_page": 196, "pdf_parent_section": "§6.3.5.1 Generic Specimen-based Lab Findings Domain Specification", "pdf_verbatim": "| --NAM | Laboratory/Vendor Name | Char | * | Record Qualifier | Name or identifier of the vendor (e.g., laboratory) that provided the test results. | Perm |", "figure_ref": null, "candidates": [{"md_atom_id": "md_varindex_a638", "md_file": "knowledge_base/VARIABLE_INDEX.md", "md_atom_type": "TABLE_ROW", "md_parent_section": "§ 二、领域专属变量（仅 1 个域，共 1499 个），按域分组", "md_verbatim": "| GFNAM | Laboratory/Vendor Name | Char | Record Qualifier | Perm | — |", "score": 0.6412, "match_basis": "verbatim_token+global_search"}, {"md_atom_id": "md_varindex_a811", "md_file": "knowledge_base/VARIABLE_INDEX.md", "md_atom_type": "TABLE_ROW", "md_parent_section": "§ 二、领域专属变量（仅 1 个域，共 1499 个），按域分组", "md_verbatim": "| MBNAM | Laboratory/Vendor Name | Char | Record Qualifier | Perm | — |", "score": 0.6412, "match_basis": "verbatim_token+global_search"}, {"md_atom_id": "md_varindex_a873", "md_file": "knowledge_base/VARIABLE_INDEX.md", "md_atom_type": "TABLE_ROW", "md_parent_section": "§ 二、领域专属变量（仅 1 个域，共 1499 个），按域分组", "md_verbatim": "| MINAM | Laboratory/Vendor Name | Char | Record Qualifier | Perm | — |", "score": 0.6412, "match_basis": "verbatim_token+global_search"}, {"md_atom_id": "md_varindex_a976", "md_file": "knowledge_base/VARIABLE_INDEX.md", "md_atom_type": "TABLE_ROW", "md_parent_section": "§ 二、领域专属变量（仅 1 个域，共 1499 个），按域分组", "md_verbatim": "| MSNAM | Laboratory/Vendor Name | Char | Record Qualifier | Perm | — |", "score": 0.6412, "match_basis": "verbatim_token+global_search"}, {"md_atom_id": "md_varindex_a1544", "md_file": "knowledge_base/VARIABLE_INDEX.md", "md_atom_type": "TABLE_ROW", "md_parent_section": "§ 二、领域专属变量（仅 1 个域，共 1499 个），按域分组", "md_verbatim": "| TRNAM | Laboratory/Vendor Name | Char | Record Qualifier | Perm | — |", "score": 0.6412, "match_basis": "verbatim_token+global_search"}], "candidate_count": 5, "zero_candidate": false}
{"pdf_atom_id": "ig34_p0196_a004", "pdf_atom_type": "TABLE_ROW", "pdf_source": "SDTMIG_v3.4", "pdf_page": 196, "pdf_parent_section": "§6.3.5.1 Generic Specimen-based Lab Findings Domain Specification", "pdf_verbatim": "| --SPEC | Specimen Material Type | Char | * | Record Qualifier | Defines the type of specimen used for a measurement. Subject to domain-specific test code controlled terminology. | Perm |", "figure_ref": null, "candidates": [{"md_atom_id": "md_model03_a036", "md_file": "knowledge_base/model/03_special_purpose_domains.md", "md_atom_type": "TABLE_ROW", "md_parent_section": "§ Demographics (DM) > Variables (38 variables)", "md_verbatim": "| 22 | SEX | Sex | Char | Record Qualifier | Subject to controlled terminology |", "score": 0.5727, "match_basis": "verbatim_token+global_search"}, {"md_atom_id": "md_varindex_a639", "md_file": "knowledge_base/VARIABLE_INDEX.md", "md_atom_type": "TABLE_ROW", "md_parent_section": "§ 二、领域专属变量（仅 1 个域，共 1499 个），按域分组", "md_verbatim": "| GFSPEC | Specimen Material Type | Char | Record Qualifier | Perm | C111114 |", "score": 0.5148, "match_basis": "verbatim_token+global_search"}, {"md_atom_id": "md_ch08_a324", "md_file": "knowledge_base/chapters/ch08_relationships.md", "md_atom_type": "TABLE_ROW", "md_parent_section": "§8.8 [Related Specimens (RELSPEC)]", "md_verbatim": "| SPEC | Specimen Type | Char | (SPECTYPE)(GENSMP) | Variable Qualifier | Defines the type of specimen used for a measurement. Examples: \"SERUM\", \"PLASMA\", \"URINE\", \"SOFT TISSUE\". | Perm |", "score": 0.5131, "match_basis": "verbatim_token+global_search"}, {"md_atom_id": "md_varindex_a813", "md_file": "knowledge_base/VARIABLE_INDEX.md", "md_atom_type": "TABLE_ROW", "md_parent_section": "§ 二、领域专属变量（仅 1 个域，共 1499 个），按域分组", "md_verbatim": "| MBSPEC | Specimen Material Type | Char | Record Qualifier | Perm | C78734 |", "score": 0.5122, "match_basis": "verbatim_token+global_search"}, {"md_atom_id": "md_varindex_a978", "md_file": "knowledge_base/VARIABLE_INDEX.md", "md_atom_type": "TABLE_ROW", "md_parent_section": "§ 二、领域专属变量（仅 1 个域，共 1499 个），按域分组", "md_verbatim": "| MSSPEC | Specimen Material Type | Char | Record Qualifier | Perm | C78734 |", "score": 0.5122, "match_basis": "verbatim_token+global_search"}], "candidate_count": 5, "zero_candidate": false}
{"pdf_atom_id": "ig34_p0196_a005", "pdf_atom_type": "TABLE_ROW", "pdf_source": "SDTMIG_v3.4", "pdf_page": 196, "pdf_parent_section": "§6.3.5.1 Generic Specimen-based Lab Findings Domain Specification", "pdf_verbatim": "| --METHOD | Method of Test or Examination | Char | * | Record Qualifier | Method of the test or examination. Subject to domain-specific test code controlled terminology. | Perm |", "figure_ref": null, "candidates": [{"md_atom_id": "md_model03_a036", "md_file": "knowledge_base/model/03_special_purpose_domains.md", "md_atom_type": "TABLE_ROW", "md_parent_section": "§ Demographics (DM) > Variables (38 variables)", "md_verbatim": "| 22 | SEX | Sex | Char | Record Qualifier | Subject to controlled terminology |", "score": 0.6333, "match_basis": "verbatim_token+global_search"}, {"md_atom_id": "md_varindex_a169", "md_file": "knowledge_base/VARIABLE_INDEX.md", "md_atom_type": "TABLE_ROW", "md_parent_section": "§ 二、领域专属变量（仅 1 个域，共 1499 个），按域分组", "md_verbatim": "| BSMETHOD | Method of Test or Examination | Char | Record Qualifier | Perm | C85492 |", "score": 0.5647, "match_basis": "verbatim_token+global_search"}, {"md_atom_id": "md_varindex_a297", "md_file": "knowledge_base/VARIABLE_INDEX.md", "md_atom_type": "TABLE_ROW", "md_parent_section": "§ 二、领域专属变量（仅 1 个域，共 1499 个），按域分组", "md_verbatim": "| CPMETHOD | Method of Test or Examination | Char | Record Qualifier | Perm | C85492 |", "score": 0.5647, "match_basis": "verbatim_token+global_search"}, {"md_atom_id": "md_varindex_a333", "md_file": "knowledge_base/VARIABLE_INDEX.md", "md_atom_type": "TABLE_ROW", "md_parent_section": "§ 二、领域专属变量（仅 1 个域，共 1499 个），按域分组", "md_verbatim": "| CVMETHOD | Method of Test or Examination | Char | Record Qualifier | Perm | C85492 |", "score": 0.5647, "match_basis": "verbatim_token+global_search"}, {"md_atom_id": "md_varindex_a497", "md_file": "knowledge_base/VARIABLE_INDEX.md", "md_atom_type": "TABLE_ROW", "md_parent_section": "§ 二、领域专属变量（仅 1 个域，共 1499 个），按域分组", "md_verbatim": "| EGMETHOD | Method of Test or Examination | Char | Record Qualifier | Perm | C71151 |", "score": 0.5647, "match_basis": "verbatim_token+global_search"}], "candidate_count": 5, "zero_candidate": false}
{"pdf_atom_id": "ig34_p0196_a006", "pdf_atom_type": "TABLE_ROW", "pdf_source": "SDTMIG_v3.4", "pdf_page": 196, "pdf_parent_section": "§6.3.5.1 Generic Specimen-based Lab Findings Domain Specification", "pdf_verbatim": "| --LOBXFL | Last Observation Before Exposure Flag | Char | * | Record Qualifier | Operationally defined indicator used to identify the last non-missing value prior to RFXSTDTC. The value should be \"Y\" or null. | Perm |", "figure_ref": null, "candidates": [{"md_atom_id": "md_varindex_a299", "md_file": "knowledge_base/VARIABLE_INDEX.md", "md_atom_type": "TABLE_ROW", "md_parent_section": "§ 二、领域专属变量（仅 1 个域，共 1499 个），按域分组", "md_verbatim": "| CPLOBXFL | Last Observation Before Exposure Flag | Char | Record Qualifier | Perm | C66742 |", "score": 0.552, "match_basis": "verbatim_token+global_search"}, {"md_atom_id": "md_varindex_a566", "md_file": "knowledge_base/VARIABLE_INDEX.md", "md_atom_type": "TABLE_ROW", "md_parent_section": "§ 二、领域专属变量（仅 1 个域，共 1499 个），按域分组", "md_verbatim": "| FALOBXFL | Last Observation Before Exposure Flag | Char | Record Qualifier | Perm | C66742 |", "score": 0.552, "match_basis": "verbatim_token+global_search"}, {"md_atom_id": "md_varindex_a721", "md_file": "knowledge_base/VARIABLE_INDEX.md", "md_atom_type": "TABLE_ROW", "md_parent_section": "§ 二、领域专属变量（仅 1 个域，共 1499 个），按域分组", "md_verbatim": "| ISLOBXFL | Last Observation Before Exposure Flag | Char | Record Qualifier | Perm | C66742 |", "score": 0.552, "match_basis": "verbatim_token+global_search"}, {"md_atom_id": "md_varindex_a819", "md_file": "knowledge_base/VARIABLE_INDEX.md", "md_atom_type": "TABLE_ROW", "md_parent_section": "§ 二、领域专属变量（仅 1 个域，共 1499 个），按域分组", "md_verbatim": "| MBLOBXFL | Last Observation Before Exposure Flag | Char | Record Qualifier | Perm | C66742 |", "score": 0.552, "match_basis": "verbatim_token+global_search"}, {"md_atom_id": "md_varindex_a985", "md_file": "knowledge_base/VARIABLE_INDEX.md", "md_atom_type": "TABLE_ROW", "md_parent_section": "§ 二、领域专属变量（仅 1 个域，共 1499 个），按域分组", "md_verbatim": "| MSLOBXFL | Last Observation Before Exposure Flag | Char | Record Qualifier | Perm | C66742 |", "score": 0.552, "match_basis": "verbatim_token+global_search"}], "candidate_count": 5, "zero_candidate": false}
{"pdf_atom_id": "ig34_p0196_a007", "pdf_atom_type": "TABLE_ROW", "pdf_source": "SDTMIG_v3.4", "pdf_page": 196, "pdf_parent_section": "§6.3.5.1 Generic Specimen-based Lab Findings Domain Specification", "pdf_verbatim": "| --LLOQ | Lower Limit of Quantitation | Num |  | Variable Qualifier | Indicates the lower limit of quantitation for an assay. Units will be those used for --STRESU. | Perm |", "figure_ref": null, "candidates": [{"md_atom_id": "md_varindex_a645", "md_file": "knowledge_base/VARIABLE_INDEX.md", "md_atom_type": "TABLE_ROW", "md_parent_section": "§ 二、领域专属变量（仅 1 个域，共 1499 个），按域分组", "md_verbatim": "| GFLLOQ | Lower Limit of Quantitation | Num | Variable Qualifier | Perm | — |", "score": 0.6246, "match_basis": "verbatim_token+global_search"}, {"md_atom_id": "md_varindex_a992", "md_file": "knowledge_base/VARIABLE_INDEX.md", "md_atom_type": "TABLE_ROW", "md_parent_section": "§ 二、领域专属变量（仅 1 个域，共 1499 个），按域分组", "md_verbatim": "| MSLLOQ | Lower Limit of Quantitation | Num | Variable Qualifier | Perm | — |", "score": 0.6246, "match_basis": "verbatim_token+global_search"}, {"md_atom_id": "md_varindex_a724", "md_file": "knowledge_base/VARIABLE_INDEX.md", "md_atom_type": "TABLE_ROW", "md_parent_section": "§ 二、领域专属变量（仅 1 个域，共 1499 个），按域分组", "md_verbatim": "| ISLLOQ | Lower Limit of Quantitation | Num | Variable Qualifier | Exp | — |", "score": 0.6, "match_basis": "verbatim_token+global_search"}, {"md_atom_id": "md_varindex_a1114", "md_file": "knowledge_base/VARIABLE_INDEX.md", "md_atom_type": "TABLE_ROW", "md_parent_section": "§ 二、领域专属变量（仅 1 个域，共 1499 个），按域分组", "md_verbatim": "| PCLLOQ | Lower Limit of Quantitation | Num | Variable Qualifier | Exp | — |", "score": 0.6, "match_basis": "verbatim_token+global_search"}, {"md_atom_id": "md_varindex_a993", "md_file": "knowledge_base/VARIABLE_INDEX.md", "md_atom_type": "TABLE_ROW", "md_parent_section": "§ 二、领域专属变量（仅 1 个域，共 1499 个），按域分组", "md_verbatim": "| MSULOQ | Upper Limit of Quantitation | Num | Variable Qualifier | Perm | — |", "score": 0.5719, "match_basis": "verbatim_token+global_search"}], "candidate_count": 5, "zero_candidate": false}
{"pdf_atom_id": "ig34_p0196_a008", "pdf_atom_type": "TABLE_ROW", "pdf_source": "SDTMIG_v3.4", "pdf_page": 196, "pdf_parent_section": "§6.3.5.1 Generic Specimen-based Lab Findings Domain Specification", "pdf_verbatim": "| --ULOQ | Upper Limit of Quantitation | Num |  | Variable Qualifier | Indicates the upper limit of quantitation for an assay. Units will be those used for --STRESU. | Perm |", "figure_ref": null, "candidates": [{"md_atom_id": "md_varindex_a993", "md_file": "knowledge_base/VARIABLE_INDEX.md", "md_atom_type": "TABLE_ROW", "md_parent_section": "§ 二、领域专属变量（仅 1 个域，共 1499 个），按域分组", "md_verbatim": "| MSULOQ | Upper Limit of Quantitation | Num | Variable Qualifier | Perm | — |", "score": 0.62, "match_basis": "verbatim_token+global_search"}, {"md_atom_id": "md_varindex_a1115", "md_file": "knowledge_base/VARIABLE_INDEX.md", "md_atom_type": "TABLE_ROW", "md_parent_section": "§ 二、领域专属变量（仅 1 个域，共 1499 个），按域分组", "md_verbatim": "| PCULOQ | Upper Limit of Quantitation | Num | Variable Qualifier | Perm | — |", "score": 0.62, "match_basis": "verbatim_token+global_search"}, {"md_atom_id": "md_varindex_a645", "md_file": "knowledge_base/VARIABLE_INDEX.md", "md_atom_type": "TABLE_ROW", "md_parent_section": "§ 二、领域专属变量（仅 1 个域，共 1499 个），按域分组", "md_verbatim": "| GFLLOQ | Lower Limit of Quantitation | Num | Variable Qualifier | Perm | — |", "score": 0.5719, "match_basis": "verbatim_token+global_search"}, {"md_atom_id": "md_varindex_a992", "md_file": "knowledge_base/VARIABLE_INDEX.md", "md_atom_type": "TABLE_ROW", "md_parent_section": "§ 二、领域专属变量（仅 1 个域，共 1499 个），按域分组", "md_verbatim": "| MSLLOQ | Lower Limit of Quantitation | Num | Variable Qualifier | Perm | — |", "score": 0.5719, "match_basis": "verbatim_token+global_search"}, {"md_atom_id": "md_varindex_a724", "md_file": "knowledge_base/VARIABLE_INDEX.md", "md_atom_type": "TABLE_ROW", "md_parent_section": "§ 二、领域专属变量（仅 1 个域，共 1499 个），按域分组", "md_verbatim": "| ISLLOQ | Lower Limit of Quantitation | Num | Variable Qualifier | Exp | — |", "score": 0.5492, "match_basis": "verbatim_token+global_search"}], "candidate_count": 5, "zero_candidate": false}
{"pdf_atom_id": "ig34_p0196_a009", "pdf_atom_type": "TABLE_ROW", "pdf_source": "SDTMIG_v3.4", "pdf_page": 196, "pdf_parent_section": "§6.3.5.1 Generic Specimen-based Lab Findings Domain Specification", "pdf_verbatim": "| VISITNUM | Visit Number | Num |  | Timing | Clinical encounter number. Numeric version of VISIT, used for sorting. | Perm |", "figure_ref": null, "candidates": [{"md_atom_id": "md_model02_a185", "md_file": "knowledge_base/model/02_observation_classes.md", "md_atom_type": "TABLE_ROW", "md_parent_section": "§3.1.5 > Visit and Epoch Variables", "md_verbatim": "| 1 | VISITNUM | Visit Number | Num | Numeric version of VISIT for sorting |", "score": 0.6273, "match_basis": "verbatim_token+global_search"}, {"md_atom_id": "md_model02_a219", "md_file": "knowledge_base/model/02_observation_classes.md", "md_atom_type": "TABLE_ROW", "md_parent_section": "§3.1.5 > Time Point Variables", "md_verbatim": "| 29 | --TPTNUM | Planned Time Point Number | Num | Numeric version for sorting |", "score": 0.5291, "match_basis": "verbatim_token+global_search"}, {"md_atom_id": "md_varindex_a018", "md_file": "knowledge_base/VARIABLE_INDEX.md", "md_atom_type": "TABLE_ROW", "md_parent_section": "§ 一、通用变量（出现在 2+ 个域，共 24 个）", "md_verbatim": "| VISITNUM | 36 | AG, BE, BS, CP, CV, DA, EG, FA, FT, GF, IE, IS, LB, MB, MI, MK, ML, MS, NV, OE, PC, PE, PR, QS, RE, RP, RS, SC, SR, SS, SV, TR, TU, TV, UR, VS | Visit Number | Num | Timing* | Exp* |", "score": 0.4733, "match_basis": "verbatim_token+global_search"}, {"md_atom_id": "md_varindex_a672", "md_file": "knowledge_base/VARIABLE_INDEX.md", "md_atom_type": "TABLE_ROW", "md_parent_section": "§ 二、领域专属变量（仅 1 个域，共 1499 个），按域分组", "md_verbatim": "| HOSTDY | Study Day of Start of Encounter | Num | Timing | Perm | — |", "score": 0.4527, "match_basis": "verbatim_token+global_search"}, {"md_atom_id": "md_ch10_a086", "md_file": "knowledge_base/chapters/ch10_appendices.md", "md_atom_type": "TABLE_ROW", "md_parent_section": "§10.D [CDISC Variable-naming Fragments]", "md_verbatim": "| CLINICAL | CL | | NUMERIC | N |", "score": 0.45, "match_basis": "verbatim_token+global_search"}], "candidate_count": 5, "zero_candidate": false}
{"pdf_atom_id": "ig34_p0196_a010", "pdf_atom_type": "TABLE_ROW", "pdf_source": "SDTMIG_v3.4", "pdf_page": 196, "pdf_parent_section": "§6.3.5.1 Generic Specimen-based Lab Findings Domain Specification", "pdf_verbatim": "| VISIT | Visit Name | Char |  | Timing | Protocol-defined description of clinical encounter. May be used in addition to VISITNUM and/or VISITDY. | Perm |", "figure_ref": null, "candidates": [{"md_atom_id": "md_model02_a218", "md_file": "knowledge_base/model/02_observation_classes.md", "md_atom_type": "TABLE_ROW", "md_parent_section": "§3.1.5 > Time Point Variables", "md_verbatim": "| 28 | --TPT | Planned Time Point Name | Char | Protocol-defined time point description |", "score": 0.5206, "match_basis": "verbatim_token+global_search"}, {"md_atom_id": "md_model02_a186", "md_file": "knowledge_base/model/02_observation_classes.md", "md_atom_type": "TABLE_ROW", "md_parent_section": "§3.1.5 > Visit and Epoch Variables", "md_verbatim": "| 2 | VISIT | Visit Name | Char | Protocol-defined visit name |", "score": 0.4831, "match_basis": "verbatim_token+global_search"}, {"md_atom_id": "md_model02_a187", "md_file": "knowledge_base/model/02_observation_classes.md", "md_atom_type": "TABLE_ROW", "md_parent_section": "§3.1.5 > Visit and Epoch Variables", "md_verbatim": "| 3 | VISITDY | Planned Study Day of Visit | Num | Protocol-defined study day |", "score": 0.4522, "match_basis": "verbatim_token+global_search"}, {"md_atom_id": "md_varindex_a674", "md_file": "knowledge_base/VARIABLE_INDEX.md", "md_atom_type": "TABLE_ROW", "md_parent_section": "§ 二、领域专属变量（仅 1 个域，共 1499 个），按域分组", "md_verbatim": "| HODUR | Duration of Healthcare Encounter | Char | Timing | Perm | ISO 8601 duration |", "score": 0.4342, "match_basis": "verbatim_token+global_search"}, {"md_atom_id": "md_varindex_a016", "md_file": "knowledge_base/VARIABLE_INDEX.md", "md_atom_type": "TABLE_ROW", "md_parent_section": "§ 一、通用变量（出现在 2+ 个域，共 24 个）", "md_verbatim": "| VISIT | 36 | AG, BE, BS, CP, CV, DA, EG, FA, FT, GF, IE, IS, LB, MB, MI, MK, ML, MS, NV, OE, PC, PE, PR, QS, RE, RP, RS, SC, SR, SS, SV, TR, TU, TV, UR, VS | Visit Name | Char | Timing* | Perm* |", "score": 0.4322, "match_basis": "verbatim_token+global_search"}], "candidate_count": 5, "zero_candidate": false}
{"pdf_atom_id": "ig34_p0196_a011", "pdf_atom_type": "TABLE_ROW", "pdf_source": "SDTMIG_v3.4", "pdf_page": 196, "pdf_parent_section": "§6.3.5.1 Generic Specimen-based Lab Findings Domain Specification", "pdf_verbatim": "| VISITDY | Planned Study Day of Visit | Num |  | Timing | Planned study day of the visit based upon RFSTDTC in Demographics. | Perm |", "figure_ref": null, "candidates": [{"md_atom_id": "md_varindex_a017", "md_file": "knowledge_base/VARIABLE_INDEX.md", "md_atom_type": "TABLE_ROW", "md_parent_section": "§ 一、通用变量（出现在 2+ 个域，共 24 个）", "md_verbatim": "| VISITDY | 36 | AG, BE, BS, CP, CV, DA, EG, FA, FT, GF, IE, IS, LB, MB, MI, MK, ML, MS, NV, OE, PC, PE, PR, QS, RE, RP, RS, SC, SR, SS, SV, TR, TU, TV, UR, VS | Planned Study Day of Visit | Num | Timing | Perm |", "score": 0.6, "match_basis": "verbatim_token+global_search"}, {"md_atom_id": "md_model03_a140", "md_file": "knowledge_base/model/03_special_purpose_domains.md", "md_atom_type": "TABLE_ROW", "md_parent_section": "§ Subject Visits (SV) > Variables (16 variables)", "md_verbatim": "| 11 | VISITDY | Planned Study Day of Visit | Num | Timing | |", "score": 0.5714, "match_basis": "verbatim_token+global_search"}, {"md_atom_id": "md_model05_a091", "md_file": "knowledge_base/model/05_study_level_data.md", "md_atom_type": "TABLE_ROW", "md_parent_section": "§ Trial Visits (TV)", "md_verbatim": "| 5 | VISITDY | Planned Study Day of Visit | Num | Timing |", "score": 0.5714, "match_basis": "verbatim_token+global_search"}, {"md_atom_id": "md_model03_a143", "md_file": "knowledge_base/model/03_special_purpose_domains.md", "md_atom_type": "TABLE_ROW", "md_parent_section": "§ Subject Visits (SV) > Variables (16 variables)", "md_verbatim": "| 14 | SVSTDY | Study Day of Start of Visit | Num | Timing | |", "score": 0.4787, "match_basis": "verbatim_token+global_search"}, {"md_atom_id": "md_model02_a187", "md_file": "knowledge_base/model/02_observation_classes.md", "md_atom_type": "TABLE_ROW", "md_parent_section": "§3.1.5 > Visit and Epoch Variables", "md_verbatim": "| 3 | VISITDY | Planned Study Day of Visit | Num | Protocol-defined study day |", "score": 0.4731, "match_basis": "verbatim_token+global_search"}], "candidate_count": 5, "zero_candidate": false}
{"pdf_atom_id": "ig34_p0196_a012", "pdf_atom_type": "TABLE_ROW", "pdf_source": "SDTMIG_v3.4", "pdf_page": 196, "pdf_parent_section": "§6.3.5.1 Generic Specimen-based Lab Findings Domain Specification", "pdf_verbatim": "| --DTC | Date/Time of Collection | Char | ISO 8601 datetime or interval | Timing | Collection date and time of an observation. | Perm |", "figure_ref": null, "candidates": [{"md_atom_id": "md_varindex_a405", "md_file": "knowledge_base/VARIABLE_INDEX.md", "md_atom_type": "TABLE_ROW", "md_parent_section": "§ 二、领域专属变量（仅 1 个域，共 1499 个），按域分组", "md_verbatim": "| DMDTC | Date/Time of Collection | Char | Timing | Perm | ISO 8601 datetime or interval |", "score": 0.7769, "match_basis": "verbatim_token+global_search"}, {"md_atom_id": "md_varindex_a417", "md_file": "knowledge_base/VARIABLE_INDEX.md", "md_atom_type": "TABLE_ROW", "md_parent_section": "§ 二、领域专属变量（仅 1 个域，共 1499 个），按域分组", "md_verbatim": "| DSDTC | Date/Time of Collection | Char | Timing | Perm | ISO 8601 datetime or interval |", "score": 0.7769, "match_basis": "verbatim_token+global_search"}, {"md_atom_id": "md_varindex_a685", "md_file": "knowledge_base/VARIABLE_INDEX.md", "md_atom_type": "TABLE_ROW", "md_parent_section": "§ 二、领域专属变量（仅 1 个域，共 1499 个），按域分组", "md_verbatim": "| IEDTC | Date/Time of Collection | Char | Timing | Perm | ISO 8601 datetime or interval |", "score": 0.7769, "match_basis": "verbatim_token+global_search"}, {"md_atom_id": "md_varindex_a937", "md_file": "knowledge_base/VARIABLE_INDEX.md", "md_atom_type": "TABLE_ROW", "md_parent_section": "§ 二、领域专属变量（仅 1 个域，共 1499 个），按域分组", "md_verbatim": "| MLDTC | Date/Time of Collection | Char | Timing | Perm | ISO 8601 datetime or interval |", "score": 0.7769, "match_basis": "verbatim_token+global_search"}, {"md_atom_id": "md_varindex_a995", "md_file": "knowledge_base/VARIABLE_INDEX.md", "md_atom_type": "TABLE_ROW", "md_parent_section": "§ 二、领域专属变量（仅 1 个域，共 1499 个），按域分组", "md_verbatim": "| MSDTC | Date/Time of Collection | Char | Timing | Perm | ISO 8601 datetime or interval |", "score": 0.7769, "match_basis": "verbatim_token+global_search"}], "candidate_count": 5, "zero_candidate": false}
{"pdf_atom_id": "ig34_p0196_a013", "pdf_atom_type": "TABLE_ROW", "pdf_source": "SDTMIG_v3.4", "pdf_page": 196, "pdf_parent_section": "§6.3.5.1 Generic Specimen-based Lab Findings Domain Specification", "pdf_verbatim": "| --DY | Study Day of Collection | Num |  | Timing | Study day of the collection, in integer days. The algorithm for calculations must be relative to the sponsor-defined RFSTDTC variable in the Demographics (DM) domain. | Perm |", "figure_ref": null, "candidates": [{"md_atom_id": "md_varindex_a1168", "md_file": "knowledge_base/VARIABLE_INDEX.md", "md_atom_type": "TABLE_ROW", "md_parent_section": "§ 二、领域专属变量（仅 1 个域，共 1499 个），按域分组", "md_verbatim": "| PPDY | Study Day of Parameter Calculations | Num | Timing | Perm | — |", "score": 0.4385, "match_basis": "verbatim_token+global_search"}, {"md_atom_id": "md_varindex_a377", "md_file": "knowledge_base/VARIABLE_INDEX.md", "md_atom_type": "TABLE_ROW", "md_parent_section": "§ 二、领域专属变量（仅 1 个域，共 1499 个），按域分组", "md_verbatim": "| DDDY | Study Day of Collection | Num | Timing | Perm | — |", "score": 0.4357, "match_basis": "verbatim_token+global_search"}, {"md_atom_id": "md_varindex_a406", "md_file": "knowledge_base/VARIABLE_INDEX.md", "md_atom_type": "TABLE_ROW", "md_parent_section": "§ 二、领域专属变量（仅 1 个域，共 1499 个），按域分组", "md_verbatim": "| DMDY | Study Day of Collection | Num | Timing | Perm | — |", "score": 0.4357, "match_basis": "verbatim_token+global_search"}, {"md_atom_id": "md_varindex_a419", "md_file": "knowledge_base/VARIABLE_INDEX.md", "md_atom_type": "TABLE_ROW", "md_parent_section": "§ 二、领域专属变量（仅 1 个域，共 1499 个），按域分组", "md_verbatim": "| DSDY | Study Day of Collection | Num | Timing | Perm | — |", "score": 0.4357, "match_basis": "verbatim_token+global_search"}, {"md_atom_id": "md_varindex_a570", "md_file": "knowledge_base/VARIABLE_INDEX.md", "md_atom_type": "TABLE_ROW", "md_parent_section": "§ 二、领域专属变量（仅 1 个域，共 1499 个），按域分组", "md_verbatim": "| FADY | Study Day of Collection | Num | Timing | Perm | — |", "score": 0.4357, "match_basis": "verbatim_token+global_search"}], "candidate_count": 5, "zero_candidate": false}
{"pdf_atom_id": "ig34_p0196_a014", "pdf_atom_type": "NOTE", "pdf_source": "SDTMIG_v3.4", "pdf_page": 196, "pdf_parent_section": "§6.3.5.1 Generic Specimen-based Lab Findings Domain Specification", "pdf_verbatim": "1In this column, an asterisk (*) indicates that the variable may be subject to controlled terminology. CDISC/NCI codelist values are enclosed in parentheses.", "figure_ref": null, "candidates": [{"md_atom_id": "md_ch08_a080", "md_file": "knowledge_base/chapters/ch08_relationships.md", "md_atom_type": "SENTENCE", "md_parent_section": "§8.2.1 [Related Records (RELREC)]", "md_verbatim": "^1^ In this column, an asterisk (*) indicates that the variable may be subject to controlled terminology. CDISC/NCI codelist values are enclosed in parentheses.", "score": 0.8024, "match_basis": "verbatim_token+global_search"}, {"md_atom_id": "md_ch08_a168", "md_file": "knowledge_base/chapters/ch08_relationships.md", "md_atom_type": "SENTENCE", "md_parent_section": "§8.4.1 [Supplemental Qualifiers (SUPP--)]", "md_verbatim": "^1^ In this column, an asterisk (*) indicates that the variable may be subject to controlled terminology. CDISC/NCI codelist values are enclosed in parentheses.", "score": 0.8024, "match_basis": "verbatim_token+global_search"}, {"md_atom_id": "md_ch04_a473", "md_file": "knowledge_base/chapters/ch04_general_assumptions.md", "md_atom_type": "NOTE", "md_parent_section": "§4.3.7 [Use of \"Yes\" and \"No\" Values]", "md_verbatim": "> **Note:** Permissible values for variables with controlled terms of \"Y\" or \"N\" may be extended to include \"U\" or \"NA\" if it is the sponsor's practice to explicitly collect or derive values indicating \"Unknown\" or \"Not Applicable\" for that variable.", "score": 0.45, "match_basis": "verbatim_token+global_search"}, {"md_atom_id": "md_ch04_a425", "md_file": "knowledge_base/chapters/ch04_general_assumptions.md", "md_atom_type": "SENTENCE", "md_parent_section": "§4.3.1 [Controlled Terms, Codelist or Format Column]", "md_verbatim": "In addition, the Controlled Terms, Codelist or Format column has been used to indicate variables that use an ISO 8601 format.", "score": 0.4304, "match_basis": "verbatim_token+global_search"}, {"md_atom_id": "md_dmTS_assn_a018", "md_file": "knowledge_base/domains/TS/assumptions.md", "md_atom_type": "NOTE", "md_parent_section": "§TS [TS — Assumptions]", "md_verbatim": "    Note that this is different from datasets that contain subject data, where the --SEQ variable has a different value for each record for the same subject.", "score": 0.4255, "match_basis": "verbatim_token+global_search"}], "candidate_count": 5, "zero_candidate": false}
{"pdf_atom_id": "ig34_p0196_a015", "pdf_atom_type": "HEADING", "pdf_source": "SDTMIG_v3.4", "pdf_page": 196, "pdf_parent_section": "§6.3.5 Specimen-based Findings Domains", "pdf_verbatim": "6.3.5.2 Biospecimen Findings (BS)", "figure_ref": null, "candidates": [{"md_atom_id": "md_varindex_a148", "md_file": "knowledge_base/VARIABLE_INDEX.md", "md_atom_type": "HEADING", "md_parent_section": "§ 二、领域专属变量（仅 1 个域，共 1499 个），按域分组", "md_verbatim": "### BS — Biospecimen Findings (Findings)", "score": 0.9, "match_basis": "verbatim_token+global_search"}, {"md_atom_id": "md_varindex_a790", "md_file": "knowledge_base/VARIABLE_INDEX.md", "md_atom_type": "HEADING", "md_parent_section": "§ 二、领域专属变量（仅 1 个域，共 1499 个），按域分组", "md_verbatim": "### MB — Microbiology Specimen (Findings)", "score": 0.625, "match_basis": "verbatim_token+global_search"}, {"md_atom_id": "md_varindex_a128", "md_file": "knowledge_base/VARIABLE_INDEX.md", "md_atom_type": "HEADING", "md_parent_section": "§ 二、领域专属变量（仅 1 个域，共 1499 个），按域分组", "md_verbatim": "### BE — Biospecimen Events (Events)", "score": 0.5842, "match_basis": "verbatim_token+global_search"}, {"md_atom_id": "md_varindex_a687", "md_file": "knowledge_base/VARIABLE_INDEX.md", "md_atom_type": "HEADING", "md_parent_section": "§ 二、领域专属变量（仅 1 个域，共 1499 个），按域分组", "md_verbatim": "### IS — Immunogenicity Specimen Assessments (Findings)", "score": 0.5057, "match_basis": "verbatim_token+global_search"}, {"md_atom_id": "md_index_a053", "md_file": "knowledge_base/INDEX.md", "md_atom_type": "HEADING", "md_parent_section": "§ Domains (63 domains)", "md_verbatim": "### Findings Domains", "score": 0.48, "match_basis": "verbatim_token+global_search"}], "candidate_count": 5, "zero_candidate": false}
{"pdf_atom_id": "ig34_p0196_a016", "pdf_atom_type": "SENTENCE", "pdf_source": "SDTMIG_v3.4", "pdf_page": 196, "pdf_parent_section": "§6.3.5.2 Biospecimen Findings (BS)", "pdf_verbatim": "BE, BS, and RELSPEC domain specifications, assumptions, and examples were copied and minimally updated from the provisional SDTMIG-PGx, published 2015-05-26.", "figure_ref": null, "candidates": [{"md_atom_id": "md_dmBS_ex_a005", "md_file": "knowledge_base/domains/BS/examples.md", "md_atom_type": "SENTENCE", "md_parent_section": "§BS.1 [Example 1]", "md_verbatim": "It has been shown that improper storage or isolation methods might compromise the usability of a sample.", "score": 0.4513, "match_basis": "verbatim_token+domain_route:BS"}, {"md_atom_id": "md_dmBS_ex_a010", "md_file": "knowledge_base/domains/BS/examples.md", "md_atom_type": "SENTENCE", "md_parent_section": "§BS.1 [Example 1]", "md_verbatim": "**Row 4:** The RNA integrity number is a quality measurement calculated using a special algorithm and used to determine the usability of the RNA sample.", "score": 0.45, "match_basis": "verbatim_token+domain_route:BS"}, {"md_atom_id": "md_dmBS_ex_a006", "md_file": "knowledge_base/domains/BS/examples.md", "md_atom_type": "SENTENCE", "md_parent_section": "§BS.1 [Example 1]", "md_verbatim": "**Rows 1-2:** The A260/A280 and A260/A230 ratios are used to determine the purity of the RNA sample.", "score": 0.448, "match_basis": "verbatim_token+domain_route:BS"}, {"md_atom_id": "md_dmBS_ex_a007", "md_file": "knowledge_base/domains/BS/examples.md", "md_atom_type": "SENTENCE", "md_parent_section": "§BS.1 [Example 1]", "md_verbatim": "Any ratios outside of the accepted values may indicate contamination with protein or reagents used during the extraction process.", "score": 0.4458, "match_basis": "verbatim_token+domain_route:BS"}, {"md_atom_id": "md_dmBS_ex_a008", "md_file": "knowledge_base/domains/BS/examples.md", "md_atom_type": "SENTENCE", "md_parent_section": "§BS.1 [Example 1]", "md_verbatim": "**Row 3:** The amounts of both 28S and 18S ribosomal RNA are measured and then a ratio is calculated.", "score": 0.4453, "match_basis": "verbatim_token+domain_route:BS"}], "candidate_count": 5, "zero_candidate": false}
{"pdf_atom_id": "ig34_p0196_a017", "pdf_atom_type": "SENTENCE", "pdf_source": "SDTMIG_v3.4", "pdf_page": 196, "pdf_parent_section": "§6.3.5.2 Biospecimen Findings (BS)", "pdf_verbatim": "This was done in preparation for the retirement of the SDTMIG-PGx upon publication of SDTMIG v3.4.", "figure_ref": null, "candidates": [{"md_atom_id": "md_dmBS_ex_a007", "md_file": "knowledge_base/domains/BS/examples.md", "md_atom_type": "SENTENCE", "md_parent_section": "§BS.1 [Example 1]", "md_verbatim": "Any ratios outside of the accepted values may indicate contamination with protein or reagents used during the extraction process.", "score": 0.4505, "match_basis": "verbatim_token+domain_route:BS"}, {"md_atom_id": "md_dmBS_ex_a006", "md_file": "knowledge_base/domains/BS/examples.md", "md_atom_type": "SENTENCE", "md_parent_section": "§BS.1 [Example 1]", "md_verbatim": "**Rows 1-2:** The A260/A280 and A260/A230 ratios are used to determine the purity of the RNA sample.", "score": 0.4364, "match_basis": "verbatim_token+domain_route:BS"}, {"md_atom_id": "md_dmBS_ex_a005", "md_file": "knowledge_base/domains/BS/examples.md", "md_atom_type": "SENTENCE", "md_parent_section": "§BS.1 [Example 1]", "md_verbatim": "It has been shown that improper storage or isolation methods might compromise the usability of a sample.", "score": 0.4357, "match_basis": "verbatim_token+domain_route:BS"}, {"md_atom_id": "md_dmBS_ex_a008", "md_file": "knowledge_base/domains/BS/examples.md", "md_atom_type": "SENTENCE", "md_parent_section": "§BS.1 [Example 1]", "md_verbatim": "**Row 3:** The amounts of both 28S and 18S ribosomal RNA are measured and then a ratio is calculated.", "score": 0.4333, "match_basis": "verbatim_token+domain_route:BS"}, {"md_atom_id": "md_dmBS_ex_a010", "md_file": "knowledge_base/domains/BS/examples.md", "md_atom_type": "SENTENCE", "md_parent_section": "§BS.1 [Example 1]", "md_verbatim": "**Row 4:** The RNA integrity number is a quality measurement calculated using a special algorithm and used to determine the usability of the RNA sample.", "score": 0.43, "match_basis": "verbatim_token+domain_route:BS"}], "candidate_count": 5, "zero_candidate": false}
{"pdf_atom_id": "ig34_p0196_a018", "pdf_atom_type": "SENTENCE", "pdf_source": "SDTMIG_v3.4", "pdf_page": 196, "pdf_parent_section": "§6.3.5.2 Biospecimen Findings (BS)", "pdf_verbatim": "These domains are currently under extensive revision for inclusion in a future SDTMIG publication, after v3.4.", "figure_ref": null, "candidates": [{"md_atom_id": "md_dmBS_ex_a007", "md_file": "knowledge_base/domains/BS/examples.md", "md_atom_type": "SENTENCE", "md_parent_section": "§BS.1 [Example 1]", "md_verbatim": "Any ratios outside of the accepted values may indicate contamination with protein or reagents used during the extraction process.", "score": 0.4417, "match_basis": "verbatim_token+domain_route:BS"}, {"md_atom_id": "md_dmBS_ex_a008", "md_file": "knowledge_base/domains/BS/examples.md", "md_atom_type": "SENTENCE", "md_parent_section": "§BS.1 [Example 1]", "md_verbatim": "**Row 3:** The amounts of both 28S and 18S ribosomal RNA are measured and then a ratio is calculated.", "score": 0.44, "match_basis": "verbatim_token+domain_route:BS"}, {"md_atom_id": "md_dmBS_ex_a006", "md_file": "knowledge_base/domains/BS/examples.md", "md_atom_type": "SENTENCE", "md_parent_section": "§BS.1 [Example 1]", "md_verbatim": "**Rows 1-2:** The A260/A280 and A260/A230 ratios are used to determine the purity of the RNA sample.", "score": 0.4353, "match_basis": "verbatim_token+domain_route:BS"}, {"md_atom_id": "md_dmBS_ex_a005", "md_file": "knowledge_base/domains/BS/examples.md", "md_atom_type": "SENTENCE", "md_parent_section": "§BS.1 [Example 1]", "md_verbatim": "It has been shown that improper storage or isolation methods might compromise the usability of a sample.", "score": 0.4288, "match_basis": "verbatim_token+domain_route:BS"}, {"md_atom_id": "md_dmBS_ex_a010", "md_file": "knowledge_base/domains/BS/examples.md", "md_atom_type": "SENTENCE", "md_parent_section": "§BS.1 [Example 1]", "md_verbatim": "**Row 4:** The RNA integrity number is a quality measurement calculated using a special algorithm and used to determine the usability of the RNA sample.", "score": 0.425, "match_basis": "verbatim_token+domain_route:BS"}], "candidate_count": 5, "zero_candidate": false}
{"pdf_atom_id": "ig34_p0196_a019", "pdf_atom_type": "HEADING", "pdf_source": "SDTMIG_v3.4", "pdf_page": 196, "pdf_parent_section": "§6.3.5.2 Biospecimen Findings (BS)", "pdf_verbatim": "BS – Description/Overview", "figure_ref": null, "candidates": [{"md_atom_id": "md_dmBS_assn_a001", "md_file": "knowledge_base/domains/BS/assumptions.md", "md_atom_type": "HEADING", "md_parent_section": "§BS [BS — Assumptions]", "md_verbatim": "# BS — Assumptions", "score": 0.4857, "match_basis": "verbatim_token+domain_route:BS"}, {"md_atom_id": "md_dmBS_ex_a001", "md_file": "knowledge_base/domains/BS/examples.md", "md_atom_type": "HEADING", "md_parent_section": "§BS [BS — Examples]", "md_verbatim": "# BS — Examples", "score": 0.4, "match_basis": "verbatim_token+domain_route:BS"}, {"md_atom_id": "md_dmBS_ex_a002", "md_file": "knowledge_base/domains/BS/examples.md", "md_atom_type": "HEADING", "md_parent_section": "§BS.1 [Example 1]", "md_verbatim": "## Example 1", "score": 0.4, "match_basis": "verbatim_token+domain_route:BS"}], "candidate_count": 3, "zero_candidate": false}
{"pdf_atom_id": "ig34_p0196_a020", "pdf_atom_type": "SENTENCE", "pdf_source": "SDTMIG_v3.4", "pdf_page": 196, "pdf_parent_section": "§6.3.5.2 Biospecimen Findings (BS)", "pdf_verbatim": "A findings domain that contains data related to biospecimen characteristics.", "figure_ref": null, "candidates": [{"md_atom_id": "md_dmBS_assn_a002", "md_file": "knowledge_base/domains/BS/assumptions.md", "md_atom_type": "LIST_ITEM", "md_parent_section": "§BS [BS — Assumptions]", "md_verbatim": "1. The BS domain is used to store findings related to specimen handling and specimen characteristics such as type, amount, or size. BS is not restricted to PGx-related specimens.", "score": 0.5784, "match_basis": "verbatim_token+domain_route:BS"}, {"md_atom_id": "md_dmBS_ex_a007", "md_file": "knowledge_base/domains/BS/examples.md", "md_atom_type": "SENTENCE", "md_parent_section": "§BS.1 [Example 1]", "md_verbatim": "Any ratios outside of the accepted values may indicate contamination with protein or reagents used during the extraction process.", "score": 0.4653, "match_basis": "verbatim_token+domain_route:BS"}, {"md_atom_id": "md_dmBS_ex_a010", "md_file": "knowledge_base/domains/BS/examples.md", "md_atom_type": "SENTENCE", "md_parent_section": "§BS.1 [Example 1]", "md_verbatim": "**Row 4:** The RNA integrity number is a quality measurement calculated using a special algorithm and used to determine the usability of the RNA sample.", "score": 0.4514, "match_basis": "verbatim_token+domain_route:BS"}, {"md_atom_id": "md_dmBS_ex_a004", "md_file": "knowledge_base/domains/BS/examples.md", "md_atom_type": "SENTENCE", "md_parent_section": "§BS.1 [Example 1]", "md_verbatim": "The data collected focus on the quality of the RNA sample being collected.", "score": 0.4448, "match_basis": "verbatim_token+domain_route:BS"}, {"md_atom_id": "md_dmBS_ex_a008", "md_file": "knowledge_base/domains/BS/examples.md", "md_atom_type": "SENTENCE", "md_parent_section": "§BS.1 [Example 1]", "md_verbatim": "**Row 3:** The amounts of both 28S and 18S ribosomal RNA are measured and then a ratio is calculated.", "score": 0.4296, "match_basis": "verbatim_token+domain_route:BS"}], "candidate_count": 5, "zero_candidate": false}
{"pdf_atom_id": "ig34_p0196_a021", "pdf_atom_type": "HEADING", "pdf_source": "SDTMIG_v3.4", "pdf_page": 196, "pdf_parent_section": "§6.3.5.2 Biospecimen Findings (BS)", "pdf_verbatim": "BS – Specification", "figure_ref": null, "candidates": [{"md_atom_id": "md_dmBS_assn_a001", "md_file": "knowledge_base/domains/BS/assumptions.md", "md_atom_type": "HEADING", "md_parent_section": "§BS [BS — Assumptions]", "md_verbatim": "# BS — Assumptions", "score": 0.4667, "match_basis": "verbatim_token+domain_route:BS"}, {"md_atom_id": "md_dmBS_ex_a001", "md_file": "knowledge_base/domains/BS/examples.md", "md_atom_type": "HEADING", "md_parent_section": "§BS [BS — Examples]", "md_verbatim": "# BS — Examples", "score": 0.4, "match_basis": "verbatim_token+domain_route:BS"}, {"md_atom_id": "md_dmBS_ex_a002", "md_file": "knowledge_base/domains/BS/examples.md", "md_atom_type": "HEADING", "md_parent_section": "§BS.1 [Example 1]", "md_verbatim": "## Example 1", "score": 0.4, "match_basis": "verbatim_token+domain_route:BS"}], "candidate_count": 3, "zero_candidate": false}
{"pdf_atom_id": "ig34_p0196_a022", "pdf_atom_type": "CODE_LITERAL", "pdf_source": "SDTMIG_v3.4", "pdf_page": 196, "pdf_parent_section": "§6.3.5.2 Biospecimen Findings (BS)", "pdf_verbatim": "bs.xpt, Biospecimen Findings — Findings. One record per measurement per biospecimen identifier per subject, Tabulation.", "figure_ref": null, "candidates": [{"md_atom_id": "md_dmBS_ex_a010", "md_file": "knowledge_base/domains/BS/examples.md", "md_atom_type": "SENTENCE", "md_parent_section": "§BS.1 [Example 1]", "md_verbatim": "**Row 4:** The RNA integrity number is a quality measurement calculated using a special algorithm and used to determine the usability of the RNA sample.", "score": 0.2774, "match_basis": "verbatim_token+domain_route:BS"}, {"md_atom_id": "md_dmBS_assn_a002", "md_file": "knowledge_base/domains/BS/assumptions.md", "md_atom_type": "LIST_ITEM", "md_parent_section": "§BS [BS — Assumptions]", "md_verbatim": "1. The BS domain is used to store findings related to specimen handling and specimen characteristics such as type, amount, or size. BS is not restricted to PGx-related specimens.", "score": 0.2672, "match_basis": "verbatim_token+domain_route:BS"}, {"md_atom_id": "md_dmBS_ex_a008", "md_file": "knowledge_base/domains/BS/examples.md", "md_atom_type": "SENTENCE", "md_parent_section": "§BS.1 [Example 1]", "md_verbatim": "**Row 3:** The amounts of both 28S and 18S ribosomal RNA are measured and then a ratio is calculated.", "score": 0.2575, "match_basis": "verbatim_token+domain_route:BS"}, {"md_atom_id": "md_dmBS_assn_a003", "md_file": "knowledge_base/domains/BS/assumptions.md", "md_atom_type": "LIST_ITEM", "md_parent_section": "§BS [BS — Assumptions]", "md_verbatim": "2. For biospecimens of genetic material, BSSPEC values are drawn from the GENSMP (C111114) codelist.", "score": 0.2521, "match_basis": "verbatim_token+domain_route:BS"}, {"md_atom_id": "md_dmBS_assn_a005", "md_file": "knowledge_base/domains/BS/assumptions.md", "md_atom_type": "LIST_ITEM", "md_parent_section": "§BS [BS — Assumptions]", "md_verbatim": "4. To adapt BS for use with the SDTMIG, use the SPECTYPE (C78734) codelist in BSSPEC, add --LOC, --LAT, --DIR, and --PORTOT as applicable, and remove BSANTREG. Values that would otherwise have gone in BSANTREG may be placed in a supplemental qualifier that is almost identical to that variable, but which further qualifies BSLOC instead of BSSPEC.", "score": 0.2462, "match_basis": "verbatim_token+domain_route:BS"}], "candidate_count": 5, "zero_candidate": false}
{"pdf_atom_id": "ig34_p0196_a023", "pdf_atom_type": "TABLE_HEADER", "pdf_source": "SDTMIG_v3.4", "pdf_page": 196, "pdf_parent_section": "§6.3.5.2 Biospecimen Findings (BS)", "pdf_verbatim": "| Variable Name | Variable Label | Type | Controlled Terms, Codelist or Format1 | Role | CDISC Notes | Core |", "figure_ref": null, "candidates": [{"md_atom_id": "md_dmBS_ex_a012", "md_file": "knowledge_base/domains/BS/examples.md", "md_atom_type": "TABLE_HEADER", "md_parent_section": "§BS.1 [Example 1]", "md_verbatim": "| Row | STUDYID | DOMAIN | USUBJID | BSSEQ | BSREFID | BSTESTCD | BSTEST | BSCAT | BSORRES | BSSTRESC | BSSTRESN | BSXFN | BSNAM | BSSPEC | BSMETHOD | BSRUNID | VISIT | VISITNUM | VISITDY | BSDTC |\n|-----|---------|--------|---------|-------|---------|----------|--------|-------|---------|----------|----------|-------|-------|--------|----------|---------|-------|----------|---------|-------|", "score": 0.4105, "match_basis": "verbatim_token+domain_route:BS"}, {"md_atom_id": "md_dmBS_ex_a015", "md_file": "knowledge_base/domains/BS/examples.md", "md_atom_type": "TABLE_ROW", "md_parent_section": "§BS.1 [Example 1]", "md_verbatim": "| 3 | A12345 | BS | 43871 | 3 | 1148.26704 | 28S/18S | 28S/18S | QUALITY CONTROL | 1.2 | 1.2 | 1.2 | 2.16.090.1.135764.3.4.7280912 | Deluxe Central Labs | rRNA | ELECTROPHORESIS | 1000450001 | Baseline | 1 | 1 | 2005-03-21T11:28:17 |", "score": 0.3886, "match_basis": "verbatim_token+domain_route:BS"}, {"md_atom_id": "md_dmBS_ex_a016", "md_file": "knowledge_base/domains/BS/examples.md", "md_atom_type": "TABLE_ROW", "md_parent_section": "§BS.1 [Example 1]", "md_verbatim": "| 4 | A12345 | BS | 43871 | 4 | 1148.26704 | RIN | RNA INTEGRITY NUMBER | QUALITY CONTROL | 9.5 | 9.5 | 9.5 | 2.16.090.1.135764.3.4.7280912 | Deluxe Central Labs | rRNA | ELECTROPHORESIS | 1000450001 | Baseline | 1 | 1 | 2005-03-21T11:28:17 |", "score": 0.385, "match_basis": "verbatim_token+domain_route:BS"}, {"md_atom_id": "md_dmBS_ex_a014", "md_file": "knowledge_base/domains/BS/examples.md", "md_atom_type": "TABLE_ROW", "md_parent_section": "§BS.1 [Example 1]", "md_verbatim": "| 2 | A12345 | BS | 43871 | 2 | 1148.26704 | A260/A280 | A260/A280 | QUALITY CONTROL | 2 | 2 | 2 | 2.16.090.1.135764.3.4.7280912 | Deluxe Central Labs | rRNA | SPECTROPHOTOMETRY | 1000450001 | Baseline | 1 | 1 | 2005-03-21T11:28:17 |", "score": 0.3817, "match_basis": "verbatim_token+domain_route:BS"}, {"md_atom_id": "md_dmBS_ex_a013", "md_file": "knowledge_base/domains/BS/examples.md", "md_atom_type": "TABLE_ROW", "md_parent_section": "§BS.1 [Example 1]", "md_verbatim": "| 1 | A12345 | BS | 43871 | 1 | 1148.26704 | A260/A230 | A260/A230 | QUALITY CONTROL | 2.05 | 2.05 | 2.05 | 2.16.090.1.135764.3.4.7280912 | Deluxe Central Labs | rRNA | SPECTROPHOTOMETRY | 1000450001 | Baseline | 1 | 1 | 2005-03-21T11:28:17 |", "score": 0.3814, "match_basis": "verbatim_token+domain_route:BS"}], "candidate_count": 5, "zero_candidate": false}
{"pdf_atom_id": "ig34_p0196_a024", "pdf_atom_type": "TABLE_ROW", "pdf_source": "SDTMIG_v3.4", "pdf_page": 196, "pdf_parent_section": "§6.3.5.2 Biospecimen Findings (BS)", "pdf_verbatim": "| STUDYID | Study Identifier | Char |  | Identifier | Unique identifier for a study. | Req |", "figure_ref": null, "candidates": [{"md_atom_id": "md_dmBS_ex_a015", "md_file": "knowledge_base/domains/BS/examples.md", "md_atom_type": "TABLE_ROW", "md_parent_section": "§BS.1 [Example 1]", "md_verbatim": "| 3 | A12345 | BS | 43871 | 3 | 1148.26704 | 28S/18S | 28S/18S | QUALITY CONTROL | 1.2 | 1.2 | 1.2 | 2.16.090.1.135764.3.4.7280912 | Deluxe Central Labs | rRNA | ELECTROPHORESIS | 1000450001 | Baseline | 1 | 1 | 2005-03-21T11:28:17 |", "score": 0.4062, "match_basis": "verbatim_token+domain_route:BS"}, {"md_atom_id": "md_dmBS_ex_a014", "md_file": "knowledge_base/domains/BS/examples.md", "md_atom_type": "TABLE_ROW", "md_parent_section": "§BS.1 [Example 1]", "md_verbatim": "| 2 | A12345 | BS | 43871 | 2 | 1148.26704 | A260/A280 | A260/A280 | QUALITY CONTROL | 2 | 2 | 2 | 2.16.090.1.135764.3.4.7280912 | Deluxe Central Labs | rRNA | SPECTROPHOTOMETRY | 1000450001 | Baseline | 1 | 1 | 2005-03-21T11:28:17 |", "score": 0.4061, "match_basis": "verbatim_token+domain_route:BS"}, {"md_atom_id": "md_dmBS_ex_a013", "md_file": "knowledge_base/domains/BS/examples.md", "md_atom_type": "TABLE_ROW", "md_parent_section": "§BS.1 [Example 1]", "md_verbatim": "| 1 | A12345 | BS | 43871 | 1 | 1148.26704 | A260/A230 | A260/A230 | QUALITY CONTROL | 2.05 | 2.05 | 2.05 | 2.16.090.1.135764.3.4.7280912 | Deluxe Central Labs | rRNA | SPECTROPHOTOMETRY | 1000450001 | Baseline | 1 | 1 | 2005-03-21T11:28:17 |", "score": 0.406, "match_basis": "verbatim_token+domain_route:BS"}, {"md_atom_id": "md_dmBS_ex_a016", "md_file": "knowledge_base/domains/BS/examples.md", "md_atom_type": "TABLE_ROW", "md_parent_section": "§BS.1 [Example 1]", "md_verbatim": "| 4 | A12345 | BS | 43871 | 4 | 1148.26704 | RIN | RNA INTEGRITY NUMBER | QUALITY CONTROL | 9.5 | 9.5 | 9.5 | 2.16.090.1.135764.3.4.7280912 | Deluxe Central Labs | rRNA | ELECTROPHORESIS | 1000450001 | Baseline | 1 | 1 | 2005-03-21T11:28:17 |", "score": 0.4057, "match_basis": "verbatim_token+domain_route:BS"}, {"md_atom_id": "md_dmBS_ex_a012", "md_file": "knowledge_base/domains/BS/examples.md", "md_atom_type": "TABLE_HEADER", "md_parent_section": "§BS.1 [Example 1]", "md_verbatim": "| Row | STUDYID | DOMAIN | USUBJID | BSSEQ | BSREFID | BSTESTCD | BSTEST | BSCAT | BSORRES | BSSTRESC | BSSTRESN | BSXFN | BSNAM | BSSPEC | BSMETHOD | BSRUNID | VISIT | VISITNUM | VISITDY | BSDTC |\n|-----|---------|--------|---------|-------|---------|----------|--------|-------|---------|----------|----------|-------|-------|--------|----------|---------|-------|----------|---------|-------|", "score": 0.3814, "match_basis": "verbatim_token+domain_route:BS"}], "candidate_count": 5, "zero_candidate": false}
{"pdf_atom_id": "ig34_p0196_a025", "pdf_atom_type": "TABLE_ROW", "pdf_source": "SDTMIG_v3.4", "pdf_page": 196, "pdf_parent_section": "§6.3.5.2 Biospecimen Findings (BS)", "pdf_verbatim": "| DOMAIN | Domain Abbreviation | Char | BS | Identifier | Two-character abbreviation for the domain. | Req |", "figure_ref": null, "candidates": [{"md_atom_id": "md_dmBS_ex_a015", "md_file": "knowledge_base/domains/BS/examples.md", "md_atom_type": "TABLE_ROW", "md_parent_section": "§BS.1 [Example 1]", "md_verbatim": "| 3 | A12345 | BS | 43871 | 3 | 1148.26704 | 28S/18S | 28S/18S | QUALITY CONTROL | 1.2 | 1.2 | 1.2 | 2.16.090.1.135764.3.4.7280912 | Deluxe Central Labs | rRNA | ELECTROPHORESIS | 1000450001 | Baseline | 1 | 1 | 2005-03-21T11:28:17 |", "score": 0.4056, "match_basis": "verbatim_token+domain_route:BS"}, {"md_atom_id": "md_dmBS_ex_a014", "md_file": "knowledge_base/domains/BS/examples.md", "md_atom_type": "TABLE_ROW", "md_parent_section": "§BS.1 [Example 1]", "md_verbatim": "| 2 | A12345 | BS | 43871 | 2 | 1148.26704 | A260/A280 | A260/A280 | QUALITY CONTROL | 2 | 2 | 2 | 2.16.090.1.135764.3.4.7280912 | Deluxe Central Labs | rRNA | SPECTROPHOTOMETRY | 1000450001 | Baseline | 1 | 1 | 2005-03-21T11:28:17 |", "score": 0.4054, "match_basis": "verbatim_token+domain_route:BS"}, {"md_atom_id": "md_dmBS_ex_a013", "md_file": "knowledge_base/domains/BS/examples.md", "md_atom_type": "TABLE_ROW", "md_parent_section": "§BS.1 [Example 1]", "md_verbatim": "| 1 | A12345 | BS | 43871 | 1 | 1148.26704 | A260/A230 | A260/A230 | QUALITY CONTROL | 2.05 | 2.05 | 2.05 | 2.16.090.1.135764.3.4.7280912 | Deluxe Central Labs | rRNA | SPECTROPHOTOMETRY | 1000450001 | Baseline | 1 | 1 | 2005-03-21T11:28:17 |", "score": 0.4054, "match_basis": "verbatim_token+domain_route:BS"}, {"md_atom_id": "md_dmBS_ex_a016", "md_file": "knowledge_base/domains/BS/examples.md", "md_atom_type": "TABLE_ROW", "md_parent_section": "§BS.1 [Example 1]", "md_verbatim": "| 4 | A12345 | BS | 43871 | 4 | 1148.26704 | RIN | RNA INTEGRITY NUMBER | QUALITY CONTROL | 9.5 | 9.5 | 9.5 | 2.16.090.1.135764.3.4.7280912 | Deluxe Central Labs | rRNA | ELECTROPHORESIS | 1000450001 | Baseline | 1 | 1 | 2005-03-21T11:28:17 |", "score": 0.4051, "match_basis": "verbatim_token+domain_route:BS"}, {"md_atom_id": "md_dmBS_ex_a012", "md_file": "knowledge_base/domains/BS/examples.md", "md_atom_type": "TABLE_HEADER", "md_parent_section": "§BS.1 [Example 1]", "md_verbatim": "| Row | STUDYID | DOMAIN | USUBJID | BSSEQ | BSREFID | BSTESTCD | BSTEST | BSCAT | BSORRES | BSSTRESC | BSSTRESN | BSXFN | BSNAM | BSSPEC | BSMETHOD | BSRUNID | VISIT | VISITNUM | VISITDY | BSDTC |\n|-----|---------|--------|---------|-------|---------|----------|--------|-------|---------|----------|----------|-------|-------|--------|----------|---------|-------|----------|---------|-------|", "score": 0.3638, "match_basis": "verbatim_token+domain_route:BS"}], "candidate_count": 5, "zero_candidate": false}
{"pdf_atom_id": "ig34_p0196_a026", "pdf_atom_type": "TABLE_ROW", "pdf_source": "SDTMIG_v3.4", "pdf_page": 196, "pdf_parent_section": "§6.3.5.2 Biospecimen Findings (BS)", "pdf_verbatim": "| USUBJID | Unique Subject Identifier | Char |  | Identifier | Identifier used to uniquely identify a subject across all studies for all applications or submissions involving the product. | Req |", "figure_ref": null, "candidates": [{"md_atom_id": "md_dmBS_ex_a015", "md_file": "knowledge_base/domains/BS/examples.md", "md_atom_type": "TABLE_ROW", "md_parent_section": "§BS.1 [Example 1]", "md_verbatim": "| 3 | A12345 | BS | 43871 | 3 | 1148.26704 | 28S/18S | 28S/18S | QUALITY CONTROL | 1.2 | 1.2 | 1.2 | 2.16.090.1.135764.3.4.7280912 | Deluxe Central Labs | rRNA | ELECTROPHORESIS | 1000450001 | Baseline | 1 | 1 | 2005-03-21T11:28:17 |", "score": 0.4085, "match_basis": "verbatim_token+domain_route:BS"}, {"md_atom_id": "md_dmBS_ex_a014", "md_file": "knowledge_base/domains/BS/examples.md", "md_atom_type": "TABLE_ROW", "md_parent_section": "§BS.1 [Example 1]", "md_verbatim": "| 2 | A12345 | BS | 43871 | 2 | 1148.26704 | A260/A280 | A260/A280 | QUALITY CONTROL | 2 | 2 | 2 | 2.16.090.1.135764.3.4.7280912 | Deluxe Central Labs | rRNA | SPECTROPHOTOMETRY | 1000450001 | Baseline | 1 | 1 | 2005-03-21T11:28:17 |", "score": 0.4083, "match_basis": "verbatim_token+domain_route:BS"}, {"md_atom_id": "md_dmBS_ex_a013", "md_file": "knowledge_base/domains/BS/examples.md", "md_atom_type": "TABLE_ROW", "md_parent_section": "§BS.1 [Example 1]", "md_verbatim": "| 1 | A12345 | BS | 43871 | 1 | 1148.26704 | A260/A230 | A260/A230 | QUALITY CONTROL | 2.05 | 2.05 | 2.05 | 2.16.090.1.135764.3.4.7280912 | Deluxe Central Labs | rRNA | SPECTROPHOTOMETRY | 1000450001 | Baseline | 1 | 1 | 2005-03-21T11:28:17 |", "score": 0.4082, "match_basis": "verbatim_token+domain_route:BS"}, {"md_atom_id": "md_dmBS_ex_a016", "md_file": "knowledge_base/domains/BS/examples.md", "md_atom_type": "TABLE_ROW", "md_parent_section": "§BS.1 [Example 1]", "md_verbatim": "| 4 | A12345 | BS | 43871 | 4 | 1148.26704 | RIN | RNA INTEGRITY NUMBER | QUALITY CONTROL | 9.5 | 9.5 | 9.5 | 2.16.090.1.135764.3.4.7280912 | Deluxe Central Labs | rRNA | ELECTROPHORESIS | 1000450001 | Baseline | 1 | 1 | 2005-03-21T11:28:17 |", "score": 0.4079, "match_basis": "verbatim_token+domain_route:BS"}, {"md_atom_id": "md_dmBS_ex_a012", "md_file": "knowledge_base/domains/BS/examples.md", "md_atom_type": "TABLE_HEADER", "md_parent_section": "§BS.1 [Example 1]", "md_verbatim": "| Row | STUDYID | DOMAIN | USUBJID | BSSEQ | BSREFID | BSTESTCD | BSTEST | BSCAT | BSORRES | BSSTRESC | BSSTRESN | BSXFN | BSNAM | BSSPEC | BSMETHOD | BSRUNID | VISIT | VISITNUM | VISITDY | BSDTC |\n|-----|---------|--------|---------|-------|---------|----------|--------|-------|---------|----------|----------|-------|-------|--------|----------|---------|-------|----------|---------|-------|", "score": 0.3812, "match_basis": "verbatim_token+domain_route:BS"}], "candidate_count": 5, "zero_candidate": false}
{"pdf_atom_id": "ig34_p0196_a027", "pdf_atom_type": "TABLE_ROW", "pdf_source": "SDTMIG_v3.4", "pdf_page": 196, "pdf_parent_section": "§6.3.5.2 Biospecimen Findings (BS)", "pdf_verbatim": "| SPDEVID | Sponsor Device Identifier | Char |  | Identifier | Sponsor-defined identifier for a device. | Perm |", "figure_ref": null, "candidates": [{"md_atom_id": "md_dmBS_ex_a015", "md_file": "knowledge_base/domains/BS/examples.md", "md_atom_type": "TABLE_ROW", "md_parent_section": "§BS.1 [Example 1]", "md_verbatim": "| 3 | A12345 | BS | 43871 | 3 | 1148.26704 | 28S/18S | 28S/18S | QUALITY CONTROL | 1.2 | 1.2 | 1.2 | 2.16.090.1.135764.3.4.7280912 | Deluxe Central Labs | rRNA | ELECTROPHORESIS | 1000450001 | Baseline | 1 | 1 | 2005-03-21T11:28:17 |", "score": 0.4115, "match_basis": "verbatim_token+domain_route:BS"}, {"md_atom_id": "md_dmBS_ex_a014", "md_file": "knowledge_base/domains/BS/examples.md", "md_atom_type": "TABLE_ROW", "md_parent_section": "§BS.1 [Example 1]", "md_verbatim": "| 2 | A12345 | BS | 43871 | 2 | 1148.26704 | A260/A280 | A260/A280 | QUALITY CONTROL | 2 | 2 | 2 | 2.16.090.1.135764.3.4.7280912 | Deluxe Central Labs | rRNA | SPECTROPHOTOMETRY | 1000450001 | Baseline | 1 | 1 | 2005-03-21T11:28:17 |", "score": 0.4112, "match_basis": "verbatim_token+domain_route:BS"}, {"md_atom_id": "md_dmBS_ex_a013", "md_file": "knowledge_base/domains/BS/examples.md", "md_atom_type": "TABLE_ROW", "md_parent_section": "§BS.1 [Example 1]", "md_verbatim": "| 1 | A12345 | BS | 43871 | 1 | 1148.26704 | A260/A230 | A260/A230 | QUALITY CONTROL | 2.05 | 2.05 | 2.05 | 2.16.090.1.135764.3.4.7280912 | Deluxe Central Labs | rRNA | SPECTROPHOTOMETRY | 1000450001 | Baseline | 1 | 1 | 2005-03-21T11:28:17 |", "score": 0.4111, "match_basis": "verbatim_token+domain_route:BS"}, {"md_atom_id": "md_dmBS_ex_a016", "md_file": "knowledge_base/domains/BS/examples.md", "md_atom_type": "TABLE_ROW", "md_parent_section": "§BS.1 [Example 1]", "md_verbatim": "| 4 | A12345 | BS | 43871 | 4 | 1148.26704 | RIN | RNA INTEGRITY NUMBER | QUALITY CONTROL | 9.5 | 9.5 | 9.5 | 2.16.090.1.135764.3.4.7280912 | Deluxe Central Labs | rRNA | ELECTROPHORESIS | 1000450001 | Baseline | 1 | 1 | 2005-03-21T11:28:17 |", "score": 0.4106, "match_basis": "verbatim_token+domain_route:BS"}, {"md_atom_id": "md_dmBS_ex_a012", "md_file": "knowledge_base/domains/BS/examples.md", "md_atom_type": "TABLE_HEADER", "md_parent_section": "§BS.1 [Example 1]", "md_verbatim": "| Row | STUDYID | DOMAIN | USUBJID | BSSEQ | BSREFID | BSTESTCD | BSTEST | BSCAT | BSORRES | BSSTRESC | BSSTRESN | BSXFN | BSNAM | BSSPEC | BSMETHOD | BSRUNID | VISIT | VISITNUM | VISITDY | BSDTC |\n|-----|---------|--------|---------|-------|---------|----------|--------|-------|---------|----------|----------|-------|-------|--------|----------|---------|-------|----------|---------|-------|", "score": 0.352, "match_basis": "verbatim_token+domain_route:BS"}], "candidate_count": 5, "zero_candidate": false}
{"pdf_atom_id": "ig34_p0196_a028", "pdf_atom_type": "TABLE_ROW", "pdf_source": "SDTMIG_v3.4", "pdf_page": 196, "pdf_parent_section": "§6.3.5.2 Biospecimen Findings (BS)", "pdf_verbatim": "| BSSEQ | Sequence Number | Num |  | Identifier | Sequence number given to ensure uniqueness within a dataset for a subject. May be any valid number (including decimals) and does not have to start at 1. | Req |", "figure_ref": null, "candidates": [{"md_atom_id": "md_dmBS_ex_a016", "md_file": "knowledge_base/domains/BS/examples.md", "md_atom_type": "TABLE_ROW", "md_parent_section": "§BS.1 [Example 1]", "md_verbatim": "| 4 | A12345 | BS | 43871 | 4 | 1148.26704 | RIN | RNA INTEGRITY NUMBER | QUALITY CONTROL | 9.5 | 9.5 | 9.5 | 2.16.090.1.135764.3.4.7280912 | Deluxe Central Labs | rRNA | ELECTROPHORESIS | 1000450001 | Baseline | 1 | 1 | 2005-03-21T11:28:17 |", "score": 0.4314, "match_basis": "verbatim_token+domain_route:BS"}, {"md_atom_id": "md_dmBS_ex_a015", "md_file": "knowledge_base/domains/BS/examples.md", "md_atom_type": "TABLE_ROW", "md_parent_section": "§BS.1 [Example 1]", "md_verbatim": "| 3 | A12345 | BS | 43871 | 3 | 1148.26704 | 28S/18S | 28S/18S | QUALITY CONTROL | 1.2 | 1.2 | 1.2 | 2.16.090.1.135764.3.4.7280912 | Deluxe Central Labs | rRNA | ELECTROPHORESIS | 1000450001 | Baseline | 1 | 1 | 2005-03-21T11:28:17 |", "score": 0.4162, "match_basis": "verbatim_token+domain_route:BS"}, {"md_atom_id": "md_dmBS_ex_a014", "md_file": "knowledge_base/domains/BS/examples.md", "md_atom_type": "TABLE_ROW", "md_parent_section": "§BS.1 [Example 1]", "md_verbatim": "| 2 | A12345 | BS | 43871 | 2 | 1148.26704 | A260/A280 | A260/A280 | QUALITY CONTROL | 2 | 2 | 2 | 2.16.090.1.135764.3.4.7280912 | Deluxe Central Labs | rRNA | SPECTROPHOTOMETRY | 1000450001 | Baseline | 1 | 1 | 2005-03-21T11:28:17 |", "score": 0.4159, "match_basis": "verbatim_token+domain_route:BS"}, {"md_atom_id": "md_dmBS_ex_a013", "md_file": "knowledge_base/domains/BS/examples.md", "md_atom_type": "TABLE_ROW", "md_parent_section": "§BS.1 [Example 1]", "md_verbatim": "| 1 | A12345 | BS | 43871 | 1 | 1148.26704 | A260/A230 | A260/A230 | QUALITY CONTROL | 2.05 | 2.05 | 2.05 | 2.16.090.1.135764.3.4.7280912 | Deluxe Central Labs | rRNA | SPECTROPHOTOMETRY | 1000450001 | Baseline | 1 | 1 | 2005-03-21T11:28:17 |", "score": 0.4158, "match_basis": "verbatim_token+domain_route:BS"}, {"md_atom_id": "md_dmBS_ex_a012", "md_file": "knowledge_base/domains/BS/examples.md", "md_atom_type": "TABLE_HEADER", "md_parent_section": "§BS.1 [Example 1]", "md_verbatim": "| Row | STUDYID | DOMAIN | USUBJID | BSSEQ | BSREFID | BSTESTCD | BSTEST | BSCAT | BSORRES | BSSTRESC | BSSTRESN | BSXFN | BSNAM | BSSPEC | BSMETHOD | BSRUNID | VISIT | VISITNUM | VISITDY | BSDTC |\n|-----|---------|--------|---------|-------|---------|----------|--------|-------|---------|----------|----------|-------|-------|--------|----------|---------|-------|----------|---------|-------|", "score": 0.3698, "match_basis": "verbatim_token+domain_route:BS"}], "candidate_count": 5, "zero_candidate": false}
{"pdf_atom_id": "ig34_p0197_a001", "pdf_atom_type": "TABLE_HEADER", "pdf_source": "SDTMIG_v3.4", "pdf_page": 197, "pdf_parent_section": "§6.3.5.2 Biospecimen Findings (BS)", "pdf_verbatim": "| Variable Name | Variable Label | Type | Controlled Terms, Codelist or Format1 | Role | CDISC Notes | Core |", "figure_ref": null, "candidates": [{"md_atom_id": "md_dmBS_ex_a012", "md_file": "knowledge_base/domains/BS/examples.md", "md_atom_type": "TABLE_HEADER", "md_parent_section": "§BS.1 [Example 1]", "md_verbatim": "| Row | STUDYID | DOMAIN | USUBJID | BSSEQ | BSREFID | BSTESTCD | BSTEST | BSCAT | BSORRES | BSSTRESC | BSSTRESN | BSXFN | BSNAM | BSSPEC | BSMETHOD | BSRUNID | VISIT | VISITNUM | VISITDY | BSDTC |\n|-----|---------|--------|---------|-------|---------|----------|--------|-------|---------|----------|----------|-------|-------|--------|----------|---------|-------|----------|---------|-------|", "score": 0.4105, "match_basis": "verbatim_token+domain_route:BS"}, {"md_atom_id": "md_dmBS_ex_a015", "md_file": "knowledge_base/domains/BS/examples.md", "md_atom_type": "TABLE_ROW", "md_parent_section": "§BS.1 [Example 1]", "md_verbatim": "| 3 | A12345 | BS | 43871 | 3 | 1148.26704 | 28S/18S | 28S/18S | QUALITY CONTROL | 1.2 | 1.2 | 1.2 | 2.16.090.1.135764.3.4.7280912 | Deluxe Central Labs | rRNA | ELECTROPHORESIS | 1000450001 | Baseline | 1 | 1 | 2005-03-21T11:28:17 |", "score": 0.3886, "match_basis": "verbatim_token+domain_route:BS"}, {"md_atom_id": "md_dmBS_ex_a016", "md_file": "knowledge_base/domains/BS/examples.md", "md_atom_type": "TABLE_ROW", "md_parent_section": "§BS.1 [Example 1]", "md_verbatim": "| 4 | A12345 | BS | 43871 | 4 | 1148.26704 | RIN | RNA INTEGRITY NUMBER | QUALITY CONTROL | 9.5 | 9.5 | 9.5 | 2.16.090.1.135764.3.4.7280912 | Deluxe Central Labs | rRNA | ELECTROPHORESIS | 1000450001 | Baseline | 1 | 1 | 2005-03-21T11:28:17 |", "score": 0.385, "match_basis": "verbatim_token+domain_route:BS"}, {"md_atom_id": "md_dmBS_ex_a014", "md_file": "knowledge_base/domains/BS/examples.md", "md_atom_type": "TABLE_ROW", "md_parent_section": "§BS.1 [Example 1]", "md_verbatim": "| 2 | A12345 | BS | 43871 | 2 | 1148.26704 | A260/A280 | A260/A280 | QUALITY CONTROL | 2 | 2 | 2 | 2.16.090.1.135764.3.4.7280912 | Deluxe Central Labs | rRNA | SPECTROPHOTOMETRY | 1000450001 | Baseline | 1 | 1 | 2005-03-21T11:28:17 |", "score": 0.3817, "match_basis": "verbatim_token+domain_route:BS"}, {"md_atom_id": "md_dmBS_ex_a013", "md_file": "knowledge_base/domains/BS/examples.md", "md_atom_type": "TABLE_ROW", "md_parent_section": "§BS.1 [Example 1]", "md_verbatim": "| 1 | A12345 | BS | 43871 | 1 | 1148.26704 | A260/A230 | A260/A230 | QUALITY CONTROL | 2.05 | 2.05 | 2.05 | 2.16.090.1.135764.3.4.7280912 | Deluxe Central Labs | rRNA | SPECTROPHOTOMETRY | 1000450001 | Baseline | 1 | 1 | 2005-03-21T11:28:17 |", "score": 0.3814, "match_basis": "verbatim_token+domain_route:BS"}], "candidate_count": 5, "zero_candidate": false}
{"pdf_atom_id": "ig34_p0197_a002", "pdf_atom_type": "TABLE_ROW", "pdf_source": "SDTMIG_v3.4", "pdf_page": 197, "pdf_parent_section": "§6.3.5.2 Biospecimen Findings (BS)", "pdf_verbatim": "| BSGRPID | Group ID | Char |  | Identifier | Optional group identifier; used to link together a block of related records within a subject in a domain. | Perm |", "figure_ref": null, "candidates": [{"md_atom_id": "md_dmBS_ex_a015", "md_file": "knowledge_base/domains/BS/examples.md", "md_atom_type": "TABLE_ROW", "md_parent_section": "§BS.1 [Example 1]", "md_verbatim": "| 3 | A12345 | BS | 43871 | 3 | 1148.26704 | 28S/18S | 28S/18S | QUALITY CONTROL | 1.2 | 1.2 | 1.2 | 2.16.090.1.135764.3.4.7280912 | Deluxe Central Labs | rRNA | ELECTROPHORESIS | 1000450001 | Baseline | 1 | 1 | 2005-03-21T11:28:17 |", "score": 0.4133, "match_basis": "verbatim_token+domain_route:BS"}, {"md_atom_id": "md_dmBS_ex_a014", "md_file": "knowledge_base/domains/BS/examples.md", "md_atom_type": "TABLE_ROW", "md_parent_section": "§BS.1 [Example 1]", "md_verbatim": "| 2 | A12345 | BS | 43871 | 2 | 1148.26704 | A260/A280 | A260/A280 | QUALITY CONTROL | 2 | 2 | 2 | 2.16.090.1.135764.3.4.7280912 | Deluxe Central Labs | rRNA | SPECTROPHOTOMETRY | 1000450001 | Baseline | 1 | 1 | 2005-03-21T11:28:17 |", "score": 0.413, "match_basis": "verbatim_token+domain_route:BS"}, {"md_atom_id": "md_dmBS_ex_a013", "md_file": "knowledge_base/domains/BS/examples.md", "md_atom_type": "TABLE_ROW", "md_parent_section": "§BS.1 [Example 1]", "md_verbatim": "| 1 | A12345 | BS | 43871 | 1 | 1148.26704 | A260/A230 | A260/A230 | QUALITY CONTROL | 2.05 | 2.05 | 2.05 | 2.16.090.1.135764.3.4.7280912 | Deluxe Central Labs | rRNA | SPECTROPHOTOMETRY | 1000450001 | Baseline | 1 | 1 | 2005-03-21T11:28:17 |", "score": 0.4129, "match_basis": "verbatim_token+domain_route:BS"}, {"md_atom_id": "md_dmBS_ex_a016", "md_file": "knowledge_base/domains/BS/examples.md", "md_atom_type": "TABLE_ROW", "md_parent_section": "§BS.1 [Example 1]", "md_verbatim": "| 4 | A12345 | BS | 43871 | 4 | 1148.26704 | RIN | RNA INTEGRITY NUMBER | QUALITY CONTROL | 9.5 | 9.5 | 9.5 | 2.16.090.1.135764.3.4.7280912 | Deluxe Central Labs | rRNA | ELECTROPHORESIS | 1000450001 | Baseline | 1 | 1 | 2005-03-21T11:28:17 |", "score": 0.4125, "match_basis": "verbatim_token+domain_route:BS"}, {"md_atom_id": "md_dmBS_ex_a012", "md_file": "knowledge_base/domains/BS/examples.md", "md_atom_type": "TABLE_HEADER", "md_parent_section": "§BS.1 [Example 1]", "md_verbatim": "| Row | STUDYID | DOMAIN | USUBJID | BSSEQ | BSREFID | BSTESTCD | BSTEST | BSCAT | BSORRES | BSSTRESC | BSSTRESN | BSXFN | BSNAM | BSSPEC | BSMETHOD | BSRUNID | VISIT | VISITNUM | VISITDY | BSDTC |\n|-----|---------|--------|---------|-------|---------|----------|--------|-------|---------|----------|----------|-------|-------|--------|----------|---------|-------|----------|---------|-------|", "score": 0.3731, "match_basis": "verbatim_token+domain_route:BS"}], "candidate_count": 5, "zero_candidate": false}
{"pdf_atom_id": "ig34_p0197_a003", "pdf_atom_type": "TABLE_ROW", "pdf_source": "SDTMIG_v3.4", "pdf_page": 197, "pdf_parent_section": "§6.3.5.2 Biospecimen Findings (BS)", "pdf_verbatim": "| BSREFID | Reference ID | Char |  | Identifier | Internal or external identifier such as lab specimen ID. | Exp |", "figure_ref": null, "candidates": [{"md_atom_id": "md_dmBS_ex_a014", "md_file": "knowledge_base/domains/BS/examples.md", "md_atom_type": "TABLE_ROW", "md_parent_section": "§BS.1 [Example 1]", "md_verbatim": "| 2 | A12345 | BS | 43871 | 2 | 1148.26704 | A260/A280 | A260/A280 | QUALITY CONTROL | 2 | 2 | 2 | 2.16.090.1.135764.3.4.7280912 | Deluxe Central Labs | rRNA | SPECTROPHOTOMETRY | 1000450001 | Baseline | 1 | 1 | 2005-03-21T11:28:17 |", "score": 0.4265, "match_basis": "verbatim_token+domain_route:BS"}, {"md_atom_id": "md_dmBS_ex_a013", "md_file": "knowledge_base/domains/BS/examples.md", "md_atom_type": "TABLE_ROW", "md_parent_section": "§BS.1 [Example 1]", "md_verbatim": "| 1 | A12345 | BS | 43871 | 1 | 1148.26704 | A260/A230 | A260/A230 | QUALITY CONTROL | 2.05 | 2.05 | 2.05 | 2.16.090.1.135764.3.4.7280912 | Deluxe Central Labs | rRNA | SPECTROPHOTOMETRY | 1000450001 | Baseline | 1 | 1 | 2005-03-21T11:28:17 |", "score": 0.4263, "match_basis": "verbatim_token+domain_route:BS"}, {"md_atom_id": "md_dmBS_ex_a016", "md_file": "knowledge_base/domains/BS/examples.md", "md_atom_type": "TABLE_ROW", "md_parent_section": "§BS.1 [Example 1]", "md_verbatim": "| 4 | A12345 | BS | 43871 | 4 | 1148.26704 | RIN | RNA INTEGRITY NUMBER | QUALITY CONTROL | 9.5 | 9.5 | 9.5 | 2.16.090.1.135764.3.4.7280912 | Deluxe Central Labs | rRNA | ELECTROPHORESIS | 1000450001 | Baseline | 1 | 1 | 2005-03-21T11:28:17 |", "score": 0.4252, "match_basis": "verbatim_token+domain_route:BS"}, {"md_atom_id": "md_dmBS_ex_a015", "md_file": "knowledge_base/domains/BS/examples.md", "md_atom_type": "TABLE_ROW", "md_parent_section": "§BS.1 [Example 1]", "md_verbatim": "| 3 | A12345 | BS | 43871 | 3 | 1148.26704 | 28S/18S | 28S/18S | QUALITY CONTROL | 1.2 | 1.2 | 1.2 | 2.16.090.1.135764.3.4.7280912 | Deluxe Central Labs | rRNA | ELECTROPHORESIS | 1000450001 | Baseline | 1 | 1 | 2005-03-21T11:28:17 |", "score": 0.4161, "match_basis": "verbatim_token+domain_route:BS"}, {"md_atom_id": "md_dmBS_ex_a012", "md_file": "knowledge_base/domains/BS/examples.md", "md_atom_type": "TABLE_HEADER", "md_parent_section": "§BS.1 [Example 1]", "md_verbatim": "| Row | STUDYID | DOMAIN | USUBJID | BSSEQ | BSREFID | BSTESTCD | BSTEST | BSCAT | BSORRES | BSSTRESC | BSSTRESN | BSXFN | BSNAM | BSSPEC | BSMETHOD | BSRUNID | VISIT | VISITNUM | VISITDY | BSDTC |\n|-----|---------|--------|---------|-------|---------|----------|--------|-------|---------|----------|----------|-------|-------|--------|----------|---------|-------|----------|---------|-------|", "score": 0.3804, "match_basis": "verbatim_token+domain_route:BS"}], "candidate_count": 5, "zero_candidate": false}
{"pdf_atom_id": "ig34_p0197_a004", "pdf_atom_type": "TABLE_ROW", "pdf_source": "SDTMIG_v3.4", "pdf_page": 197, "pdf_parent_section": "§6.3.5.2 Biospecimen Findings (BS)", "pdf_verbatim": "| BSSPID | Sponsor-Defined Identifier | Char |  | Identifier | Sponsor-defined identifier. | Perm |", "figure_ref": null, "candidates": [{"md_atom_id": "md_dmBS_ex_a015", "md_file": "knowledge_base/domains/BS/examples.md", "md_atom_type": "TABLE_ROW", "md_parent_section": "§BS.1 [Example 1]", "md_verbatim": "| 3 | A12345 | BS | 43871 | 3 | 1148.26704 | 28S/18S | 28S/18S | QUALITY CONTROL | 1.2 | 1.2 | 1.2 | 2.16.090.1.135764.3.4.7280912 | Deluxe Central Labs | rRNA | ELECTROPHORESIS | 1000450001 | Baseline | 1 | 1 | 2005-03-21T11:28:17 |", "score": 0.412, "match_basis": "verbatim_token+domain_route:BS"}, {"md_atom_id": "md_dmBS_ex_a014", "md_file": "knowledge_base/domains/BS/examples.md", "md_atom_type": "TABLE_ROW", "md_parent_section": "§BS.1 [Example 1]", "md_verbatim": "| 2 | A12345 | BS | 43871 | 2 | 1148.26704 | A260/A280 | A260/A280 | QUALITY CONTROL | 2 | 2 | 2 | 2.16.090.1.135764.3.4.7280912 | Deluxe Central Labs | rRNA | SPECTROPHOTOMETRY | 1000450001 | Baseline | 1 | 1 | 2005-03-21T11:28:17 |", "score": 0.4117, "match_basis": "verbatim_token+domain_route:BS"}, {"md_atom_id": "md_dmBS_ex_a013", "md_file": "knowledge_base/domains/BS/examples.md", "md_atom_type": "TABLE_ROW", "md_parent_section": "§BS.1 [Example 1]", "md_verbatim": "| 1 | A12345 | BS | 43871 | 1 | 1148.26704 | A260/A230 | A260/A230 | QUALITY CONTROL | 2.05 | 2.05 | 2.05 | 2.16.090.1.135764.3.4.7280912 | Deluxe Central Labs | rRNA | SPECTROPHOTOMETRY | 1000450001 | Baseline | 1 | 1 | 2005-03-21T11:28:17 |", "score": 0.4115, "match_basis": "verbatim_token+domain_route:BS"}, {"md_atom_id": "md_dmBS_ex_a016", "md_file": "knowledge_base/domains/BS/examples.md", "md_atom_type": "TABLE_ROW", "md_parent_section": "§BS.1 [Example 1]", "md_verbatim": "| 4 | A12345 | BS | 43871 | 4 | 1148.26704 | RIN | RNA INTEGRITY NUMBER | QUALITY CONTROL | 9.5 | 9.5 | 9.5 | 2.16.090.1.135764.3.4.7280912 | Deluxe Central Labs | rRNA | ELECTROPHORESIS | 1000450001 | Baseline | 1 | 1 | 2005-03-21T11:28:17 |", "score": 0.411, "match_basis": "verbatim_token+domain_route:BS"}, {"md_atom_id": "md_dmBS_ex_a012", "md_file": "knowledge_base/domains/BS/examples.md", "md_atom_type": "TABLE_HEADER", "md_parent_section": "§BS.1 [Example 1]", "md_verbatim": "| Row | STUDYID | DOMAIN | USUBJID | BSSEQ | BSREFID | BSTESTCD | BSTEST | BSCAT | BSORRES | BSSTRESC | BSSTRESN | BSXFN | BSNAM | BSSPEC | BSMETHOD | BSRUNID | VISIT | VISITNUM | VISITDY | BSDTC |\n|-----|---------|--------|---------|-------|---------|----------|--------|-------|---------|----------|----------|-------|-------|--------|----------|---------|-------|----------|---------|-------|", "score": 0.3655, "match_basis": "verbatim_token+domain_route:BS"}], "candidate_count": 5, "zero_candidate": false}
{"pdf_atom_id": "ig34_p0197_a005", "pdf_atom_type": "TABLE_ROW", "pdf_source": "SDTMIG_v3.4", "pdf_page": 197, "pdf_parent_section": "§6.3.5.2 Biospecimen Findings (BS)", "pdf_verbatim": "| BSTESTCD | Biospecimen Test Short Name | Char | (BSTESTCD) | Topic | Short character value for BSTEST used as a column name when converting a dataset from a vertical format to a horizontal format. The short value can be up to 8 characters. Examples: VOLUME, RIN. | Req |", "figure_ref": null, "candidates": [{"md_atom_id": "md_dmBS_ex_a014", "md_file": "knowledge_base/domains/BS/examples.md", "md_atom_type": "TABLE_ROW", "md_parent_section": "§BS.1 [Example 1]", "md_verbatim": "| 2 | A12345 | BS | 43871 | 2 | 1148.26704 | A260/A280 | A260/A280 | QUALITY CONTROL | 2 | 2 | 2 | 2.16.090.1.135764.3.4.7280912 | Deluxe Central Labs | rRNA | SPECTROPHOTOMETRY | 1000450001 | Baseline | 1 | 1 | 2005-03-21T11:28:17 |", "score": 0.4191, "match_basis": "verbatim_token+domain_route:BS"}, {"md_atom_id": "md_dmBS_ex_a013", "md_file": "knowledge_base/domains/BS/examples.md", "md_atom_type": "TABLE_ROW", "md_parent_section": "§BS.1 [Example 1]", "md_verbatim": "| 1 | A12345 | BS | 43871 | 1 | 1148.26704 | A260/A230 | A260/A230 | QUALITY CONTROL | 2.05 | 2.05 | 2.05 | 2.16.090.1.135764.3.4.7280912 | Deluxe Central Labs | rRNA | SPECTROPHOTOMETRY | 1000450001 | Baseline | 1 | 1 | 2005-03-21T11:28:17 |", "score": 0.419, "match_basis": "verbatim_token+domain_route:BS"}, {"md_atom_id": "md_dmBS_ex_a016", "md_file": "knowledge_base/domains/BS/examples.md", "md_atom_type": "TABLE_ROW", "md_parent_section": "§BS.1 [Example 1]", "md_verbatim": "| 4 | A12345 | BS | 43871 | 4 | 1148.26704 | RIN | RNA INTEGRITY NUMBER | QUALITY CONTROL | 9.5 | 9.5 | 9.5 | 2.16.090.1.135764.3.4.7280912 | Deluxe Central Labs | rRNA | ELECTROPHORESIS | 1000450001 | Baseline | 1 | 1 | 2005-03-21T11:28:17 |", "score": 0.4184, "match_basis": "verbatim_token+domain_route:BS"}, {"md_atom_id": "md_dmBS_ex_a015", "md_file": "knowledge_base/domains/BS/examples.md", "md_atom_type": "TABLE_ROW", "md_parent_section": "§BS.1 [Example 1]", "md_verbatim": "| 3 | A12345 | BS | 43871 | 3 | 1148.26704 | 28S/18S | 28S/18S | QUALITY CONTROL | 1.2 | 1.2 | 1.2 | 2.16.090.1.135764.3.4.7280912 | Deluxe Central Labs | rRNA | ELECTROPHORESIS | 1000450001 | Baseline | 1 | 1 | 2005-03-21T11:28:17 |", "score": 0.4155, "match_basis": "verbatim_token+domain_route:BS"}, {"md_atom_id": "md_dmBS_ex_a012", "md_file": "knowledge_base/domains/BS/examples.md", "md_atom_type": "TABLE_HEADER", "md_parent_section": "§BS.1 [Example 1]", "md_verbatim": "| Row | STUDYID | DOMAIN | USUBJID | BSSEQ | BSREFID | BSTESTCD | BSTEST | BSCAT | BSORRES | BSSTRESC | BSSTRESN | BSXFN | BSNAM | BSSPEC | BSMETHOD | BSRUNID | VISIT | VISITNUM | VISITDY | BSDTC |\n|-----|---------|--------|---------|-------|---------|----------|--------|-------|---------|----------|----------|-------|-------|--------|----------|---------|-------|----------|---------|-------|", "score": 0.377, "match_basis": "verbatim_token+domain_route:BS"}], "candidate_count": 5, "zero_candidate": false}
{"pdf_atom_id": "ig34_p0197_a006", "pdf_atom_type": "TABLE_ROW", "pdf_source": "SDTMIG_v3.4", "pdf_page": 197, "pdf_parent_section": "§6.3.5.2 Biospecimen Findings (BS)", "pdf_verbatim": "| BSTEST | Biospecimen Test Name | Char | (BSTEST) | Synonym Qualifier | Long name for BSTESTCD. Examples: Volume, RNA Integrity Number. | Req |", "figure_ref": null, "candidates": [{"md_atom_id": "md_dmBS_ex_a016", "md_file": "knowledge_base/domains/BS/examples.md", "md_atom_type": "TABLE_ROW", "md_parent_section": "§BS.1 [Example 1]", "md_verbatim": "| 4 | A12345 | BS | 43871 | 4 | 1148.26704 | RIN | RNA INTEGRITY NUMBER | QUALITY CONTROL | 9.5 | 9.5 | 9.5 | 2.16.090.1.135764.3.4.7280912 | Deluxe Central Labs | rRNA | ELECTROPHORESIS | 1000450001 | Baseline | 1 | 1 | 2005-03-21T11:28:17 |", "score": 0.4709, "match_basis": "verbatim_token+domain_route:BS"}, {"md_atom_id": "md_dmBS_ex_a014", "md_file": "knowledge_base/domains/BS/examples.md", "md_atom_type": "TABLE_ROW", "md_parent_section": "§BS.1 [Example 1]", "md_verbatim": "| 2 | A12345 | BS | 43871 | 2 | 1148.26704 | A260/A280 | A260/A280 | QUALITY CONTROL | 2 | 2 | 2 | 2.16.090.1.135764.3.4.7280912 | Deluxe Central Labs | rRNA | SPECTROPHOTOMETRY | 1000450001 | Baseline | 1 | 1 | 2005-03-21T11:28:17 |", "score": 0.4326, "match_basis": "verbatim_token+domain_route:BS"}, {"md_atom_id": "md_dmBS_ex_a013", "md_file": "knowledge_base/domains/BS/examples.md", "md_atom_type": "TABLE_ROW", "md_parent_section": "§BS.1 [Example 1]", "md_verbatim": "| 1 | A12345 | BS | 43871 | 1 | 1148.26704 | A260/A230 | A260/A230 | QUALITY CONTROL | 2.05 | 2.05 | 2.05 | 2.16.090.1.135764.3.4.7280912 | Deluxe Central Labs | rRNA | SPECTROPHOTOMETRY | 1000450001 | Baseline | 1 | 1 | 2005-03-21T11:28:17 |", "score": 0.4323, "match_basis": "verbatim_token+domain_route:BS"}, {"md_atom_id": "md_dmBS_ex_a015", "md_file": "knowledge_base/domains/BS/examples.md", "md_atom_type": "TABLE_ROW", "md_parent_section": "§BS.1 [Example 1]", "md_verbatim": "| 3 | A12345 | BS | 43871 | 3 | 1148.26704 | 28S/18S | 28S/18S | QUALITY CONTROL | 1.2 | 1.2 | 1.2 | 2.16.090.1.135764.3.4.7280912 | Deluxe Central Labs | rRNA | ELECTROPHORESIS | 1000450001 | Baseline | 1 | 1 | 2005-03-21T11:28:17 |", "score": 0.4234, "match_basis": "verbatim_token+domain_route:BS"}, {"md_atom_id": "md_dmBS_ex_a012", "md_file": "knowledge_base/domains/BS/examples.md", "md_atom_type": "TABLE_HEADER", "md_parent_section": "§BS.1 [Example 1]", "md_verbatim": "| Row | STUDYID | DOMAIN | USUBJID | BSSEQ | BSREFID | BSTESTCD | BSTEST | BSCAT | BSORRES | BSSTRESC | BSSTRESN | BSXFN | BSNAM | BSSPEC | BSMETHOD | BSRUNID | VISIT | VISITNUM | VISITDY | BSDTC |\n|-----|---------|--------|---------|-------|---------|----------|--------|-------|---------|----------|----------|-------|-------|--------|----------|---------|-------|----------|---------|-------|", "score": 0.3904, "match_basis": "verbatim_token+domain_route:BS"}], "candidate_count": 5, "zero_candidate": false}
{"pdf_atom_id": "ig34_p0197_a007", "pdf_atom_type": "TABLE_ROW", "pdf_source": "SDTMIG_v3.4", "pdf_page": 197, "pdf_parent_section": "§6.3.5.2 Biospecimen Findings (BS)", "pdf_verbatim": "| BSCAT | Category for Biospecimen Test | Char |  | Grouping Qualifier | Used to define a category of topic-variable values. Example: MEASUREMENT, QUALITY. | Exp |", "figure_ref": null, "candidates": [{"md_atom_id": "md_dmBS_ex_a014", "md_file": "knowledge_base/domains/BS/examples.md", "md_atom_type": "TABLE_ROW", "md_parent_section": "§BS.1 [Example 1]", "md_verbatim": "| 2 | A12345 | BS | 43871 | 2 | 1148.26704 | A260/A280 | A260/A280 | QUALITY CONTROL | 2 | 2 | 2 | 2.16.090.1.135764.3.4.7280912 | Deluxe Central Labs | rRNA | SPECTROPHOTOMETRY | 1000450001 | Baseline | 1 | 1 | 2005-03-21T11:28:17 |", "score": 0.4386, "match_basis": "verbatim_token+domain_route:BS"}, {"md_atom_id": "md_dmBS_ex_a013", "md_file": "knowledge_base/domains/BS/examples.md", "md_atom_type": "TABLE_ROW", "md_parent_section": "§BS.1 [Example 1]", "md_verbatim": "| 1 | A12345 | BS | 43871 | 1 | 1148.26704 | A260/A230 | A260/A230 | QUALITY CONTROL | 2.05 | 2.05 | 2.05 | 2.16.090.1.135764.3.4.7280912 | Deluxe Central Labs | rRNA | SPECTROPHOTOMETRY | 1000450001 | Baseline | 1 | 1 | 2005-03-21T11:28:17 |", "score": 0.4383, "match_basis": "verbatim_token+domain_route:BS"}, {"md_atom_id": "md_dmBS_ex_a016", "md_file": "knowledge_base/domains/BS/examples.md", "md_atom_type": "TABLE_ROW", "md_parent_section": "§BS.1 [Example 1]", "md_verbatim": "| 4 | A12345 | BS | 43871 | 4 | 1148.26704 | RIN | RNA INTEGRITY NUMBER | QUALITY CONTROL | 9.5 | 9.5 | 9.5 | 2.16.090.1.135764.3.4.7280912 | Deluxe Central Labs | rRNA | ELECTROPHORESIS | 1000450001 | Baseline | 1 | 1 | 2005-03-21T11:28:17 |", "score": 0.4327, "match_basis": "verbatim_token+domain_route:BS"}, {"md_atom_id": "md_dmBS_ex_a015", "md_file": "knowledge_base/domains/BS/examples.md", "md_atom_type": "TABLE_ROW", "md_parent_section": "§BS.1 [Example 1]", "md_verbatim": "| 3 | A12345 | BS | 43871 | 3 | 1148.26704 | 28S/18S | 28S/18S | QUALITY CONTROL | 1.2 | 1.2 | 1.2 | 2.16.090.1.135764.3.4.7280912 | Deluxe Central Labs | rRNA | ELECTROPHORESIS | 1000450001 | Baseline | 1 | 1 | 2005-03-21T11:28:17 |", "score": 0.4302, "match_basis": "verbatim_token+domain_route:BS"}, {"md_atom_id": "md_dmBS_ex_a012", "md_file": "knowledge_base/domains/BS/examples.md", "md_atom_type": "TABLE_HEADER", "md_parent_section": "§BS.1 [Example 1]", "md_verbatim": "| Row | STUDYID | DOMAIN | USUBJID | BSSEQ | BSREFID | BSTESTCD | BSTEST | BSCAT | BSORRES | BSSTRESC | BSSTRESN | BSXFN | BSNAM | BSSPEC | BSMETHOD | BSRUNID | VISIT | VISITNUM | VISITDY | BSDTC |\n|-----|---------|--------|---------|-------|---------|----------|--------|-------|---------|----------|----------|-------|-------|--------|----------|---------|-------|----------|---------|-------|", "score": 0.3758, "match_basis": "verbatim_token+domain_route:BS"}], "candidate_count": 5, "zero_candidate": false}
{"pdf_atom_id": "ig34_p0197_a008", "pdf_atom_type": "TABLE_ROW", "pdf_source": "SDTMIG_v3.4", "pdf_page": 197, "pdf_parent_section": "§6.3.5.2 Biospecimen Findings (BS)", "pdf_verbatim": "| BSSCAT | Subcategory for Biospecimen Test | Char |  | Grouping Qualifier | Used to define a further categorization of BSCAT values. | Perm |", "figure_ref": null, "candidates": [{"md_atom_id": "md_dmBS_ex_a014", "md_file": "knowledge_base/domains/BS/examples.md", "md_atom_type": "TABLE_ROW", "md_parent_section": "§BS.1 [Example 1]", "md_verbatim": "| 2 | A12345 | BS | 43871 | 2 | 1148.26704 | A260/A280 | A260/A280 | QUALITY CONTROL | 2 | 2 | 2 | 2.16.090.1.135764.3.4.7280912 | Deluxe Central Labs | rRNA | SPECTROPHOTOMETRY | 1000450001 | Baseline | 1 | 1 | 2005-03-21T11:28:17 |", "score": 0.4263, "match_basis": "verbatim_token+domain_route:BS"}, {"md_atom_id": "md_dmBS_ex_a013", "md_file": "knowledge_base/domains/BS/examples.md", "md_atom_type": "TABLE_ROW", "md_parent_section": "§BS.1 [Example 1]", "md_verbatim": "| 1 | A12345 | BS | 43871 | 1 | 1148.26704 | A260/A230 | A260/A230 | QUALITY CONTROL | 2.05 | 2.05 | 2.05 | 2.16.090.1.135764.3.4.7280912 | Deluxe Central Labs | rRNA | SPECTROPHOTOMETRY | 1000450001 | Baseline | 1 | 1 | 2005-03-21T11:28:17 |", "score": 0.4261, "match_basis": "verbatim_token+domain_route:BS"}, {"md_atom_id": "md_dmBS_ex_a016", "md_file": "knowledge_base/domains/BS/examples.md", "md_atom_type": "TABLE_ROW", "md_parent_section": "§BS.1 [Example 1]", "md_verbatim": "| 4 | A12345 | BS | 43871 | 4 | 1148.26704 | RIN | RNA INTEGRITY NUMBER | QUALITY CONTROL | 9.5 | 9.5 | 9.5 | 2.16.090.1.135764.3.4.7280912 | Deluxe Central Labs | rRNA | ELECTROPHORESIS | 1000450001 | Baseline | 1 | 1 | 2005-03-21T11:28:17 |", "score": 0.4208, "match_basis": "verbatim_token+domain_route:BS"}, {"md_atom_id": "md_dmBS_ex_a015", "md_file": "knowledge_base/domains/BS/examples.md", "md_atom_type": "TABLE_ROW", "md_parent_section": "§BS.1 [Example 1]", "md_verbatim": "| 3 | A12345 | BS | 43871 | 3 | 1148.26704 | 28S/18S | 28S/18S | QUALITY CONTROL | 1.2 | 1.2 | 1.2 | 2.16.090.1.135764.3.4.7280912 | Deluxe Central Labs | rRNA | ELECTROPHORESIS | 1000450001 | Baseline | 1 | 1 | 2005-03-21T11:28:17 |", "score": 0.4176, "match_basis": "verbatim_token+domain_route:BS"}, {"md_atom_id": "md_dmBS_ex_a012", "md_file": "knowledge_base/domains/BS/examples.md", "md_atom_type": "TABLE_HEADER", "md_parent_section": "§BS.1 [Example 1]", "md_verbatim": "| Row | STUDYID | DOMAIN | USUBJID | BSSEQ | BSREFID | BSTESTCD | BSTEST | BSCAT | BSORRES | BSSTRESC | BSSTRESN | BSXFN | BSNAM | BSSPEC | BSMETHOD | BSRUNID | VISIT | VISITNUM | VISITDY | BSDTC |\n|-----|---------|--------|---------|-------|---------|----------|--------|-------|---------|----------|----------|-------|-------|--------|----------|---------|-------|----------|---------|-------|", "score": 0.3876, "match_basis": "verbatim_token+domain_route:BS"}], "candidate_count": 5, "zero_candidate": false}
{"pdf_atom_id": "ig34_p0197_a009", "pdf_atom_type": "TABLE_ROW", "pdf_source": "SDTMIG_v3.4", "pdf_page": 197, "pdf_parent_section": "§6.3.5.2 Biospecimen Findings (BS)", "pdf_verbatim": "| BSORRES | Result or Finding in Original Units | Char |  | Result Qualifier | Result of the measurement or finding as originally received or collected. | Exp |", "figure_ref": null, "candidates": [{"md_atom_id": "md_dmBS_ex_a015", "md_file": "knowledge_base/domains/BS/examples.md", "md_atom_type": "TABLE_ROW", "md_parent_section": "§BS.1 [Example 1]", "md_verbatim": "| 3 | A12345 | BS | 43871 | 3 | 1148.26704 | 28S/18S | 28S/18S | QUALITY CONTROL | 1.2 | 1.2 | 1.2 | 2.16.090.1.135764.3.4.7280912 | Deluxe Central Labs | rRNA | ELECTROPHORESIS | 1000450001 | Baseline | 1 | 1 | 2005-03-21T11:28:17 |", "score": 0.4333, "match_basis": "verbatim_token+domain_route:BS"}, {"md_atom_id": "md_dmBS_ex_a016", "md_file": "knowledge_base/domains/BS/examples.md", "md_atom_type": "TABLE_ROW", "md_parent_section": "§BS.1 [Example 1]", "md_verbatim": "| 4 | A12345 | BS | 43871 | 4 | 1148.26704 | RIN | RNA INTEGRITY NUMBER | QUALITY CONTROL | 9.5 | 9.5 | 9.5 | 2.16.090.1.135764.3.4.7280912 | Deluxe Central Labs | rRNA | ELECTROPHORESIS | 1000450001 | Baseline | 1 | 1 | 2005-03-21T11:28:17 |", "score": 0.4311, "match_basis": "verbatim_token+domain_route:BS"}, {"md_atom_id": "md_dmBS_ex_a014", "md_file": "knowledge_base/domains/BS/examples.md", "md_atom_type": "TABLE_ROW", "md_parent_section": "§BS.1 [Example 1]", "md_verbatim": "| 2 | A12345 | BS | 43871 | 2 | 1148.26704 | A260/A280 | A260/A280 | QUALITY CONTROL | 2 | 2 | 2 | 2.16.090.1.135764.3.4.7280912 | Deluxe Central Labs | rRNA | SPECTROPHOTOMETRY | 1000450001 | Baseline | 1 | 1 | 2005-03-21T11:28:17 |", "score": 0.4229, "match_basis": "verbatim_token+domain_route:BS"}, {"md_atom_id": "md_dmBS_ex_a013", "md_file": "knowledge_base/domains/BS/examples.md", "md_atom_type": "TABLE_ROW", "md_parent_section": "§BS.1 [Example 1]", "md_verbatim": "| 1 | A12345 | BS | 43871 | 1 | 1148.26704 | A260/A230 | A260/A230 | QUALITY CONTROL | 2.05 | 2.05 | 2.05 | 2.16.090.1.135764.3.4.7280912 | Deluxe Central Labs | rRNA | SPECTROPHOTOMETRY | 1000450001 | Baseline | 1 | 1 | 2005-03-21T11:28:17 |", "score": 0.4227, "match_basis": "verbatim_token+domain_route:BS"}, {"md_atom_id": "md_dmBS_ex_a012", "md_file": "knowledge_base/domains/BS/examples.md", "md_atom_type": "TABLE_HEADER", "md_parent_section": "§BS.1 [Example 1]", "md_verbatim": "| Row | STUDYID | DOMAIN | USUBJID | BSSEQ | BSREFID | BSTESTCD | BSTEST | BSCAT | BSORRES | BSSTRESC | BSSTRESN | BSXFN | BSNAM | BSSPEC | BSMETHOD | BSRUNID | VISIT | VISITNUM | VISITDY | BSDTC |\n|-----|---------|--------|---------|-------|---------|----------|--------|-------|---------|----------|----------|-------|-------|--------|----------|---------|-------|----------|---------|-------|", "score": 0.3693, "match_basis": "verbatim_token+domain_route:BS"}], "candidate_count": 5, "zero_candidate": false}
{"pdf_atom_id": "ig34_p0197_a010", "pdf_atom_type": "TABLE_ROW", "pdf_source": "SDTMIG_v3.4", "pdf_page": 197, "pdf_parent_section": "§6.3.5.2 Biospecimen Findings (BS)", "pdf_verbatim": "| BSORRESU | Original Units | Char | (UNIT) | Variable Qualifier | Unit for BSORRES. Examples: mg, mL. | Exp |", "figure_ref": null, "candidates": [{"md_atom_id": "md_dmBS_ex_a015", "md_file": "knowledge_base/domains/BS/examples.md", "md_atom_type": "TABLE_ROW", "md_parent_section": "§BS.1 [Example 1]", "md_verbatim": "| 3 | A12345 | BS | 43871 | 3 | 1148.26704 | 28S/18S | 28S/18S | QUALITY CONTROL | 1.2 | 1.2 | 1.2 | 2.16.090.1.135764.3.4.7280912 | Deluxe Central Labs | rRNA | ELECTROPHORESIS | 1000450001 | Baseline | 1 | 1 | 2005-03-21T11:28:17 |", "score": 0.4218, "match_basis": "verbatim_token+domain_route:BS"}, {"md_atom_id": "md_dmBS_ex_a016", "md_file": "knowledge_base/domains/BS/examples.md", "md_atom_type": "TABLE_ROW", "md_parent_section": "§BS.1 [Example 1]", "md_verbatim": "| 4 | A12345 | BS | 43871 | 4 | 1148.26704 | RIN | RNA INTEGRITY NUMBER | QUALITY CONTROL | 9.5 | 9.5 | 9.5 | 2.16.090.1.135764.3.4.7280912 | Deluxe Central Labs | rRNA | ELECTROPHORESIS | 1000450001 | Baseline | 1 | 1 | 2005-03-21T11:28:17 |", "score": 0.4202, "match_basis": "verbatim_token+domain_route:BS"}, {"md_atom_id": "md_dmBS_ex_a014", "md_file": "knowledge_base/domains/BS/examples.md", "md_atom_type": "TABLE_ROW", "md_parent_section": "§BS.1 [Example 1]", "md_verbatim": "| 2 | A12345 | BS | 43871 | 2 | 1148.26704 | A260/A280 | A260/A280 | QUALITY CONTROL | 2 | 2 | 2 | 2.16.090.1.135764.3.4.7280912 | Deluxe Central Labs | rRNA | SPECTROPHOTOMETRY | 1000450001 | Baseline | 1 | 1 | 2005-03-21T11:28:17 |", "score": 0.4158, "match_basis": "verbatim_token+domain_route:BS"}, {"md_atom_id": "md_dmBS_ex_a013", "md_file": "knowledge_base/domains/BS/examples.md", "md_atom_type": "TABLE_ROW", "md_parent_section": "§BS.1 [Example 1]", "md_verbatim": "| 1 | A12345 | BS | 43871 | 1 | 1148.26704 | A260/A230 | A260/A230 | QUALITY CONTROL | 2.05 | 2.05 | 2.05 | 2.16.090.1.135764.3.4.7280912 | Deluxe Central Labs | rRNA | SPECTROPHOTOMETRY | 1000450001 | Baseline | 1 | 1 | 2005-03-21T11:28:17 |", "score": 0.4157, "match_basis": "verbatim_token+domain_route:BS"}, {"md_atom_id": "md_dmBS_ex_a012", "md_file": "knowledge_base/domains/BS/examples.md", "md_atom_type": "TABLE_HEADER", "md_parent_section": "§BS.1 [Example 1]", "md_verbatim": "| Row | STUDYID | DOMAIN | USUBJID | BSSEQ | BSREFID | BSTESTCD | BSTEST | BSCAT | BSORRES | BSSTRESC | BSSTRESN | BSXFN | BSNAM | BSSPEC | BSMETHOD | BSRUNID | VISIT | VISITNUM | VISITDY | BSDTC |\n|-----|---------|--------|---------|-------|---------|----------|--------|-------|---------|----------|----------|-------|-------|--------|----------|---------|-------|----------|---------|-------|", "score": 0.3746, "match_basis": "verbatim_token+domain_route:BS"}], "candidate_count": 5, "zero_candidate": false}
{"pdf_atom_id": "ig34_p0197_a011", "pdf_atom_type": "TABLE_ROW", "pdf_source": "SDTMIG_v3.4", "pdf_page": 197, "pdf_parent_section": "§6.3.5.2 Biospecimen Findings (BS)", "pdf_verbatim": "| BSSTRESC | Character Result/Finding in Std Format | Char |  | Result Qualifier | Contains the result value for all findings, copied or derived from BSORRES in a standard format or standard units. BSSTRESC should store all results or findings in character format; if results are numeric, they should also be stored in numeric format in BSSTRESN. | Exp |", "figure_ref": null, "candidates": [{"md_atom_id": "md_dmBS_ex_a016", "md_file": "knowledge_base/domains/BS/examples.md", "md_atom_type": "TABLE_ROW", "md_parent_section": "§BS.1 [Example 1]", "md_verbatim": "| 4 | A12345 | BS | 43871 | 4 | 1148.26704 | RIN | RNA INTEGRITY NUMBER | QUALITY CONTROL | 9.5 | 9.5 | 9.5 | 2.16.090.1.135764.3.4.7280912 | Deluxe Central Labs | rRNA | ELECTROPHORESIS | 1000450001 | Baseline | 1 | 1 | 2005-03-21T11:28:17 |", "score": 0.4291, "match_basis": "verbatim_token+domain_route:BS"}, {"md_atom_id": "md_dmBS_ex_a015", "md_file": "knowledge_base/domains/BS/examples.md", "md_atom_type": "TABLE_ROW", "md_parent_section": "§BS.1 [Example 1]", "md_verbatim": "| 3 | A12345 | BS | 43871 | 3 | 1148.26704 | 28S/18S | 28S/18S | QUALITY CONTROL | 1.2 | 1.2 | 1.2 | 2.16.090.1.135764.3.4.7280912 | Deluxe Central Labs | rRNA | ELECTROPHORESIS | 1000450001 | Baseline | 1 | 1 | 2005-03-21T11:28:17 |", "score": 0.4268, "match_basis": "verbatim_token+domain_route:BS"}, {"md_atom_id": "md_dmBS_ex_a014", "md_file": "knowledge_base/domains/BS/examples.md", "md_atom_type": "TABLE_ROW", "md_parent_section": "§BS.1 [Example 1]", "md_verbatim": "| 2 | A12345 | BS | 43871 | 2 | 1148.26704 | A260/A280 | A260/A280 | QUALITY CONTROL | 2 | 2 | 2 | 2.16.090.1.135764.3.4.7280912 | Deluxe Central Labs | rRNA | SPECTROPHOTOMETRY | 1000450001 | Baseline | 1 | 1 | 2005-03-21T11:28:17 |", "score": 0.4185, "match_basis": "verbatim_token+domain_route:BS"}, {"md_atom_id": "md_dmBS_ex_a013", "md_file": "knowledge_base/domains/BS/examples.md", "md_atom_type": "TABLE_ROW", "md_parent_section": "§BS.1 [Example 1]", "md_verbatim": "| 1 | A12345 | BS | 43871 | 1 | 1148.26704 | A260/A230 | A260/A230 | QUALITY CONTROL | 2.05 | 2.05 | 2.05 | 2.16.090.1.135764.3.4.7280912 | Deluxe Central Labs | rRNA | SPECTROPHOTOMETRY | 1000450001 | Baseline | 1 | 1 | 2005-03-21T11:28:17 |", "score": 0.4184, "match_basis": "verbatim_token+domain_route:BS"}, {"md_atom_id": "md_dmBS_ex_a012", "md_file": "knowledge_base/domains/BS/examples.md", "md_atom_type": "TABLE_HEADER", "md_parent_section": "§BS.1 [Example 1]", "md_verbatim": "| Row | STUDYID | DOMAIN | USUBJID | BSSEQ | BSREFID | BSTESTCD | BSTEST | BSCAT | BSORRES | BSSTRESC | BSSTRESN | BSXFN | BSNAM | BSSPEC | BSMETHOD | BSRUNID | VISIT | VISITNUM | VISITDY | BSDTC |\n|-----|---------|--------|---------|-------|---------|----------|--------|-------|---------|----------|----------|-------|-------|--------|----------|---------|-------|----------|---------|-------|", "score": 0.3975, "match_basis": "verbatim_token+domain_route:BS"}], "candidate_count": 5, "zero_candidate": false}
{"pdf_atom_id": "ig34_p0197_a012", "pdf_atom_type": "TABLE_ROW", "pdf_source": "SDTMIG_v3.4", "pdf_page": 197, "pdf_parent_section": "§6.3.5.2 Biospecimen Findings (BS)", "pdf_verbatim": "| BSSTRESN | Numeric Result/Finding in Standard Units | Num |  | Result Qualifier | Used for continuous or numeric results or findings in standard format; copied in numeric format from BSSTRESC. BSSTRESN should store all numeric test results or findings. | Exp |", "figure_ref": null, "candidates": [{"md_atom_id": "md_dmBS_ex_a016", "md_file": "knowledge_base/domains/BS/examples.md", "md_atom_type": "TABLE_ROW", "md_parent_section": "§BS.1 [Example 1]", "md_verbatim": "| 4 | A12345 | BS | 43871 | 4 | 1148.26704 | RIN | RNA INTEGRITY NUMBER | QUALITY CONTROL | 9.5 | 9.5 | 9.5 | 2.16.090.1.135764.3.4.7280912 | Deluxe Central Labs | rRNA | ELECTROPHORESIS | 1000450001 | Baseline | 1 | 1 | 2005-03-21T11:28:17 |", "score": 0.4329, "match_basis": "verbatim_token+domain_route:BS"}, {"md_atom_id": "md_dmBS_ex_a015", "md_file": "knowledge_base/domains/BS/examples.md", "md_atom_type": "TABLE_ROW", "md_parent_section": "§BS.1 [Example 1]", "md_verbatim": "| 3 | A12345 | BS | 43871 | 3 | 1148.26704 | 28S/18S | 28S/18S | QUALITY CONTROL | 1.2 | 1.2 | 1.2 | 2.16.090.1.135764.3.4.7280912 | Deluxe Central Labs | rRNA | ELECTROPHORESIS | 1000450001 | Baseline | 1 | 1 | 2005-03-21T11:28:17 |", "score": 0.4304, "match_basis": "verbatim_token+domain_route:BS"}, {"md_atom_id": "md_dmBS_ex_a014", "md_file": "knowledge_base/domains/BS/examples.md", "md_atom_type": "TABLE_ROW", "md_parent_section": "§BS.1 [Example 1]", "md_verbatim": "| 2 | A12345 | BS | 43871 | 2 | 1148.26704 | A260/A280 | A260/A280 | QUALITY CONTROL | 2 | 2 | 2 | 2.16.090.1.135764.3.4.7280912 | Deluxe Central Labs | rRNA | SPECTROPHOTOMETRY | 1000450001 | Baseline | 1 | 1 | 2005-03-21T11:28:17 |", "score": 0.421, "match_basis": "verbatim_token+domain_route:BS"}, {"md_atom_id": "md_dmBS_ex_a013", "md_file": "knowledge_base/domains/BS/examples.md", "md_atom_type": "TABLE_ROW", "md_parent_section": "§BS.1 [Example 1]", "md_verbatim": "| 1 | A12345 | BS | 43871 | 1 | 1148.26704 | A260/A230 | A260/A230 | QUALITY CONTROL | 2.05 | 2.05 | 2.05 | 2.16.090.1.135764.3.4.7280912 | Deluxe Central Labs | rRNA | SPECTROPHOTOMETRY | 1000450001 | Baseline | 1 | 1 | 2005-03-21T11:28:17 |", "score": 0.4208, "match_basis": "verbatim_token+domain_route:BS"}, {"md_atom_id": "md_dmBS_ex_a012", "md_file": "knowledge_base/domains/BS/examples.md", "md_atom_type": "TABLE_HEADER", "md_parent_section": "§BS.1 [Example 1]", "md_verbatim": "| Row | STUDYID | DOMAIN | USUBJID | BSSEQ | BSREFID | BSTESTCD | BSTEST | BSCAT | BSORRES | BSSTRESC | BSSTRESN | BSXFN | BSNAM | BSSPEC | BSMETHOD | BSRUNID | VISIT | VISITNUM | VISITDY | BSDTC |\n|-----|---------|--------|---------|-------|---------|----------|--------|-------|---------|----------|----------|-------|-------|--------|----------|---------|-------|----------|---------|-------|", "score": 0.3908, "match_basis": "verbatim_token+domain_route:BS"}], "candidate_count": 5, "zero_candidate": false}
{"pdf_atom_id": "ig34_p0197_a013", "pdf_atom_type": "TABLE_ROW", "pdf_source": "SDTMIG_v3.4", "pdf_page": 197, "pdf_parent_section": "§6.3.5.2 Biospecimen Findings (BS)", "pdf_verbatim": "| BSSTRESU | Standard Units | Char | (UNIT) | Variable Qualifier | Standardized unit used for BSSTRESC and BSSTRESN. | Exp |", "figure_ref": null, "candidates": [{"md_atom_id": "md_dmBS_ex_a015", "md_file": "knowledge_base/domains/BS/examples.md", "md_atom_type": "TABLE_ROW", "md_parent_section": "§BS.1 [Example 1]", "md_verbatim": "| 3 | A12345 | BS | 43871 | 3 | 1148.26704 | 28S/18S | 28S/18S | QUALITY CONTROL | 1.2 | 1.2 | 1.2 | 2.16.090.1.135764.3.4.7280912 | Deluxe Central Labs | rRNA | ELECTROPHORESIS | 1000450001 | Baseline | 1 | 1 | 2005-03-21T11:28:17 |", "score": 0.4214, "match_basis": "verbatim_token+domain_route:BS"}, {"md_atom_id": "md_dmBS_ex_a016", "md_file": "knowledge_base/domains/BS/examples.md", "md_atom_type": "TABLE_ROW", "md_parent_section": "§BS.1 [Example 1]", "md_verbatim": "| 4 | A12345 | BS | 43871 | 4 | 1148.26704 | RIN | RNA INTEGRITY NUMBER | QUALITY CONTROL | 9.5 | 9.5 | 9.5 | 2.16.090.1.135764.3.4.7280912 | Deluxe Central Labs | rRNA | ELECTROPHORESIS | 1000450001 | Baseline | 1 | 1 | 2005-03-21T11:28:17 |", "score": 0.4198, "match_basis": "verbatim_token+domain_route:BS"}, {"md_atom_id": "md_dmBS_ex_a014", "md_file": "knowledge_base/domains/BS/examples.md", "md_atom_type": "TABLE_ROW", "md_parent_section": "§BS.1 [Example 1]", "md_verbatim": "| 2 | A12345 | BS | 43871 | 2 | 1148.26704 | A260/A280 | A260/A280 | QUALITY CONTROL | 2 | 2 | 2 | 2.16.090.1.135764.3.4.7280912 | Deluxe Central Labs | rRNA | SPECTROPHOTOMETRY | 1000450001 | Baseline | 1 | 1 | 2005-03-21T11:28:17 |", "score": 0.4155, "match_basis": "verbatim_token+domain_route:BS"}, {"md_atom_id": "md_dmBS_ex_a013", "md_file": "knowledge_base/domains/BS/examples.md", "md_atom_type": "TABLE_ROW", "md_parent_section": "§BS.1 [Example 1]", "md_verbatim": "| 1 | A12345 | BS | 43871 | 1 | 1148.26704 | A260/A230 | A260/A230 | QUALITY CONTROL | 2.05 | 2.05 | 2.05 | 2.16.090.1.135764.3.4.7280912 | Deluxe Central Labs | rRNA | SPECTROPHOTOMETRY | 1000450001 | Baseline | 1 | 1 | 2005-03-21T11:28:17 |", "score": 0.4154, "match_basis": "verbatim_token+domain_route:BS"}, {"md_atom_id": "md_dmBS_ex_a012", "md_file": "knowledge_base/domains/BS/examples.md", "md_atom_type": "TABLE_HEADER", "md_parent_section": "§BS.1 [Example 1]", "md_verbatim": "| Row | STUDYID | DOMAIN | USUBJID | BSSEQ | BSREFID | BSTESTCD | BSTEST | BSCAT | BSORRES | BSSTRESC | BSSTRESN | BSXFN | BSNAM | BSSPEC | BSMETHOD | BSRUNID | VISIT | VISITNUM | VISITDY | BSDTC |\n|-----|---------|--------|---------|-------|---------|----------|--------|-------|---------|----------|----------|-------|-------|--------|----------|---------|-------|----------|---------|-------|", "score": 0.3862, "match_basis": "verbatim_token+domain_route:BS"}], "candidate_count": 5, "zero_candidate": false}
{"pdf_atom_id": "ig34_p0197_a014", "pdf_atom_type": "TABLE_ROW", "pdf_source": "SDTMIG_v3.4", "pdf_page": 197, "pdf_parent_section": "§6.3.5.2 Biospecimen Findings (BS)", "pdf_verbatim": "| BSSTAT | Completion Status | Char | (ND) | Record Qualifier | Used to indicate that a test was not done, or was attempted but did not generate a result. Should be null or have a value of NOT DONE. | Perm |", "figure_ref": null, "candidates": [{"md_atom_id": "md_dmBS_ex_a015", "md_file": "knowledge_base/domains/BS/examples.md", "md_atom_type": "TABLE_ROW", "md_parent_section": "§BS.1 [Example 1]", "md_verbatim": "| 3 | A12345 | BS | 43871 | 3 | 1148.26704 | 28S/18S | 28S/18S | QUALITY CONTROL | 1.2 | 1.2 | 1.2 | 2.16.090.1.135764.3.4.7280912 | Deluxe Central Labs | rRNA | ELECTROPHORESIS | 1000450001 | Baseline | 1 | 1 | 2005-03-21T11:28:17 |", "score": 0.4164, "match_basis": "verbatim_token+domain_route:BS"}, {"md_atom_id": "md_dmBS_ex_a016", "md_file": "knowledge_base/domains/BS/examples.md", "md_atom_type": "TABLE_ROW", "md_parent_section": "§BS.1 [Example 1]", "md_verbatim": "| 4 | A12345 | BS | 43871 | 4 | 1148.26704 | RIN | RNA INTEGRITY NUMBER | QUALITY CONTROL | 9.5 | 9.5 | 9.5 | 2.16.090.1.135764.3.4.7280912 | Deluxe Central Labs | rRNA | ELECTROPHORESIS | 1000450001 | Baseline | 1 | 1 | 2005-03-21T11:28:17 |", "score": 0.4155, "match_basis": "verbatim_token+domain_route:BS"}, {"md_atom_id": "md_dmBS_ex_a014", "md_file": "knowledge_base/domains/BS/examples.md", "md_atom_type": "TABLE_ROW", "md_parent_section": "§BS.1 [Example 1]", "md_verbatim": "| 2 | A12345 | BS | 43871 | 2 | 1148.26704 | A260/A280 | A260/A280 | QUALITY CONTROL | 2 | 2 | 2 | 2.16.090.1.135764.3.4.7280912 | Deluxe Central Labs | rRNA | SPECTROPHOTOMETRY | 1000450001 | Baseline | 1 | 1 | 2005-03-21T11:28:17 |", "score": 0.412, "match_basis": "verbatim_token+domain_route:BS"}, {"md_atom_id": "md_dmBS_ex_a013", "md_file": "knowledge_base/domains/BS/examples.md", "md_atom_type": "TABLE_ROW", "md_parent_section": "§BS.1 [Example 1]", "md_verbatim": "| 1 | A12345 | BS | 43871 | 1 | 1148.26704 | A260/A230 | A260/A230 | QUALITY CONTROL | 2.05 | 2.05 | 2.05 | 2.16.090.1.135764.3.4.7280912 | Deluxe Central Labs | rRNA | SPECTROPHOTOMETRY | 1000450001 | Baseline | 1 | 1 | 2005-03-21T11:28:17 |", "score": 0.4119, "match_basis": "verbatim_token+domain_route:BS"}, {"md_atom_id": "md_dmBS_ex_a012", "md_file": "knowledge_base/domains/BS/examples.md", "md_atom_type": "TABLE_HEADER", "md_parent_section": "§BS.1 [Example 1]", "md_verbatim": "| Row | STUDYID | DOMAIN | USUBJID | BSSEQ | BSREFID | BSTESTCD | BSTEST | BSCAT | BSORRES | BSSTRESC | BSSTRESN | BSXFN | BSNAM | BSSPEC | BSMETHOD | BSRUNID | VISIT | VISITNUM | VISITDY | BSDTC |\n|-----|---------|--------|---------|-------|---------|----------|--------|-------|---------|----------|----------|-------|-------|--------|----------|---------|-------|----------|---------|-------|", "score": 0.3657, "match_basis": "verbatim_token+domain_route:BS"}], "candidate_count": 5, "zero_candidate": false}
{"pdf_atom_id": "ig34_p0197_a015", "pdf_atom_type": "TABLE_ROW", "pdf_source": "SDTMIG_v3.4", "pdf_page": 197, "pdf_parent_section": "§6.3.5.2 Biospecimen Findings (BS)", "pdf_verbatim": "| BSREASND | Reason Test Not Done | Char |  | Record Qualifier | Reason not done. Used in conjunction with BSSTAT when value is NOT DONE. | Perm |", "figure_ref": null, "candidates": [{"md_atom_id": "md_dmBS_ex_a015", "md_file": "knowledge_base/domains/BS/examples.md", "md_atom_type": "TABLE_ROW", "md_parent_section": "§BS.1 [Example 1]", "md_verbatim": "| 3 | A12345 | BS | 43871 | 3 | 1148.26704 | 28S/18S | 28S/18S | QUALITY CONTROL | 1.2 | 1.2 | 1.2 | 2.16.090.1.135764.3.4.7280912 | Deluxe Central Labs | rRNA | ELECTROPHORESIS | 1000450001 | Baseline | 1 | 1 | 2005-03-21T11:28:17 |", "score": 0.4197, "match_basis": "verbatim_token+domain_route:BS"}, {"md_atom_id": "md_dmBS_ex_a014", "md_file": "knowledge_base/domains/BS/examples.md", "md_atom_type": "TABLE_ROW", "md_parent_section": "§BS.1 [Example 1]", "md_verbatim": "| 2 | A12345 | BS | 43871 | 2 | 1148.26704 | A260/A280 | A260/A280 | QUALITY CONTROL | 2 | 2 | 2 | 2.16.090.1.135764.3.4.7280912 | Deluxe Central Labs | rRNA | SPECTROPHOTOMETRY | 1000450001 | Baseline | 1 | 1 | 2005-03-21T11:28:17 |", "score": 0.4192, "match_basis": "verbatim_token+domain_route:BS"}, {"md_atom_id": "md_dmBS_ex_a013", "md_file": "knowledge_base/domains/BS/examples.md", "md_atom_type": "TABLE_ROW", "md_parent_section": "§BS.1 [Example 1]", "md_verbatim": "| 1 | A12345 | BS | 43871 | 1 | 1148.26704 | A260/A230 | A260/A230 | QUALITY CONTROL | 2.05 | 2.05 | 2.05 | 2.16.090.1.135764.3.4.7280912 | Deluxe Central Labs | rRNA | SPECTROPHOTOMETRY | 1000450001 | Baseline | 1 | 1 | 2005-03-21T11:28:17 |", "score": 0.419, "match_basis": "verbatim_token+domain_route:BS"}, {"md_atom_id": "md_dmBS_ex_a016", "md_file": "knowledge_base/domains/BS/examples.md", "md_atom_type": "TABLE_ROW", "md_parent_section": "§BS.1 [Example 1]", "md_verbatim": "| 4 | A12345 | BS | 43871 | 4 | 1148.26704 | RIN | RNA INTEGRITY NUMBER | QUALITY CONTROL | 9.5 | 9.5 | 9.5 | 2.16.090.1.135764.3.4.7280912 | Deluxe Central Labs | rRNA | ELECTROPHORESIS | 1000450001 | Baseline | 1 | 1 | 2005-03-21T11:28:17 |", "score": 0.4183, "match_basis": "verbatim_token+domain_route:BS"}, {"md_atom_id": "md_dmBS_ex_a012", "md_file": "knowledge_base/domains/BS/examples.md", "md_atom_type": "TABLE_HEADER", "md_parent_section": "§BS.1 [Example 1]", "md_verbatim": "| Row | STUDYID | DOMAIN | USUBJID | BSSEQ | BSREFID | BSTESTCD | BSTEST | BSCAT | BSORRES | BSSTRESC | BSSTRESN | BSXFN | BSNAM | BSSPEC | BSMETHOD | BSRUNID | VISIT | VISITNUM | VISITDY | BSDTC |\n|-----|---------|--------|---------|-------|---------|----------|--------|-------|---------|----------|----------|-------|-------|--------|----------|---------|-------|----------|---------|-------|", "score": 0.371, "match_basis": "verbatim_token+domain_route:BS"}], "candidate_count": 5, "zero_candidate": false}
{"pdf_atom_id": "ig34_p0197_a016", "pdf_atom_type": "TABLE_ROW", "pdf_source": "SDTMIG_v3.4", "pdf_page": 197, "pdf_parent_section": "§6.3.5.2 Biospecimen Findings (BS)", "pdf_verbatim": "| BSNAM | Vendor Name | Char |  | Record Qualifier | Name or identifier of the vendor (e.g., laboratory) that provided the test results. | Perm |", "figure_ref": null, "candidates": [{"md_atom_id": "md_dmBS_ex_a015", "md_file": "knowledge_base/domains/BS/examples.md", "md_atom_type": "TABLE_ROW", "md_parent_section": "§BS.1 [Example 1]", "md_verbatim": "| 3 | A12345 | BS | 43871 | 3 | 1148.26704 | 28S/18S | 28S/18S | QUALITY CONTROL | 1.2 | 1.2 | 1.2 | 2.16.090.1.135764.3.4.7280912 | Deluxe Central Labs | rRNA | ELECTROPHORESIS | 1000450001 | Baseline | 1 | 1 | 2005-03-21T11:28:17 |", "score": 0.4298, "match_basis": "verbatim_token+domain_route:BS"}, {"md_atom_id": "md_dmBS_ex_a016", "md_file": "knowledge_base/domains/BS/examples.md", "md_atom_type": "TABLE_ROW", "md_parent_section": "§BS.1 [Example 1]", "md_verbatim": "| 4 | A12345 | BS | 43871 | 4 | 1148.26704 | RIN | RNA INTEGRITY NUMBER | QUALITY CONTROL | 9.5 | 9.5 | 9.5 | 2.16.090.1.135764.3.4.7280912 | Deluxe Central Labs | rRNA | ELECTROPHORESIS | 1000450001 | Baseline | 1 | 1 | 2005-03-21T11:28:17 |", "score": 0.4277, "match_basis": "verbatim_token+domain_route:BS"}, {"md_atom_id": "md_dmBS_ex_a014", "md_file": "knowledge_base/domains/BS/examples.md", "md_atom_type": "TABLE_ROW", "md_parent_section": "§BS.1 [Example 1]", "md_verbatim": "| 2 | A12345 | BS | 43871 | 2 | 1148.26704 | A260/A280 | A260/A280 | QUALITY CONTROL | 2 | 2 | 2 | 2.16.090.1.135764.3.4.7280912 | Deluxe Central Labs | rRNA | SPECTROPHOTOMETRY | 1000450001 | Baseline | 1 | 1 | 2005-03-21T11:28:17 |", "score": 0.424, "match_basis": "verbatim_token+domain_route:BS"}, {"md_atom_id": "md_dmBS_ex_a013", "md_file": "knowledge_base/domains/BS/examples.md", "md_atom_type": "TABLE_ROW", "md_parent_section": "§BS.1 [Example 1]", "md_verbatim": "| 1 | A12345 | BS | 43871 | 1 | 1148.26704 | A260/A230 | A260/A230 | QUALITY CONTROL | 2.05 | 2.05 | 2.05 | 2.16.090.1.135764.3.4.7280912 | Deluxe Central Labs | rRNA | SPECTROPHOTOMETRY | 1000450001 | Baseline | 1 | 1 | 2005-03-21T11:28:17 |", "score": 0.4238, "match_basis": "verbatim_token+domain_route:BS"}, {"md_atom_id": "md_dmBS_ex_a012", "md_file": "knowledge_base/domains/BS/examples.md", "md_atom_type": "TABLE_HEADER", "md_parent_section": "§BS.1 [Example 1]", "md_verbatim": "| Row | STUDYID | DOMAIN | USUBJID | BSSEQ | BSREFID | BSTESTCD | BSTEST | BSCAT | BSORRES | BSSTRESC | BSSTRESN | BSXFN | BSNAM | BSSPEC | BSMETHOD | BSRUNID | VISIT | VISITNUM | VISITDY | BSDTC |\n|-----|---------|--------|---------|-------|---------|----------|--------|-------|---------|----------|----------|-------|-------|--------|----------|---------|-------|----------|---------|-------|", "score": 0.3708, "match_basis": "verbatim_token+domain_route:BS"}], "candidate_count": 5, "zero_candidate": false}
{"pdf_atom_id": "ig34_p0197_a017", "pdf_atom_type": "TABLE_ROW", "pdf_source": "SDTMIG_v3.4", "pdf_page": 197, "pdf_parent_section": "§6.3.5.2 Biospecimen Findings (BS)", "pdf_verbatim": "| BSSPEC | Specimen Type | Char | (SPECTYPE)(GENSMP) | Record Qualifier | Defines the type of specimen used for a measurement. Examples: SERUM, PLASMA, URINE, SOFT TISSUE. | Perm |", "figure_ref": null, "candidates": [{"md_atom_id": "md_dmBS_ex_a014", "md_file": "knowledge_base/domains/BS/examples.md", "md_atom_type": "TABLE_ROW", "md_parent_section": "§BS.1 [Example 1]", "md_verbatim": "| 2 | A12345 | BS | 43871 | 2 | 1148.26704 | A260/A280 | A260/A280 | QUALITY CONTROL | 2 | 2 | 2 | 2.16.090.1.135764.3.4.7280912 | Deluxe Central Labs | rRNA | SPECTROPHOTOMETRY | 1000450001 | Baseline | 1 | 1 | 2005-03-21T11:28:17 |", "score": 0.4343, "match_basis": "verbatim_token+domain_route:BS"}, {"md_atom_id": "md_dmBS_ex_a013", "md_file": "knowledge_base/domains/BS/examples.md", "md_atom_type": "TABLE_ROW", "md_parent_section": "§BS.1 [Example 1]", "md_verbatim": "| 1 | A12345 | BS | 43871 | 1 | 1148.26704 | A260/A230 | A260/A230 | QUALITY CONTROL | 2.05 | 2.05 | 2.05 | 2.16.090.1.135764.3.4.7280912 | Deluxe Central Labs | rRNA | SPECTROPHOTOMETRY | 1000450001 | Baseline | 1 | 1 | 2005-03-21T11:28:17 |", "score": 0.434, "match_basis": "verbatim_token+domain_route:BS"}, {"md_atom_id": "md_dmBS_ex_a016", "md_file": "knowledge_base/domains/BS/examples.md", "md_atom_type": "TABLE_ROW", "md_parent_section": "§BS.1 [Example 1]", "md_verbatim": "| 4 | A12345 | BS | 43871 | 4 | 1148.26704 | RIN | RNA INTEGRITY NUMBER | QUALITY CONTROL | 9.5 | 9.5 | 9.5 | 2.16.090.1.135764.3.4.7280912 | Deluxe Central Labs | rRNA | ELECTROPHORESIS | 1000450001 | Baseline | 1 | 1 | 2005-03-21T11:28:17 |", "score": 0.4286, "match_basis": "verbatim_token+domain_route:BS"}, {"md_atom_id": "md_dmBS_ex_a015", "md_file": "knowledge_base/domains/BS/examples.md", "md_atom_type": "TABLE_ROW", "md_parent_section": "§BS.1 [Example 1]", "md_verbatim": "| 3 | A12345 | BS | 43871 | 3 | 1148.26704 | 28S/18S | 28S/18S | QUALITY CONTROL | 1.2 | 1.2 | 1.2 | 2.16.090.1.135764.3.4.7280912 | Deluxe Central Labs | rRNA | ELECTROPHORESIS | 1000450001 | Baseline | 1 | 1 | 2005-03-21T11:28:17 |", "score": 0.4259, "match_basis": "verbatim_token+domain_route:BS"}, {"md_atom_id": "md_dmBS_ex_a012", "md_file": "knowledge_base/domains/BS/examples.md", "md_atom_type": "TABLE_HEADER", "md_parent_section": "§BS.1 [Example 1]", "md_verbatim": "| Row | STUDYID | DOMAIN | USUBJID | BSSEQ | BSREFID | BSTESTCD | BSTEST | BSCAT | BSORRES | BSSTRESC | BSSTRESN | BSXFN | BSNAM | BSSPEC | BSMETHOD | BSRUNID | VISIT | VISITNUM | VISITDY | BSDTC |\n|-----|---------|--------|---------|-------|---------|----------|--------|-------|---------|----------|----------|-------|-------|--------|----------|---------|-------|----------|---------|-------|", "score": 0.3621, "match_basis": "verbatim_token+domain_route:BS"}], "candidate_count": 5, "zero_candidate": false}
{"pdf_atom_id": "ig34_p0197_a018", "pdf_atom_type": "TABLE_ROW", "pdf_source": "SDTMIG_v3.4", "pdf_page": 197, "pdf_parent_section": "§6.3.5.2 Biospecimen Findings (BS)", "pdf_verbatim": "| BSANTREG | Anatomical Region of Specimen | Char | * | Variable Qualifier | Defines the specific anatomical or biological region of a tissue, organ specimen or the region from which the specimen is obtained, as defined in the protocol, such as a section or part of what is described in the BSSPEC variable. Examples: CORTEX, MEDULLA, MUCOSA. | Perm |", "figure_ref": null, "candidates": [{"md_atom_id": "md_dmBS_ex_a014", "md_file": "knowledge_base/domains/BS/examples.md", "md_atom_type": "TABLE_ROW", "md_parent_section": "§BS.1 [Example 1]", "md_verbatim": "| 2 | A12345 | BS | 43871 | 2 | 1148.26704 | A260/A280 | A260/A280 | QUALITY CONTROL | 2 | 2 | 2 | 2.16.090.1.135764.3.4.7280912 | Deluxe Central Labs | rRNA | SPECTROPHOTOMETRY | 1000450001 | Baseline | 1 | 1 | 2005-03-21T11:28:17 |", "score": 0.4326, "match_basis": "verbatim_token+domain_route:BS"}, {"md_atom_id": "md_dmBS_ex_a013", "md_file": "knowledge_base/domains/BS/examples.md", "md_atom_type": "TABLE_ROW", "md_parent_section": "§BS.1 [Example 1]", "md_verbatim": "| 1 | A12345 | BS | 43871 | 1 | 1148.26704 | A260/A230 | A260/A230 | QUALITY CONTROL | 2.05 | 2.05 | 2.05 | 2.16.090.1.135764.3.4.7280912 | Deluxe Central Labs | rRNA | SPECTROPHOTOMETRY | 1000450001 | Baseline | 1 | 1 | 2005-03-21T11:28:17 |", "score": 0.4324, "match_basis": "verbatim_token+domain_route:BS"}, {"md_atom_id": "md_dmBS_ex_a015", "md_file": "knowledge_base/domains/BS/examples.md", "md_atom_type": "TABLE_ROW", "md_parent_section": "§BS.1 [Example 1]", "md_verbatim": "| 3 | A12345 | BS | 43871 | 3 | 1148.26704 | 28S/18S | 28S/18S | QUALITY CONTROL | 1.2 | 1.2 | 1.2 | 2.16.090.1.135764.3.4.7280912 | Deluxe Central Labs | rRNA | ELECTROPHORESIS | 1000450001 | Baseline | 1 | 1 | 2005-03-21T11:28:17 |", "score": 0.4195, "match_basis": "verbatim_token+domain_route:BS"}, {"md_atom_id": "md_dmBS_ex_a016", "md_file": "knowledge_base/domains/BS/examples.md", "md_atom_type": "TABLE_ROW", "md_parent_section": "§BS.1 [Example 1]", "md_verbatim": "| 4 | A12345 | BS | 43871 | 4 | 1148.26704 | RIN | RNA INTEGRITY NUMBER | QUALITY CONTROL | 9.5 | 9.5 | 9.5 | 2.16.090.1.135764.3.4.7280912 | Deluxe Central Labs | rRNA | ELECTROPHORESIS | 1000450001 | Baseline | 1 | 1 | 2005-03-21T11:28:17 |", "score": 0.4186, "match_basis": "verbatim_token+domain_route:BS"}, {"md_atom_id": "md_dmBS_ex_a012", "md_file": "knowledge_base/domains/BS/examples.md", "md_atom_type": "TABLE_HEADER", "md_parent_section": "§BS.1 [Example 1]", "md_verbatim": "| Row | STUDYID | DOMAIN | USUBJID | BSSEQ | BSREFID | BSTESTCD | BSTEST | BSCAT | BSORRES | BSSTRESC | BSSTRESN | BSXFN | BSNAM | BSSPEC | BSMETHOD | BSRUNID | VISIT | VISITNUM | VISITDY | BSDTC |\n|-----|---------|--------|---------|-------|---------|----------|--------|-------|---------|----------|----------|-------|-------|--------|----------|---------|-------|----------|---------|-------|", "score": 0.3668, "match_basis": "verbatim_token+domain_route:BS"}], "candidate_count": 5, "zero_candidate": false}
{"pdf_atom_id": "ig34_p0197_a019", "pdf_atom_type": "TABLE_ROW", "pdf_source": "SDTMIG_v3.4", "pdf_page": 197, "pdf_parent_section": "§6.3.5.2 Biospecimen Findings (BS)", "pdf_verbatim": "| BSSPCCND | Specimen Condition | Char | (SPECCOND) | Record Qualifier | Defines the condition of the specimen. Examples: HEMOLYZED, ICTERIC, LIPEMIC. | Perm |", "figure_ref": null, "candidates": [{"md_atom_id": "md_dmBS_ex_a014", "md_file": "knowledge_base/domains/BS/examples.md", "md_atom_type": "TABLE_ROW", "md_parent_section": "§BS.1 [Example 1]", "md_verbatim": "| 2 | A12345 | BS | 43871 | 2 | 1148.26704 | A260/A280 | A260/A280 | QUALITY CONTROL | 2 | 2 | 2 | 2.16.090.1.135764.3.4.7280912 | Deluxe Central Labs | rRNA | SPECTROPHOTOMETRY | 1000450001 | Baseline | 1 | 1 | 2005-03-21T11:28:17 |", "score": 0.4307, "match_basis": "verbatim_token+domain_route:BS"}, {"md_atom_id": "md_dmBS_ex_a013", "md_file": "knowledge_base/domains/BS/examples.md", "md_atom_type": "TABLE_ROW", "md_parent_section": "§BS.1 [Example 1]", "md_verbatim": "| 1 | A12345 | BS | 43871 | 1 | 1148.26704 | A260/A230 | A260/A230 | QUALITY CONTROL | 2.05 | 2.05 | 2.05 | 2.16.090.1.135764.3.4.7280912 | Deluxe Central Labs | rRNA | SPECTROPHOTOMETRY | 1000450001 | Baseline | 1 | 1 | 2005-03-21T11:28:17 |", "score": 0.4304, "match_basis": "verbatim_token+domain_route:BS"}, {"md_atom_id": "md_dmBS_ex_a015", "md_file": "knowledge_base/domains/BS/examples.md", "md_atom_type": "TABLE_ROW", "md_parent_section": "§BS.1 [Example 1]", "md_verbatim": "| 3 | A12345 | BS | 43871 | 3 | 1148.26704 | 28S/18S | 28S/18S | QUALITY CONTROL | 1.2 | 1.2 | 1.2 | 2.16.090.1.135764.3.4.7280912 | Deluxe Central Labs | rRNA | ELECTROPHORESIS | 1000450001 | Baseline | 1 | 1 | 2005-03-21T11:28:17 |", "score": 0.4221, "match_basis": "verbatim_token+domain_route:BS"}, {"md_atom_id": "md_dmBS_ex_a016", "md_file": "knowledge_base/domains/BS/examples.md", "md_atom_type": "TABLE_ROW", "md_parent_section": "§BS.1 [Example 1]", "md_verbatim": "| 4 | A12345 | BS | 43871 | 4 | 1148.26704 | RIN | RNA INTEGRITY NUMBER | QUALITY CONTROL | 9.5 | 9.5 | 9.5 | 2.16.090.1.135764.3.4.7280912 | Deluxe Central Labs | rRNA | ELECTROPHORESIS | 1000450001 | Baseline | 1 | 1 | 2005-03-21T11:28:17 |", "score": 0.4207, "match_basis": "verbatim_token+domain_route:BS"}, {"md_atom_id": "md_dmBS_ex_a012", "md_file": "knowledge_base/domains/BS/examples.md", "md_atom_type": "TABLE_HEADER", "md_parent_section": "§BS.1 [Example 1]", "md_verbatim": "| Row | STUDYID | DOMAIN | USUBJID | BSSEQ | BSREFID | BSTESTCD | BSTEST | BSCAT | BSORRES | BSSTRESC | BSSTRESN | BSXFN | BSNAM | BSSPEC | BSMETHOD | BSRUNID | VISIT | VISITNUM | VISITDY | BSDTC |\n|-----|---------|--------|---------|-------|---------|----------|--------|-------|---------|----------|----------|-------|-------|--------|----------|---------|-------|----------|---------|-------|", "score": 0.3627, "match_basis": "verbatim_token+domain_route:BS"}], "candidate_count": 5, "zero_candidate": false}
{"pdf_atom_id": "ig34_p0197_a020", "pdf_atom_type": "TABLE_ROW", "pdf_source": "SDTMIG_v3.4", "pdf_page": 197, "pdf_parent_section": "§6.3.5.2 Biospecimen Findings (BS)", "pdf_verbatim": "| BSMETHOD | Method of Test or Examination | Char | (METHOD) | Record Qualifier | Method of the test or examination. Examples: SPECTROPHOTOMETRY, ELECTROPHORESIS. | Perm |", "figure_ref": null, "candidates": [{"md_atom_id": "md_dmBS_ex_a014", "md_file": "knowledge_base/domains/BS/examples.md", "md_atom_type": "TABLE_ROW", "md_parent_section": "§BS.1 [Example 1]", "md_verbatim": "| 2 | A12345 | BS | 43871 | 2 | 1148.26704 | A260/A280 | A260/A280 | QUALITY CONTROL | 2 | 2 | 2 | 2.16.090.1.135764.3.4.7280912 | Deluxe Central Labs | rRNA | SPECTROPHOTOMETRY | 1000450001 | Baseline | 1 | 1 | 2005-03-21T11:28:17 |", "score": 0.4908, "match_basis": "verbatim_token+domain_route:BS"}, {"md_atom_id": "md_dmBS_ex_a013", "md_file": "knowledge_base/domains/BS/examples.md", "md_atom_type": "TABLE_ROW", "md_parent_section": "§BS.1 [Example 1]", "md_verbatim": "| 1 | A12345 | BS | 43871 | 1 | 1148.26704 | A260/A230 | A260/A230 | QUALITY CONTROL | 2.05 | 2.05 | 2.05 | 2.16.090.1.135764.3.4.7280912 | Deluxe Central Labs | rRNA | SPECTROPHOTOMETRY | 1000450001 | Baseline | 1 | 1 | 2005-03-21T11:28:17 |", "score": 0.49, "match_basis": "verbatim_token+domain_route:BS"}, {"md_atom_id": "md_dmBS_ex_a015", "md_file": "knowledge_base/domains/BS/examples.md", "md_atom_type": "TABLE_ROW", "md_parent_section": "§BS.1 [Example 1]", "md_verbatim": "| 3 | A12345 | BS | 43871 | 3 | 1148.26704 | 28S/18S | 28S/18S | QUALITY CONTROL | 1.2 | 1.2 | 1.2 | 2.16.090.1.135764.3.4.7280912 | Deluxe Central Labs | rRNA | ELECTROPHORESIS | 1000450001 | Baseline | 1 | 1 | 2005-03-21T11:28:17 |", "score": 0.4814, "match_basis": "verbatim_token+domain_route:BS"}, {"md_atom_id": "md_dmBS_ex_a016", "md_file": "knowledge_base/domains/BS/examples.md", "md_atom_type": "TABLE_ROW", "md_parent_section": "§BS.1 [Example 1]", "md_verbatim": "| 4 | A12345 | BS | 43871 | 4 | 1148.26704 | RIN | RNA INTEGRITY NUMBER | QUALITY CONTROL | 9.5 | 9.5 | 9.5 | 2.16.090.1.135764.3.4.7280912 | Deluxe Central Labs | rRNA | ELECTROPHORESIS | 1000450001 | Baseline | 1 | 1 | 2005-03-21T11:28:17 |", "score": 0.4756, "match_basis": "verbatim_token+domain_route:BS"}, {"md_atom_id": "md_dmBS_ex_a012", "md_file": "knowledge_base/domains/BS/examples.md", "md_atom_type": "TABLE_HEADER", "md_parent_section": "§BS.1 [Example 1]", "md_verbatim": "| Row | STUDYID | DOMAIN | USUBJID | BSSEQ | BSREFID | BSTESTCD | BSTEST | BSCAT | BSORRES | BSSTRESC | BSSTRESN | BSXFN | BSNAM | BSSPEC | BSMETHOD | BSRUNID | VISIT | VISITNUM | VISITDY | BSDTC |\n|-----|---------|--------|---------|-------|---------|----------|--------|-------|---------|----------|----------|-------|-------|--------|----------|---------|-------|----------|---------|-------|", "score": 0.3955, "match_basis": "verbatim_token+domain_route:BS"}], "candidate_count": 5, "zero_candidate": false}
{"pdf_atom_id": "ig34_p0197_a021", "pdf_atom_type": "TABLE_ROW", "pdf_source": "SDTMIG_v3.4", "pdf_page": 197, "pdf_parent_section": "§6.3.5.2 Biospecimen Findings (BS)", "pdf_verbatim": "| BSBLFL | Baseline Flag | Char | (NY) | Record Qualifier | Indicator used to identify a baseline value. | Perm |", "figure_ref": null, "candidates": [{"md_atom_id": "md_dmBS_ex_a015", "md_file": "knowledge_base/domains/BS/examples.md", "md_atom_type": "TABLE_ROW", "md_parent_section": "§BS.1 [Example 1]", "md_verbatim": "| 3 | A12345 | BS | 43871 | 3 | 1148.26704 | 28S/18S | 28S/18S | QUALITY CONTROL | 1.2 | 1.2 | 1.2 | 2.16.090.1.135764.3.4.7280912 | Deluxe Central Labs | rRNA | ELECTROPHORESIS | 1000450001 | Baseline | 1 | 1 | 2005-03-21T11:28:17 |", "score": 0.4541, "match_basis": "verbatim_token+domain_route:BS"}, {"md_atom_id": "md_dmBS_ex_a014", "md_file": "knowledge_base/domains/BS/examples.md", "md_atom_type": "TABLE_ROW", "md_parent_section": "§BS.1 [Example 1]", "md_verbatim": "| 2 | A12345 | BS | 43871 | 2 | 1148.26704 | A260/A280 | A260/A280 | QUALITY CONTROL | 2 | 2 | 2 | 2.16.090.1.135764.3.4.7280912 | Deluxe Central Labs | rRNA | SPECTROPHOTOMETRY | 1000450001 | Baseline | 1 | 1 | 2005-03-21T11:28:17 |", "score": 0.4526, "match_basis": "verbatim_token+domain_route:BS"}, {"md_atom_id": "md_dmBS_ex_a013", "md_file": "knowledge_base/domains/BS/examples.md", "md_atom_type": "TABLE_ROW", "md_parent_section": "§BS.1 [Example 1]", "md_verbatim": "| 1 | A12345 | BS | 43871 | 1 | 1148.26704 | A260/A230 | A260/A230 | QUALITY CONTROL | 2.05 | 2.05 | 2.05 | 2.16.090.1.135764.3.4.7280912 | Deluxe Central Labs | rRNA | SPECTROPHOTOMETRY | 1000450001 | Baseline | 1 | 1 | 2005-03-21T11:28:17 |", "score": 0.4522, "match_basis": "verbatim_token+domain_route:BS"}, {"md_atom_id": "md_dmBS_ex_a016", "md_file": "knowledge_base/domains/BS/examples.md", "md_atom_type": "TABLE_ROW", "md_parent_section": "§BS.1 [Example 1]", "md_verbatim": "| 4 | A12345 | BS | 43871 | 4 | 1148.26704 | RIN | RNA INTEGRITY NUMBER | QUALITY CONTROL | 9.5 | 9.5 | 9.5 | 2.16.090.1.135764.3.4.7280912 | Deluxe Central Labs | rRNA | ELECTROPHORESIS | 1000450001 | Baseline | 1 | 1 | 2005-03-21T11:28:17 |", "score": 0.45, "match_basis": "verbatim_token+domain_route:BS"}, {"md_atom_id": "md_dmBS_ex_a012", "md_file": "knowledge_base/domains/BS/examples.md", "md_atom_type": "TABLE_HEADER", "md_parent_section": "§BS.1 [Example 1]", "md_verbatim": "| Row | STUDYID | DOMAIN | USUBJID | BSSEQ | BSREFID | BSTESTCD | BSTEST | BSCAT | BSORRES | BSSTRESC | BSSTRESN | BSXFN | BSNAM | BSSPEC | BSMETHOD | BSRUNID | VISIT | VISITNUM | VISITDY | BSDTC |\n|-----|---------|--------|---------|-------|---------|----------|--------|-------|---------|----------|----------|-------|-------|--------|----------|---------|-------|----------|---------|-------|", "score": 0.3452, "match_basis": "verbatim_token+domain_route:BS"}], "candidate_count": 5, "zero_candidate": false}
{"pdf_atom_id": "ig34_p0197_a022", "pdf_atom_type": "TABLE_ROW", "pdf_source": "SDTMIG_v3.4", "pdf_page": 197, "pdf_parent_section": "§6.3.5.2 Biospecimen Findings (BS)", "pdf_verbatim": "| VISITNUM | Visit Number | Num |  | Timing | Clinical encounter number. Numeric version of VISIT, used for sorting. | Exp |", "figure_ref": null, "candidates": [{"md_atom_id": "md_dmBS_ex_a016", "md_file": "knowledge_base/domains/BS/examples.md", "md_atom_type": "TABLE_ROW", "md_parent_section": "§BS.1 [Example 1]", "md_verbatim": "| 4 | A12345 | BS | 43871 | 4 | 1148.26704 | RIN | RNA INTEGRITY NUMBER | QUALITY CONTROL | 9.5 | 9.5 | 9.5 | 2.16.090.1.135764.3.4.7280912 | Deluxe Central Labs | rRNA | ELECTROPHORESIS | 1000450001 | Baseline | 1 | 1 | 2005-03-21T11:28:17 |", "score": 0.4295, "match_basis": "verbatim_token+domain_route:BS"}, {"md_atom_id": "md_dmBS_ex_a015", "md_file": "knowledge_base/domains/BS/examples.md", "md_atom_type": "TABLE_ROW", "md_parent_section": "§BS.1 [Example 1]", "md_verbatim": "| 3 | A12345 | BS | 43871 | 3 | 1148.26704 | 28S/18S | 28S/18S | QUALITY CONTROL | 1.2 | 1.2 | 1.2 | 2.16.090.1.135764.3.4.7280912 | Deluxe Central Labs | rRNA | ELECTROPHORESIS | 1000450001 | Baseline | 1 | 1 | 2005-03-21T11:28:17 |", "score": 0.4051, "match_basis": "verbatim_token+domain_route:BS"}, {"md_atom_id": "md_dmBS_ex_a014", "md_file": "knowledge_base/domains/BS/examples.md", "md_atom_type": "TABLE_ROW", "md_parent_section": "§BS.1 [Example 1]", "md_verbatim": "| 2 | A12345 | BS | 43871 | 2 | 1148.26704 | A260/A280 | A260/A280 | QUALITY CONTROL | 2 | 2 | 2 | 2.16.090.1.135764.3.4.7280912 | Deluxe Central Labs | rRNA | SPECTROPHOTOMETRY | 1000450001 | Baseline | 1 | 1 | 2005-03-21T11:28:17 |", "score": 0.405, "match_basis": "verbatim_token+domain_route:BS"}, {"md_atom_id": "md_dmBS_ex_a013", "md_file": "knowledge_base/domains/BS/examples.md", "md_atom_type": "TABLE_ROW", "md_parent_section": "§BS.1 [Example 1]", "md_verbatim": "| 1 | A12345 | BS | 43871 | 1 | 1148.26704 | A260/A230 | A260/A230 | QUALITY CONTROL | 2.05 | 2.05 | 2.05 | 2.16.090.1.135764.3.4.7280912 | Deluxe Central Labs | rRNA | SPECTROPHOTOMETRY | 1000450001 | Baseline | 1 | 1 | 2005-03-21T11:28:17 |", "score": 0.4049, "match_basis": "verbatim_token+domain_route:BS"}, {"md_atom_id": "md_dmBS_ex_a012", "md_file": "knowledge_base/domains/BS/examples.md", "md_atom_type": "TABLE_HEADER", "md_parent_section": "§BS.1 [Example 1]", "md_verbatim": "| Row | STUDYID | DOMAIN | USUBJID | BSSEQ | BSREFID | BSTESTCD | BSTEST | BSCAT | BSORRES | BSSTRESC | BSSTRESN | BSXFN | BSNAM | BSSPEC | BSMETHOD | BSRUNID | VISIT | VISITNUM | VISITDY | BSDTC |\n|-----|---------|--------|---------|-------|---------|----------|--------|-------|---------|----------|----------|-------|-------|--------|----------|---------|-------|----------|---------|-------|", "score": 0.3789, "match_basis": "verbatim_token+domain_route:BS"}], "candidate_count": 5, "zero_candidate": false}
{"pdf_atom_id": "ig34_p0197_a023", "pdf_atom_type": "TABLE_ROW", "pdf_source": "SDTMIG_v3.4", "pdf_page": 197, "pdf_parent_section": "§6.3.5.2 Biospecimen Findings (BS)", "pdf_verbatim": "| VISIT | Visit Name | Char |  | Timing | Protocol-defined description of clinical encounter. | Perm |", "figure_ref": null, "candidates": [{"md_atom_id": "md_dmBS_ex_a014", "md_file": "knowledge_base/domains/BS/examples.md", "md_atom_type": "TABLE_ROW", "md_parent_section": "§BS.1 [Example 1]", "md_verbatim": "| 2 | A12345 | BS | 43871 | 2 | 1148.26704 | A260/A280 | A260/A280 | QUALITY CONTROL | 2 | 2 | 2 | 2.16.090.1.135764.3.4.7280912 | Deluxe Central Labs | rRNA | SPECTROPHOTOMETRY | 1000450001 | Baseline | 1 | 1 | 2005-03-21T11:28:17 |", "score": 0.4148, "match_basis": "verbatim_token+domain_route:BS"}, {"md_atom_id": "md_dmBS_ex_a013", "md_file": "knowledge_base/domains/BS/examples.md", "md_atom_type": "TABLE_ROW", "md_parent_section": "§BS.1 [Example 1]", "md_verbatim": "| 1 | A12345 | BS | 43871 | 1 | 1148.26704 | A260/A230 | A260/A230 | QUALITY CONTROL | 2.05 | 2.05 | 2.05 | 2.16.090.1.135764.3.4.7280912 | Deluxe Central Labs | rRNA | SPECTROPHOTOMETRY | 1000450001 | Baseline | 1 | 1 | 2005-03-21T11:28:17 |", "score": 0.4146, "match_basis": "verbatim_token+domain_route:BS"}, {"md_atom_id": "md_dmBS_ex_a016", "md_file": "knowledge_base/domains/BS/examples.md", "md_atom_type": "TABLE_ROW", "md_parent_section": "§BS.1 [Example 1]", "md_verbatim": "| 4 | A12345 | BS | 43871 | 4 | 1148.26704 | RIN | RNA INTEGRITY NUMBER | QUALITY CONTROL | 9.5 | 9.5 | 9.5 | 2.16.090.1.135764.3.4.7280912 | Deluxe Central Labs | rRNA | ELECTROPHORESIS | 1000450001 | Baseline | 1 | 1 | 2005-03-21T11:28:17 |", "score": 0.4141, "match_basis": "verbatim_token+domain_route:BS"}, {"md_atom_id": "md_dmBS_ex_a015", "md_file": "knowledge_base/domains/BS/examples.md", "md_atom_type": "TABLE_ROW", "md_parent_section": "§BS.1 [Example 1]", "md_verbatim": "| 3 | A12345 | BS | 43871 | 3 | 1148.26704 | 28S/18S | 28S/18S | QUALITY CONTROL | 1.2 | 1.2 | 1.2 | 2.16.090.1.135764.3.4.7280912 | Deluxe Central Labs | rRNA | ELECTROPHORESIS | 1000450001 | Baseline | 1 | 1 | 2005-03-21T11:28:17 |", "score": 0.41, "match_basis": "verbatim_token+domain_route:BS"}, {"md_atom_id": "md_dmBS_ex_a012", "md_file": "knowledge_base/domains/BS/examples.md", "md_atom_type": "TABLE_HEADER", "md_parent_section": "§BS.1 [Example 1]", "md_verbatim": "| Row | STUDYID | DOMAIN | USUBJID | BSSEQ | BSREFID | BSTESTCD | BSTEST | BSCAT | BSORRES | BSSTRESC | BSSTRESN | BSXFN | BSNAM | BSSPEC | BSMETHOD | BSRUNID | VISIT | VISITNUM | VISITDY | BSDTC |\n|-----|---------|--------|---------|-------|---------|----------|--------|-------|---------|----------|----------|-------|-------|--------|----------|---------|-------|----------|---------|-------|", "score": 0.3721, "match_basis": "verbatim_token+domain_route:BS"}], "candidate_count": 5, "zero_candidate": false}
{"pdf_atom_id": "ig34_p0197_a024", "pdf_atom_type": "TABLE_ROW", "pdf_source": "SDTMIG_v3.4", "pdf_page": 197, "pdf_parent_section": "§6.3.5.2 Biospecimen Findings (BS)", "pdf_verbatim": "| VISITDY | Planned Study Day of Visit | Num |  | Timing | Planned study day of VISIT. Should be an integer. | Perm |", "figure_ref": null, "candidates": [{"md_atom_id": "md_dmBS_ex_a016", "md_file": "knowledge_base/domains/BS/examples.md", "md_atom_type": "TABLE_ROW", "md_parent_section": "§BS.1 [Example 1]", "md_verbatim": "| 4 | A12345 | BS | 43871 | 4 | 1148.26704 | RIN | RNA INTEGRITY NUMBER | QUALITY CONTROL | 9.5 | 9.5 | 9.5 | 2.16.090.1.135764.3.4.7280912 | Deluxe Central Labs | rRNA | ELECTROPHORESIS | 1000450001 | Baseline | 1 | 1 | 2005-03-21T11:28:17 |", "score": 0.4216, "match_basis": "verbatim_token+domain_route:BS"}, {"md_atom_id": "md_dmBS_ex_a013", "md_file": "knowledge_base/domains/BS/examples.md", "md_atom_type": "TABLE_ROW", "md_parent_section": "§BS.1 [Example 1]", "md_verbatim": "| 1 | A12345 | BS | 43871 | 1 | 1148.26704 | A260/A230 | A260/A230 | QUALITY CONTROL | 2.05 | 2.05 | 2.05 | 2.16.090.1.135764.3.4.7280912 | Deluxe Central Labs | rRNA | SPECTROPHOTOMETRY | 1000450001 | Baseline | 1 | 1 | 2005-03-21T11:28:17 |", "score": 0.4, "match_basis": "verbatim_token+domain_route:BS"}, {"md_atom_id": "md_dmBS_ex_a014", "md_file": "knowledge_base/domains/BS/examples.md", "md_atom_type": "TABLE_ROW", "md_parent_section": "§BS.1 [Example 1]", "md_verbatim": "| 2 | A12345 | BS | 43871 | 2 | 1148.26704 | A260/A280 | A260/A280 | QUALITY CONTROL | 2 | 2 | 2 | 2.16.090.1.135764.3.4.7280912 | Deluxe Central Labs | rRNA | SPECTROPHOTOMETRY | 1000450001 | Baseline | 1 | 1 | 2005-03-21T11:28:17 |", "score": 0.4, "match_basis": "verbatim_token+domain_route:BS"}, {"md_atom_id": "md_dmBS_ex_a015", "md_file": "knowledge_base/domains/BS/examples.md", "md_atom_type": "TABLE_ROW", "md_parent_section": "§BS.1 [Example 1]", "md_verbatim": "| 3 | A12345 | BS | 43871 | 3 | 1148.26704 | 28S/18S | 28S/18S | QUALITY CONTROL | 1.2 | 1.2 | 1.2 | 2.16.090.1.135764.3.4.7280912 | Deluxe Central Labs | rRNA | ELECTROPHORESIS | 1000450001 | Baseline | 1 | 1 | 2005-03-21T11:28:17 |", "score": 0.4, "match_basis": "verbatim_token+domain_route:BS"}, {"md_atom_id": "md_dmBS_ex_a012", "md_file": "knowledge_base/domains/BS/examples.md", "md_atom_type": "TABLE_HEADER", "md_parent_section": "§BS.1 [Example 1]", "md_verbatim": "| Row | STUDYID | DOMAIN | USUBJID | BSSEQ | BSREFID | BSTESTCD | BSTEST | BSCAT | BSORRES | BSSTRESC | BSSTRESN | BSXFN | BSNAM | BSSPEC | BSMETHOD | BSRUNID | VISIT | VISITNUM | VISITDY | BSDTC |\n|-----|---------|--------|---------|-------|---------|----------|--------|-------|---------|----------|----------|-------|-------|--------|----------|---------|-------|----------|---------|-------|", "score": 0.3981, "match_basis": "verbatim_token+domain_route:BS"}], "candidate_count": 5, "zero_candidate": false}
{"pdf_atom_id": "ig34_p0197_a025", "pdf_atom_type": "TABLE_ROW", "pdf_source": "SDTMIG_v3.4", "pdf_page": 197, "pdf_parent_section": "§6.3.5.2 Biospecimen Findings (BS)", "pdf_verbatim": "| BSDTC | Date/Time of Specimen Collection | Char | ISO 8601 datetime or interval | Timing | Date and time of specimen collection. | Exp |", "figure_ref": null, "candidates": [{"md_atom_id": "md_dmBS_ex_a016", "md_file": "knowledge_base/domains/BS/examples.md", "md_atom_type": "TABLE_ROW", "md_parent_section": "§BS.1 [Example 1]", "md_verbatim": "| 4 | A12345 | BS | 43871 | 4 | 1148.26704 | RIN | RNA INTEGRITY NUMBER | QUALITY CONTROL | 9.5 | 9.5 | 9.5 | 2.16.090.1.135764.3.4.7280912 | Deluxe Central Labs | rRNA | ELECTROPHORESIS | 1000450001 | Baseline | 1 | 1 | 2005-03-21T11:28:17 |", "score": 0.4202, "match_basis": "verbatim_token+domain_route:BS"}, {"md_atom_id": "md_dmBS_ex_a014", "md_file": "knowledge_base/domains/BS/examples.md", "md_atom_type": "TABLE_ROW", "md_parent_section": "§BS.1 [Example 1]", "md_verbatim": "| 2 | A12345 | BS | 43871 | 2 | 1148.26704 | A260/A280 | A260/A280 | QUALITY CONTROL | 2 | 2 | 2 | 2.16.090.1.135764.3.4.7280912 | Deluxe Central Labs | rRNA | SPECTROPHOTOMETRY | 1000450001 | Baseline | 1 | 1 | 2005-03-21T11:28:17 |", "score": 0.4158, "match_basis": "verbatim_token+domain_route:BS"}, {"md_atom_id": "md_dmBS_ex_a013", "md_file": "knowledge_base/domains/BS/examples.md", "md_atom_type": "TABLE_ROW", "md_parent_section": "§BS.1 [Example 1]", "md_verbatim": "| 1 | A12345 | BS | 43871 | 1 | 1148.26704 | A260/A230 | A260/A230 | QUALITY CONTROL | 2.05 | 2.05 | 2.05 | 2.16.090.1.135764.3.4.7280912 | Deluxe Central Labs | rRNA | SPECTROPHOTOMETRY | 1000450001 | Baseline | 1 | 1 | 2005-03-21T11:28:17 |", "score": 0.4157, "match_basis": "verbatim_token+domain_route:BS"}, {"md_atom_id": "md_dmBS_ex_a015", "md_file": "knowledge_base/domains/BS/examples.md", "md_atom_type": "TABLE_ROW", "md_parent_section": "§BS.1 [Example 1]", "md_verbatim": "| 3 | A12345 | BS | 43871 | 3 | 1148.26704 | 28S/18S | 28S/18S | QUALITY CONTROL | 1.2 | 1.2 | 1.2 | 2.16.090.1.135764.3.4.7280912 | Deluxe Central Labs | rRNA | ELECTROPHORESIS | 1000450001 | Baseline | 1 | 1 | 2005-03-21T11:28:17 |", "score": 0.4107, "match_basis": "verbatim_token+domain_route:BS"}, {"md_atom_id": "md_dmBS_ex_a012", "md_file": "knowledge_base/domains/BS/examples.md", "md_atom_type": "TABLE_HEADER", "md_parent_section": "§BS.1 [Example 1]", "md_verbatim": "| Row | STUDYID | DOMAIN | USUBJID | BSSEQ | BSREFID | BSTESTCD | BSTEST | BSCAT | BSORRES | BSSTRESC | BSSTRESN | BSXFN | BSNAM | BSSPEC | BSMETHOD | BSRUNID | VISIT | VISITNUM | VISITDY | BSDTC |\n|-----|---------|--------|---------|-------|---------|----------|--------|-------|---------|----------|----------|-------|-------|--------|----------|---------|-------|----------|---------|-------|", "score": 0.3686, "match_basis": "verbatim_token+domain_route:BS"}], "candidate_count": 5, "zero_candidate": false}
{"pdf_atom_id": "ig34_p0198_a001", "pdf_atom_type": "TABLE_HEADER", "pdf_source": "SDTMIG_v3.4", "pdf_page": 198, "pdf_parent_section": "§6.3.5.2 Biospecimen Findings (BS)", "pdf_verbatim": "| Variable Name | Variable Label | Type | Controlled Terms, Codelist or Format1 | Role | CDISC Notes | Core |", "figure_ref": null, "candidates": [{"md_atom_id": "md_dmBS_ex_a012", "md_file": "knowledge_base/domains/BS/examples.md", "md_atom_type": "TABLE_HEADER", "md_parent_section": "§BS.1 [Example 1]", "md_verbatim": "| Row | STUDYID | DOMAIN | USUBJID | BSSEQ | BSREFID | BSTESTCD | BSTEST | BSCAT | BSORRES | BSSTRESC | BSSTRESN | BSXFN | BSNAM | BSSPEC | BSMETHOD | BSRUNID | VISIT | VISITNUM | VISITDY | BSDTC |\n|-----|---------|--------|---------|-------|---------|----------|--------|-------|---------|----------|----------|-------|-------|--------|----------|---------|-------|----------|---------|-------|", "score": 0.4105, "match_basis": "verbatim_token+domain_route:BS"}, {"md_atom_id": "md_dmBS_ex_a015", "md_file": "knowledge_base/domains/BS/examples.md", "md_atom_type": "TABLE_ROW", "md_parent_section": "§BS.1 [Example 1]", "md_verbatim": "| 3 | A12345 | BS | 43871 | 3 | 1148.26704 | 28S/18S | 28S/18S | QUALITY CONTROL | 1.2 | 1.2 | 1.2 | 2.16.090.1.135764.3.4.7280912 | Deluxe Central Labs | rRNA | ELECTROPHORESIS | 1000450001 | Baseline | 1 | 1 | 2005-03-21T11:28:17 |", "score": 0.3886, "match_basis": "verbatim_token+domain_route:BS"}, {"md_atom_id": "md_dmBS_ex_a016", "md_file": "knowledge_base/domains/BS/examples.md", "md_atom_type": "TABLE_ROW", "md_parent_section": "§BS.1 [Example 1]", "md_verbatim": "| 4 | A12345 | BS | 43871 | 4 | 1148.26704 | RIN | RNA INTEGRITY NUMBER | QUALITY CONTROL | 9.5 | 9.5 | 9.5 | 2.16.090.1.135764.3.4.7280912 | Deluxe Central Labs | rRNA | ELECTROPHORESIS | 1000450001 | Baseline | 1 | 1 | 2005-03-21T11:28:17 |", "score": 0.385, "match_basis": "verbatim_token+domain_route:BS"}, {"md_atom_id": "md_dmBS_ex_a014", "md_file": "knowledge_base/domains/BS/examples.md", "md_atom_type": "TABLE_ROW", "md_parent_section": "§BS.1 [Example 1]", "md_verbatim": "| 2 | A12345 | BS | 43871 | 2 | 1148.26704 | A260/A280 | A260/A280 | QUALITY CONTROL | 2 | 2 | 2 | 2.16.090.1.135764.3.4.7280912 | Deluxe Central Labs | rRNA | SPECTROPHOTOMETRY | 1000450001 | Baseline | 1 | 1 | 2005-03-21T11:28:17 |", "score": 0.3817, "match_basis": "verbatim_token+domain_route:BS"}, {"md_atom_id": "md_dmBS_ex_a013", "md_file": "knowledge_base/domains/BS/examples.md", "md_atom_type": "TABLE_ROW", "md_parent_section": "§BS.1 [Example 1]", "md_verbatim": "| 1 | A12345 | BS | 43871 | 1 | 1148.26704 | A260/A230 | A260/A230 | QUALITY CONTROL | 2.05 | 2.05 | 2.05 | 2.16.090.1.135764.3.4.7280912 | Deluxe Central Labs | rRNA | SPECTROPHOTOMETRY | 1000450001 | Baseline | 1 | 1 | 2005-03-21T11:28:17 |", "score": 0.3814, "match_basis": "verbatim_token+domain_route:BS"}], "candidate_count": 5, "zero_candidate": false}
{"pdf_atom_id": "ig34_p0198_a002", "pdf_atom_type": "TABLE_ROW", "pdf_source": "SDTMIG_v3.4", "pdf_page": 198, "pdf_parent_section": "§6.3.5.2 Biospecimen Findings (BS)", "pdf_verbatim": "| BSDY | Study Day of Specimen Collection | Num |  | Timing | Study day of specimen collection relative to the sponsor-defined RFSTDTC. | Perm |", "figure_ref": null, "candidates": [{"md_atom_id": "md_dmBS_ex_a014", "md_file": "knowledge_base/domains/BS/examples.md", "md_atom_type": "TABLE_ROW", "md_parent_section": "§BS.1 [Example 1]", "md_verbatim": "| 2 | A12345 | BS | 43871 | 2 | 1148.26704 | A260/A280 | A260/A280 | QUALITY CONTROL | 2 | 2 | 2 | 2.16.090.1.135764.3.4.7280912 | Deluxe Central Labs | rRNA | SPECTROPHOTOMETRY | 1000450001 | Baseline | 1 | 1 | 2005-03-21T11:28:17 |", "score": 0.4194, "match_basis": "verbatim_token+domain_route:BS"}, {"md_atom_id": "md_dmBS_ex_a013", "md_file": "knowledge_base/domains/BS/examples.md", "md_atom_type": "TABLE_ROW", "md_parent_section": "§BS.1 [Example 1]", "md_verbatim": "| 1 | A12345 | BS | 43871 | 1 | 1148.26704 | A260/A230 | A260/A230 | QUALITY CONTROL | 2.05 | 2.05 | 2.05 | 2.16.090.1.135764.3.4.7280912 | Deluxe Central Labs | rRNA | SPECTROPHOTOMETRY | 1000450001 | Baseline | 1 | 1 | 2005-03-21T11:28:17 |", "score": 0.4192, "match_basis": "verbatim_token+domain_route:BS"}, {"md_atom_id": "md_dmBS_ex_a016", "md_file": "knowledge_base/domains/BS/examples.md", "md_atom_type": "TABLE_ROW", "md_parent_section": "§BS.1 [Example 1]", "md_verbatim": "| 4 | A12345 | BS | 43871 | 4 | 1148.26704 | RIN | RNA INTEGRITY NUMBER | QUALITY CONTROL | 9.5 | 9.5 | 9.5 | 2.16.090.1.135764.3.4.7280912 | Deluxe Central Labs | rRNA | ELECTROPHORESIS | 1000450001 | Baseline | 1 | 1 | 2005-03-21T11:28:17 |", "score": 0.4185, "match_basis": "verbatim_token+domain_route:BS"}, {"md_atom_id": "md_dmBS_ex_a015", "md_file": "knowledge_base/domains/BS/examples.md", "md_atom_type": "TABLE_ROW", "md_parent_section": "§BS.1 [Example 1]", "md_verbatim": "| 3 | A12345 | BS | 43871 | 3 | 1148.26704 | 28S/18S | 28S/18S | QUALITY CONTROL | 1.2 | 1.2 | 1.2 | 2.16.090.1.135764.3.4.7280912 | Deluxe Central Labs | rRNA | ELECTROPHORESIS | 1000450001 | Baseline | 1 | 1 | 2005-03-21T11:28:17 |", "score": 0.4148, "match_basis": "verbatim_token+domain_route:BS"}, {"md_atom_id": "md_dmBS_ex_a012", "md_file": "knowledge_base/domains/BS/examples.md", "md_atom_type": "TABLE_HEADER", "md_parent_section": "§BS.1 [Example 1]", "md_verbatim": "| Row | STUDYID | DOMAIN | USUBJID | BSSEQ | BSREFID | BSTESTCD | BSTEST | BSCAT | BSORRES | BSSTRESC | BSSTRESN | BSXFN | BSNAM | BSSPEC | BSMETHOD | BSRUNID | VISIT | VISITNUM | VISITDY | BSDTC |\n|-----|---------|--------|---------|-------|---------|----------|--------|-------|---------|----------|----------|-------|-------|--------|----------|---------|-------|----------|---------|-------|", "score": 0.3941, "match_basis": "verbatim_token+domain_route:BS"}], "candidate_count": 5, "zero_candidate": false}
{"pdf_atom_id": "ig34_p0198_a003", "pdf_atom_type": "TABLE_ROW", "pdf_source": "SDTMIG_v3.4", "pdf_page": 198, "pdf_parent_section": "§6.3.5.2 Biospecimen Findings (BS)", "pdf_verbatim": "| BSTPT | Planned Time Point Name | Char |  | Timing | Text description of time when a measurement or observation should be taken as defined in the protocol. This may be represented as an elapsed time relative to a fixed reference point, such as time of last dose. See BSTPTNUM and BSTPTREF. | Perm |", "figure_ref": null, "candidates": [{"md_atom_id": "md_dmBS_ex_a016", "md_file": "knowledge_base/domains/BS/examples.md", "md_atom_type": "TABLE_ROW", "md_parent_section": "§BS.1 [Example 1]", "md_verbatim": "| 4 | A12345 | BS | 43871 | 4 | 1148.26704 | RIN | RNA INTEGRITY NUMBER | QUALITY CONTROL | 9.5 | 9.5 | 9.5 | 2.16.090.1.135764.3.4.7280912 | Deluxe Central Labs | rRNA | ELECTROPHORESIS | 1000450001 | Baseline | 1 | 1 | 2005-03-21T11:28:17 |", "score": 0.4188, "match_basis": "verbatim_token+domain_route:BS"}, {"md_atom_id": "md_dmBS_ex_a015", "md_file": "knowledge_base/domains/BS/examples.md", "md_atom_type": "TABLE_ROW", "md_parent_section": "§BS.1 [Example 1]", "md_verbatim": "| 3 | A12345 | BS | 43871 | 3 | 1148.26704 | 28S/18S | 28S/18S | QUALITY CONTROL | 1.2 | 1.2 | 1.2 | 2.16.090.1.135764.3.4.7280912 | Deluxe Central Labs | rRNA | ELECTROPHORESIS | 1000450001 | Baseline | 1 | 1 | 2005-03-21T11:28:17 |", "score": 0.4097, "match_basis": "verbatim_token+domain_route:BS"}, {"md_atom_id": "md_dmBS_ex_a014", "md_file": "knowledge_base/domains/BS/examples.md", "md_atom_type": "TABLE_ROW", "md_parent_section": "§BS.1 [Example 1]", "md_verbatim": "| 2 | A12345 | BS | 43871 | 2 | 1148.26704 | A260/A280 | A260/A280 | QUALITY CONTROL | 2 | 2 | 2 | 2.16.090.1.135764.3.4.7280912 | Deluxe Central Labs | rRNA | SPECTROPHOTOMETRY | 1000450001 | Baseline | 1 | 1 | 2005-03-21T11:28:17 |", "score": 0.4096, "match_basis": "verbatim_token+domain_route:BS"}, {"md_atom_id": "md_dmBS_ex_a013", "md_file": "knowledge_base/domains/BS/examples.md", "md_atom_type": "TABLE_ROW", "md_parent_section": "§BS.1 [Example 1]", "md_verbatim": "| 1 | A12345 | BS | 43871 | 1 | 1148.26704 | A260/A230 | A260/A230 | QUALITY CONTROL | 2.05 | 2.05 | 2.05 | 2.16.090.1.135764.3.4.7280912 | Deluxe Central Labs | rRNA | SPECTROPHOTOMETRY | 1000450001 | Baseline | 1 | 1 | 2005-03-21T11:28:17 |", "score": 0.4095, "match_basis": "verbatim_token+domain_route:BS"}, {"md_atom_id": "md_dmBS_ex_a012", "md_file": "knowledge_base/domains/BS/examples.md", "md_atom_type": "TABLE_HEADER", "md_parent_section": "§BS.1 [Example 1]", "md_verbatim": "| Row | STUDYID | DOMAIN | USUBJID | BSSEQ | BSREFID | BSTESTCD | BSTEST | BSCAT | BSORRES | BSSTRESC | BSSTRESN | BSXFN | BSNAM | BSSPEC | BSMETHOD | BSRUNID | VISIT | VISITNUM | VISITDY | BSDTC |\n|-----|---------|--------|---------|-------|---------|----------|--------|-------|---------|----------|----------|-------|-------|--------|----------|---------|-------|----------|---------|-------|", "score": 0.3709, "match_basis": "verbatim_token+domain_route:BS"}], "candidate_count": 5, "zero_candidate": false}
{"pdf_atom_id": "ig34_p0198_a004", "pdf_atom_type": "TABLE_ROW", "pdf_source": "SDTMIG_v3.4", "pdf_page": 198, "pdf_parent_section": "§6.3.5.2 Biospecimen Findings (BS)", "pdf_verbatim": "| BSTPTNUM | Planned Time Point Number | Num |  | Timing | Numerical version of BSTPT used in sorting. | Perm |", "figure_ref": null, "candidates": [{"md_atom_id": "md_dmBS_ex_a016", "md_file": "knowledge_base/domains/BS/examples.md", "md_atom_type": "TABLE_ROW", "md_parent_section": "§BS.1 [Example 1]", "md_verbatim": "| 4 | A12345 | BS | 43871 | 4 | 1148.26704 | RIN | RNA INTEGRITY NUMBER | QUALITY CONTROL | 9.5 | 9.5 | 9.5 | 2.16.090.1.135764.3.4.7280912 | Deluxe Central Labs | rRNA | ELECTROPHORESIS | 1000450001 | Baseline | 1 | 1 | 2005-03-21T11:28:17 |", "score": 0.4248, "match_basis": "verbatim_token+domain_route:BS"}, {"md_atom_id": "md_dmBS_ex_a013", "md_file": "knowledge_base/domains/BS/examples.md", "md_atom_type": "TABLE_ROW", "md_parent_section": "§BS.1 [Example 1]", "md_verbatim": "| 1 | A12345 | BS | 43871 | 1 | 1148.26704 | A260/A230 | A260/A230 | QUALITY CONTROL | 2.05 | 2.05 | 2.05 | 2.16.090.1.135764.3.4.7280912 | Deluxe Central Labs | rRNA | SPECTROPHOTOMETRY | 1000450001 | Baseline | 1 | 1 | 2005-03-21T11:28:17 |", "score": 0.4, "match_basis": "verbatim_token+domain_route:BS"}, {"md_atom_id": "md_dmBS_ex_a014", "md_file": "knowledge_base/domains/BS/examples.md", "md_atom_type": "TABLE_ROW", "md_parent_section": "§BS.1 [Example 1]", "md_verbatim": "| 2 | A12345 | BS | 43871 | 2 | 1148.26704 | A260/A280 | A260/A280 | QUALITY CONTROL | 2 | 2 | 2 | 2.16.090.1.135764.3.4.7280912 | Deluxe Central Labs | rRNA | SPECTROPHOTOMETRY | 1000450001 | Baseline | 1 | 1 | 2005-03-21T11:28:17 |", "score": 0.4, "match_basis": "verbatim_token+domain_route:BS"}, {"md_atom_id": "md_dmBS_ex_a015", "md_file": "knowledge_base/domains/BS/examples.md", "md_atom_type": "TABLE_ROW", "md_parent_section": "§BS.1 [Example 1]", "md_verbatim": "| 3 | A12345 | BS | 43871 | 3 | 1148.26704 | 28S/18S | 28S/18S | QUALITY CONTROL | 1.2 | 1.2 | 1.2 | 2.16.090.1.135764.3.4.7280912 | Deluxe Central Labs | rRNA | ELECTROPHORESIS | 1000450001 | Baseline | 1 | 1 | 2005-03-21T11:28:17 |", "score": 0.4, "match_basis": "verbatim_token+domain_route:BS"}, {"md_atom_id": "md_dmBS_ex_a012", "md_file": "knowledge_base/domains/BS/examples.md", "md_atom_type": "TABLE_HEADER", "md_parent_section": "§BS.1 [Example 1]", "md_verbatim": "| Row | STUDYID | DOMAIN | USUBJID | BSSEQ | BSREFID | BSTESTCD | BSTEST | BSCAT | BSORRES | BSSTRESC | BSSTRESN | BSXFN | BSNAM | BSSPEC | BSMETHOD | BSRUNID | VISIT | VISITNUM | VISITDY | BSDTC |\n|-----|---------|--------|---------|-------|---------|----------|--------|-------|---------|----------|----------|-------|-------|--------|----------|---------|-------|----------|---------|-------|", "score": 0.362, "match_basis": "verbatim_token+domain_route:BS"}], "candidate_count": 5, "zero_candidate": false}
{"pdf_atom_id": "ig34_p0198_a005", "pdf_atom_type": "TABLE_ROW", "pdf_source": "SDTMIG_v3.4", "pdf_page": 198, "pdf_parent_section": "§6.3.5.2 Biospecimen Findings (BS)", "pdf_verbatim": "| BSELTM | Planned Elapsed Time from Time Point Ref | Char | ISO 8601 duration | Timing | Elapsed time relative to a planned fixed reference (BSTPTREF). This variable is useful where there are repetitive measures. Not a clock time or a date time variable, but an interval, represented as ISO duration. | Perm |", "figure_ref": null, "candidates": [{"md_atom_id": "md_dmBS_ex_a016", "md_file": "knowledge_base/domains/BS/examples.md", "md_atom_type": "TABLE_ROW", "md_parent_section": "§BS.1 [Example 1]", "md_verbatim": "| 4 | A12345 | BS | 43871 | 4 | 1148.26704 | RIN | RNA INTEGRITY NUMBER | QUALITY CONTROL | 9.5 | 9.5 | 9.5 | 2.16.090.1.135764.3.4.7280912 | Deluxe Central Labs | rRNA | ELECTROPHORESIS | 1000450001 | Baseline | 1 | 1 | 2005-03-21T11:28:17 |", "score": 0.4165, "match_basis": "verbatim_token+domain_route:BS"}, {"md_atom_id": "md_dmBS_ex_a015", "md_file": "knowledge_base/domains/BS/examples.md", "md_atom_type": "TABLE_ROW", "md_parent_section": "§BS.1 [Example 1]", "md_verbatim": "| 3 | A12345 | BS | 43871 | 3 | 1148.26704 | 28S/18S | 28S/18S | QUALITY CONTROL | 1.2 | 1.2 | 1.2 | 2.16.090.1.135764.3.4.7280912 | Deluxe Central Labs | rRNA | ELECTROPHORESIS | 1000450001 | Baseline | 1 | 1 | 2005-03-21T11:28:17 |", "score": 0.4103, "match_basis": "verbatim_token+domain_route:BS"}, {"md_atom_id": "md_dmBS_ex_a014", "md_file": "knowledge_base/domains/BS/examples.md", "md_atom_type": "TABLE_ROW", "md_parent_section": "§BS.1 [Example 1]", "md_verbatim": "| 2 | A12345 | BS | 43871 | 2 | 1148.26704 | A260/A280 | A260/A280 | QUALITY CONTROL | 2 | 2 | 2 | 2.16.090.1.135764.3.4.7280912 | Deluxe Central Labs | rRNA | SPECTROPHOTOMETRY | 1000450001 | Baseline | 1 | 1 | 2005-03-21T11:28:17 |", "score": 0.4067, "match_basis": "verbatim_token+domain_route:BS"}, {"md_atom_id": "md_dmBS_ex_a013", "md_file": "knowledge_base/domains/BS/examples.md", "md_atom_type": "TABLE_ROW", "md_parent_section": "§BS.1 [Example 1]", "md_verbatim": "| 1 | A12345 | BS | 43871 | 1 | 1148.26704 | A260/A230 | A260/A230 | QUALITY CONTROL | 2.05 | 2.05 | 2.05 | 2.16.090.1.135764.3.4.7280912 | Deluxe Central Labs | rRNA | SPECTROPHOTOMETRY | 1000450001 | Baseline | 1 | 1 | 2005-03-21T11:28:17 |", "score": 0.4067, "match_basis": "verbatim_token+domain_route:BS"}, {"md_atom_id": "md_dmBS_ex_a012", "md_file": "knowledge_base/domains/BS/examples.md", "md_atom_type": "TABLE_HEADER", "md_parent_section": "§BS.1 [Example 1]", "md_verbatim": "| Row | STUDYID | DOMAIN | USUBJID | BSSEQ | BSREFID | BSTESTCD | BSTEST | BSCAT | BSORRES | BSSTRESC | BSSTRESN | BSXFN | BSNAM | BSSPEC | BSMETHOD | BSRUNID | VISIT | VISITNUM | VISITDY | BSDTC |\n|-----|---------|--------|---------|-------|---------|----------|--------|-------|---------|----------|----------|-------|-------|--------|----------|---------|-------|----------|---------|-------|", "score": 0.3541, "match_basis": "verbatim_token+domain_route:BS"}], "candidate_count": 5, "zero_candidate": false}
{"pdf_atom_id": "ig34_p0198_a006", "pdf_atom_type": "TABLE_ROW", "pdf_source": "SDTMIG_v3.4", "pdf_page": 198, "pdf_parent_section": "§6.3.5.2 Biospecimen Findings (BS)", "pdf_verbatim": "| BSTPTREF | Time Point Reference | Char |  | Timing | Name of the fixed reference point referred to by BSELTM, BSTPTNUM, and BSTPT. Examples: PREVIOUS DOSE, PREVIOUS MEAL. | Perm |", "figure_ref": null, "candidates": [{"md_atom_id": "md_dmBS_ex_a016", "md_file": "knowledge_base/domains/BS/examples.md", "md_atom_type": "TABLE_ROW", "md_parent_section": "§BS.1 [Example 1]", "md_verbatim": "| 4 | A12345 | BS | 43871 | 4 | 1148.26704 | RIN | RNA INTEGRITY NUMBER | QUALITY CONTROL | 9.5 | 9.5 | 9.5 | 2.16.090.1.135764.3.4.7280912 | Deluxe Central Labs | rRNA | ELECTROPHORESIS | 1000450001 | Baseline | 1 | 1 | 2005-03-21T11:28:17 |", "score": 0.4129, "match_basis": "verbatim_token+domain_route:BS"}, {"md_atom_id": "md_dmBS_ex_a015", "md_file": "knowledge_base/domains/BS/examples.md", "md_atom_type": "TABLE_ROW", "md_parent_section": "§BS.1 [Example 1]", "md_verbatim": "| 3 | A12345 | BS | 43871 | 3 | 1148.26704 | 28S/18S | 28S/18S | QUALITY CONTROL | 1.2 | 1.2 | 1.2 | 2.16.090.1.135764.3.4.7280912 | Deluxe Central Labs | rRNA | ELECTROPHORESIS | 1000450001 | Baseline | 1 | 1 | 2005-03-21T11:28:17 |", "score": 0.4045, "match_basis": "verbatim_token+domain_route:BS"}, {"md_atom_id": "md_dmBS_ex_a014", "md_file": "knowledge_base/domains/BS/examples.md", "md_atom_type": "TABLE_ROW", "md_parent_section": "§BS.1 [Example 1]", "md_verbatim": "| 2 | A12345 | BS | 43871 | 2 | 1148.26704 | A260/A280 | A260/A280 | QUALITY CONTROL | 2 | 2 | 2 | 2.16.090.1.135764.3.4.7280912 | Deluxe Central Labs | rRNA | SPECTROPHOTOMETRY | 1000450001 | Baseline | 1 | 1 | 2005-03-21T11:28:17 |", "score": 0.4044, "match_basis": "verbatim_token+domain_route:BS"}, {"md_atom_id": "md_dmBS_ex_a013", "md_file": "knowledge_base/domains/BS/examples.md", "md_atom_type": "TABLE_ROW", "md_parent_section": "§BS.1 [Example 1]", "md_verbatim": "| 1 | A12345 | BS | 43871 | 1 | 1148.26704 | A260/A230 | A260/A230 | QUALITY CONTROL | 2.05 | 2.05 | 2.05 | 2.16.090.1.135764.3.4.7280912 | Deluxe Central Labs | rRNA | SPECTROPHOTOMETRY | 1000450001 | Baseline | 1 | 1 | 2005-03-21T11:28:17 |", "score": 0.4044, "match_basis": "verbatim_token+domain_route:BS"}, {"md_atom_id": "md_dmBS_ex_a012", "md_file": "knowledge_base/domains/BS/examples.md", "md_atom_type": "TABLE_HEADER", "md_parent_section": "§BS.1 [Example 1]", "md_verbatim": "| Row | STUDYID | DOMAIN | USUBJID | BSSEQ | BSREFID | BSTESTCD | BSTEST | BSCAT | BSORRES | BSSTRESC | BSSTRESN | BSXFN | BSNAM | BSSPEC | BSMETHOD | BSRUNID | VISIT | VISITNUM | VISITDY | BSDTC |\n|-----|---------|--------|---------|-------|---------|----------|--------|-------|---------|----------|----------|-------|-------|--------|----------|---------|-------|----------|---------|-------|", "score": 0.3744, "match_basis": "verbatim_token+domain_route:BS"}], "candidate_count": 5, "zero_candidate": false}
{"pdf_atom_id": "ig34_p0198_a007", "pdf_atom_type": "TABLE_ROW", "pdf_source": "SDTMIG_v3.4", "pdf_page": 198, "pdf_parent_section": "§6.3.5.2 Biospecimen Findings (BS)", "pdf_verbatim": "| BSRFTDTC | Date/Time of Reference Time Point | Char | ISO 8601 datetime or interval | Timing | Date/time for a fixed reference time point defined by BSTPTREF. | Perm |", "figure_ref": null, "candidates": [{"md_atom_id": "md_dmBS_ex_a016", "md_file": "knowledge_base/domains/BS/examples.md", "md_atom_type": "TABLE_ROW", "md_parent_section": "§BS.1 [Example 1]", "md_verbatim": "| 4 | A12345 | BS | 43871 | 4 | 1148.26704 | RIN | RNA INTEGRITY NUMBER | QUALITY CONTROL | 9.5 | 9.5 | 9.5 | 2.16.090.1.135764.3.4.7280912 | Deluxe Central Labs | rRNA | ELECTROPHORESIS | 1000450001 | Baseline | 1 | 1 | 2005-03-21T11:28:17 |", "score": 0.4135, "match_basis": "verbatim_token+domain_route:BS"}, {"md_atom_id": "md_dmBS_ex_a015", "md_file": "knowledge_base/domains/BS/examples.md", "md_atom_type": "TABLE_ROW", "md_parent_section": "§BS.1 [Example 1]", "md_verbatim": "| 3 | A12345 | BS | 43871 | 3 | 1148.26704 | 28S/18S | 28S/18S | QUALITY CONTROL | 1.2 | 1.2 | 1.2 | 2.16.090.1.135764.3.4.7280912 | Deluxe Central Labs | rRNA | ELECTROPHORESIS | 1000450001 | Baseline | 1 | 1 | 2005-03-21T11:28:17 |", "score": 0.4048, "match_basis": "verbatim_token+domain_route:BS"}, {"md_atom_id": "md_dmBS_ex_a014", "md_file": "knowledge_base/domains/BS/examples.md", "md_atom_type": "TABLE_ROW", "md_parent_section": "§BS.1 [Example 1]", "md_verbatim": "| 2 | A12345 | BS | 43871 | 2 | 1148.26704 | A260/A280 | A260/A280 | QUALITY CONTROL | 2 | 2 | 2 | 2.16.090.1.135764.3.4.7280912 | Deluxe Central Labs | rRNA | SPECTROPHOTOMETRY | 1000450001 | Baseline | 1 | 1 | 2005-03-21T11:28:17 |", "score": 0.4047, "match_basis": "verbatim_token+domain_route:BS"}, {"md_atom_id": "md_dmBS_ex_a013", "md_file": "knowledge_base/domains/BS/examples.md", "md_atom_type": "TABLE_ROW", "md_parent_section": "§BS.1 [Example 1]", "md_verbatim": "| 1 | A12345 | BS | 43871 | 1 | 1148.26704 | A260/A230 | A260/A230 | QUALITY CONTROL | 2.05 | 2.05 | 2.05 | 2.16.090.1.135764.3.4.7280912 | Deluxe Central Labs | rRNA | SPECTROPHOTOMETRY | 1000450001 | Baseline | 1 | 1 | 2005-03-21T11:28:17 |", "score": 0.4046, "match_basis": "verbatim_token+domain_route:BS"}, {"md_atom_id": "md_dmBS_ex_a012", "md_file": "knowledge_base/domains/BS/examples.md", "md_atom_type": "TABLE_HEADER", "md_parent_section": "§BS.1 [Example 1]", "md_verbatim": "| Row | STUDYID | DOMAIN | USUBJID | BSSEQ | BSREFID | BSTESTCD | BSTEST | BSCAT | BSORRES | BSSTRESC | BSSTRESN | BSXFN | BSNAM | BSSPEC | BSMETHOD | BSRUNID | VISIT | VISITNUM | VISITDY | BSDTC |\n|-----|---------|--------|---------|-------|---------|----------|--------|-------|---------|----------|----------|-------|-------|--------|----------|---------|-------|----------|---------|-------|", "score": 0.3708, "match_basis": "verbatim_token+domain_route:BS"}], "candidate_count": 5, "zero_candidate": false}
{"pdf_atom_id": "ig34_p0198_a008", "pdf_atom_type": "NOTE", "pdf_source": "SDTMIG_v3.4", "pdf_page": 198, "pdf_parent_section": "§6.3.5.2 Biospecimen Findings (BS)", "pdf_verbatim": "1In this column, an asterisk (*) indicates that the variable may be subject to controlled terminology. CDISC/NCI codelist values are enclosed in parentheses.", "figure_ref": null, "candidates": [{"md_atom_id": "md_dmBS_ex_a007", "md_file": "knowledge_base/domains/BS/examples.md", "md_atom_type": "SENTENCE", "md_parent_section": "§BS.1 [Example 1]", "md_verbatim": "Any ratios outside of the accepted values may indicate contamination with protein or reagents used during the extraction process.", "score": 0.3897, "match_basis": "verbatim_token+domain_route:BS"}, {"md_atom_id": "md_dmBS_assn_a004", "md_file": "knowledge_base/domains/BS/assumptions.md", "md_atom_type": "LIST_ITEM", "md_parent_section": "§BS [BS — Assumptions]", "md_verbatim": "3. Non-genetic BSSPEC values are drawn from the SPEC (C77529) codelist, which is part of the SEND terminology listing. BSANTREG is used to further define BSSPEC when it is desirable to identify a specific region within an organ.", "score": 0.3651, "match_basis": "verbatim_token+domain_route:BS"}, {"md_atom_id": "md_dmBS_ex_a009", "md_file": "knowledge_base/domains/BS/examples.md", "md_atom_type": "SENTENCE", "md_parent_section": "§BS.1 [Example 1]", "md_verbatim": "Because values in --TESTCD cannot begin with a number, the test code has been prefixed with an \"I\" for integrity.", "score": 0.351, "match_basis": "verbatim_token+domain_route:BS"}, {"md_atom_id": "md_dmBS_ex_a006", "md_file": "knowledge_base/domains/BS/examples.md", "md_atom_type": "SENTENCE", "md_parent_section": "§BS.1 [Example 1]", "md_verbatim": "**Rows 1-2:** The A260/A280 and A260/A230 ratios are used to determine the purity of the RNA sample.", "score": 0.35, "match_basis": "verbatim_token+domain_route:BS"}, {"md_atom_id": "md_dmBS_ex_a010", "md_file": "knowledge_base/domains/BS/examples.md", "md_atom_type": "SENTENCE", "md_parent_section": "§BS.1 [Example 1]", "md_verbatim": "**Row 4:** The RNA integrity number is a quality measurement calculated using a special algorithm and used to determine the usability of the RNA sample.", "score": 0.3445, "match_basis": "verbatim_token+domain_route:BS"}], "candidate_count": 5, "zero_candidate": false}
{"pdf_atom_id": "ig34_p0198_a009", "pdf_atom_type": "HEADING", "pdf_source": "SDTMIG_v3.4", "pdf_page": 198, "pdf_parent_section": "§6.3.5.2 Biospecimen Findings (BS)", "pdf_verbatim": "BS – Assumptions", "figure_ref": null, "candidates": [{"md_atom_id": "md_dmBS_assn_a001", "md_file": "knowledge_base/domains/BS/assumptions.md", "md_atom_type": "HEADING", "md_parent_section": "§BS [BS — Assumptions]", "md_verbatim": "# BS — Assumptions", "score": 1.0, "match_basis": "verbatim_token+domain_route:BS"}, {"md_atom_id": "md_dmBS_ex_a001", "md_file": "knowledge_base/domains/BS/examples.md", "md_atom_type": "HEADING", "md_parent_section": "§BS [BS — Examples]", "md_verbatim": "# BS — Examples", "score": 0.4, "match_basis": "verbatim_token+domain_route:BS"}, {"md_atom_id": "md_dmBS_ex_a002", "md_file": "knowledge_base/domains/BS/examples.md", "md_atom_type": "HEADING", "md_parent_section": "§BS.1 [Example 1]", "md_verbatim": "## Example 1", "score": 0.4, "match_basis": "verbatim_token+domain_route:BS"}], "candidate_count": 3, "zero_candidate": false}
{"pdf_atom_id": "ig34_p0198_a010", "pdf_atom_type": "LIST_ITEM", "pdf_source": "SDTMIG_v3.4", "pdf_page": 198, "pdf_parent_section": "§6.3.5.2 Biospecimen Findings (BS)", "pdf_verbatim": "1. The BS domain is used to store findings related to specimen handling and specimen characteristics such as type, amount, or size. BS is not restricted to PGx-related specimens.", "figure_ref": null, "candidates": [{"md_atom_id": "md_dmBS_assn_a002", "md_file": "knowledge_base/domains/BS/assumptions.md", "md_atom_type": "LIST_ITEM", "md_parent_section": "§BS [BS — Assumptions]", "md_verbatim": "1. The BS domain is used to store findings related to specimen handling and specimen characteristics such as type, amount, or size. BS is not restricted to PGx-related specimens.", "score": 1.0, "match_basis": "verbatim_token+domain_route:BS"}, {"md_atom_id": "md_dmBS_assn_a003", "md_file": "knowledge_base/domains/BS/assumptions.md", "md_atom_type": "LIST_ITEM", "md_parent_section": "§BS [BS — Assumptions]", "md_verbatim": "2. For biospecimens of genetic material, BSSPEC values are drawn from the GENSMP (C111114) codelist.", "score": 0.4804, "match_basis": "verbatim_token+domain_route:BS"}, {"md_atom_id": "md_dmBS_assn_a004", "md_file": "knowledge_base/domains/BS/assumptions.md", "md_atom_type": "LIST_ITEM", "md_parent_section": "§BS [BS — Assumptions]", "md_verbatim": "3. Non-genetic BSSPEC values are drawn from the SPEC (C77529) codelist, which is part of the SEND terminology listing. BSANTREG is used to further define BSSPEC when it is desirable to identify a specific region within an organ.", "score": 0.449, "match_basis": "verbatim_token+domain_route:BS"}, {"md_atom_id": "md_dmBS_assn_a006", "md_file": "knowledge_base/domains/BS/assumptions.md", "md_atom_type": "LIST_ITEM", "md_parent_section": "§BS [BS — Assumptions]", "md_verbatim": "5. The following variables generally would not be used in BS: --POS, --ORNLO, --ORNHI, --STNRLO, --STNRHI, --STNRC, --NRIND, --LEAD, --CSTATE, --ACPTFL, --FAST, --TOX, --TOXGR, --SEV, --DTHREL.", "score": 0.44, "match_basis": "verbatim_token+domain_route:BS"}, {"md_atom_id": "md_dmBS_assn_a005", "md_file": "knowledge_base/domains/BS/assumptions.md", "md_atom_type": "LIST_ITEM", "md_parent_section": "§BS [BS — Assumptions]", "md_verbatim": "4. To adapt BS for use with the SDTMIG, use the SPECTYPE (C78734) codelist in BSSPEC, add --LOC, --LAT, --DIR, and --PORTOT as applicable, and remove BSANTREG. Values that would otherwise have gone in BSANTREG may be placed in a supplemental qualifier that is almost identical to that variable, but which further qualifies BSLOC instead of BSSPEC.", "score": 0.4371, "match_basis": "verbatim_token+domain_route:BS"}], "candidate_count": 5, "zero_candidate": false}
{"pdf_atom_id": "ig34_p0198_a011", "pdf_atom_type": "LIST_ITEM", "pdf_source": "SDTMIG_v3.4", "pdf_page": 198, "pdf_parent_section": "§6.3.5.2 Biospecimen Findings (BS)", "pdf_verbatim": "2. For biospecimens of genetic material, BSSPEC values are drawn from the GENSMP (C111114) codelist.", "figure_ref": null, "candidates": [{"md_atom_id": "md_dmBS_assn_a003", "md_file": "knowledge_base/domains/BS/assumptions.md", "md_atom_type": "LIST_ITEM", "md_parent_section": "§BS [BS — Assumptions]", "md_verbatim": "2. For biospecimens of genetic material, BSSPEC values are drawn from the GENSMP (C111114) codelist.", "score": 1.0, "match_basis": "verbatim_token+domain_route:BS"}, {"md_atom_id": "md_dmBS_assn_a004", "md_file": "knowledge_base/domains/BS/assumptions.md", "md_atom_type": "LIST_ITEM", "md_parent_section": "§BS [BS — Assumptions]", "md_verbatim": "3. Non-genetic BSSPEC values are drawn from the SPEC (C77529) codelist, which is part of the SEND terminology listing. BSANTREG is used to further define BSSPEC when it is desirable to identify a specific region within an organ.", "score": 0.5487, "match_basis": "verbatim_token+domain_route:BS"}, {"md_atom_id": "md_dmBS_assn_a002", "md_file": "knowledge_base/domains/BS/assumptions.md", "md_atom_type": "LIST_ITEM", "md_parent_section": "§BS [BS — Assumptions]", "md_verbatim": "1. The BS domain is used to store findings related to specimen handling and specimen characteristics such as type, amount, or size. BS is not restricted to PGx-related specimens.", "score": 0.4804, "match_basis": "verbatim_token+domain_route:BS"}, {"md_atom_id": "md_dmBS_assn_a005", "md_file": "knowledge_base/domains/BS/assumptions.md", "md_atom_type": "LIST_ITEM", "md_parent_section": "§BS [BS — Assumptions]", "md_verbatim": "4. To adapt BS for use with the SDTMIG, use the SPECTYPE (C78734) codelist in BSSPEC, add --LOC, --LAT, --DIR, and --PORTOT as applicable, and remove BSANTREG. Values that would otherwise have gone in BSANTREG may be placed in a supplemental qualifier that is almost identical to that variable, but which further qualifies BSLOC instead of BSSPEC.", "score": 0.475, "match_basis": "verbatim_token+domain_route:BS"}, {"md_atom_id": "md_dmBS_assn_a006", "md_file": "knowledge_base/domains/BS/assumptions.md", "md_atom_type": "LIST_ITEM", "md_parent_section": "§BS [BS — Assumptions]", "md_verbatim": "5. The following variables generally would not be used in BS: --POS, --ORNLO, --ORNHI, --STNRLO, --STNRHI, --STNRC, --NRIND, --LEAD, --CSTATE, --ACPTFL, --FAST, --TOX, --TOXGR, --SEV, --DTHREL.", "score": 0.4286, "match_basis": "verbatim_token+domain_route:BS"}], "candidate_count": 5, "zero_candidate": false}
{"pdf_atom_id": "ig34_p0198_a012", "pdf_atom_type": "LIST_ITEM", "pdf_source": "SDTMIG_v3.4", "pdf_page": 198, "pdf_parent_section": "§6.3.5.2 Biospecimen Findings (BS)", "pdf_verbatim": "3. Non-genetic BSSPEC values are drawn from the SPEC (C77529) codelist, which is part of the SEND terminology listing. BSANTREG is used to further define BSSPEC when it is desirable to identify a specific region within an organ.", "figure_ref": null, "candidates": [{"md_atom_id": "md_dmBS_assn_a004", "md_file": "knowledge_base/domains/BS/assumptions.md", "md_atom_type": "LIST_ITEM", "md_parent_section": "§BS [BS — Assumptions]", "md_verbatim": "3. Non-genetic BSSPEC values are drawn from the SPEC (C77529) codelist, which is part of the SEND terminology listing. BSANTREG is used to further define BSSPEC when it is desirable to identify a specific region within an organ.", "score": 1.0, "match_basis": "verbatim_token+domain_route:BS"}, {"md_atom_id": "md_dmBS_assn_a003", "md_file": "knowledge_base/domains/BS/assumptions.md", "md_atom_type": "LIST_ITEM", "md_parent_section": "§BS [BS — Assumptions]", "md_verbatim": "2. For biospecimens of genetic material, BSSPEC values are drawn from the GENSMP (C111114) codelist.", "score": 0.5487, "match_basis": "verbatim_token+domain_route:BS"}, {"md_atom_id": "md_dmBS_assn_a005", "md_file": "knowledge_base/domains/BS/assumptions.md", "md_atom_type": "LIST_ITEM", "md_parent_section": "§BS [BS — Assumptions]", "md_verbatim": "4. To adapt BS for use with the SDTMIG, use the SPECTYPE (C78734) codelist in BSSPEC, add --LOC, --LAT, --DIR, and --PORTOT as applicable, and remove BSANTREG. Values that would otherwise have gone in BSANTREG may be placed in a supplemental qualifier that is almost identical to that variable, but which further qualifies BSLOC instead of BSSPEC.", "score": 0.5293, "match_basis": "verbatim_token+domain_route:BS"}, {"md_atom_id": "md_dmBS_assn_a002", "md_file": "knowledge_base/domains/BS/assumptions.md", "md_atom_type": "LIST_ITEM", "md_parent_section": "§BS [BS — Assumptions]", "md_verbatim": "1. The BS domain is used to store findings related to specimen handling and specimen characteristics such as type, amount, or size. BS is not restricted to PGx-related specimens.", "score": 0.449, "match_basis": "verbatim_token+domain_route:BS"}, {"md_atom_id": "md_dmBS_assn_a006", "md_file": "knowledge_base/domains/BS/assumptions.md", "md_atom_type": "LIST_ITEM", "md_parent_section": "§BS [BS — Assumptions]", "md_verbatim": "5. The following variables generally would not be used in BS: --POS, --ORNLO, --ORNHI, --STNRLO, --STNRHI, --STNRC, --NRIND, --LEAD, --CSTATE, --ACPTFL, --FAST, --TOX, --TOXGR, --SEV, --DTHREL.", "score": 0.4318, "match_basis": "verbatim_token+domain_route:BS"}], "candidate_count": 5, "zero_candidate": false}
{"pdf_atom_id": "ig34_p0198_a013", "pdf_atom_type": "LIST_ITEM", "pdf_source": "SDTMIG_v3.4", "pdf_page": 198, "pdf_parent_section": "§6.3.5.2 Biospecimen Findings (BS)", "pdf_verbatim": "4. To adapt BS for use with the SDTMIG, use the SPECTYPE (C78734) codelist in BSSPEC, add --LOC, --LAT, --DIR, and --PORTOT as applicable, and remove BSANTREG. Values that would otherwise have gone in BSANTREG may be placed in a supplemental qualifier that is almost identical to that variable, but which further qualifies BSLOC instead of BSSPEC.", "figure_ref": null, "candidates": [{"md_atom_id": "md_dmBS_assn_a005", "md_file": "knowledge_base/domains/BS/assumptions.md", "md_atom_type": "LIST_ITEM", "md_parent_section": "§BS [BS — Assumptions]", "md_verbatim": "4. To adapt BS for use with the SDTMIG, use the SPECTYPE (C78734) codelist in BSSPEC, add --LOC, --LAT, --DIR, and --PORTOT as applicable, and remove BSANTREG. Values that would otherwise have gone in BSANTREG may be placed in a supplemental qualifier that is almost identical to that variable, but which further qualifies BSLOC instead of BSSPEC.", "score": 1.0, "match_basis": "verbatim_token+domain_route:BS"}, {"md_atom_id": "md_dmBS_assn_a004", "md_file": "knowledge_base/domains/BS/assumptions.md", "md_atom_type": "LIST_ITEM", "md_parent_section": "§BS [BS — Assumptions]", "md_verbatim": "3. Non-genetic BSSPEC values are drawn from the SPEC (C77529) codelist, which is part of the SEND terminology listing. BSANTREG is used to further define BSSPEC when it is desirable to identify a specific region within an organ.", "score": 0.5293, "match_basis": "verbatim_token+domain_route:BS"}, {"md_atom_id": "md_dmBS_assn_a003", "md_file": "knowledge_base/domains/BS/assumptions.md", "md_atom_type": "LIST_ITEM", "md_parent_section": "§BS [BS — Assumptions]", "md_verbatim": "2. For biospecimens of genetic material, BSSPEC values are drawn from the GENSMP (C111114) codelist.", "score": 0.475, "match_basis": "verbatim_token+domain_route:BS"}, {"md_atom_id": "md_dmBS_assn_a006", "md_file": "knowledge_base/domains/BS/assumptions.md", "md_atom_type": "LIST_ITEM", "md_parent_section": "§BS [BS — Assumptions]", "md_verbatim": "5. The following variables generally would not be used in BS: --POS, --ORNLO, --ORNHI, --STNRLO, --STNRHI, --STNRC, --NRIND, --LEAD, --CSTATE, --ACPTFL, --FAST, --TOX, --TOXGR, --SEV, --DTHREL.", "score": 0.4407, "match_basis": "verbatim_token+domain_route:BS"}, {"md_atom_id": "md_dmBS_assn_a002", "md_file": "knowledge_base/domains/BS/assumptions.md", "md_atom_type": "LIST_ITEM", "md_parent_section": "§BS [BS — Assumptions]", "md_verbatim": "1. The BS domain is used to store findings related to specimen handling and specimen characteristics such as type, amount, or size. BS is not restricted to PGx-related specimens.", "score": 0.4371, "match_basis": "verbatim_token+domain_route:BS"}], "candidate_count": 5, "zero_candidate": false}
{"pdf_atom_id": "ig34_p0198_a014", "pdf_atom_type": "LIST_ITEM", "pdf_source": "SDTMIG_v3.4", "pdf_page": 198, "pdf_parent_section": "§6.3.5.2 Biospecimen Findings (BS)", "pdf_verbatim": "5. The following variables generally would not be used in BS: --POS, --ORNLO, --ORNHI, --STRNLO, --STNRHI, --STNRC, --NRIND, --LEAD, --CSTATE, --ACPTFL, --FAST, --TOX, --TOXGR, --SEV, --DTHREL.", "figure_ref": null, "candidates": [{"md_atom_id": "md_dmBS_assn_a006", "md_file": "knowledge_base/domains/BS/assumptions.md", "md_atom_type": "LIST_ITEM", "md_parent_section": "§BS [BS — Assumptions]", "md_verbatim": "5. The following variables generally would not be used in BS: --POS, --ORNLO, --ORNHI, --STNRLO, --STNRHI, --STNRC, --NRIND, --LEAD, --CSTATE, --ACPTFL, --FAST, --TOX, --TOXGR, --SEV, --DTHREL.", "score": 0.9636, "match_basis": "verbatim_token+domain_route:BS"}, {"md_atom_id": "md_dmBS_assn_a002", "md_file": "knowledge_base/domains/BS/assumptions.md", "md_atom_type": "LIST_ITEM", "md_parent_section": "§BS [BS — Assumptions]", "md_verbatim": "1. The BS domain is used to store findings related to specimen handling and specimen characteristics such as type, amount, or size. BS is not restricted to PGx-related specimens.", "score": 0.4454, "match_basis": "verbatim_token+domain_route:BS"}, {"md_atom_id": "md_dmBS_assn_a005", "md_file": "knowledge_base/domains/BS/assumptions.md", "md_atom_type": "LIST_ITEM", "md_parent_section": "§BS [BS — Assumptions]", "md_verbatim": "4. To adapt BS for use with the SDTMIG, use the SPECTYPE (C78734) codelist in BSSPEC, add --LOC, --LAT, --DIR, and --PORTOT as applicable, and remove BSANTREG. Values that would otherwise have gone in BSANTREG may be placed in a supplemental qualifier that is almost identical to that variable, but which further qualifies BSLOC instead of BSSPEC.", "score": 0.4407, "match_basis": "verbatim_token+domain_route:BS"}, {"md_atom_id": "md_dmBS_assn_a004", "md_file": "knowledge_base/domains/BS/assumptions.md", "md_atom_type": "LIST_ITEM", "md_parent_section": "§BS [BS — Assumptions]", "md_verbatim": "3. Non-genetic BSSPEC values are drawn from the SPEC (C77529) codelist, which is part of the SEND terminology listing. BSANTREG is used to further define BSSPEC when it is desirable to identify a specific region within an organ.", "score": 0.4318, "match_basis": "verbatim_token+domain_route:BS"}, {"md_atom_id": "md_dmBS_assn_a003", "md_file": "knowledge_base/domains/BS/assumptions.md", "md_atom_type": "LIST_ITEM", "md_parent_section": "§BS [BS — Assumptions]", "md_verbatim": "2. For biospecimens of genetic material, BSSPEC values are drawn from the GENSMP (C111114) codelist.", "score": 0.4286, "match_basis": "verbatim_token+domain_route:BS"}], "candidate_count": 5, "zero_candidate": false}
{"pdf_atom_id": "ig34_p0198_a015", "pdf_atom_type": "HEADING", "pdf_source": "SDTMIG_v3.4", "pdf_page": 198, "pdf_parent_section": "§6.3.5.2 Biospecimen Findings (BS)", "pdf_verbatim": "BS – Example", "figure_ref": null, "candidates": [{"md_atom_id": "md_dmBS_ex_a002", "md_file": "knowledge_base/domains/BS/examples.md", "md_atom_type": "HEADING", "md_parent_section": "§BS.1 [Example 1]", "md_verbatim": "## Example 1", "score": 1.0, "match_basis": "verbatim_token+domain_route:BS"}, {"md_atom_id": "md_dmBS_ex_a001", "md_file": "knowledge_base/domains/BS/examples.md", "md_atom_type": "HEADING", "md_parent_section": "§BS [BS — Examples]", "md_verbatim": "# BS — Examples", "score": 0.9, "match_basis": "verbatim_token+domain_route:BS"}, {"md_atom_id": "md_dmBS_assn_a001", "md_file": "knowledge_base/domains/BS/assumptions.md", "md_atom_type": "HEADING", "md_parent_section": "§BS [BS — Assumptions]", "md_verbatim": "# BS — Assumptions", "score": 0.4, "match_basis": "verbatim_token+domain_route:BS"}], "candidate_count": 3, "zero_candidate": false}
{"pdf_atom_id": "ig34_p0198_a016", "pdf_atom_type": "HEADING", "pdf_source": "SDTMIG_v3.4", "pdf_page": 198, "pdf_parent_section": "§6.3.5.2 Biospecimen Findings (BS)", "pdf_verbatim": "Example 1", "figure_ref": null, "candidates": [{"md_atom_id": "md_dmBS_ex_a002", "md_file": "knowledge_base/domains/BS/examples.md", "md_atom_type": "HEADING", "md_parent_section": "§BS.1 [Example 1]", "md_verbatim": "## Example 1", "score": 1.0, "match_basis": "verbatim_token+domain_route:BS"}, {"md_atom_id": "md_dmBS_ex_a001", "md_file": "knowledge_base/domains/BS/examples.md", "md_atom_type": "HEADING", "md_parent_section": "§BS [BS — Examples]", "md_verbatim": "# BS — Examples", "score": 0.9, "match_basis": "verbatim_token+domain_route:BS"}, {"md_atom_id": "md_dmBS_assn_a001", "md_file": "knowledge_base/domains/BS/assumptions.md", "md_atom_type": "HEADING", "md_parent_section": "§BS [BS — Assumptions]", "md_verbatim": "# BS — Assumptions", "score": 0.4, "match_basis": "verbatim_token+domain_route:BS"}], "candidate_count": 3, "zero_candidate": false}
{"pdf_atom_id": "ig34_p0198_a017", "pdf_atom_type": "SENTENCE", "pdf_source": "SDTMIG_v3.4", "pdf_page": 198, "pdf_parent_section": "§6.3.5.2 Biospecimen Findings (BS)", "pdf_verbatim": "This example shows data about RNA integrity.", "figure_ref": null, "candidates": [{"md_atom_id": "md_dmBS_ex_a003", "md_file": "knowledge_base/domains/BS/examples.md", "md_atom_type": "SENTENCE", "md_parent_section": "§BS.1 [Example 1]", "md_verbatim": "This example shows data about RNA integrity.", "score": 1.0, "match_basis": "verbatim_token+domain_route:BS"}, {"md_atom_id": "md_dmBS_ex_a004", "md_file": "knowledge_base/domains/BS/examples.md", "md_atom_type": "SENTENCE", "md_parent_section": "§BS.1 [Example 1]", "md_verbatim": "The data collected focus on the quality of the RNA sample being collected.", "score": 0.5, "match_basis": "verbatim_token+domain_route:BS"}, {"md_atom_id": "md_dmBS_ex_a006", "md_file": "knowledge_base/domains/BS/examples.md", "md_atom_type": "SENTENCE", "md_parent_section": "§BS.1 [Example 1]", "md_verbatim": "**Rows 1-2:** The A260/A280 and A260/A230 ratios are used to determine the purity of the RNA sample.", "score": 0.4857, "match_basis": "verbatim_token+domain_route:BS"}, {"md_atom_id": "md_dmBS_ex_a010", "md_file": "knowledge_base/domains/BS/examples.md", "md_atom_type": "SENTENCE", "md_parent_section": "§BS.1 [Example 1]", "md_verbatim": "**Row 4:** The RNA integrity number is a quality measurement calculated using a special algorithm and used to determine the usability of the RNA sample.", "score": 0.4825, "match_basis": "verbatim_token+domain_route:BS"}, {"md_atom_id": "md_dmBS_ex_a009", "md_file": "knowledge_base/domains/BS/examples.md", "md_atom_type": "SENTENCE", "md_parent_section": "§BS.1 [Example 1]", "md_verbatim": "Because values in --TESTCD cannot begin with a number, the test code has been prefixed with an \"I\" for integrity.", "score": 0.4677, "match_basis": "verbatim_token+domain_route:BS"}], "candidate_count": 5, "zero_candidate": false}
{"pdf_atom_id": "ig34_p0198_a018", "pdf_atom_type": "SENTENCE", "pdf_source": "SDTMIG_v3.4", "pdf_page": 198, "pdf_parent_section": "§6.3.5.2 Biospecimen Findings (BS)", "pdf_verbatim": "The data collected focus on the quality of the RNA sample being collected.", "figure_ref": null, "candidates": [{"md_atom_id": "md_dmBS_ex_a004", "md_file": "knowledge_base/domains/BS/examples.md", "md_atom_type": "SENTENCE", "md_parent_section": "§BS.1 [Example 1]", "md_verbatim": "The data collected focus on the quality of the RNA sample being collected.", "score": 1.0, "match_basis": "verbatim_token+domain_route:BS"}, {"md_atom_id": "md_dmBS_ex_a003", "md_file": "knowledge_base/domains/BS/examples.md", "md_atom_type": "SENTENCE", "md_parent_section": "§BS.1 [Example 1]", "md_verbatim": "This example shows data about RNA integrity.", "score": 0.5, "match_basis": "verbatim_token+domain_route:BS"}, {"md_atom_id": "md_dmBS_ex_a010", "md_file": "knowledge_base/domains/BS/examples.md", "md_atom_type": "SENTENCE", "md_parent_section": "§BS.1 [Example 1]", "md_verbatim": "**Row 4:** The RNA integrity number is a quality measurement calculated using a special algorithm and used to determine the usability of the RNA sample.", "score": 0.4963, "match_basis": "verbatim_token+domain_route:BS"}, {"md_atom_id": "md_dmBS_ex_a006", "md_file": "knowledge_base/domains/BS/examples.md", "md_atom_type": "SENTENCE", "md_parent_section": "§BS.1 [Example 1]", "md_verbatim": "**Rows 1-2:** The A260/A280 and A260/A230 ratios are used to determine the purity of the RNA sample.", "score": 0.4808, "match_basis": "verbatim_token+domain_route:BS"}, {"md_atom_id": "md_dmBS_ex_a005", "md_file": "knowledge_base/domains/BS/examples.md", "md_atom_type": "SENTENCE", "md_parent_section": "§BS.1 [Example 1]", "md_verbatim": "It has been shown that improper storage or isolation methods might compromise the usability of a sample.", "score": 0.4592, "match_basis": "verbatim_token+domain_route:BS"}], "candidate_count": 5, "zero_candidate": false}
{"pdf_atom_id": "ig34_p0198_a019", "pdf_atom_type": "SENTENCE", "pdf_source": "SDTMIG_v3.4", "pdf_page": 198, "pdf_parent_section": "§6.3.5.2 Biospecimen Findings (BS)", "pdf_verbatim": "It has been shown that improper storage or isolation methods might compromise the usability of a sample.", "figure_ref": null, "candidates": [{"md_atom_id": "md_dmBS_ex_a005", "md_file": "knowledge_base/domains/BS/examples.md", "md_atom_type": "SENTENCE", "md_parent_section": "§BS.1 [Example 1]", "md_verbatim": "It has been shown that improper storage or isolation methods might compromise the usability of a sample.", "score": 1.0, "match_basis": "verbatim_token+domain_route:BS"}, {"md_atom_id": "md_dmBS_ex_a010", "md_file": "knowledge_base/domains/BS/examples.md", "md_atom_type": "SENTENCE", "md_parent_section": "§BS.1 [Example 1]", "md_verbatim": "**Row 4:** The RNA integrity number is a quality measurement calculated using a special algorithm and used to determine the usability of the RNA sample.", "score": 0.4729, "match_basis": "verbatim_token+domain_route:BS"}, {"md_atom_id": "md_dmBS_ex_a006", "md_file": "knowledge_base/domains/BS/examples.md", "md_atom_type": "SENTENCE", "md_parent_section": "§BS.1 [Example 1]", "md_verbatim": "**Rows 1-2:** The A260/A280 and A260/A230 ratios are used to determine the purity of the RNA sample.", "score": 0.4623, "match_basis": "verbatim_token+domain_route:BS"}, {"md_atom_id": "md_dmBS_ex_a004", "md_file": "knowledge_base/domains/BS/examples.md", "md_atom_type": "SENTENCE", "md_parent_section": "§BS.1 [Example 1]", "md_verbatim": "The data collected focus on the quality of the RNA sample being collected.", "score": 0.4592, "match_basis": "verbatim_token+domain_route:BS"}, {"md_atom_id": "md_dmBS_ex_a003", "md_file": "knowledge_base/domains/BS/examples.md", "md_atom_type": "SENTENCE", "md_parent_section": "§BS.1 [Example 1]", "md_verbatim": "This example shows data about RNA integrity.", "score": 0.4522, "match_basis": "verbatim_token+domain_route:BS"}], "candidate_count": 5, "zero_candidate": false}
{"pdf_atom_id": "ig34_p0198_a020", "pdf_atom_type": "SENTENCE", "pdf_source": "SDTMIG_v3.4", "pdf_page": 198, "pdf_parent_section": "§6.3.5.2 Biospecimen Findings (BS)", "pdf_verbatim": "Rows 1-2: The A260/A280 and A260/A230 rations are used to determine the purity of the RNA sample. Any ratios outside of the accepted values may indicated contamination with protein or reagents used during the extraction process.", "figure_ref": null, "candidates": [{"md_atom_id": "md_dmBS_ex_a007", "md_file": "knowledge_base/domains/BS/examples.md", "md_atom_type": "SENTENCE", "md_parent_section": "§BS.1 [Example 1]", "md_verbatim": "Any ratios outside of the accepted values may indicate contamination with protein or reagents used during the extraction process.", "score": 0.8352, "match_basis": "verbatim_token+domain_route:BS"}, {"md_atom_id": "md_dmBS_ex_a006", "md_file": "knowledge_base/domains/BS/examples.md", "md_atom_type": "SENTENCE", "md_parent_section": "§BS.1 [Example 1]", "md_verbatim": "**Rows 1-2:** The A260/A280 and A260/A230 ratios are used to determine the purity of the RNA sample.", "score": 0.6176, "match_basis": "verbatim_token+domain_route:BS"}, {"md_atom_id": "md_dmBS_ex_a010", "md_file": "knowledge_base/domains/BS/examples.md", "md_atom_type": "SENTENCE", "md_parent_section": "§BS.1 [Example 1]", "md_verbatim": "**Row 4:** The RNA integrity number is a quality measurement calculated using a special algorithm and used to determine the usability of the RNA sample.", "score": 0.5067, "match_basis": "verbatim_token+domain_route:BS"}, {"md_atom_id": "md_dmBS_ex_a004", "md_file": "knowledge_base/domains/BS/examples.md", "md_atom_type": "SENTENCE", "md_parent_section": "§BS.1 [Example 1]", "md_verbatim": "The data collected focus on the quality of the RNA sample being collected.", "score": 0.4561, "match_basis": "verbatim_token+domain_route:BS"}, {"md_atom_id": "md_dmBS_ex_a008", "md_file": "knowledge_base/domains/BS/examples.md", "md_atom_type": "SENTENCE", "md_parent_section": "§BS.1 [Example 1]", "md_verbatim": "**Row 3:** The amounts of both 28S and 18S ribosomal RNA are measured and then a ratio is calculated.", "score": 0.4555, "match_basis": "verbatim_token+domain_route:BS"}], "candidate_count": 5, "zero_candidate": false}
