{"pdf_atom_id": "ig34_p0365_a009", "pdf_atom_type": "TABLE_ROW", "pdf_source": "SDTMIG_v3.4", "pdf_page": 365, "pdf_parent_section": "§6.4.4 FA – Specification", "pdf_verbatim": "| FAGRPID | Group ID | Char | | Identifier | Used to tie together a block of related records in a single domain for a subject. | Perm |", "figure_ref": null, "candidates": [{"md_atom_id": "md_dmFA_ex_a142", "md_file": "knowledge_base/domains/FA/examples.md", "md_atom_type": "TABLE_ROW", "md_parent_section": "§FA.6 [Example 6]", "md_verbatim": "| 1 | AE | 123 | 1 | 1 | Morning queasiness | Nausea | MODERATE | 2006-02-01 | 2006-02-23 |", "score": 0.4308, "match_basis": "verbatim_token+domain_route:FA"}, {"md_atom_id": "md_dmFA_ex_a020", "md_file": "knowledge_base/domains/FA/examples.md", "md_atom_type": "TABLE_ROW", "md_parent_section": "§FA.1 [Example 1]", "md_verbatim": "| 4 | ABC | FA | ABC-123 | 4 | 90567 | OCCUR | Occurrence Indicator | Nausea | MIGRAINE SYMPTOMS | Y | Y | 2007-05-16 | 5M PRE-DOSE | 1 | -PT5M | DOSING |", "score": 0.4245, "match_basis": "verbatim_token+domain_route:FA"}, {"md_atom_id": "md_dmFA_ex_a022", "md_file": "knowledge_base/domains/FA/examples.md", "md_atom_type": "TABLE_ROW", "md_parent_section": "§FA.1 [Example 1]", "md_verbatim": "| 6 | ABC | FA | ABC-123 | 6 | 90567 | SEV | Severity/Intensity | Migraine | MIGRAINE SYMPTOMS | MODERATE | MODERATE | 2007-05-16 | 30M POST-DOSE | 2 | PT30M | DOSING |", "score": 0.4242, "match_basis": "verbatim_token+domain_route:FA"}, {"md_atom_id": "md_dmFA_ex_a025", "md_file": "knowledge_base/domains/FA/examples.md", "md_atom_type": "TABLE_ROW", "md_parent_section": "§FA.1 [Example 1]", "md_verbatim": "| 9 | ABC | FA | ABC-123 | 9 | 90567 | OCCUR | Occurrence Indicator | Nausea | MIGRAINE SYMPTOMS | N | N | 2007-05-16 | 30M POST-DOSE | 2 | PT30M | DOSING |", "score": 0.424, "match_basis": "verbatim_token+domain_route:FA"}, {"md_atom_id": "md_dmFA_ex_a030", "md_file": "knowledge_base/domains/FA/examples.md", "md_atom_type": "TABLE_ROW", "md_parent_section": "§FA.1 [Example 1]", "md_verbatim": "| 14 | ABC | FA | ABC-123 | 14 | 90567 | OCCUR | Occurrence Indicator | Nausea | MIGRAINE SYMPTOMS | N | N | 2007-05-16 | 90M POST-DOSE | 3 | PT90M | DOSING |", "score": 0.424, "match_basis": "verbatim_token+domain_route:FA"}], "candidate_count": 5, "zero_candidate": false}
{"pdf_atom_id": "ig34_p0365_a010", "pdf_atom_type": "TABLE_ROW", "pdf_source": "SDTMIG_v3.4", "pdf_page": 365, "pdf_parent_section": "§6.4.4 FA – Specification", "pdf_verbatim": "| FASPID | Sponsor-Defined Identifier | Char | | Identifier | Sponsor-defined reference number. May be preprinted on the CRF as an explicit line identifier or defined in the sponsor's operational database. Example: Line number on a CRF. | Perm |", "figure_ref": null, "candidates": [{"md_atom_id": "md_dmFA_ex_a043", "md_file": "knowledge_base/domains/FA/examples.md", "md_atom_type": "TABLE_ROW", "md_parent_section": "§FA.2 [Example 2]", "md_verbatim": "| 1 | XYZ | AE | XYZ-789 | 47869 | 5 | Injection site rash | General disorders and administration site conditions | ARM | LEFT | MILD | N | NOT APPLICABLE | 2007-05-10 |", "score": 0.4429, "match_basis": "verbatim_token+domain_route:FA"}, {"md_atom_id": "md_dmFA_ex_a091", "md_file": "knowledge_base/domains/FA/examples.md", "md_atom_type": "TABLE_ROW", "md_parent_section": "§FA.4 [Example 4]", "md_verbatim": "| 2 | ABC101 | FA | 1234 | 2 | OCCUR | Occurrence Indicator | Respiratory Infection | N | N | | 2 | VISIT 2 | 2005-10-01 | SINCE LAST VISIT |", "score": 0.4378, "match_basis": "verbatim_token+domain_route:FA"}, {"md_atom_id": "md_dmFA_ex_a094", "md_file": "knowledge_base/domains/FA/examples.md", "md_atom_type": "TABLE_ROW", "md_parent_section": "§FA.4 [Example 4]", "md_verbatim": "| 5 | ABC101 | FA | 1234 | 5 | OCCUR | Occurrence Indicator | Respiratory Infection | N | N | | 3 | VISIT 3 | 2005-10-10 | SINCE LAST VISIT |", "score": 0.4378, "match_basis": "verbatim_token+domain_route:FA"}, {"md_atom_id": "md_dmFA_ex_a081", "md_file": "knowledge_base/domains/FA/examples.md", "md_atom_type": "TABLE_ROW", "md_parent_section": "§FA.3 [Example 3]", "md_verbatim": "| 1 | ABC | MH | 001-001 | MHSEQ | 6 | MHAVDDUR | Average Daily Duration | PT1H30M | CRF | |", "score": 0.4367, "match_basis": "verbatim_token+domain_route:FA"}, {"md_atom_id": "md_dmFA_ex_a051", "md_file": "knowledge_base/domains/FA/examples.md", "md_atom_type": "TABLE_ROW", "md_parent_section": "§FA.2 [Example 2]", "md_verbatim": "| 6 | XYZ | FA | XYZ-789 | 123456 | 5 | SCBRNG | Number of Scabs Range | Injection Site Rash | 0 | | 0 | | 3 | 2007-05-12 |", "score": 0.4356, "match_basis": "verbatim_token+domain_route:FA"}], "candidate_count": 5, "zero_candidate": false}
{"pdf_atom_id": "ig34_p0365_a011", "pdf_atom_type": "TABLE_ROW", "pdf_source": "SDTMIG_v3.4", "pdf_page": 365, "pdf_parent_section": "§6.4.4 FA – Specification", "pdf_verbatim": "| FATESTCD | Findings About Test Short Name | Char | (FATESTCD) | Topic | Short name of the measurement, test, or examination described in FATEST. It can be used as a column name when converting a dataset from a vertical to a horizontal format. The value in FATESTCD cannot be longer than 8 characters, nor can it start with a number (e.g., \"1TEST\" is not valid). FATESTCD cannot contain characters other than letters, numbers, or underscores. Examples: \"SEV\", \"OCCUR\". Note that controlled terminology is in a FATESTCD general codelist and in several therapeutic area-specific codelists. | Req |", "figure_ref": null, "candidates": [{"md_atom_id": "md_dmFA_ex_a043", "md_file": "knowledge_base/domains/FA/examples.md", "md_atom_type": "TABLE_ROW", "md_parent_section": "§FA.2 [Example 2]", "md_verbatim": "| 1 | XYZ | AE | XYZ-789 | 47869 | 5 | Injection site rash | General disorders and administration site conditions | ARM | LEFT | MILD | N | NOT APPLICABLE | 2007-05-10 |", "score": 0.4445, "match_basis": "verbatim_token+domain_route:FA"}, {"md_atom_id": "md_dmFA_ex_a101", "md_file": "knowledge_base/domains/FA/examples.md", "md_atom_type": "TABLE_ROW", "md_parent_section": "§FA.4 [Example 4]", "md_verbatim": "| 2 | ABC101 | AE | 1234 | 2 | Nausea | Nausea | Y | Gastrointestinal disorders | MODERATE | NONE | 2005-10-08 | 2005-10-09 |", "score": 0.4308, "match_basis": "verbatim_token+domain_route:FA"}, {"md_atom_id": "md_dmFA_ex_a118", "md_file": "knowledge_base/domains/FA/examples.md", "md_atom_type": "TABLE_ROW", "md_parent_section": "§FA.5 [Example 5]", "md_verbatim": "| 3 | XYZ | FA | XYZ-701-002 | 3 | NUMEPISO | Number of Episodes | Vomiting | GERD SYMPTOMS | >10 | | >10 | | | | 1 | VISIT 1 | 2006-02-02 | -PT24H |", "score": 0.4254, "match_basis": "verbatim_token+domain_route:FA"}, {"md_atom_id": "md_dmFA_ex_a116", "md_file": "knowledge_base/domains/FA/examples.md", "md_atom_type": "TABLE_ROW", "md_parent_section": "§FA.5 [Example 5]", "md_verbatim": "| 1 | XYZ | FA | XYZ-701-002 | 1 | OCCUR | Occurrence Indicator | Vomiting | GERD SYMPTOMS | Y | | Y | | | | 1 | VISIT 1 | 2006-02-02 | -PT24H |", "score": 0.425, "match_basis": "verbatim_token+domain_route:FA"}, {"md_atom_id": "md_dmFA_ex_a125", "md_file": "knowledge_base/domains/FA/examples.md", "md_atom_type": "TABLE_ROW", "md_parent_section": "§FA.5 [Example 5]", "md_verbatim": "| 10 | XYZ | FA | XYZ-701-002 | 10 | SEV | Severity/Intensity | Nausea | GERD SYMPTOMS | MODERATE | | MODERATE | | | | 1 | VISIT 1 | 2006-02-02 | -PT24H |", "score": 0.425, "match_basis": "verbatim_token+domain_route:FA"}], "candidate_count": 5, "zero_candidate": false}
{"pdf_atom_id": "ig34_p0365_a012", "pdf_atom_type": "TABLE_ROW", "pdf_source": "SDTMIG_v3.4", "pdf_page": 365, "pdf_parent_section": "§6.4.4 FA – Specification", "pdf_verbatim": "| FATEST | Findings About Test Name | Char | (FATEST) | Synonym Qualifier | Verbatim name of the test or examination used to obtain the measurement or finding. The value in FATEST cannot be longer than 40 characters. Examples: \"Severity/Intensity\", \"Occurrence\". Note that controlled terminology is in a FATEST general codelist and in several therapeutic area-specific codelists. | Req |", "figure_ref": null, "candidates": [{"md_atom_id": "md_dmFA_ex_a150", "md_file": "knowledge_base/domains/FA/examples.md", "md_atom_type": "TABLE_ROW", "md_parent_section": "§FA.6 [Example 6]", "md_verbatim": "| 2 | XYZ | FA | XYZ-US-701-002 | 2 | 1 | SEV | Severity/Intensity | Nausea | MODERATE | MAXIMUM | 3 | VISIT 3 | 2006-02-09 | SINCE LAST VISIT |", "score": 0.4607, "match_basis": "verbatim_token+domain_route:FA"}, {"md_atom_id": "md_dmFA_ex_a151", "md_file": "knowledge_base/domains/FA/examples.md", "md_atom_type": "TABLE_ROW", "md_parent_section": "§FA.6 [Example 6]", "md_verbatim": "| 3 | XYZ | FA | XYZ-US-701-002 | 3 | 1 | SEV | Severity/Intensity | Nausea | MODERATE | MAXIMUM | 4 | VISIT 4 | 2006-02-16 | SINCE LAST VISIT |", "score": 0.4607, "match_basis": "verbatim_token+domain_route:FA"}, {"md_atom_id": "md_dmFA_ex_a125", "md_file": "knowledge_base/domains/FA/examples.md", "md_atom_type": "TABLE_ROW", "md_parent_section": "§FA.5 [Example 5]", "md_verbatim": "| 10 | XYZ | FA | XYZ-701-002 | 10 | SEV | Severity/Intensity | Nausea | GERD SYMPTOMS | MODERATE | | MODERATE | | | | 1 | VISIT 1 | 2006-02-02 | -PT24H |", "score": 0.4604, "match_basis": "verbatim_token+domain_route:FA"}, {"md_atom_id": "md_dmFA_ex_a022", "md_file": "knowledge_base/domains/FA/examples.md", "md_atom_type": "TABLE_ROW", "md_parent_section": "§FA.1 [Example 1]", "md_verbatim": "| 6 | ABC | FA | ABC-123 | 6 | 90567 | SEV | Severity/Intensity | Migraine | MIGRAINE SYMPTOMS | MODERATE | MODERATE | 2007-05-16 | 30M POST-DOSE | 2 | PT30M | DOSING |", "score": 0.458, "match_basis": "verbatim_token+domain_route:FA"}, {"md_atom_id": "md_dmFA_ex_a018", "md_file": "knowledge_base/domains/FA/examples.md", "md_atom_type": "TABLE_ROW", "md_parent_section": "§FA.1 [Example 1]", "md_verbatim": "| 2 | ABC | FA | ABC-123 | 2 | 90567 | OCCUR | Occurrence Indicator | Sensitivity To Light | MIGRAINE SYMPTOMS | Y | Y | 2007-05-16 | 5M PRE-DOSE | 1 | -PT5M | DOSING |", "score": 0.4522, "match_basis": "verbatim_token+domain_route:FA"}], "candidate_count": 5, "zero_candidate": false}
{"pdf_atom_id": "ig34_p0365_a013", "pdf_atom_type": "TABLE_ROW", "pdf_source": "SDTMIG_v3.4", "pdf_page": 365, "pdf_parent_section": "§6.4.4 FA – Specification", "pdf_verbatim": "| FAOBJ | Object of the Observation | Char | | Record Qualifier | Used to describe the object or focal point of the findings observation that is represented by --TEST. Examples: the term (e.g., \"Acne\") describing a clinical sign or symptom that is being measured by a severity test; an event (e.g., \"VOMIT, where the volume of vomit is being measured by a VOLUME test). | Req |", "figure_ref": null, "candidates": [{"md_atom_id": "md_dmFA_ex_a119", "md_file": "knowledge_base/domains/FA/examples.md", "md_atom_type": "TABLE_ROW", "md_parent_section": "§FA.5 [Example 5]", "md_verbatim": "| 4 | XYZ | FA | XYZ-701-002 | 4 | SEV | Severity/Intensity | Vomiting | GERD SYMPTOMS | SEVERE | | SEVERE | | | | 1 | VISIT 1 | 2006-02-02 | -PT24H |", "score": 0.4824, "match_basis": "verbatim_token+domain_route:FA"}, {"md_atom_id": "md_dmFA_ex_a017", "md_file": "knowledge_base/domains/FA/examples.md", "md_atom_type": "TABLE_ROW", "md_parent_section": "§FA.1 [Example 1]", "md_verbatim": "| 1 | ABC | FA | ABC-123 | 1 | 90567 | SEV | Severity/Intensity | Migraine | MIGRAINE SYMPTOMS | SEVERE | SEVERE | 2007-05-16 | 5M PRE-DOSE | 1 | -PT5M | DOSING |", "score": 0.4706, "match_basis": "verbatim_token+domain_route:FA"}, {"md_atom_id": "md_dmFA_ex_a122", "md_file": "knowledge_base/domains/FA/examples.md", "md_atom_type": "TABLE_ROW", "md_parent_section": "§FA.5 [Example 5]", "md_verbatim": "| 7 | XYZ | FA | XYZ-701-002 | 7 | SEV | Severity/Intensity | Diarrhea | GERD SYMPTOMS | SEVERE | | SEVERE | | | | 1 | VISIT 1 | 2006-02-02 | -PT24H |", "score": 0.4622, "match_basis": "verbatim_token+domain_route:FA"}, {"md_atom_id": "md_dmFA_ex_a129", "md_file": "knowledge_base/domains/FA/examples.md", "md_atom_type": "TABLE_ROW", "md_parent_section": "§FA.5 [Example 5]", "md_verbatim": "| 14 | XYZ | FA | XYZ-701-002 | 14 | SEV | Severity/Intensity | Diarrhea | GERD SYMPTOMS | SEVERE | | SEVERE | | | | 2 | VISIT 2 | 2006-02-03 | -PT24H |", "score": 0.4622, "match_basis": "verbatim_token+domain_route:FA"}, {"md_atom_id": "md_dmFA_ex_a125", "md_file": "knowledge_base/domains/FA/examples.md", "md_atom_type": "TABLE_ROW", "md_parent_section": "§FA.5 [Example 5]", "md_verbatim": "| 10 | XYZ | FA | XYZ-701-002 | 10 | SEV | Severity/Intensity | Nausea | GERD SYMPTOMS | MODERATE | | MODERATE | | | | 1 | VISIT 1 | 2006-02-02 | -PT24H |", "score": 0.4609, "match_basis": "verbatim_token+domain_route:FA"}], "candidate_count": 5, "zero_candidate": false}
{"pdf_atom_id": "ig34_p0365_a014", "pdf_atom_type": "TABLE_ROW", "pdf_source": "SDTMIG_v3.4", "pdf_page": 365, "pdf_parent_section": "§6.4.4 FA – Specification", "pdf_verbatim": "| FACAT | Category for Findings About | Char | * | Grouping Qualifier | Used to define a category of related records. Examples: \"GERD\", \"PRE-SPECIFIED AE\". | Perm |", "figure_ref": null, "candidates": [{"md_atom_id": "md_dmFA_ex_a020", "md_file": "knowledge_base/domains/FA/examples.md", "md_atom_type": "TABLE_ROW", "md_parent_section": "§FA.1 [Example 1]", "md_verbatim": "| 4 | ABC | FA | ABC-123 | 4 | 90567 | OCCUR | Occurrence Indicator | Nausea | MIGRAINE SYMPTOMS | Y | Y | 2007-05-16 | 5M PRE-DOSE | 1 | -PT5M | DOSING |", "score": 0.4416, "match_basis": "verbatim_token+domain_route:FA"}, {"md_atom_id": "md_dmFA_ex_a123", "md_file": "knowledge_base/domains/FA/examples.md", "md_atom_type": "TABLE_ROW", "md_parent_section": "§FA.5 [Example 5]", "md_verbatim": "| 8 | XYZ | FA | XYZ-701-002 | 8 | OCCUR | Occurrence Indicator | Nausea | GERD SYMPTOMS | Y | | Y | | | | 1 | VISIT 1 | 2006-02-02 | -PT24H |", "score": 0.4383, "match_basis": "verbatim_token+domain_route:FA"}, {"md_atom_id": "md_dmFA_ex_a116", "md_file": "knowledge_base/domains/FA/examples.md", "md_atom_type": "TABLE_ROW", "md_parent_section": "§FA.5 [Example 5]", "md_verbatim": "| 1 | XYZ | FA | XYZ-701-002 | 1 | OCCUR | Occurrence Indicator | Vomiting | GERD SYMPTOMS | Y | | Y | | | | 1 | VISIT 1 | 2006-02-02 | -PT24H |", "score": 0.4375, "match_basis": "verbatim_token+domain_route:FA"}, {"md_atom_id": "md_dmFA_ex_a126", "md_file": "knowledge_base/domains/FA/examples.md", "md_atom_type": "TABLE_ROW", "md_parent_section": "§FA.5 [Example 5]", "md_verbatim": "| 11 | XYZ | FA | XYZ-701-002 | 11 | OCCUR | Occurrence Indicator | Vomiting | GERD SYMPTOMS | N | | N | | | | 2 | VISIT 2 | 2006-02-03 | -PT24H |", "score": 0.4375, "match_basis": "verbatim_token+domain_route:FA"}, {"md_atom_id": "md_dmFA_ex_a130", "md_file": "knowledge_base/domains/FA/examples.md", "md_atom_type": "TABLE_ROW", "md_parent_section": "§FA.5 [Example 5]", "md_verbatim": "| 15 | XYZ | FA | XYZ-701-002 | 15 | OCCUR | Occurrence Indicator | Nausea | GERD SYMPTOMS | | | | | | NOT DONE | 2 | VISIT 2 | 2006-02-03 | -PT24H |", "score": 0.4371, "match_basis": "verbatim_token+domain_route:FA"}], "candidate_count": 5, "zero_candidate": false}
{"pdf_atom_id": "ig34_p0365_a015", "pdf_atom_type": "TABLE_ROW", "pdf_source": "SDTMIG_v3.4", "pdf_page": 365, "pdf_parent_section": "§6.4.4 FA – Specification", "pdf_verbatim": "| FASCAT | Subcategory for Findings About | Char | * | Grouping Qualifier | A further categorization of FACAT. | Perm |", "figure_ref": null, "candidates": [{"md_atom_id": "md_dmFA_ex_a091", "md_file": "knowledge_base/domains/FA/examples.md", "md_atom_type": "TABLE_ROW", "md_parent_section": "§FA.4 [Example 4]", "md_verbatim": "| 2 | ABC101 | FA | 1234 | 2 | OCCUR | Occurrence Indicator | Respiratory Infection | N | N | | 2 | VISIT 2 | 2005-10-01 | SINCE LAST VISIT |", "score": 0.44, "match_basis": "verbatim_token+domain_route:FA"}, {"md_atom_id": "md_dmFA_ex_a094", "md_file": "knowledge_base/domains/FA/examples.md", "md_atom_type": "TABLE_ROW", "md_parent_section": "§FA.4 [Example 4]", "md_verbatim": "| 5 | ABC101 | FA | 1234 | 5 | OCCUR | Occurrence Indicator | Respiratory Infection | N | N | | 3 | VISIT 3 | 2005-10-10 | SINCE LAST VISIT |", "score": 0.44, "match_basis": "verbatim_token+domain_route:FA"}, {"md_atom_id": "md_dmFA_ex_a116", "md_file": "knowledge_base/domains/FA/examples.md", "md_atom_type": "TABLE_ROW", "md_parent_section": "§FA.5 [Example 5]", "md_verbatim": "| 1 | XYZ | FA | XYZ-701-002 | 1 | OCCUR | Occurrence Indicator | Vomiting | GERD SYMPTOMS | Y | | Y | | | | 1 | VISIT 1 | 2006-02-02 | -PT24H |", "score": 0.4273, "match_basis": "verbatim_token+domain_route:FA"}, {"md_atom_id": "md_dmFA_ex_a126", "md_file": "knowledge_base/domains/FA/examples.md", "md_atom_type": "TABLE_ROW", "md_parent_section": "§FA.5 [Example 5]", "md_verbatim": "| 11 | XYZ | FA | XYZ-701-002 | 11 | OCCUR | Occurrence Indicator | Vomiting | GERD SYMPTOMS | N | | N | | | | 2 | VISIT 2 | 2006-02-03 | -PT24H |", "score": 0.4273, "match_basis": "verbatim_token+domain_route:FA"}, {"md_atom_id": "md_dmFA_ex_a021", "md_file": "knowledge_base/domains/FA/examples.md", "md_atom_type": "TABLE_ROW", "md_parent_section": "§FA.1 [Example 1]", "md_verbatim": "| 5 | ABC | FA | ABC-123 | 5 | 90567 | OCCUR | Occurrence Indicator | Aura | MIGRAINE SYMPTOMS | Y | Y | 2007-05-16 | 5M PRE-DOSE | 1 | -PT5M | DOSING |", "score": 0.4261, "match_basis": "verbatim_token+domain_route:FA"}], "candidate_count": 5, "zero_candidate": false}
{"pdf_atom_id": "ig34_p0365_a016", "pdf_atom_type": "TABLE_ROW", "pdf_source": "SDTMIG_v3.4", "pdf_page": 365, "pdf_parent_section": "§6.4.4 FA – Specification", "pdf_verbatim": "| FAORRES | Result or Finding in Original Units | Char | | Result Qualifier | Result of the test as originally received or collected. | Exp |", "figure_ref": null, "candidates": [{"md_atom_id": "md_dmFA_ex_a091", "md_file": "knowledge_base/domains/FA/examples.md", "md_atom_type": "TABLE_ROW", "md_parent_section": "§FA.4 [Example 4]", "md_verbatim": "| 2 | ABC101 | FA | 1234 | 2 | OCCUR | Occurrence Indicator | Respiratory Infection | N | N | | 2 | VISIT 2 | 2005-10-01 | SINCE LAST VISIT |", "score": 0.4337, "match_basis": "verbatim_token+domain_route:FA"}, {"md_atom_id": "md_dmFA_ex_a094", "md_file": "knowledge_base/domains/FA/examples.md", "md_atom_type": "TABLE_ROW", "md_parent_section": "§FA.4 [Example 4]", "md_verbatim": "| 5 | ABC101 | FA | 1234 | 5 | OCCUR | Occurrence Indicator | Respiratory Infection | N | N | | 3 | VISIT 3 | 2005-10-10 | SINCE LAST VISIT |", "score": 0.4337, "match_basis": "verbatim_token+domain_route:FA"}, {"md_atom_id": "md_dmFA_ex_a101", "md_file": "knowledge_base/domains/FA/examples.md", "md_atom_type": "TABLE_ROW", "md_parent_section": "§FA.4 [Example 4]", "md_verbatim": "| 2 | ABC101 | AE | 1234 | 2 | Nausea | Nausea | Y | Gastrointestinal disorders | MODERATE | NONE | 2005-10-08 | 2005-10-09 |", "score": 0.4279, "match_basis": "verbatim_token+domain_route:FA"}, {"md_atom_id": "md_dmFA_ex_a116", "md_file": "knowledge_base/domains/FA/examples.md", "md_atom_type": "TABLE_ROW", "md_parent_section": "§FA.5 [Example 5]", "md_verbatim": "| 1 | XYZ | FA | XYZ-701-002 | 1 | OCCUR | Occurrence Indicator | Vomiting | GERD SYMPTOMS | Y | | Y | | | | 1 | VISIT 1 | 2006-02-02 | -PT24H |", "score": 0.4279, "match_basis": "verbatim_token+domain_route:FA"}, {"md_atom_id": "md_dmFA_ex_a126", "md_file": "knowledge_base/domains/FA/examples.md", "md_atom_type": "TABLE_ROW", "md_parent_section": "§FA.5 [Example 5]", "md_verbatim": "| 11 | XYZ | FA | XYZ-701-002 | 11 | OCCUR | Occurrence Indicator | Vomiting | GERD SYMPTOMS | N | | N | | | | 2 | VISIT 2 | 2006-02-03 | -PT24H |", "score": 0.4279, "match_basis": "verbatim_token+domain_route:FA"}], "candidate_count": 5, "zero_candidate": false}
{"pdf_atom_id": "ig34_p0365_a017", "pdf_atom_type": "TABLE_ROW", "pdf_source": "SDTMIG_v3.4", "pdf_page": 365, "pdf_parent_section": "§6.4.4 FA – Specification", "pdf_verbatim": "| FAORRESU | Original Units | Char | (UNIT) | Variable Qualifier | Original units in which the data were collected. The unit for FAORRES. | Perm |", "figure_ref": null, "candidates": [{"md_atom_id": "md_dmFA_ex_a091", "md_file": "knowledge_base/domains/FA/examples.md", "md_atom_type": "TABLE_ROW", "md_parent_section": "§FA.4 [Example 4]", "md_verbatim": "| 2 | ABC101 | FA | 1234 | 2 | OCCUR | Occurrence Indicator | Respiratory Infection | N | N | | 2 | VISIT 2 | 2005-10-01 | SINCE LAST VISIT |", "score": 0.4202, "match_basis": "verbatim_token+domain_route:FA"}, {"md_atom_id": "md_dmFA_ex_a094", "md_file": "knowledge_base/domains/FA/examples.md", "md_atom_type": "TABLE_ROW", "md_parent_section": "§FA.4 [Example 4]", "md_verbatim": "| 5 | ABC101 | FA | 1234 | 5 | OCCUR | Occurrence Indicator | Respiratory Infection | N | N | | 3 | VISIT 3 | 2005-10-10 | SINCE LAST VISIT |", "score": 0.4202, "match_basis": "verbatim_token+domain_route:FA"}, {"md_atom_id": "md_dmFA_ex_a043", "md_file": "knowledge_base/domains/FA/examples.md", "md_atom_type": "TABLE_ROW", "md_parent_section": "§FA.2 [Example 2]", "md_verbatim": "| 1 | XYZ | AE | XYZ-789 | 47869 | 5 | Injection site rash | General disorders and administration site conditions | ARM | LEFT | MILD | N | NOT APPLICABLE | 2007-05-10 |", "score": 0.417, "match_basis": "verbatim_token+domain_route:FA"}, {"md_atom_id": "md_dmFA_ex_a011", "md_file": "knowledge_base/domains/FA/examples.md", "md_atom_type": "TABLE_ROW", "md_parent_section": "§FA.1 [Example 1]", "md_verbatim": "| 1 | ABC | EX | ABC-123 | 1 | 4 | CURALL | 50 | mg | TABLET | ONCE | ORAL | TREATMENT | 2007-05-16T11:05 | 2007-05-16T11:05 |", "score": 0.4169, "match_basis": "verbatim_token+domain_route:FA"}, {"md_atom_id": "md_dmFA_ex_a101", "md_file": "knowledge_base/domains/FA/examples.md", "md_atom_type": "TABLE_ROW", "md_parent_section": "§FA.4 [Example 4]", "md_verbatim": "| 2 | ABC101 | AE | 1234 | 2 | Nausea | Nausea | Y | Gastrointestinal disorders | MODERATE | NONE | 2005-10-08 | 2005-10-09 |", "score": 0.414, "match_basis": "verbatim_token+domain_route:FA"}], "candidate_count": 5, "zero_candidate": false}
{"pdf_atom_id": "ig34_p0365_a018", "pdf_atom_type": "TABLE_ROW", "pdf_source": "SDTMIG_v3.4", "pdf_page": 365, "pdf_parent_section": "§6.4.4 FA – Specification", "pdf_verbatim": "| FASTRESC | Character Result/Finding in Std Format | Char | | Result Qualifier | Contains the result value for all findings, copied or derived from FAORRES in a standard format or standard units. FASTRESC should store all results or findings in character format; if results are numeric, they should also be stored in numeric format in FASTRESN. For example, if a test has results \"NONE\", \"NEG\", and \"NEGATIVE\" in FAORRES, and these results effectively have the same meaning; they could be represented in standard format in FASTRESC as \"NEGATIVE\". | Exp |", "figure_ref": null, "candidates": [{"md_atom_id": "md_dmFA_ex_a091", "md_file": "knowledge_base/domains/FA/examples.md", "md_atom_type": "TABLE_ROW", "md_parent_section": "§FA.4 [Example 4]", "md_verbatim": "| 2 | ABC101 | FA | 1234 | 2 | OCCUR | Occurrence Indicator | Respiratory Infection | N | N | | 2 | VISIT 2 | 2005-10-01 | SINCE LAST VISIT |", "score": 0.4331, "match_basis": "verbatim_token+domain_route:FA"}, {"md_atom_id": "md_dmFA_ex_a094", "md_file": "knowledge_base/domains/FA/examples.md", "md_atom_type": "TABLE_ROW", "md_parent_section": "§FA.4 [Example 4]", "md_verbatim": "| 5 | ABC101 | FA | 1234 | 5 | OCCUR | Occurrence Indicator | Respiratory Infection | N | N | | 3 | VISIT 3 | 2005-10-10 | SINCE LAST VISIT |", "score": 0.4331, "match_basis": "verbatim_token+domain_route:FA"}, {"md_atom_id": "md_dmFA_ex_a018", "md_file": "knowledge_base/domains/FA/examples.md", "md_atom_type": "TABLE_ROW", "md_parent_section": "§FA.1 [Example 1]", "md_verbatim": "| 2 | ABC | FA | ABC-123 | 2 | 90567 | OCCUR | Occurrence Indicator | Sensitivity To Light | MIGRAINE SYMPTOMS | Y | Y | 2007-05-16 | 5M PRE-DOSE | 1 | -PT5M | DOSING |", "score": 0.4312, "match_basis": "verbatim_token+domain_route:FA"}, {"md_atom_id": "md_dmFA_ex_a019", "md_file": "knowledge_base/domains/FA/examples.md", "md_atom_type": "TABLE_ROW", "md_parent_section": "§FA.1 [Example 1]", "md_verbatim": "| 3 | ABC | FA | ABC-123 | 3 | 90567 | OCCUR | Occurrence Indicator | Sensitivity To Sound | MIGRAINE SYMPTOMS | N | N | 2007-05-16 | 5M PRE-DOSE | 1 | -PT5M | DOSING |", "score": 0.4312, "match_basis": "verbatim_token+domain_route:FA"}, {"md_atom_id": "md_dmFA_ex_a101", "md_file": "knowledge_base/domains/FA/examples.md", "md_atom_type": "TABLE_ROW", "md_parent_section": "§FA.4 [Example 4]", "md_verbatim": "| 2 | ABC101 | AE | 1234 | 2 | Nausea | Nausea | Y | Gastrointestinal disorders | MODERATE | NONE | 2005-10-08 | 2005-10-09 |", "score": 0.43, "match_basis": "verbatim_token+domain_route:FA"}], "candidate_count": 5, "zero_candidate": false}
{"pdf_atom_id": "ig34_p0365_a019", "pdf_atom_type": "TABLE_ROW", "pdf_source": "SDTMIG_v3.4", "pdf_page": 365, "pdf_parent_section": "§6.4.4 FA – Specification", "pdf_verbatim": "| FASTRESN | Numeric Result/Finding in Standard Units | Num | | Result Qualifier | Used for continuous or numeric results or findings in standard format; copied in numeric format from FASTRESC. FASTRESN should store all numeric test results or findings. | Perm |", "figure_ref": null, "candidates": [{"md_atom_id": "md_dmFA_ex_a101", "md_file": "knowledge_base/domains/FA/examples.md", "md_atom_type": "TABLE_ROW", "md_parent_section": "§FA.4 [Example 4]", "md_verbatim": "| 2 | ABC101 | AE | 1234 | 2 | Nausea | Nausea | Y | Gastrointestinal disorders | MODERATE | NONE | 2005-10-08 | 2005-10-09 |", "score": 0.4346, "match_basis": "verbatim_token+domain_route:FA"}, {"md_atom_id": "md_dmFA_ex_a095", "md_file": "knowledge_base/domains/FA/examples.md", "md_atom_type": "TABLE_ROW", "md_parent_section": "§FA.4 [Example 4]", "md_verbatim": "| 6 | ABC101 | FA | 1234 | 6 | OCCUR | Occurrence Indicator | Nausea | Y | Y | | 3 | VISIT 3 | 2005-10-10 | SINCE LAST VISIT |", "score": 0.4303, "match_basis": "verbatim_token+domain_route:FA"}, {"md_atom_id": "md_dmFA_ex_a092", "md_file": "knowledge_base/domains/FA/examples.md", "md_atom_type": "TABLE_ROW", "md_parent_section": "§FA.4 [Example 4]", "md_verbatim": "| 3 | ABC101 | FA | 1234 | 3 | OCCUR | Occurrence Indicator | Nausea | | | NOT DONE | 2 | VISIT 2 | 2005-10-01 | SINCE LAST VISIT |", "score": 0.4294, "match_basis": "verbatim_token+domain_route:FA"}, {"md_atom_id": "md_dmFA_ex_a116", "md_file": "knowledge_base/domains/FA/examples.md", "md_atom_type": "TABLE_ROW", "md_parent_section": "§FA.5 [Example 5]", "md_verbatim": "| 1 | XYZ | FA | XYZ-701-002 | 1 | OCCUR | Occurrence Indicator | Vomiting | GERD SYMPTOMS | Y | | Y | | | | 1 | VISIT 1 | 2006-02-02 | -PT24H |", "score": 0.4286, "match_basis": "verbatim_token+domain_route:FA"}, {"md_atom_id": "md_dmFA_ex_a126", "md_file": "knowledge_base/domains/FA/examples.md", "md_atom_type": "TABLE_ROW", "md_parent_section": "§FA.5 [Example 5]", "md_verbatim": "| 11 | XYZ | FA | XYZ-701-002 | 11 | OCCUR | Occurrence Indicator | Vomiting | GERD SYMPTOMS | N | | N | | | | 2 | VISIT 2 | 2006-02-03 | -PT24H |", "score": 0.4286, "match_basis": "verbatim_token+domain_route:FA"}], "candidate_count": 5, "zero_candidate": false}
{"pdf_atom_id": "ig34_p0365_a020", "pdf_atom_type": "TABLE_ROW", "pdf_source": "SDTMIG_v3.4", "pdf_page": 365, "pdf_parent_section": "§6.4.4 FA – Specification", "pdf_verbatim": "| FASTRESU | Standard Units | Char | (UNIT) | Variable Qualifier | Standardized unit used for FASTRESC and FASTRESN. | Perm |", "figure_ref": null, "candidates": [{"md_atom_id": "md_dmFA_ex_a011", "md_file": "knowledge_base/domains/FA/examples.md", "md_atom_type": "TABLE_ROW", "md_parent_section": "§FA.1 [Example 1]", "md_verbatim": "| 1 | ABC | EX | ABC-123 | 1 | 4 | CURALL | 50 | mg | TABLET | ONCE | ORAL | TREATMENT | 2007-05-16T11:05 | 2007-05-16T11:05 |", "score": 0.4286, "match_basis": "verbatim_token+domain_route:FA"}, {"md_atom_id": "md_dmFA_ex_a043", "md_file": "knowledge_base/domains/FA/examples.md", "md_atom_type": "TABLE_ROW", "md_parent_section": "§FA.2 [Example 2]", "md_verbatim": "| 1 | XYZ | AE | XYZ-789 | 47869 | 5 | Injection site rash | General disorders and administration site conditions | ARM | LEFT | MILD | N | NOT APPLICABLE | 2007-05-10 |", "score": 0.4245, "match_basis": "verbatim_token+domain_route:FA"}, {"md_atom_id": "md_dmFA_ex_a101", "md_file": "knowledge_base/domains/FA/examples.md", "md_atom_type": "TABLE_ROW", "md_parent_section": "§FA.4 [Example 4]", "md_verbatim": "| 2 | ABC101 | AE | 1234 | 2 | Nausea | Nausea | Y | Gastrointestinal disorders | MODERATE | NONE | 2005-10-08 | 2005-10-09 |", "score": 0.4231, "match_basis": "verbatim_token+domain_route:FA"}, {"md_atom_id": "md_dmFA_ex_a095", "md_file": "knowledge_base/domains/FA/examples.md", "md_atom_type": "TABLE_ROW", "md_parent_section": "§FA.4 [Example 4]", "md_verbatim": "| 6 | ABC101 | FA | 1234 | 6 | OCCUR | Occurrence Indicator | Nausea | Y | Y | | 3 | VISIT 3 | 2005-10-10 | SINCE LAST VISIT |", "score": 0.4164, "match_basis": "verbatim_token+domain_route:FA"}, {"md_atom_id": "md_dmFA_ex_a149", "md_file": "knowledge_base/domains/FA/examples.md", "md_atom_type": "TABLE_ROW", "md_parent_section": "§FA.6 [Example 6]", "md_verbatim": "| 1 | XYZ | FA | XYZ-US-701-002 | 1 | 1 | SEV | Severity/Intensity | Nausea | MILD | MAXIMUM | 2 | VISIT 2 | 2006-02-02 | SINCE LAST VISIT |", "score": 0.4162, "match_basis": "verbatim_token+domain_route:FA"}], "candidate_count": 5, "zero_candidate": false}
{"pdf_atom_id": "ig34_p0365_a021", "pdf_atom_type": "TABLE_ROW", "pdf_source": "SDTMIG_v3.4", "pdf_page": 365, "pdf_parent_section": "§6.4.4 FA – Specification", "pdf_verbatim": "| FASTAT | Completion Status | Char | (ND) | Record Qualifier | Used to indicate that the measurement was not done. Should be null if a result exists in FAORRES. | Perm |", "figure_ref": null, "candidates": [{"md_atom_id": "md_dmFA_ex_a092", "md_file": "knowledge_base/domains/FA/examples.md", "md_atom_type": "TABLE_ROW", "md_parent_section": "§FA.4 [Example 4]", "md_verbatim": "| 3 | ABC101 | FA | 1234 | 3 | OCCUR | Occurrence Indicator | Nausea | | | NOT DONE | 2 | VISIT 2 | 2005-10-01 | SINCE LAST VISIT |", "score": 0.468, "match_basis": "verbatim_token+domain_route:FA"}, {"md_atom_id": "md_dmFA_ex_a130", "md_file": "knowledge_base/domains/FA/examples.md", "md_atom_type": "TABLE_ROW", "md_parent_section": "§FA.5 [Example 5]", "md_verbatim": "| 15 | XYZ | FA | XYZ-701-002 | 15 | OCCUR | Occurrence Indicator | Nausea | GERD SYMPTOMS | | | | | | NOT DONE | 2 | VISIT 2 | 2006-02-03 | -PT24H |", "score": 0.4588, "match_basis": "verbatim_token+domain_route:FA"}, {"md_atom_id": "md_dmFA_ex_a091", "md_file": "knowledge_base/domains/FA/examples.md", "md_atom_type": "TABLE_ROW", "md_parent_section": "§FA.4 [Example 4]", "md_verbatim": "| 2 | ABC101 | FA | 1234 | 2 | OCCUR | Occurrence Indicator | Respiratory Infection | N | N | | 2 | VISIT 2 | 2005-10-01 | SINCE LAST VISIT |", "score": 0.4571, "match_basis": "verbatim_token+domain_route:FA"}, {"md_atom_id": "md_dmFA_ex_a094", "md_file": "knowledge_base/domains/FA/examples.md", "md_atom_type": "TABLE_ROW", "md_parent_section": "§FA.4 [Example 4]", "md_verbatim": "| 5 | ABC101 | FA | 1234 | 5 | OCCUR | Occurrence Indicator | Respiratory Infection | N | N | | 3 | VISIT 3 | 2005-10-10 | SINCE LAST VISIT |", "score": 0.4571, "match_basis": "verbatim_token+domain_route:FA"}, {"md_atom_id": "md_dmFA_ex_a095", "md_file": "knowledge_base/domains/FA/examples.md", "md_atom_type": "TABLE_ROW", "md_parent_section": "§FA.4 [Example 4]", "md_verbatim": "| 6 | ABC101 | FA | 1234 | 6 | OCCUR | Occurrence Indicator | Nausea | Y | Y | | 3 | VISIT 3 | 2005-10-10 | SINCE LAST VISIT |", "score": 0.4495, "match_basis": "verbatim_token+domain_route:FA"}], "candidate_count": 5, "zero_candidate": false}
{"pdf_atom_id": "ig34_p0365_a022", "pdf_atom_type": "TABLE_ROW", "pdf_source": "SDTMIG_v3.4", "pdf_page": 365, "pdf_parent_section": "§6.4.4 FA – Specification", "pdf_verbatim": "| FAREASND | Reason Not Performed | Char | | Record Qualifier | Describes why a question was not answered. Example: \"Subject refused\". Used in conjunction with FASTAT when value is \"NOT DONE\". | Perm |", "figure_ref": null, "candidates": [{"md_atom_id": "md_dmFA_ex_a043", "md_file": "knowledge_base/domains/FA/examples.md", "md_atom_type": "TABLE_ROW", "md_parent_section": "§FA.2 [Example 2]", "md_verbatim": "| 1 | XYZ | AE | XYZ-789 | 47869 | 5 | Injection site rash | General disorders and administration site conditions | ARM | LEFT | MILD | N | NOT APPLICABLE | 2007-05-10 |", "score": 0.4345, "match_basis": "verbatim_token+domain_route:FA"}, {"md_atom_id": "md_dmFA_ex_a046", "md_file": "knowledge_base/domains/FA/examples.md", "md_atom_type": "TABLE_ROW", "md_parent_section": "§FA.2 [Example 2]", "md_verbatim": "| 1 | XYZ | FA | XYZ-789 | 123451 | 5 | LDIAM | Longest Diameter | Injection Site Rash | 2.5 | IN | 2.5 | IN | 3 | 2007-05-12 |", "score": 0.4324, "match_basis": "verbatim_token+domain_route:FA"}, {"md_atom_id": "md_dmFA_ex_a053", "md_file": "knowledge_base/domains/FA/examples.md", "md_atom_type": "TABLE_ROW", "md_parent_section": "§FA.2 [Example 2]", "md_verbatim": "| 8 | XYZ | FA | XYZ-789 | 123459 | 5 | LDIAM | Longest Diameter | Injection Site Rash | 1 | IN | 1 | IN | 4 | 2007-05-19 |", "score": 0.4324, "match_basis": "verbatim_token+domain_route:FA"}, {"md_atom_id": "md_dmFA_ex_a052", "md_file": "knowledge_base/domains/FA/examples.md", "md_atom_type": "TABLE_ROW", "md_parent_section": "§FA.2 [Example 2]", "md_verbatim": "| 7 | XYZ | FA | XYZ-789 | 123457 | 5 | SCRRNG | Number of Scars Range | Injection Site Rash | 0 | | 0 | | 3 | 2007-05-12 |", "score": 0.4319, "match_basis": "verbatim_token+domain_route:FA"}, {"md_atom_id": "md_dmFA_ex_a059", "md_file": "knowledge_base/domains/FA/examples.md", "md_atom_type": "TABLE_ROW", "md_parent_section": "§FA.2 [Example 2]", "md_verbatim": "| 14 | XYZ | FA | XYZ-789 | 123465 | 5 | SCRRNG | Number of Scars Range | Injection Site Rash | 0 | | 0 | | 4 | 2007-05-19 |", "score": 0.4319, "match_basis": "verbatim_token+domain_route:FA"}], "candidate_count": 5, "zero_candidate": false}
{"pdf_atom_id": "ig34_p0366_a001", "pdf_atom_type": "TABLE_ROW", "pdf_source": "SDTMIG_v3.4", "pdf_page": 366, "pdf_parent_section": "§6.4.4 FA – Specification", "pdf_verbatim": "| FALOC | Location of the Finding About | Char | (LOC) | Record Qualifier | Used to specify the location of the clinical evaluation. Example: \"ARM\". | Perm |", "figure_ref": null, "candidates": [{"md_atom_id": "md_dmFA_ex_a043", "md_file": "knowledge_base/domains/FA/examples.md", "md_atom_type": "TABLE_ROW", "md_parent_section": "§FA.2 [Example 2]", "md_verbatim": "| 1 | XYZ | AE | XYZ-789 | 47869 | 5 | Injection site rash | General disorders and administration site conditions | ARM | LEFT | MILD | N | NOT APPLICABLE | 2007-05-10 |", "score": 0.444, "match_basis": "verbatim_token+domain_route:FA"}, {"md_atom_id": "md_dmFA_ex_a091", "md_file": "knowledge_base/domains/FA/examples.md", "md_atom_type": "TABLE_ROW", "md_parent_section": "§FA.4 [Example 4]", "md_verbatim": "| 2 | ABC101 | FA | 1234 | 2 | OCCUR | Occurrence Indicator | Respiratory Infection | N | N | | 2 | VISIT 2 | 2005-10-01 | SINCE LAST VISIT |", "score": 0.4383, "match_basis": "verbatim_token+domain_route:FA"}, {"md_atom_id": "md_dmFA_ex_a094", "md_file": "knowledge_base/domains/FA/examples.md", "md_atom_type": "TABLE_ROW", "md_parent_section": "§FA.4 [Example 4]", "md_verbatim": "| 5 | ABC101 | FA | 1234 | 5 | OCCUR | Occurrence Indicator | Respiratory Infection | N | N | | 3 | VISIT 3 | 2005-10-10 | SINCE LAST VISIT |", "score": 0.4383, "match_basis": "verbatim_token+domain_route:FA"}, {"md_atom_id": "md_dmFA_ex_a020", "md_file": "knowledge_base/domains/FA/examples.md", "md_atom_type": "TABLE_ROW", "md_parent_section": "§FA.1 [Example 1]", "md_verbatim": "| 4 | ABC | FA | ABC-123 | 4 | 90567 | OCCUR | Occurrence Indicator | Nausea | MIGRAINE SYMPTOMS | Y | Y | 2007-05-16 | 5M PRE-DOSE | 1 | -PT5M | DOSING |", "score": 0.4375, "match_basis": "verbatim_token+domain_route:FA"}, {"md_atom_id": "md_dmFA_ex_a025", "md_file": "knowledge_base/domains/FA/examples.md", "md_atom_type": "TABLE_ROW", "md_parent_section": "§FA.1 [Example 1]", "md_verbatim": "| 9 | ABC | FA | ABC-123 | 9 | 90567 | OCCUR | Occurrence Indicator | Nausea | MIGRAINE SYMPTOMS | N | N | 2007-05-16 | 30M POST-DOSE | 2 | PT30M | DOSING |", "score": 0.4367, "match_basis": "verbatim_token+domain_route:FA"}], "candidate_count": 5, "zero_candidate": false}
{"pdf_atom_id": "ig34_p0366_a002", "pdf_atom_type": "TABLE_ROW", "pdf_source": "SDTMIG_v3.4", "pdf_page": 366, "pdf_parent_section": "§6.4.4 FA – Specification", "pdf_verbatim": "| FALAT | Laterality | Char | (LAT) | Variable Qualifier | Qualifier for anatomical location or specimen further detailing laterality. Examples: \"RIGHT\", \"LEFT\", \"BILATERAL\". | Perm |", "figure_ref": null, "candidates": [{"md_atom_id": "md_dmFA_ex_a043", "md_file": "knowledge_base/domains/FA/examples.md", "md_atom_type": "TABLE_ROW", "md_parent_section": "§FA.2 [Example 2]", "md_verbatim": "| 1 | XYZ | AE | XYZ-789 | 47869 | 5 | Injection site rash | General disorders and administration site conditions | ARM | LEFT | MILD | N | NOT APPLICABLE | 2007-05-10 |", "score": 0.4488, "match_basis": "verbatim_token+domain_route:FA"}, {"md_atom_id": "md_dmFA_ex_a018", "md_file": "knowledge_base/domains/FA/examples.md", "md_atom_type": "TABLE_ROW", "md_parent_section": "§FA.1 [Example 1]", "md_verbatim": "| 2 | ABC | FA | ABC-123 | 2 | 90567 | OCCUR | Occurrence Indicator | Sensitivity To Light | MIGRAINE SYMPTOMS | Y | Y | 2007-05-16 | 5M PRE-DOSE | 1 | -PT5M | DOSING |", "score": 0.4407, "match_basis": "verbatim_token+domain_route:FA"}, {"md_atom_id": "md_dmFA_ex_a023", "md_file": "knowledge_base/domains/FA/examples.md", "md_atom_type": "TABLE_ROW", "md_parent_section": "§FA.1 [Example 1]", "md_verbatim": "| 7 | ABC | FA | ABC-123 | 7 | 90567 | OCCUR | Occurrence Indicator | Sensitivity To Light | MIGRAINE SYMPTOMS | Y | Y | 2007-05-16 | 30M POST-DOSE | 2 | PT30M | DOSING |", "score": 0.44, "match_basis": "verbatim_token+domain_route:FA"}, {"md_atom_id": "md_dmFA_ex_a028", "md_file": "knowledge_base/domains/FA/examples.md", "md_atom_type": "TABLE_ROW", "md_parent_section": "§FA.1 [Example 1]", "md_verbatim": "| 12 | ABC | FA | ABC-123 | 12 | 90567 | OCCUR | Occurrence Indicator | Sensitivity To Light | MIGRAINE SYMPTOMS | N | N | 2007-05-16 | 90M POST-DOSE | 3 | PT90M | DOSING |", "score": 0.44, "match_basis": "verbatim_token+domain_route:FA"}, {"md_atom_id": "md_dmFA_ex_a074", "md_file": "knowledge_base/domains/FA/examples.md", "md_atom_type": "TABLE_ROW", "md_parent_section": "§FA.3 [Example 3]", "md_verbatim": "| 3 | ABC | MH | 001-001 | 3 | JOINT SWELLING | Joint swelling | | RHEUMATOID ARTHRITIS HISTORY | SYMPTOMS | Y | Y | MODERATE | 2006-08-13 | | -P6M |", "score": 0.4378, "match_basis": "verbatim_token+domain_route:FA"}], "candidate_count": 5, "zero_candidate": false}
{"pdf_atom_id": "ig34_p0366_a003", "pdf_atom_type": "TABLE_ROW", "pdf_source": "SDTMIG_v3.4", "pdf_page": 366, "pdf_parent_section": "§6.4.4 FA – Specification", "pdf_verbatim": "| FALOBXFL | Last Observation Before Exposure Flag | Char | (NY) | Record Qualifier | Operationally-derived indicator used to identify the last non-missing value prior to RFXSTDTC. The value should be \"Y\" or null. | Perm |", "figure_ref": null, "candidates": [{"md_atom_id": "md_dmFA_ex_a091", "md_file": "knowledge_base/domains/FA/examples.md", "md_atom_type": "TABLE_ROW", "md_parent_section": "§FA.4 [Example 4]", "md_verbatim": "| 2 | ABC101 | FA | 1234 | 2 | OCCUR | Occurrence Indicator | Respiratory Infection | N | N | | 2 | VISIT 2 | 2005-10-01 | SINCE LAST VISIT |", "score": 0.4614, "match_basis": "verbatim_token+domain_route:FA"}, {"md_atom_id": "md_dmFA_ex_a094", "md_file": "knowledge_base/domains/FA/examples.md", "md_atom_type": "TABLE_ROW", "md_parent_section": "§FA.4 [Example 4]", "md_verbatim": "| 5 | ABC101 | FA | 1234 | 5 | OCCUR | Occurrence Indicator | Respiratory Infection | N | N | | 3 | VISIT 3 | 2005-10-10 | SINCE LAST VISIT |", "score": 0.4614, "match_basis": "verbatim_token+domain_route:FA"}, {"md_atom_id": "md_dmFA_ex_a095", "md_file": "knowledge_base/domains/FA/examples.md", "md_atom_type": "TABLE_ROW", "md_parent_section": "§FA.4 [Example 4]", "md_verbatim": "| 6 | ABC101 | FA | 1234 | 6 | OCCUR | Occurrence Indicator | Nausea | Y | Y | | 3 | VISIT 3 | 2005-10-10 | SINCE LAST VISIT |", "score": 0.4555, "match_basis": "verbatim_token+domain_route:FA"}, {"md_atom_id": "md_dmFA_ex_a092", "md_file": "knowledge_base/domains/FA/examples.md", "md_atom_type": "TABLE_ROW", "md_parent_section": "§FA.4 [Example 4]", "md_verbatim": "| 3 | ABC101 | FA | 1234 | 3 | OCCUR | Occurrence Indicator | Nausea | | | NOT DONE | 2 | VISIT 2 | 2005-10-01 | SINCE LAST VISIT |", "score": 0.4541, "match_basis": "verbatim_token+domain_route:FA"}, {"md_atom_id": "md_dmFA_ex_a025", "md_file": "knowledge_base/domains/FA/examples.md", "md_atom_type": "TABLE_ROW", "md_parent_section": "§FA.1 [Example 1]", "md_verbatim": "| 9 | ABC | FA | ABC-123 | 9 | 90567 | OCCUR | Occurrence Indicator | Nausea | MIGRAINE SYMPTOMS | N | N | 2007-05-16 | 30M POST-DOSE | 2 | PT30M | DOSING |", "score": 0.4496, "match_basis": "verbatim_token+domain_route:FA"}], "candidate_count": 5, "zero_candidate": false}
{"pdf_atom_id": "ig34_p0366_a004", "pdf_atom_type": "TABLE_ROW", "pdf_source": "SDTMIG_v3.4", "pdf_page": 366, "pdf_parent_section": "§6.4.4 FA – Specification", "pdf_verbatim": "| FABLFL | Baseline Flag | Char | (NY) | Record Qualifier | Indicator used to identify a baseline value. The value should be \"Y\" or null. Note that FABLFL is retained for backward compatibility. The authoritative baseline flag for statistical analysis is in an ADaM dataset. | Perm |", "figure_ref": null, "candidates": [{"md_atom_id": "md_dmFA_ex_a018", "md_file": "knowledge_base/domains/FA/examples.md", "md_atom_type": "TABLE_ROW", "md_parent_section": "§FA.1 [Example 1]", "md_verbatim": "| 2 | ABC | FA | ABC-123 | 2 | 90567 | OCCUR | Occurrence Indicator | Sensitivity To Light | MIGRAINE SYMPTOMS | Y | Y | 2007-05-16 | 5M PRE-DOSE | 1 | -PT5M | DOSING |", "score": 0.444, "match_basis": "verbatim_token+domain_route:FA"}, {"md_atom_id": "md_dmFA_ex_a019", "md_file": "knowledge_base/domains/FA/examples.md", "md_atom_type": "TABLE_ROW", "md_parent_section": "§FA.1 [Example 1]", "md_verbatim": "| 3 | ABC | FA | ABC-123 | 3 | 90567 | OCCUR | Occurrence Indicator | Sensitivity To Sound | MIGRAINE SYMPTOMS | N | N | 2007-05-16 | 5M PRE-DOSE | 1 | -PT5M | DOSING |", "score": 0.444, "match_basis": "verbatim_token+domain_route:FA"}, {"md_atom_id": "md_dmFA_ex_a023", "md_file": "knowledge_base/domains/FA/examples.md", "md_atom_type": "TABLE_ROW", "md_parent_section": "§FA.1 [Example 1]", "md_verbatim": "| 7 | ABC | FA | ABC-123 | 7 | 90567 | OCCUR | Occurrence Indicator | Sensitivity To Light | MIGRAINE SYMPTOMS | Y | Y | 2007-05-16 | 30M POST-DOSE | 2 | PT30M | DOSING |", "score": 0.4434, "match_basis": "verbatim_token+domain_route:FA"}, {"md_atom_id": "md_dmFA_ex_a024", "md_file": "knowledge_base/domains/FA/examples.md", "md_atom_type": "TABLE_ROW", "md_parent_section": "§FA.1 [Example 1]", "md_verbatim": "| 8 | ABC | FA | ABC-123 | 8 | 90567 | OCCUR | Occurrence Indicator | Sensitivity To Sound | MIGRAINE SYMPTOMS | N | N | 2007-05-16 | 30M POST-DOSE | 2 | PT30M | DOSING |", "score": 0.4434, "match_basis": "verbatim_token+domain_route:FA"}, {"md_atom_id": "md_dmFA_ex_a028", "md_file": "knowledge_base/domains/FA/examples.md", "md_atom_type": "TABLE_ROW", "md_parent_section": "§FA.1 [Example 1]", "md_verbatim": "| 12 | ABC | FA | ABC-123 | 12 | 90567 | OCCUR | Occurrence Indicator | Sensitivity To Light | MIGRAINE SYMPTOMS | N | N | 2007-05-16 | 90M POST-DOSE | 3 | PT90M | DOSING |", "score": 0.4434, "match_basis": "verbatim_token+domain_route:FA"}], "candidate_count": 5, "zero_candidate": false}
{"pdf_atom_id": "ig34_p0366_a005", "pdf_atom_type": "TABLE_ROW", "pdf_source": "SDTMIG_v3.4", "pdf_page": 366, "pdf_parent_section": "§6.4.4 FA – Specification", "pdf_verbatim": "| FAEVAL | Evaluator | Char | (EVAL) | Record Qualifier | Role of the person who provided the evaluation. Used only for results that are subjective (e.g., assigned by a person or a group). Should be null for records that contain collected or derived data. Examples: \"INVESTIGATOR\", \"ADJUDICATION COMMITTEE\", \"VENDOR\". | Perm |", "figure_ref": null, "candidates": [{"md_atom_id": "md_dmFA_ex_a043", "md_file": "knowledge_base/domains/FA/examples.md", "md_atom_type": "TABLE_ROW", "md_parent_section": "§FA.2 [Example 2]", "md_verbatim": "| 1 | XYZ | AE | XYZ-789 | 47869 | 5 | Injection site rash | General disorders and administration site conditions | ARM | LEFT | MILD | N | NOT APPLICABLE | 2007-05-10 |", "score": 0.4375, "match_basis": "verbatim_token+domain_route:FA"}, {"md_atom_id": "md_dmFA_ex_a091", "md_file": "knowledge_base/domains/FA/examples.md", "md_atom_type": "TABLE_ROW", "md_parent_section": "§FA.4 [Example 4]", "md_verbatim": "| 2 | ABC101 | FA | 1234 | 2 | OCCUR | Occurrence Indicator | Respiratory Infection | N | N | | 2 | VISIT 2 | 2005-10-01 | SINCE LAST VISIT |", "score": 0.4375, "match_basis": "verbatim_token+domain_route:FA"}, {"md_atom_id": "md_dmFA_ex_a094", "md_file": "knowledge_base/domains/FA/examples.md", "md_atom_type": "TABLE_ROW", "md_parent_section": "§FA.4 [Example 4]", "md_verbatim": "| 5 | ABC101 | FA | 1234 | 5 | OCCUR | Occurrence Indicator | Respiratory Infection | N | N | | 3 | VISIT 3 | 2005-10-10 | SINCE LAST VISIT |", "score": 0.4375, "match_basis": "verbatim_token+domain_route:FA"}, {"md_atom_id": "md_dmFA_ex_a049", "md_file": "knowledge_base/domains/FA/examples.md", "md_atom_type": "TABLE_ROW", "md_parent_section": "§FA.2 [Example 2]", "md_verbatim": "| 4 | XYZ | FA | XYZ-789 | 123454 | 5 | VESRNG | Number of Vesicles Range | Injection Site Rash | 0 | | 0 | | 3 | 2007-05-12 |", "score": 0.4273, "match_basis": "verbatim_token+domain_route:FA"}, {"md_atom_id": "md_dmFA_ex_a056", "md_file": "knowledge_base/domains/FA/examples.md", "md_atom_type": "TABLE_ROW", "md_parent_section": "§FA.2 [Example 2]", "md_verbatim": "| 11 | XYZ | FA | XYZ-789 | 123462 | 5 | VESRNG | Number of Vesicles Range | Injection Site Rash | 0 | | 0 | | 4 | 2007-05-19 |", "score": 0.4273, "match_basis": "verbatim_token+domain_route:FA"}], "candidate_count": 5, "zero_candidate": false}
{"pdf_atom_id": "ig34_p0366_a006", "pdf_atom_type": "TABLE_ROW", "pdf_source": "SDTMIG_v3.4", "pdf_page": 366, "pdf_parent_section": "§6.4.4 FA – Specification", "pdf_verbatim": "| VISITNUM | Visit Number | Num | | Timing | 1. Clinical encounter number. 2. Numeric version of VISIT, used for sorting. | Exp |", "figure_ref": null, "candidates": [{"md_atom_id": "md_dmFA_ex_a118", "md_file": "knowledge_base/domains/FA/examples.md", "md_atom_type": "TABLE_ROW", "md_parent_section": "§FA.5 [Example 5]", "md_verbatim": "| 3 | XYZ | FA | XYZ-701-002 | 3 | NUMEPISO | Number of Episodes | Vomiting | GERD SYMPTOMS | >10 | | >10 | | | | 1 | VISIT 1 | 2006-02-02 | -PT24H |", "score": 0.4857, "match_basis": "verbatim_token+domain_route:FA"}, {"md_atom_id": "md_dmFA_ex_a124", "md_file": "knowledge_base/domains/FA/examples.md", "md_atom_type": "TABLE_ROW", "md_parent_section": "§FA.5 [Example 5]", "md_verbatim": "| 9 | XYZ | FA | XYZ-701-002 | 9 | NUMEPISO | Number of Episodes | Nausea | GERD SYMPTOMS | 1 | | 1 | 1 | | | 1 | VISIT 1 | 2006-02-02 | -PT24H |", "score": 0.4783, "match_basis": "verbatim_token+domain_route:FA"}, {"md_atom_id": "md_dmFA_ex_a119", "md_file": "knowledge_base/domains/FA/examples.md", "md_atom_type": "TABLE_ROW", "md_parent_section": "§FA.5 [Example 5]", "md_verbatim": "| 4 | XYZ | FA | XYZ-701-002 | 4 | SEV | Severity/Intensity | Vomiting | GERD SYMPTOMS | SEVERE | | SEVERE | | | | 1 | VISIT 1 | 2006-02-02 | -PT24H |", "score": 0.4667, "match_basis": "verbatim_token+domain_route:FA"}, {"md_atom_id": "md_dmFA_ex_a121", "md_file": "knowledge_base/domains/FA/examples.md", "md_atom_type": "TABLE_ROW", "md_parent_section": "§FA.5 [Example 5]", "md_verbatim": "| 6 | XYZ | FA | XYZ-701-002 | 6 | NUMEPISO | Number of Episodes | Diarrhea | GERD SYMPTOMS | 2 | | 2 | 2 | | | 1 | VISIT 1 | 2006-02-02 | -PT24H |", "score": 0.4667, "match_basis": "verbatim_token+domain_route:FA"}, {"md_atom_id": "md_dmFA_ex_a128", "md_file": "knowledge_base/domains/FA/examples.md", "md_atom_type": "TABLE_ROW", "md_parent_section": "§FA.5 [Example 5]", "md_verbatim": "| 13 | XYZ | FA | XYZ-701-002 | 13 | NUMEPISO | Number of Episodes | Diarrhea | GERD SYMPTOMS | 1 | | 1 | 1 | | | 2 | VISIT 2 | 2006-02-03 | -PT24H |", "score": 0.4667, "match_basis": "verbatim_token+domain_route:FA"}], "candidate_count": 5, "zero_candidate": false}
{"pdf_atom_id": "ig34_p0366_a007", "pdf_atom_type": "TABLE_ROW", "pdf_source": "SDTMIG_v3.4", "pdf_page": 366, "pdf_parent_section": "§6.4.4 FA – Specification", "pdf_verbatim": "| VISIT | Visit Name | Char | | Timing | 1. Protocol-defined description of clinical encounter. 2. May be used in addition to VISITNUM and/or VISITDY. | Perm |", "figure_ref": null, "candidates": [{"md_atom_id": "md_dmFA_ex_a043", "md_file": "knowledge_base/domains/FA/examples.md", "md_atom_type": "TABLE_ROW", "md_parent_section": "§FA.2 [Example 2]", "md_verbatim": "| 1 | XYZ | AE | XYZ-789 | 47869 | 5 | Injection site rash | General disorders and administration site conditions | ARM | LEFT | MILD | N | NOT APPLICABLE | 2007-05-10 |", "score": 0.4486, "match_basis": "verbatim_token+domain_route:FA"}, {"md_atom_id": "md_dmFA_ex_a118", "md_file": "knowledge_base/domains/FA/examples.md", "md_atom_type": "TABLE_ROW", "md_parent_section": "§FA.5 [Example 5]", "md_verbatim": "| 3 | XYZ | FA | XYZ-701-002 | 3 | NUMEPISO | Number of Episodes | Vomiting | GERD SYMPTOMS | >10 | | >10 | | | | 1 | VISIT 1 | 2006-02-02 | -PT24H |", "score": 0.4472, "match_basis": "verbatim_token+domain_route:FA"}, {"md_atom_id": "md_dmFA_ex_a116", "md_file": "knowledge_base/domains/FA/examples.md", "md_atom_type": "TABLE_ROW", "md_parent_section": "§FA.5 [Example 5]", "md_verbatim": "| 1 | XYZ | FA | XYZ-701-002 | 1 | OCCUR | Occurrence Indicator | Vomiting | GERD SYMPTOMS | Y | | Y | | | | 1 | VISIT 1 | 2006-02-02 | -PT24H |", "score": 0.4457, "match_basis": "verbatim_token+domain_route:FA"}, {"md_atom_id": "md_dmFA_ex_a126", "md_file": "knowledge_base/domains/FA/examples.md", "md_atom_type": "TABLE_ROW", "md_parent_section": "§FA.5 [Example 5]", "md_verbatim": "| 11 | XYZ | FA | XYZ-701-002 | 11 | OCCUR | Occurrence Indicator | Vomiting | GERD SYMPTOMS | N | | N | | | | 2 | VISIT 2 | 2006-02-03 | -PT24H |", "score": 0.4457, "match_basis": "verbatim_token+domain_route:FA"}, {"md_atom_id": "md_dmFA_ex_a091", "md_file": "knowledge_base/domains/FA/examples.md", "md_atom_type": "TABLE_ROW", "md_parent_section": "§FA.4 [Example 4]", "md_verbatim": "| 2 | ABC101 | FA | 1234 | 2 | OCCUR | Occurrence Indicator | Respiratory Infection | N | N | | 2 | VISIT 2 | 2005-10-01 | SINCE LAST VISIT |", "score": 0.4437, "match_basis": "verbatim_token+domain_route:FA"}], "candidate_count": 5, "zero_candidate": false}
{"pdf_atom_id": "ig34_p0366_a008", "pdf_atom_type": "TABLE_ROW", "pdf_source": "SDTMIG_v3.4", "pdf_page": 366, "pdf_parent_section": "§6.4.4 FA – Specification", "pdf_verbatim": "| VISITDY | Planned Study Day of Visit | Num | | Timing | Planned study day of the visit based upon RFSTDTC in Demographics. | Perm |", "figure_ref": null, "candidates": [{"md_atom_id": "md_dmFA_ex_a118", "md_file": "knowledge_base/domains/FA/examples.md", "md_atom_type": "TABLE_ROW", "md_parent_section": "§FA.5 [Example 5]", "md_verbatim": "| 3 | XYZ | FA | XYZ-701-002 | 3 | NUMEPISO | Number of Episodes | Vomiting | GERD SYMPTOMS | >10 | | >10 | | | | 1 | VISIT 1 | 2006-02-02 | -PT24H |", "score": 0.4405, "match_basis": "verbatim_token+domain_route:FA"}, {"md_atom_id": "md_dmFA_ex_a117", "md_file": "knowledge_base/domains/FA/examples.md", "md_atom_type": "TABLE_ROW", "md_parent_section": "§FA.5 [Example 5]", "md_verbatim": "| 2 | XYZ | FA | XYZ-701-002 | 2 | VOL | Volume | Vomiting | GERD SYMPTOMS | 250 | mL | 250 | 250 | mL | | 1 | VISIT 1 | 2006-02-02 | -PT24H |", "score": 0.4353, "match_basis": "verbatim_token+domain_route:FA"}, {"md_atom_id": "md_dmFA_ex_a124", "md_file": "knowledge_base/domains/FA/examples.md", "md_atom_type": "TABLE_ROW", "md_parent_section": "§FA.5 [Example 5]", "md_verbatim": "| 9 | XYZ | FA | XYZ-701-002 | 9 | NUMEPISO | Number of Episodes | Nausea | GERD SYMPTOMS | 1 | | 1 | 1 | | | 1 | VISIT 1 | 2006-02-02 | -PT24H |", "score": 0.4329, "match_basis": "verbatim_token+domain_route:FA"}, {"md_atom_id": "md_dmFA_ex_a119", "md_file": "knowledge_base/domains/FA/examples.md", "md_atom_type": "TABLE_ROW", "md_parent_section": "§FA.5 [Example 5]", "md_verbatim": "| 4 | XYZ | FA | XYZ-701-002 | 4 | SEV | Severity/Intensity | Vomiting | GERD SYMPTOMS | SEVERE | | SEVERE | | | | 1 | VISIT 1 | 2006-02-02 | -PT24H |", "score": 0.432, "match_basis": "verbatim_token+domain_route:FA"}, {"md_atom_id": "md_dmFA_ex_a121", "md_file": "knowledge_base/domains/FA/examples.md", "md_atom_type": "TABLE_ROW", "md_parent_section": "§FA.5 [Example 5]", "md_verbatim": "| 6 | XYZ | FA | XYZ-701-002 | 6 | NUMEPISO | Number of Episodes | Diarrhea | GERD SYMPTOMS | 2 | | 2 | 2 | | | 1 | VISIT 1 | 2006-02-02 | -PT24H |", "score": 0.432, "match_basis": "verbatim_token+domain_route:FA"}], "candidate_count": 5, "zero_candidate": false}
{"pdf_atom_id": "ig34_p0366_a009", "pdf_atom_type": "TABLE_ROW", "pdf_source": "SDTMIG_v3.4", "pdf_page": 366, "pdf_parent_section": "§6.4.4 FA – Specification", "pdf_verbatim": "| TAETORD | Planned Order of Element within Arm | Num | | Timing | Number that gives the planned order of the element within the arm. | Perm |", "figure_ref": null, "candidates": [{"md_atom_id": "md_dmFA_ex_a049", "md_file": "knowledge_base/domains/FA/examples.md", "md_atom_type": "TABLE_ROW", "md_parent_section": "§FA.2 [Example 2]", "md_verbatim": "| 4 | XYZ | FA | XYZ-789 | 123454 | 5 | VESRNG | Number of Vesicles Range | Injection Site Rash | 0 | | 0 | | 3 | 2007-05-12 |", "score": 0.4441, "match_basis": "verbatim_token+domain_route:FA"}, {"md_atom_id": "md_dmFA_ex_a056", "md_file": "knowledge_base/domains/FA/examples.md", "md_atom_type": "TABLE_ROW", "md_parent_section": "§FA.2 [Example 2]", "md_verbatim": "| 11 | XYZ | FA | XYZ-789 | 123462 | 5 | VESRNG | Number of Vesicles Range | Injection Site Rash | 0 | | 0 | | 4 | 2007-05-19 |", "score": 0.4441, "match_basis": "verbatim_token+domain_route:FA"}, {"md_atom_id": "md_dmFA_ex_a118", "md_file": "knowledge_base/domains/FA/examples.md", "md_atom_type": "TABLE_ROW", "md_parent_section": "§FA.5 [Example 5]", "md_verbatim": "| 3 | XYZ | FA | XYZ-701-002 | 3 | NUMEPISO | Number of Episodes | Vomiting | GERD SYMPTOMS | >10 | | >10 | | | | 1 | VISIT 1 | 2006-02-02 | -PT24H |", "score": 0.4429, "match_basis": "verbatim_token+domain_route:FA"}, {"md_atom_id": "md_dmFA_ex_a051", "md_file": "knowledge_base/domains/FA/examples.md", "md_atom_type": "TABLE_ROW", "md_parent_section": "§FA.2 [Example 2]", "md_verbatim": "| 6 | XYZ | FA | XYZ-789 | 123456 | 5 | SCBRNG | Number of Scabs Range | Injection Site Rash | 0 | | 0 | | 3 | 2007-05-12 |", "score": 0.4358, "match_basis": "verbatim_token+domain_route:FA"}, {"md_atom_id": "md_dmFA_ex_a052", "md_file": "knowledge_base/domains/FA/examples.md", "md_atom_type": "TABLE_ROW", "md_parent_section": "§FA.2 [Example 2]", "md_verbatim": "| 7 | XYZ | FA | XYZ-789 | 123457 | 5 | SCRRNG | Number of Scars Range | Injection Site Rash | 0 | | 0 | | 3 | 2007-05-12 |", "score": 0.4358, "match_basis": "verbatim_token+domain_route:FA"}], "candidate_count": 5, "zero_candidate": false}
{"pdf_atom_id": "ig34_p0366_a010", "pdf_atom_type": "TABLE_ROW", "pdf_source": "SDTMIG_v3.4", "pdf_page": 366, "pdf_parent_section": "§6.4.4 FA – Specification", "pdf_verbatim": "| EPOCH | Epoch | Char | (EPOCH) | Timing | Epoch associated with the date/time of the observation. Examples: \"SCREENING\", \"TREATMENT\", \"FOLLOW-UP\". | Perm |", "figure_ref": null, "candidates": [{"md_atom_id": "md_dmFA_ex_a011", "md_file": "knowledge_base/domains/FA/examples.md", "md_atom_type": "TABLE_ROW", "md_parent_section": "§FA.1 [Example 1]", "md_verbatim": "| 1 | ABC | EX | ABC-123 | 1 | 4 | CURALL | 50 | mg | TABLET | ONCE | ORAL | TREATMENT | 2007-05-16T11:05 | 2007-05-16T11:05 |", "score": 0.4568, "match_basis": "verbatim_token+domain_route:FA"}, {"md_atom_id": "md_dmFA_ex_a142", "md_file": "knowledge_base/domains/FA/examples.md", "md_atom_type": "TABLE_ROW", "md_parent_section": "§FA.6 [Example 6]", "md_verbatim": "| 1 | AE | 123 | 1 | 1 | Morning queasiness | Nausea | MODERATE | 2006-02-01 | 2006-02-23 |", "score": 0.4228, "match_basis": "verbatim_token+domain_route:FA"}, {"md_atom_id": "md_dmFA_ex_a081", "md_file": "knowledge_base/domains/FA/examples.md", "md_atom_type": "TABLE_ROW", "md_parent_section": "§FA.3 [Example 3]", "md_verbatim": "| 1 | ABC | MH | 001-001 | MHSEQ | 6 | MHAVDDUR | Average Daily Duration | PT1H30M | CRF | |", "score": 0.4217, "match_basis": "verbatim_token+domain_route:FA"}, {"md_atom_id": "md_dmFA_ex_a043", "md_file": "knowledge_base/domains/FA/examples.md", "md_atom_type": "TABLE_ROW", "md_parent_section": "§FA.2 [Example 2]", "md_verbatim": "| 1 | XYZ | AE | XYZ-789 | 47869 | 5 | Injection site rash | General disorders and administration site conditions | ARM | LEFT | MILD | N | NOT APPLICABLE | 2007-05-10 |", "score": 0.4212, "match_basis": "verbatim_token+domain_route:FA"}, {"md_atom_id": "md_dmFA_ex_a052", "md_file": "knowledge_base/domains/FA/examples.md", "md_atom_type": "TABLE_ROW", "md_parent_section": "§FA.2 [Example 2]", "md_verbatim": "| 7 | XYZ | FA | XYZ-789 | 123457 | 5 | SCRRNG | Number of Scars Range | Injection Site Rash | 0 | | 0 | | 3 | 2007-05-12 |", "score": 0.4209, "match_basis": "verbatim_token+domain_route:FA"}], "candidate_count": 5, "zero_candidate": false}
{"pdf_atom_id": "ig34_p0366_a011", "pdf_atom_type": "TABLE_ROW", "pdf_source": "SDTMIG_v3.4", "pdf_page": 366, "pdf_parent_section": "§6.4.4 FA – Specification", "pdf_verbatim": "| FADTC | Date/Time of Collection | Char | ISO 8601 datetime or interval | Timing | Collection date and time of findings assessment represented in ISO 8601 character format. | Exp |", "figure_ref": null, "candidates": [{"md_atom_id": "md_dmFA_ex_a091", "md_file": "knowledge_base/domains/FA/examples.md", "md_atom_type": "TABLE_ROW", "md_parent_section": "§FA.4 [Example 4]", "md_verbatim": "| 2 | ABC101 | FA | 1234 | 2 | OCCUR | Occurrence Indicator | Respiratory Infection | N | N | | 2 | VISIT 2 | 2005-10-01 | SINCE LAST VISIT |", "score": 0.4429, "match_basis": "verbatim_token+domain_route:FA"}, {"md_atom_id": "md_dmFA_ex_a094", "md_file": "knowledge_base/domains/FA/examples.md", "md_atom_type": "TABLE_ROW", "md_parent_section": "§FA.4 [Example 4]", "md_verbatim": "| 5 | ABC101 | FA | 1234 | 5 | OCCUR | Occurrence Indicator | Respiratory Infection | N | N | | 3 | VISIT 3 | 2005-10-10 | SINCE LAST VISIT |", "score": 0.4429, "match_basis": "verbatim_token+domain_route:FA"}, {"md_atom_id": "md_dmFA_ex_a043", "md_file": "knowledge_base/domains/FA/examples.md", "md_atom_type": "TABLE_ROW", "md_parent_section": "§FA.2 [Example 2]", "md_verbatim": "| 1 | XYZ | AE | XYZ-789 | 47869 | 5 | Injection site rash | General disorders and administration site conditions | ARM | LEFT | MILD | N | NOT APPLICABLE | 2007-05-10 |", "score": 0.4421, "match_basis": "verbatim_token+domain_route:FA"}, {"md_atom_id": "md_dmFA_ex_a046", "md_file": "knowledge_base/domains/FA/examples.md", "md_atom_type": "TABLE_ROW", "md_parent_section": "§FA.2 [Example 2]", "md_verbatim": "| 1 | XYZ | FA | XYZ-789 | 123451 | 5 | LDIAM | Longest Diameter | Injection Site Rash | 2.5 | IN | 2.5 | IN | 3 | 2007-05-12 |", "score": 0.4345, "match_basis": "verbatim_token+domain_route:FA"}, {"md_atom_id": "md_dmFA_ex_a053", "md_file": "knowledge_base/domains/FA/examples.md", "md_atom_type": "TABLE_ROW", "md_parent_section": "§FA.2 [Example 2]", "md_verbatim": "| 8 | XYZ | FA | XYZ-789 | 123459 | 5 | LDIAM | Longest Diameter | Injection Site Rash | 1 | IN | 1 | IN | 4 | 2007-05-19 |", "score": 0.4345, "match_basis": "verbatim_token+domain_route:FA"}], "candidate_count": 5, "zero_candidate": false}
{"pdf_atom_id": "ig34_p0366_a012", "pdf_atom_type": "TABLE_ROW", "pdf_source": "SDTMIG_v3.4", "pdf_page": 366, "pdf_parent_section": "§6.4.4 FA – Specification", "pdf_verbatim": "| FADY | Study Day of Collection | Num | | Timing | 1. Study day of collection, measured as integer days. 2. Algorithm for calculations must be relative to the sponsor-defined RFSTDTC variable in Demographics. This formula should be consistent across the submission. | Perm |", "figure_ref": null, "candidates": [{"md_atom_id": "md_dmFA_ex_a043", "md_file": "knowledge_base/domains/FA/examples.md", "md_atom_type": "TABLE_ROW", "md_parent_section": "§FA.2 [Example 2]", "md_verbatim": "| 1 | XYZ | AE | XYZ-789 | 47869 | 5 | Injection site rash | General disorders and administration site conditions | ARM | LEFT | MILD | N | NOT APPLICABLE | 2007-05-10 |", "score": 0.4444, "match_basis": "verbatim_token+domain_route:FA"}, {"md_atom_id": "md_dmFA_ex_a017", "md_file": "knowledge_base/domains/FA/examples.md", "md_atom_type": "TABLE_ROW", "md_parent_section": "§FA.1 [Example 1]", "md_verbatim": "| 1 | ABC | FA | ABC-123 | 1 | 90567 | SEV | Severity/Intensity | Migraine | MIGRAINE SYMPTOMS | SEVERE | SEVERE | 2007-05-16 | 5M PRE-DOSE | 1 | -PT5M | DOSING |", "score": 0.4331, "match_basis": "verbatim_token+domain_route:FA"}, {"md_atom_id": "md_dmFA_ex_a027", "md_file": "knowledge_base/domains/FA/examples.md", "md_atom_type": "TABLE_ROW", "md_parent_section": "§FA.1 [Example 1]", "md_verbatim": "| 11 | ABC | FA | ABC-123 | 11 | 90567 | SEV | Severity/Intensity | Migraine | MIGRAINE SYMPTOMS | MILD | MILD | 2007-05-16 | 90M POST-DOSE | 3 | PT90M | DOSING |", "score": 0.4324, "match_basis": "verbatim_token+domain_route:FA"}, {"md_atom_id": "md_dmFA_ex_a022", "md_file": "knowledge_base/domains/FA/examples.md", "md_atom_type": "TABLE_ROW", "md_parent_section": "§FA.1 [Example 1]", "md_verbatim": "| 6 | ABC | FA | ABC-123 | 6 | 90567 | SEV | Severity/Intensity | Migraine | MIGRAINE SYMPTOMS | MODERATE | MODERATE | 2007-05-16 | 30M POST-DOSE | 2 | PT30M | DOSING |", "score": 0.4316, "match_basis": "verbatim_token+domain_route:FA"}, {"md_atom_id": "md_dmFA_ex_a054", "md_file": "knowledge_base/domains/FA/examples.md", "md_atom_type": "TABLE_ROW", "md_parent_section": "§FA.2 [Example 2]", "md_verbatim": "| 9 | XYZ | FA | XYZ-789 | 123460 | 5 | MACRNG | Number of Macules Range | Injection Site Rash | 1 to 25 | | 1 to 25 | | 4 | 2007-05-19 |", "score": 0.43, "match_basis": "verbatim_token+domain_route:FA"}], "candidate_count": 5, "zero_candidate": false}
{"pdf_atom_id": "ig34_p0366_a013", "pdf_atom_type": "SENTENCE", "pdf_source": "SDTMIG_v3.4", "pdf_page": 366, "pdf_parent_section": "§6.4.4 FA – Specification", "pdf_verbatim": "1In this column, an asterisk (*) indicates that the variable may be subject to controlled terminology. CDISC/NCI codelist values are enclosed in parentheses.", "figure_ref": null, "candidates": [{"md_atom_id": "md_dmFA_ex_a014", "md_file": "knowledge_base/domains/FA/examples.md", "md_atom_type": "SENTENCE", "md_parent_section": "§FA.1 [Example 1]", "md_verbatim": "**Rows 2-5, 7-10, 12-15:** The presence of symptoms associated with migraine was represented with the name of the symptom in FAOBJ, as the data collected is about the occurrence of a particular symptom. The test code value \"OCCUR\" is derived from the events class variable name --OCCUR, but is an assessment at a point in time, rather than about the event as a whole. The relationship of these symptoms to migraine is represented in FACAT, which indicates that these data were collected in the Migraine Symptoms Diary.", "score": 0.5076, "match_basis": "verbatim_token+domain_route:FA"}, {"md_atom_id": "md_dmFA_ex_a107", "md_file": "knowledge_base/domains/FA/examples.md", "md_atom_type": "SENTENCE", "md_parent_section": "§FA.5 [Example 5]", "md_verbatim": "This SDTM example represents data from 2 visits for 1 subject. FAEVINTX indicates that assessments were for the previous 24 hours.", "score": 0.4984, "match_basis": "verbatim_token+domain_route:FA"}, {"md_atom_id": "md_dmFA_ex_a069", "md_file": "knowledge_base/domains/FA/examples.md", "md_atom_type": "SENTENCE", "md_parent_section": "§FA.3 [Example 3]", "md_verbatim": "**Rows 2-6:** No start or end dates were collected for the symptoms, so the variable MHEVDTYP is not relevant for those records. MHEVDTYP is used only to specify the aspect of the event used to determine start and/or end dates.", "score": 0.4902, "match_basis": "verbatim_token+domain_route:FA"}, {"md_atom_id": "md_dmFA_ex_a144", "md_file": "knowledge_base/domains/FA/examples.md", "md_atom_type": "SENTENCE", "md_parent_section": "§FA.6 [Example 6]", "md_verbatim": "The values in FAOBJ are the values from AEDECOD, which were assigned during coding, rather than directly collected. The values in FASPID are the AE identifiers from AESPID. FAEVINTX indicates that the evaluation was for the period since the last visit.", "score": 0.489, "match_basis": "verbatim_token+domain_route:FA"}, {"md_atom_id": "md_dmFA_ex_a113", "md_file": "knowledge_base/domains/FA/examples.md", "md_atom_type": "SENTENCE", "md_parent_section": "§FA.5 [Example 5]", "md_verbatim": "**Row 15:** Indicates that the occurrence of nausea was not assessed at visit 2.", "score": 0.4857, "match_basis": "verbatim_token+domain_route:FA"}], "candidate_count": 5, "zero_candidate": false}
{"pdf_atom_id": "ig34_p0366_a014", "pdf_atom_type": "HEADING", "pdf_source": "SDTMIG_v3.4", "pdf_page": 366, "pdf_parent_section": "§6.4.4 Findings About Events or Interventions (FA)", "pdf_verbatim": "FA – Assumptions", "figure_ref": null, "candidates": [{"md_atom_id": "md_dmFA_assn_a001", "md_file": "knowledge_base/domains/FA/assumptions.md", "md_atom_type": "HEADING", "md_parent_section": "§FA [FA — Assumptions]", "md_verbatim": "# FA — Assumptions", "score": 1.0, "match_basis": "verbatim_token+domain_route:FA"}, {"md_atom_id": "md_dmFA_ex_a001", "md_file": "knowledge_base/domains/FA/examples.md", "md_atom_type": "HEADING", "md_parent_section": "§FA [FA — Examples]", "md_verbatim": "# FA — Examples", "score": 0.4, "match_basis": "verbatim_token+domain_route:FA"}, {"md_atom_id": "md_dmFA_ex_a002", "md_file": "knowledge_base/domains/FA/examples.md", "md_atom_type": "HEADING", "md_parent_section": "§FA [FA — Examples]", "md_verbatim": "## Example 1", "score": 0.4, "match_basis": "verbatim_token+domain_route:FA"}, {"md_atom_id": "md_dmFA_ex_a037", "md_file": "knowledge_base/domains/FA/examples.md", "md_atom_type": "HEADING", "md_parent_section": "§FA [FA — Examples]", "md_verbatim": "## Example 2", "score": 0.4, "match_basis": "verbatim_token+domain_route:FA"}, {"md_atom_id": "md_dmFA_ex_a065", "md_file": "knowledge_base/domains/FA/examples.md", "md_atom_type": "HEADING", "md_parent_section": "§FA [FA — Examples]", "md_verbatim": "## Example 3", "score": 0.4, "match_basis": "verbatim_token+domain_route:FA"}], "candidate_count": 5, "zero_candidate": false}
{"pdf_atom_id": "ig34_p0366_a015", "pdf_atom_type": "LIST_ITEM", "pdf_source": "SDTMIG_v3.4", "pdf_page": 366, "pdf_parent_section": "FA – Assumptions", "pdf_verbatim": "1. The Findings About domain shares all qualities and conventions of findings observations.", "figure_ref": null, "candidates": [{"md_atom_id": "md_dmFA_assn_a002", "md_file": "knowledge_base/domains/FA/assumptions.md", "md_atom_type": "LIST_ITEM", "md_parent_section": "§FA [FA — Assumptions]", "md_verbatim": "1. The Findings About domain shares all qualities and conventions of findings observations.", "score": 1.0, "match_basis": "verbatim_token+domain_route:FA"}, {"md_atom_id": "md_dmFA_assn_a004", "md_file": "knowledge_base/domains/FA/assumptions.md", "md_atom_type": "LIST_ITEM", "md_parent_section": "§FA [FA — Assumptions]", "md_verbatim": "3. See Section 6.4.2, Naming Findings About Domains, for advice on splitting the FA domain.", "score": 0.5672, "match_basis": "verbatim_token+domain_route:FA"}, {"md_atom_id": "md_dmFA_assn_a009", "md_file": "knowledge_base/domains/FA/assumptions.md", "md_atom_type": "LIST_ITEM", "md_parent_section": "§FA [FA — Assumptions]", "md_verbatim": "6. Any Identifier variables, Timing variables, or Findings general observation-class qualifiers may be added to the FA domain, but the following qualifiers should generally not be used: --BODSYS, --MODIFY, --SEV, --TOXGR.", "score": 0.5545, "match_basis": "verbatim_token+domain_route:FA"}, {"md_atom_id": "md_dmFA_assn_a003", "md_file": "knowledge_base/domains/FA/assumptions.md", "md_atom_type": "LIST_ITEM", "md_parent_section": "§FA [FA — Assumptions]", "md_verbatim": "2. See Section 6.4.1, When to Use Findings About Events or Interventions; and Section 8.6.3, Guidelines for Differentiating Between Interventions, Events, Findings, and Findings About Events or Interventions; for guidance on deciding between the use of the FA domain and other SDTM structures.", "score": 0.5469, "match_basis": "verbatim_token+domain_route:FA"}, {"md_atom_id": "md_dmFA_assn_a005", "md_file": "knowledge_base/domains/FA/assumptions.md", "md_atom_type": "LIST_ITEM", "md_parent_section": "§FA [FA — Assumptions]", "md_verbatim": "4. Some variables in the events and interventions domains (e.g., OCCUR, SEV, TOXGR) represent findings about the whole of the event or intervention. When FA is used to represent findings about a part of the event or intervention (i.e., the assessment has different timing from the event as a whole), the FATEST and FATESTCD values should be the same as the variable name and variable label in the corresponding event or intervention domain. See Section 6.4.3, Variables Unique to Findings About.", "score": 0.503, "match_basis": "verbatim_token+domain_route:FA"}], "candidate_count": 5, "zero_candidate": false}
{"pdf_atom_id": "ig34_p0366_a016", "pdf_atom_type": "LIST_ITEM", "pdf_source": "SDTMIG_v3.4", "pdf_page": 366, "pdf_parent_section": "FA – Assumptions", "pdf_verbatim": "2. See Section 6.4.1, When to Use Findings About Events or Interventions; and Section 8.6.3, Guidelines for Differentiating Between Interventions, Events, Findings, and Findings About Events or Interventions; for guidance on deciding between the use of the FA domain and other SDTM structures.", "figure_ref": null, "candidates": [{"md_atom_id": "md_dmFA_assn_a003", "md_file": "knowledge_base/domains/FA/assumptions.md", "md_atom_type": "LIST_ITEM", "md_parent_section": "§FA [FA — Assumptions]", "md_verbatim": "2. See Section 6.4.1, When to Use Findings About Events or Interventions; and Section 8.6.3, Guidelines for Differentiating Between Interventions, Events, Findings, and Findings About Events or Interventions; for guidance on deciding between the use of the FA domain and other SDTM structures.", "score": 1.0, "match_basis": "verbatim_token+domain_route:FA"}, {"md_atom_id": "md_dmFA_assn_a005", "md_file": "knowledge_base/domains/FA/assumptions.md", "md_atom_type": "LIST_ITEM", "md_parent_section": "§FA [FA — Assumptions]", "md_verbatim": "4. Some variables in the events and interventions domains (e.g., OCCUR, SEV, TOXGR) represent findings about the whole of the event or intervention. When FA is used to represent findings about a part of the event or intervention (i.e., the assessment has different timing from the event as a whole), the FATEST and FATESTCD values should be the same as the variable name and variable label in the corresponding event or intervention domain. See Section 6.4.3, Variables Unique to Findings About.", "score": 0.5669, "match_basis": "verbatim_token+domain_route:FA"}, {"md_atom_id": "md_dmFA_assn_a002", "md_file": "knowledge_base/domains/FA/assumptions.md", "md_atom_type": "LIST_ITEM", "md_parent_section": "§FA [FA — Assumptions]", "md_verbatim": "1. The Findings About domain shares all qualities and conventions of findings observations.", "score": 0.5469, "match_basis": "verbatim_token+domain_route:FA"}, {"md_atom_id": "md_dmFA_assn_a004", "md_file": "knowledge_base/domains/FA/assumptions.md", "md_atom_type": "LIST_ITEM", "md_parent_section": "§FA [FA — Assumptions]", "md_verbatim": "3. See Section 6.4.2, Naming Findings About Domains, for advice on splitting the FA domain.", "score": 0.5435, "match_basis": "verbatim_token+domain_route:FA"}, {"md_atom_id": "md_dmFA_assn_a007", "md_file": "knowledge_base/domains/FA/assumptions.md", "md_atom_type": "LIST_ITEM", "md_parent_section": "§FA [FA — Assumptions]", "md_verbatim": "5. When data collection establishes a relationship between FA records and an events or interventions record, the relationship should be represented in RELREC.", "score": 0.5333, "match_basis": "verbatim_token+domain_route:FA"}], "candidate_count": 5, "zero_candidate": false}
{"pdf_atom_id": "ig34_p0366_a017", "pdf_atom_type": "LIST_ITEM", "pdf_source": "SDTMIG_v3.4", "pdf_page": 366, "pdf_parent_section": "FA – Assumptions", "pdf_verbatim": "3. See Section 6.4.2, Naming Findings About Domains, for advice on splitting the FA domain.", "figure_ref": null, "candidates": [{"md_atom_id": "md_dmFA_assn_a004", "md_file": "knowledge_base/domains/FA/assumptions.md", "md_atom_type": "LIST_ITEM", "md_parent_section": "§FA [FA — Assumptions]", "md_verbatim": "3. See Section 6.4.2, Naming Findings About Domains, for advice on splitting the FA domain.", "score": 1.0, "match_basis": "verbatim_token+domain_route:FA"}, {"md_atom_id": "md_dmFA_assn_a002", "md_file": "knowledge_base/domains/FA/assumptions.md", "md_atom_type": "LIST_ITEM", "md_parent_section": "§FA [FA — Assumptions]", "md_verbatim": "1. The Findings About domain shares all qualities and conventions of findings observations.", "score": 0.5672, "match_basis": "verbatim_token+domain_route:FA"}, {"md_atom_id": "md_dmFA_assn_a003", "md_file": "knowledge_base/domains/FA/assumptions.md", "md_atom_type": "LIST_ITEM", "md_parent_section": "§FA [FA — Assumptions]", "md_verbatim": "2. See Section 6.4.1, When to Use Findings About Events or Interventions; and Section 8.6.3, Guidelines for Differentiating Between Interventions, Events, Findings, and Findings About Events or Interventions; for guidance on deciding between the use of the FA domain and other SDTM structures.", "score": 0.5435, "match_basis": "verbatim_token+domain_route:FA"}, {"md_atom_id": "md_dmFA_assn_a005", "md_file": "knowledge_base/domains/FA/assumptions.md", "md_atom_type": "LIST_ITEM", "md_parent_section": "§FA [FA — Assumptions]", "md_verbatim": "4. Some variables in the events and interventions domains (e.g., OCCUR, SEV, TOXGR) represent findings about the whole of the event or intervention. When FA is used to represent findings about a part of the event or intervention (i.e., the assessment has different timing from the event as a whole), the FATEST and FATESTCD values should be the same as the variable name and variable label in the corresponding event or intervention domain. See Section 6.4.3, Variables Unique to Findings About.", "score": 0.5095, "match_basis": "verbatim_token+domain_route:FA"}, {"md_atom_id": "md_dmFA_assn_a009", "md_file": "knowledge_base/domains/FA/assumptions.md", "md_atom_type": "LIST_ITEM", "md_parent_section": "§FA [FA — Assumptions]", "md_verbatim": "6. Any Identifier variables, Timing variables, or Findings general observation-class qualifiers may be added to the FA domain, but the following qualifiers should generally not be used: --BODSYS, --MODIFY, --SEV, --TOXGR.", "score": 0.48, "match_basis": "verbatim_token+domain_route:FA"}], "candidate_count": 5, "zero_candidate": false}
{"pdf_atom_id": "ig34_p0366_a018", "pdf_atom_type": "LIST_ITEM", "pdf_source": "SDTMIG_v3.4", "pdf_page": 366, "pdf_parent_section": "FA – Assumptions", "pdf_verbatim": "4. Some variables in the events and interventions domains (e.g., OCCUR, SEV, TOXGR) represent findings about the whole of the event or intervention. When FA is used to represent findings about a part of the event or intervention (i.e., the assessment has different timing from the event as a whole), the FATEST and FATESTCD values should be the same as the variable name and variable label in the corresponding event or intervention domain. See Section 6.4.3, Variables Unique to Findings About.", "figure_ref": null, "candidates": [{"md_atom_id": "md_dmFA_assn_a005", "md_file": "knowledge_base/domains/FA/assumptions.md", "md_atom_type": "LIST_ITEM", "md_parent_section": "§FA [FA — Assumptions]", "md_verbatim": "4. Some variables in the events and interventions domains (e.g., OCCUR, SEV, TOXGR) represent findings about the whole of the event or intervention. When FA is used to represent findings about a part of the event or intervention (i.e., the assessment has different timing from the event as a whole), the FATEST and FATESTCD values should be the same as the variable name and variable label in the corresponding event or intervention domain. See Section 6.4.3, Variables Unique to Findings About.", "score": 1.0, "match_basis": "verbatim_token+domain_route:FA"}, {"md_atom_id": "md_dmFA_assn_a003", "md_file": "knowledge_base/domains/FA/assumptions.md", "md_atom_type": "LIST_ITEM", "md_parent_section": "§FA [FA — Assumptions]", "md_verbatim": "2. See Section 6.4.1, When to Use Findings About Events or Interventions; and Section 8.6.3, Guidelines for Differentiating Between Interventions, Events, Findings, and Findings About Events or Interventions; for guidance on deciding between the use of the FA domain and other SDTM structures.", "score": 0.5669, "match_basis": "verbatim_token+domain_route:FA"}, {"md_atom_id": "md_dmFA_assn_a009", "md_file": "knowledge_base/domains/FA/assumptions.md", "md_atom_type": "LIST_ITEM", "md_parent_section": "§FA [FA — Assumptions]", "md_verbatim": "6. Any Identifier variables, Timing variables, or Findings general observation-class qualifiers may be added to the FA domain, but the following qualifiers should generally not be used: --BODSYS, --MODIFY, --SEV, --TOXGR.", "score": 0.5425, "match_basis": "verbatim_token+domain_route:FA"}, {"md_atom_id": "md_dmFA_assn_a007", "md_file": "knowledge_base/domains/FA/assumptions.md", "md_atom_type": "LIST_ITEM", "md_parent_section": "§FA [FA — Assumptions]", "md_verbatim": "5. When data collection establishes a relationship between FA records and an events or interventions record, the relationship should be represented in RELREC.", "score": 0.5315, "match_basis": "verbatim_token+domain_route:FA"}, {"md_atom_id": "md_dmFA_assn_a006", "md_file": "knowledge_base/domains/FA/assumptions.md", "md_atom_type": "LIST_ITEM", "md_parent_section": "§FA [FA — Assumptions]", "md_verbatim": "   a. Associations between some findings about cardiovascular interventions or events and their response codelists are described in the CV codetable, available at https://www.cdisc.org/standards/terminology/controlled-terminology.", "score": 0.5105, "match_basis": "verbatim_token+domain_route:FA"}], "candidate_count": 5, "zero_candidate": false}
{"pdf_atom_id": "ig34_p0366_a019", "pdf_atom_type": "LIST_ITEM", "pdf_source": "SDTMIG_v3.4", "pdf_page": 366, "pdf_parent_section": "FA – Assumptions", "pdf_verbatim": "a. Associations between some findings about cardiovascular interventions or events and their response codelists are described in the CV codetable, available at https://www.cdisc.org/standards/terminology/controlled-terminology.", "figure_ref": null, "candidates": [{"md_atom_id": "md_dmFA_assn_a006", "md_file": "knowledge_base/domains/FA/assumptions.md", "md_atom_type": "LIST_ITEM", "md_parent_section": "§FA [FA — Assumptions]", "md_verbatim": "   a. Associations between some findings about cardiovascular interventions or events and their response codelists are described in the CV codetable, available at https://www.cdisc.org/standards/terminology/controlled-terminology.", "score": 1.0, "match_basis": "verbatim_token+domain_route:FA"}, {"md_atom_id": "md_dmFA_assn_a003", "md_file": "knowledge_base/domains/FA/assumptions.md", "md_atom_type": "LIST_ITEM", "md_parent_section": "§FA [FA — Assumptions]", "md_verbatim": "2. See Section 6.4.1, When to Use Findings About Events or Interventions; and Section 8.6.3, Guidelines for Differentiating Between Interventions, Events, Findings, and Findings About Events or Interventions; for guidance on deciding between the use of the FA domain and other SDTM structures.", "score": 0.5308, "match_basis": "verbatim_token+domain_route:FA"}, {"md_atom_id": "md_dmFA_assn_a007", "md_file": "knowledge_base/domains/FA/assumptions.md", "md_atom_type": "LIST_ITEM", "md_parent_section": "§FA [FA — Assumptions]", "md_verbatim": "5. When data collection establishes a relationship between FA records and an events or interventions record, the relationship should be represented in RELREC.", "score": 0.5192, "match_basis": "verbatim_token+domain_route:FA"}, {"md_atom_id": "md_dmFA_assn_a005", "md_file": "knowledge_base/domains/FA/assumptions.md", "md_atom_type": "LIST_ITEM", "md_parent_section": "§FA [FA — Assumptions]", "md_verbatim": "4. Some variables in the events and interventions domains (e.g., OCCUR, SEV, TOXGR) represent findings about the whole of the event or intervention. When FA is used to represent findings about a part of the event or intervention (i.e., the assessment has different timing from the event as a whole), the FATEST and FATESTCD values should be the same as the variable name and variable label in the corresponding event or intervention domain. See Section 6.4.3, Variables Unique to Findings About.", "score": 0.5105, "match_basis": "verbatim_token+domain_route:FA"}, {"md_atom_id": "md_dmFA_assn_a002", "md_file": "knowledge_base/domains/FA/assumptions.md", "md_atom_type": "LIST_ITEM", "md_parent_section": "§FA [FA — Assumptions]", "md_verbatim": "1. The Findings About domain shares all qualities and conventions of findings observations.", "score": 0.5, "match_basis": "verbatim_token+domain_route:FA"}], "candidate_count": 5, "zero_candidate": false}
{"pdf_atom_id": "ig34_p0367_a001", "pdf_atom_type": "LIST_ITEM", "pdf_source": "SDTMIG_v3.4", "pdf_page": 367, "pdf_parent_section": "FA – Assumptions", "pdf_verbatim": "5. When data collection establishes a relationship between FA records and an events or interventions record, the relationship should be represented in RELREC.", "figure_ref": null, "candidates": [{"md_atom_id": "md_dmFA_assn_a007", "md_file": "knowledge_base/domains/FA/assumptions.md", "md_atom_type": "LIST_ITEM", "md_parent_section": "§FA [FA — Assumptions]", "md_verbatim": "5. When data collection establishes a relationship between FA records and an events or interventions record, the relationship should be represented in RELREC.", "score": 1.0, "match_basis": "verbatim_token+domain_route:FA"}, {"md_atom_id": "md_dmFA_assn_a008", "md_file": "knowledge_base/domains/FA/assumptions.md", "md_atom_type": "LIST_ITEM", "md_parent_section": "§FA [FA — Assumptions]", "md_verbatim": "   a. The FAOBJ variable alone is not sufficient to establish a relationship, because an events or interventions dataset may have multiple records for the same topic (e.g., --TERM or --DECOD, --TRT or --DECOD).", "score": 0.5909, "match_basis": "verbatim_token+domain_route:FA"}, {"md_atom_id": "md_dmFA_assn_a003", "md_file": "knowledge_base/domains/FA/assumptions.md", "md_atom_type": "LIST_ITEM", "md_parent_section": "§FA [FA — Assumptions]", "md_verbatim": "2. See Section 6.4.1, When to Use Findings About Events or Interventions; and Section 8.6.3, Guidelines for Differentiating Between Interventions, Events, Findings, and Findings About Events or Interventions; for guidance on deciding between the use of the FA domain and other SDTM structures.", "score": 0.5333, "match_basis": "verbatim_token+domain_route:FA"}, {"md_atom_id": "md_dmFA_assn_a005", "md_file": "knowledge_base/domains/FA/assumptions.md", "md_atom_type": "LIST_ITEM", "md_parent_section": "§FA [FA — Assumptions]", "md_verbatim": "4. Some variables in the events and interventions domains (e.g., OCCUR, SEV, TOXGR) represent findings about the whole of the event or intervention. When FA is used to represent findings about a part of the event or intervention (i.e., the assessment has different timing from the event as a whole), the FATEST and FATESTCD values should be the same as the variable name and variable label in the corresponding event or intervention domain. See Section 6.4.3, Variables Unique to Findings About.", "score": 0.5315, "match_basis": "verbatim_token+domain_route:FA"}, {"md_atom_id": "md_dmFA_assn_a006", "md_file": "knowledge_base/domains/FA/assumptions.md", "md_atom_type": "LIST_ITEM", "md_parent_section": "§FA [FA — Assumptions]", "md_verbatim": "   a. Associations between some findings about cardiovascular interventions or events and their response codelists are described in the CV codetable, available at https://www.cdisc.org/standards/terminology/controlled-terminology.", "score": 0.5192, "match_basis": "verbatim_token+domain_route:FA"}], "candidate_count": 5, "zero_candidate": false}
{"pdf_atom_id": "ig34_p0367_a002", "pdf_atom_type": "LIST_ITEM", "pdf_source": "SDTMIG_v3.4", "pdf_page": 367, "pdf_parent_section": "FA – Assumptions", "pdf_verbatim": "a. The FAOBJ variable alone is not sufficient to establish a relationship, because an events or interventions dataset may have multiple records for the same topic (e.g., --TERM or --DECOD, --TRT or --DECOD).", "figure_ref": null, "candidates": [{"md_atom_id": "md_dmFA_assn_a008", "md_file": "knowledge_base/domains/FA/assumptions.md", "md_atom_type": "LIST_ITEM", "md_parent_section": "§FA [FA — Assumptions]", "md_verbatim": "   a. The FAOBJ variable alone is not sufficient to establish a relationship, because an events or interventions dataset may have multiple records for the same topic (e.g., --TERM or --DECOD, --TRT or --DECOD).", "score": 1.0, "match_basis": "verbatim_token+domain_route:FA"}, {"md_atom_id": "md_dmFA_assn_a007", "md_file": "knowledge_base/domains/FA/assumptions.md", "md_atom_type": "LIST_ITEM", "md_parent_section": "§FA [FA — Assumptions]", "md_verbatim": "5. When data collection establishes a relationship between FA records and an events or interventions record, the relationship should be represented in RELREC.", "score": 0.5909, "match_basis": "verbatim_token+domain_route:FA"}, {"md_atom_id": "md_dmFA_assn_a005", "md_file": "knowledge_base/domains/FA/assumptions.md", "md_atom_type": "LIST_ITEM", "md_parent_section": "§FA [FA — Assumptions]", "md_verbatim": "4. Some variables in the events and interventions domains (e.g., OCCUR, SEV, TOXGR) represent findings about the whole of the event or intervention. When FA is used to represent findings about a part of the event or intervention (i.e., the assessment has different timing from the event as a whole), the FATEST and FATESTCD values should be the same as the variable name and variable label in the corresponding event or intervention domain. See Section 6.4.3, Variables Unique to Findings About.", "score": 0.4882, "match_basis": "verbatim_token+domain_route:FA"}, {"md_atom_id": "md_dmFA_assn_a006", "md_file": "knowledge_base/domains/FA/assumptions.md", "md_atom_type": "LIST_ITEM", "md_parent_section": "§FA [FA — Assumptions]", "md_verbatim": "   a. Associations between some findings about cardiovascular interventions or events and their response codelists are described in the CV codetable, available at https://www.cdisc.org/standards/terminology/controlled-terminology.", "score": 0.4817, "match_basis": "verbatim_token+domain_route:FA"}, {"md_atom_id": "md_dmFA_assn_a003", "md_file": "knowledge_base/domains/FA/assumptions.md", "md_atom_type": "LIST_ITEM", "md_parent_section": "§FA [FA — Assumptions]", "md_verbatim": "2. See Section 6.4.1, When to Use Findings About Events or Interventions; and Section 8.6.3, Guidelines for Differentiating Between Interventions, Events, Findings, and Findings About Events or Interventions; for guidance on deciding between the use of the FA domain and other SDTM structures.", "score": 0.4761, "match_basis": "verbatim_token+domain_route:FA"}], "candidate_count": 5, "zero_candidate": false}
{"pdf_atom_id": "ig34_p0367_a003", "pdf_atom_type": "LIST_ITEM", "pdf_source": "SDTMIG_v3.4", "pdf_page": 367, "pdf_parent_section": "FA – Assumptions", "pdf_verbatim": "6. Any Identifier variables, Timing variables, or Findings general observation-class qualifiers may be added to the FA domain, but the following qualifiers should generally not be used: --BODSYS, --MODIFY, --SEV, --TOXGR.", "figure_ref": null, "candidates": [{"md_atom_id": "md_dmFA_assn_a009", "md_file": "knowledge_base/domains/FA/assumptions.md", "md_atom_type": "LIST_ITEM", "md_parent_section": "§FA [FA — Assumptions]", "md_verbatim": "6. Any Identifier variables, Timing variables, or Findings general observation-class qualifiers may be added to the FA domain, but the following qualifiers should generally not be used: --BODSYS, --MODIFY, --SEV, --TOXGR.", "score": 1.0, "match_basis": "verbatim_token+domain_route:FA"}, {"md_atom_id": "md_dmFA_assn_a002", "md_file": "knowledge_base/domains/FA/assumptions.md", "md_atom_type": "LIST_ITEM", "md_parent_section": "§FA [FA — Assumptions]", "md_verbatim": "1. The Findings About domain shares all qualities and conventions of findings observations.", "score": 0.5545, "match_basis": "verbatim_token+domain_route:FA"}, {"md_atom_id": "md_dmFA_assn_a005", "md_file": "knowledge_base/domains/FA/assumptions.md", "md_atom_type": "LIST_ITEM", "md_parent_section": "§FA [FA — Assumptions]", "md_verbatim": "4. Some variables in the events and interventions domains (e.g., OCCUR, SEV, TOXGR) represent findings about the whole of the event or intervention. When FA is used to represent findings about a part of the event or intervention (i.e., the assessment has different timing from the event as a whole), the FATEST and FATESTCD values should be the same as the variable name and variable label in the corresponding event or intervention domain. See Section 6.4.3, Variables Unique to Findings About.", "score": 0.5425, "match_basis": "verbatim_token+domain_route:FA"}, {"md_atom_id": "md_dmFA_assn_a003", "md_file": "knowledge_base/domains/FA/assumptions.md", "md_atom_type": "LIST_ITEM", "md_parent_section": "§FA [FA — Assumptions]", "md_verbatim": "2. See Section 6.4.1, When to Use Findings About Events or Interventions; and Section 8.6.3, Guidelines for Differentiating Between Interventions, Events, Findings, and Findings About Events or Interventions; for guidance on deciding between the use of the FA domain and other SDTM structures.", "score": 0.4839, "match_basis": "verbatim_token+domain_route:FA"}, {"md_atom_id": "md_dmFA_assn_a004", "md_file": "knowledge_base/domains/FA/assumptions.md", "md_atom_type": "LIST_ITEM", "md_parent_section": "§FA [FA — Assumptions]", "md_verbatim": "3. See Section 6.4.2, Naming Findings About Domains, for advice on splitting the FA domain.", "score": 0.48, "match_basis": "verbatim_token+domain_route:FA"}], "candidate_count": 5, "zero_candidate": false}
{"pdf_atom_id": "ig34_p0367_a004", "pdf_atom_type": "HEADING", "pdf_source": "SDTMIG_v3.4", "pdf_page": 367, "pdf_parent_section": "§6.4.4 Findings About Events or Interventions (FA)", "pdf_verbatim": "FA – Examples", "figure_ref": null, "candidates": [{"md_atom_id": "md_dmFA_ex_a001", "md_file": "knowledge_base/domains/FA/examples.md", "md_atom_type": "HEADING", "md_parent_section": "§FA [FA — Examples]", "md_verbatim": "# FA — Examples", "score": 1.0, "match_basis": "verbatim_token+domain_route:FA"}, {"md_atom_id": "md_dmFA_ex_a002", "md_file": "knowledge_base/domains/FA/examples.md", "md_atom_type": "HEADING", "md_parent_section": "§FA [FA — Examples]", "md_verbatim": "## Example 1", "score": 0.9, "match_basis": "verbatim_token+domain_route:FA"}, {"md_atom_id": "md_dmFA_ex_a037", "md_file": "knowledge_base/domains/FA/examples.md", "md_atom_type": "HEADING", "md_parent_section": "§FA [FA — Examples]", "md_verbatim": "## Example 2", "score": 0.9, "match_basis": "verbatim_token+domain_route:FA"}, {"md_atom_id": "md_dmFA_ex_a065", "md_file": "knowledge_base/domains/FA/examples.md", "md_atom_type": "HEADING", "md_parent_section": "§FA [FA — Examples]", "md_verbatim": "## Example 3", "score": 0.9, "match_basis": "verbatim_token+domain_route:FA"}, {"md_atom_id": "md_dmFA_ex_a082", "md_file": "knowledge_base/domains/FA/examples.md", "md_atom_type": "HEADING", "md_parent_section": "§FA [FA — Examples]", "md_verbatim": "## Example 4", "score": 0.9, "match_basis": "verbatim_token+domain_route:FA"}], "candidate_count": 5, "zero_candidate": false}
{"pdf_atom_id": "ig34_p0367_a005", "pdf_atom_type": "HEADING", "pdf_source": "SDTMIG_v3.4", "pdf_page": 367, "pdf_parent_section": "FA – Examples", "pdf_verbatim": "Example 1", "figure_ref": null, "candidates": [{"md_atom_id": "md_dmFA_ex_a002", "md_file": "knowledge_base/domains/FA/examples.md", "md_atom_type": "HEADING", "md_parent_section": "§FA [FA — Examples]", "md_verbatim": "## Example 1", "score": 1.0, "match_basis": "verbatim_token+domain_route:FA"}, {"md_atom_id": "md_dmFA_ex_a037", "md_file": "knowledge_base/domains/FA/examples.md", "md_atom_type": "HEADING", "md_parent_section": "§FA [FA — Examples]", "md_verbatim": "## Example 2", "score": 1.0, "match_basis": "verbatim_token+domain_route:FA"}, {"md_atom_id": "md_dmFA_ex_a065", "md_file": "knowledge_base/domains/FA/examples.md", "md_atom_type": "HEADING", "md_parent_section": "§FA [FA — Examples]", "md_verbatim": "## Example 3", "score": 1.0, "match_basis": "verbatim_token+domain_route:FA"}, {"md_atom_id": "md_dmFA_ex_a082", "md_file": "knowledge_base/domains/FA/examples.md", "md_atom_type": "HEADING", "md_parent_section": "§FA [FA — Examples]", "md_verbatim": "## Example 4", "score": 1.0, "match_basis": "verbatim_token+domain_route:FA"}, {"md_atom_id": "md_dmFA_ex_a104", "md_file": "knowledge_base/domains/FA/examples.md", "md_atom_type": "HEADING", "md_parent_section": "§FA [FA — Examples]", "md_verbatim": "## Example 5", "score": 1.0, "match_basis": "verbatim_token+domain_route:FA"}, {"md_atom_id": "md_dmFA_ex_a131", "md_file": "knowledge_base/domains/FA/examples.md", "md_atom_type": "HEADING", "md_parent_section": "§FA [FA — Examples]", "md_verbatim": "## Example 6", "score": 1.0, "match_basis": "verbatim_token+domain_route:FA"}, {"md_atom_id": "md_dmFA_ex_a001", "md_file": "knowledge_base/domains/FA/examples.md", "md_atom_type": "HEADING", "md_parent_section": "§FA [FA — Examples]", "md_verbatim": "# FA — Examples", "score": 0.9, "match_basis": "verbatim_token+domain_route:FA"}, {"md_atom_id": "md_dmFA_assn_a001", "md_file": "knowledge_base/domains/FA/assumptions.md", "md_atom_type": "HEADING", "md_parent_section": "§FA [FA — Assumptions]", "md_verbatim": "# FA — Assumptions", "score": 0.4, "match_basis": "verbatim_token+domain_route:FA"}], "candidate_count": 8, "zero_candidate": false}
{"pdf_atom_id": "ig34_p0367_a006", "pdf_atom_type": "SENTENCE", "pdf_source": "SDTMIG_v3.4", "pdf_page": 367, "pdf_parent_section": "FA – Examples", "pdf_verbatim": "The following example CRF collects severity and symptoms data at multiple time points about a migraine event, relative to dosing.", "figure_ref": null, "candidates": [{"md_atom_id": "md_dmFA_ex_a003", "md_file": "knowledge_base/domains/FA/examples.md", "md_atom_type": "SENTENCE", "md_parent_section": "§FA.1 [Example 1]", "md_verbatim": "The following example CRF collects severity and symptoms data at multiple time points about a migraine event, relative to dosing.", "score": 1.0, "match_basis": "verbatim_token+domain_route:FA"}, {"md_atom_id": "md_dmFA_ex_a012", "md_file": "knowledge_base/domains/FA/examples.md", "md_atom_type": "SENTENCE", "md_parent_section": "§FA.1 [Example 1]", "md_verbatim": "The remaining data on the CRF were \"snapshots\" taken at 3 time points; in accordance with Section 6.4.1, When to Use Findings About Events or Interventions, criterion 1, these were represented as findings about events. The FACAT value \"MIGRAINE SYMPTOMS\" was used to represent the fact that these data were collected in a CRF module called \"Migraine Symptoms Diary.\"", "score": 0.551, "match_basis": "verbatim_token+domain_route:FA"}, {"md_atom_id": "md_dmFA_ex_a014", "md_file": "knowledge_base/domains/FA/examples.md", "md_atom_type": "SENTENCE", "md_parent_section": "§FA.1 [Example 1]", "md_verbatim": "**Rows 2-5, 7-10, 12-15:** The presence of symptoms associated with migraine was represented with the name of the symptom in FAOBJ, as the data collected is about the occurrence of a particular symptom. The test code value \"OCCUR\" is derived from the events class variable name --OCCUR, but is an assessment at a point in time, rather than about the event as a whole. The relationship of these symptoms to migraine is represented in FACAT, which indicates that these data were collected in the Migraine Symptoms Diary.", "score": 0.5382, "match_basis": "verbatim_token+domain_route:FA"}, {"md_atom_id": "md_dmFA_ex_a136", "md_file": "knowledge_base/domains/FA/examples.md", "md_atom_type": "SENTENCE", "md_parent_section": "§FA.6 [Example 6]", "md_verbatim": "*Note: The FA Example 6 CRF shows severity assessed at Visits 2-6 for up to 3 concurrent AEs per subject. The data collected about severity at each visit represents snapshots or slices of the AE over time, meeting criterion 1 for When to Use Findings About Events or Interventions.*", "score": 0.5314, "match_basis": "verbatim_token+domain_route:FA"}, {"md_atom_id": "md_dmFA_ex_a105", "md_file": "knowledge_base/domains/FA/examples.md", "md_atom_type": "SENTENCE", "md_parent_section": "§FA.5 [Example 5]", "md_verbatim": "In this example, data about prespecified symptoms of the disease under study were collected on a daily basis. Although the date of the assessment was captured in the CRF header (not shown), start and end timing of the prespecified symptoms was not.", "score": 0.5227, "match_basis": "verbatim_token+domain_route:FA"}], "candidate_count": 5, "zero_candidate": false}
{"pdf_atom_id": "ig34_p0367_a007", "pdf_atom_type": "TABLE_HEADER", "pdf_source": "SDTMIG_v3.4", "pdf_page": 367, "pdf_parent_section": "FA – Examples", "pdf_verbatim": "| Migraine Symptoms Diary |", "figure_ref": null, "candidates": [{"md_atom_id": "md_dmFA_ex_a017", "md_file": "knowledge_base/domains/FA/examples.md", "md_atom_type": "TABLE_ROW", "md_parent_section": "§FA.1 [Example 1]", "md_verbatim": "| 1 | ABC | FA | ABC-123 | 1 | 90567 | SEV | Severity/Intensity | Migraine | MIGRAINE SYMPTOMS | SEVERE | SEVERE | 2007-05-16 | 5M PRE-DOSE | 1 | -PT5M | DOSING |", "score": 0.5074, "match_basis": "verbatim_token+domain_route:FA"}, {"md_atom_id": "md_dmFA_ex_a027", "md_file": "knowledge_base/domains/FA/examples.md", "md_atom_type": "TABLE_ROW", "md_parent_section": "§FA.1 [Example 1]", "md_verbatim": "| 11 | ABC | FA | ABC-123 | 11 | 90567 | SEV | Severity/Intensity | Migraine | MIGRAINE SYMPTOMS | MILD | MILD | 2007-05-16 | 90M POST-DOSE | 3 | PT90M | DOSING |", "score": 0.4965, "match_basis": "verbatim_token+domain_route:FA"}, {"md_atom_id": "md_dmFA_ex_a021", "md_file": "knowledge_base/domains/FA/examples.md", "md_atom_type": "TABLE_ROW", "md_parent_section": "§FA.1 [Example 1]", "md_verbatim": "| 5 | ABC | FA | ABC-123 | 5 | 90567 | OCCUR | Occurrence Indicator | Aura | MIGRAINE SYMPTOMS | Y | Y | 2007-05-16 | 5M PRE-DOSE | 1 | -PT5M | DOSING |", "score": 0.4932, "match_basis": "verbatim_token+domain_route:FA"}, {"md_atom_id": "md_dmFA_ex_a020", "md_file": "knowledge_base/domains/FA/examples.md", "md_atom_type": "TABLE_ROW", "md_parent_section": "§FA.1 [Example 1]", "md_verbatim": "| 4 | ABC | FA | ABC-123 | 4 | 90567 | OCCUR | Occurrence Indicator | Nausea | MIGRAINE SYMPTOMS | Y | Y | 2007-05-16 | 5M PRE-DOSE | 1 | -PT5M | DOSING |", "score": 0.4869, "match_basis": "verbatim_token+domain_route:FA"}, {"md_atom_id": "md_dmFA_ex_a026", "md_file": "knowledge_base/domains/FA/examples.md", "md_atom_type": "TABLE_ROW", "md_parent_section": "§FA.1 [Example 1]", "md_verbatim": "| 10 | ABC | FA | ABC-123 | 10 | 90567 | OCCUR | Occurrence Indicator | Aura | MIGRAINE SYMPTOMS | Y | Y | 2007-05-16 | 30M POST-DOSE | 2 | PT30M | DOSING |", "score": 0.4869, "match_basis": "verbatim_token+domain_route:FA"}], "candidate_count": 5, "zero_candidate": false}
{"pdf_atom_id": "ig34_p0367_a008", "pdf_atom_type": "TABLE_ROW", "pdf_source": "SDTMIG_v3.4", "pdf_page": 367, "pdf_parent_section": "FA – Examples", "pdf_verbatim": "| Migraine Reference Number | xx |", "figure_ref": null, "candidates": [{"md_atom_id": "md_dmFA_ex_a007", "md_file": "knowledge_base/domains/FA/examples.md", "md_atom_type": "TABLE_ROW", "md_parent_section": "§FA.1 [Example 1]", "md_verbatim": "| 1 | ABC | CE | ABC-123 | 1 | 90567 | Migraine | Migraine | 2007-05-16T10:30 |", "score": 0.5333, "match_basis": "verbatim_token+domain_route:FA"}, {"md_atom_id": "md_dmFA_ex_a021", "md_file": "knowledge_base/domains/FA/examples.md", "md_atom_type": "TABLE_ROW", "md_parent_section": "§FA.1 [Example 1]", "md_verbatim": "| 5 | ABC | FA | ABC-123 | 5 | 90567 | OCCUR | Occurrence Indicator | Aura | MIGRAINE SYMPTOMS | Y | Y | 2007-05-16 | 5M PRE-DOSE | 1 | -PT5M | DOSING |", "score": 0.5038, "match_basis": "verbatim_token+domain_route:FA"}, {"md_atom_id": "md_dmFA_ex_a020", "md_file": "knowledge_base/domains/FA/examples.md", "md_atom_type": "TABLE_ROW", "md_parent_section": "§FA.1 [Example 1]", "md_verbatim": "| 4 | ABC | FA | ABC-123 | 4 | 90567 | OCCUR | Occurrence Indicator | Nausea | MIGRAINE SYMPTOMS | Y | Y | 2007-05-16 | 5M PRE-DOSE | 1 | -PT5M | DOSING |", "score": 0.5, "match_basis": "verbatim_token+domain_route:FA"}, {"md_atom_id": "md_dmFA_ex_a026", "md_file": "knowledge_base/domains/FA/examples.md", "md_atom_type": "TABLE_ROW", "md_parent_section": "§FA.1 [Example 1]", "md_verbatim": "| 10 | ABC | FA | ABC-123 | 10 | 90567 | OCCUR | Occurrence Indicator | Aura | MIGRAINE SYMPTOMS | Y | Y | 2007-05-16 | 30M POST-DOSE | 2 | PT30M | DOSING |", "score": 0.5, "match_basis": "verbatim_token+domain_route:FA"}, {"md_atom_id": "md_dmFA_ex_a031", "md_file": "knowledge_base/domains/FA/examples.md", "md_atom_type": "TABLE_ROW", "md_parent_section": "§FA.1 [Example 1]", "md_verbatim": "| 15 | ABC | FA | ABC-123 | 15 | 90567 | OCCUR | Occurrence Indicator | Aura | MIGRAINE SYMPTOMS | N | N | 2007-05-16 | 90M POST-DOSE | 3 | PT90M | DOSING |", "score": 0.5, "match_basis": "verbatim_token+domain_route:FA"}], "candidate_count": 5, "zero_candidate": false}
{"pdf_atom_id": "ig34_p0367_a009", "pdf_atom_type": "TABLE_ROW", "pdf_source": "SDTMIG_v3.4", "pdf_page": 367, "pdf_parent_section": "FA – Examples", "pdf_verbatim": "| When did the migraine start? | DD-MMM-YYYY HH:MM |", "figure_ref": null, "candidates": [{"md_atom_id": "md_dmFA_ex_a007", "md_file": "knowledge_base/domains/FA/examples.md", "md_atom_type": "TABLE_ROW", "md_parent_section": "§FA.1 [Example 1]", "md_verbatim": "| 1 | ABC | CE | ABC-123 | 1 | 90567 | Migraine | Migraine | 2007-05-16T10:30 |", "score": 0.544, "match_basis": "verbatim_token+domain_route:FA"}, {"md_atom_id": "md_dmFA_ex_a017", "md_file": "knowledge_base/domains/FA/examples.md", "md_atom_type": "TABLE_ROW", "md_parent_section": "§FA.1 [Example 1]", "md_verbatim": "| 1 | ABC | FA | ABC-123 | 1 | 90567 | SEV | Severity/Intensity | Migraine | MIGRAINE SYMPTOMS | SEVERE | SEVERE | 2007-05-16 | 5M PRE-DOSE | 1 | -PT5M | DOSING |", "score": 0.4735, "match_basis": "verbatim_token+domain_route:FA"}, {"md_atom_id": "md_dmFA_ex_a027", "md_file": "knowledge_base/domains/FA/examples.md", "md_atom_type": "TABLE_ROW", "md_parent_section": "§FA.1 [Example 1]", "md_verbatim": "| 11 | ABC | FA | ABC-123 | 11 | 90567 | SEV | Severity/Intensity | Migraine | MIGRAINE SYMPTOMS | MILD | MILD | 2007-05-16 | 90M POST-DOSE | 3 | PT90M | DOSING |", "score": 0.4692, "match_basis": "verbatim_token+domain_route:FA"}, {"md_atom_id": "md_dmFA_ex_a021", "md_file": "knowledge_base/domains/FA/examples.md", "md_atom_type": "TABLE_ROW", "md_parent_section": "§FA.1 [Example 1]", "md_verbatim": "| 5 | ABC | FA | ABC-123 | 5 | 90567 | OCCUR | Occurrence Indicator | Aura | MIGRAINE SYMPTOMS | Y | Y | 2007-05-16 | 5M PRE-DOSE | 1 | -PT5M | DOSING |", "score": 0.4679, "match_basis": "verbatim_token+domain_route:FA"}, {"md_atom_id": "md_dmFA_ex_a020", "md_file": "knowledge_base/domains/FA/examples.md", "md_atom_type": "TABLE_ROW", "md_parent_section": "§FA.1 [Example 1]", "md_verbatim": "| 4 | ABC | FA | ABC-123 | 4 | 90567 | OCCUR | Occurrence Indicator | Nausea | MIGRAINE SYMPTOMS | Y | Y | 2007-05-16 | 5M PRE-DOSE | 1 | -PT5M | DOSING |", "score": 0.4655, "match_basis": "verbatim_token+domain_route:FA"}], "candidate_count": 5, "zero_candidate": false}
{"pdf_atom_id": "ig34_p0367_a010", "pdf_atom_type": "TABLE_ROW", "pdf_source": "SDTMIG_v3.4", "pdf_page": 367, "pdf_parent_section": "FA – Examples", "pdf_verbatim": "| When was study treatment taken? | DD-MMM-YYYY HH:MM |", "figure_ref": null, "candidates": [{"md_atom_id": "md_dmFA_ex_a011", "md_file": "knowledge_base/domains/FA/examples.md", "md_atom_type": "TABLE_ROW", "md_parent_section": "§FA.1 [Example 1]", "md_verbatim": "| 1 | ABC | EX | ABC-123 | 1 | 4 | CURALL | 50 | mg | TABLET | ONCE | ORAL | TREATMENT | 2007-05-16T11:05 | 2007-05-16T11:05 |", "score": 0.5167, "match_basis": "verbatim_token+domain_route:FA"}, {"md_atom_id": "md_dmFA_ex_a050", "md_file": "knowledge_base/domains/FA/examples.md", "md_atom_type": "TABLE_ROW", "md_parent_section": "§FA.2 [Example 2]", "md_verbatim": "| 5 | XYZ | FA | XYZ-789 | 123455 | 5 | PUSRNG | Number of Pustules Range | Injection Site Rash | 0 | | 0 | | 3 | 2007-05-12 |", "score": 0.4115, "match_basis": "verbatim_token+domain_route:FA"}, {"md_atom_id": "md_dmFA_ex_a057", "md_file": "knowledge_base/domains/FA/examples.md", "md_atom_type": "TABLE_ROW", "md_parent_section": "§FA.2 [Example 2]", "md_verbatim": "| 12 | XYZ | FA | XYZ-789 | 123463 | 5 | PUSRNG | Number of Pustules Range | Injection Site Rash | 0 | | 0 | | 4 | 2007-05-19 |", "score": 0.4115, "match_basis": "verbatim_token+domain_route:FA"}, {"md_atom_id": "md_dmFA_ex_a007", "md_file": "knowledge_base/domains/FA/examples.md", "md_atom_type": "TABLE_ROW", "md_parent_section": "§FA.1 [Example 1]", "md_verbatim": "| 1 | ABC | CE | ABC-123 | 1 | 90567 | Migraine | Migraine | 2007-05-16T10:30 |", "score": 0.4, "match_basis": "verbatim_token+domain_route:FA"}, {"md_atom_id": "md_dmFA_ex_a017", "md_file": "knowledge_base/domains/FA/examples.md", "md_atom_type": "TABLE_ROW", "md_parent_section": "§FA.1 [Example 1]", "md_verbatim": "| 1 | ABC | FA | ABC-123 | 1 | 90567 | SEV | Severity/Intensity | Migraine | MIGRAINE SYMPTOMS | SEVERE | SEVERE | 2007-05-16 | 5M PRE-DOSE | 1 | -PT5M | DOSING |", "score": 0.4, "match_basis": "verbatim_token+domain_route:FA"}], "candidate_count": 5, "zero_candidate": false}
{"pdf_atom_id": "ig34_p0367_a011", "pdf_atom_type": "TABLE_ROW", "pdf_source": "SDTMIG_v3.4", "pdf_page": 367, "pdf_parent_section": "FA – Examples", "pdf_verbatim": "| Answer the following 5 minutes BEFORE dosing | |", "figure_ref": null, "candidates": [{"md_atom_id": "md_dmFA_ex_a017", "md_file": "knowledge_base/domains/FA/examples.md", "md_atom_type": "TABLE_ROW", "md_parent_section": "§FA.1 [Example 1]", "md_verbatim": "| 1 | ABC | FA | ABC-123 | 1 | 90567 | SEV | Severity/Intensity | Migraine | MIGRAINE SYMPTOMS | SEVERE | SEVERE | 2007-05-16 | 5M PRE-DOSE | 1 | -PT5M | DOSING |", "score": 0.44, "match_basis": "verbatim_token+domain_route:FA"}, {"md_atom_id": "md_dmFA_ex_a027", "md_file": "knowledge_base/domains/FA/examples.md", "md_atom_type": "TABLE_ROW", "md_parent_section": "§FA.1 [Example 1]", "md_verbatim": "| 11 | ABC | FA | ABC-123 | 11 | 90567 | SEV | Severity/Intensity | Migraine | MIGRAINE SYMPTOMS | MILD | MILD | 2007-05-16 | 90M POST-DOSE | 3 | PT90M | DOSING |", "score": 0.4381, "match_basis": "verbatim_token+domain_route:FA"}, {"md_atom_id": "md_dmFA_ex_a021", "md_file": "knowledge_base/domains/FA/examples.md", "md_atom_type": "TABLE_ROW", "md_parent_section": "§FA.1 [Example 1]", "md_verbatim": "| 5 | ABC | FA | ABC-123 | 5 | 90567 | OCCUR | Occurrence Indicator | Aura | MIGRAINE SYMPTOMS | Y | Y | 2007-05-16 | 5M PRE-DOSE | 1 | -PT5M | DOSING |", "score": 0.4375, "match_basis": "verbatim_token+domain_route:FA"}, {"md_atom_id": "md_dmFA_ex_a020", "md_file": "knowledge_base/domains/FA/examples.md", "md_atom_type": "TABLE_ROW", "md_parent_section": "§FA.1 [Example 1]", "md_verbatim": "| 4 | ABC | FA | ABC-123 | 4 | 90567 | OCCUR | Occurrence Indicator | Nausea | MIGRAINE SYMPTOMS | Y | Y | 2007-05-16 | 5M PRE-DOSE | 1 | -PT5M | DOSING |", "score": 0.4364, "match_basis": "verbatim_token+domain_route:FA"}, {"md_atom_id": "md_dmFA_ex_a026", "md_file": "knowledge_base/domains/FA/examples.md", "md_atom_type": "TABLE_ROW", "md_parent_section": "§FA.1 [Example 1]", "md_verbatim": "| 10 | ABC | FA | ABC-123 | 10 | 90567 | OCCUR | Occurrence Indicator | Aura | MIGRAINE SYMPTOMS | Y | Y | 2007-05-16 | 30M POST-DOSE | 2 | PT30M | DOSING |", "score": 0.4364, "match_basis": "verbatim_token+domain_route:FA"}], "candidate_count": 5, "zero_candidate": false}
{"pdf_atom_id": "ig34_p0367_a012", "pdf_atom_type": "TABLE_ROW", "pdf_source": "SDTMIG_v3.4", "pdf_page": 367, "pdf_parent_section": "FA – Examples", "pdf_verbatim": "| Severity of migraine | ○ Mild   ○ Moderate   ○ Severe |", "figure_ref": null, "candidates": [{"md_atom_id": "md_dmFA_ex_a022", "md_file": "knowledge_base/domains/FA/examples.md", "md_atom_type": "TABLE_ROW", "md_parent_section": "§FA.1 [Example 1]", "md_verbatim": "| 6 | ABC | FA | ABC-123 | 6 | 90567 | SEV | Severity/Intensity | Migraine | MIGRAINE SYMPTOMS | MODERATE | MODERATE | 2007-05-16 | 30M POST-DOSE | 2 | PT30M | DOSING |", "score": 0.616, "match_basis": "verbatim_token+domain_route:FA"}, {"md_atom_id": "md_dmFA_ex_a027", "md_file": "knowledge_base/domains/FA/examples.md", "md_atom_type": "TABLE_ROW", "md_parent_section": "§FA.1 [Example 1]", "md_verbatim": "| 11 | ABC | FA | ABC-123 | 11 | 90567 | SEV | Severity/Intensity | Migraine | MIGRAINE SYMPTOMS | MILD | MILD | 2007-05-16 | 90M POST-DOSE | 3 | PT90M | DOSING |", "score": 0.568, "match_basis": "verbatim_token+domain_route:FA"}, {"md_atom_id": "md_dmFA_ex_a017", "md_file": "knowledge_base/domains/FA/examples.md", "md_atom_type": "TABLE_ROW", "md_parent_section": "§FA.1 [Example 1]", "md_verbatim": "| 1 | ABC | FA | ABC-123 | 1 | 90567 | SEV | Severity/Intensity | Migraine | MIGRAINE SYMPTOMS | SEVERE | SEVERE | 2007-05-16 | 5M PRE-DOSE | 1 | -PT5M | DOSING |", "score": 0.5625, "match_basis": "verbatim_token+domain_route:FA"}, {"md_atom_id": "md_dmFA_ex_a150", "md_file": "knowledge_base/domains/FA/examples.md", "md_atom_type": "TABLE_ROW", "md_parent_section": "§FA.6 [Example 6]", "md_verbatim": "| 2 | XYZ | FA | XYZ-US-701-002 | 2 | 1 | SEV | Severity/Intensity | Nausea | MODERATE | MAXIMUM | 3 | VISIT 3 | 2006-02-09 | SINCE LAST VISIT |", "score": 0.55, "match_basis": "verbatim_token+domain_route:FA"}, {"md_atom_id": "md_dmFA_ex_a151", "md_file": "knowledge_base/domains/FA/examples.md", "md_atom_type": "TABLE_ROW", "md_parent_section": "§FA.6 [Example 6]", "md_verbatim": "| 3 | XYZ | FA | XYZ-US-701-002 | 3 | 1 | SEV | Severity/Intensity | Nausea | MODERATE | MAXIMUM | 4 | VISIT 4 | 2006-02-16 | SINCE LAST VISIT |", "score": 0.55, "match_basis": "verbatim_token+domain_route:FA"}], "candidate_count": 5, "zero_candidate": false}
{"pdf_atom_id": "ig34_p0367_a013", "pdf_atom_type": "TABLE_ROW", "pdf_source": "SDTMIG_v3.4", "pdf_page": 367, "pdf_parent_section": "FA – Examples", "pdf_verbatim": "| Associated symptoms: Sensitivity to light Sensitivity to sound Nausea Aura | ○ No   ○ Yes ○ No   ○ Yes ○ No   ○ Yes ○ No   ○ Yes |", "figure_ref": null, "candidates": [{"md_atom_id": "md_dmFA_ex_a018", "md_file": "knowledge_base/domains/FA/examples.md", "md_atom_type": "TABLE_ROW", "md_parent_section": "§FA.1 [Example 1]", "md_verbatim": "| 2 | ABC | FA | ABC-123 | 2 | 90567 | OCCUR | Occurrence Indicator | Sensitivity To Light | MIGRAINE SYMPTOMS | Y | Y | 2007-05-16 | 5M PRE-DOSE | 1 | -PT5M | DOSING |", "score": 0.55, "match_basis": "verbatim_token+domain_route:FA"}, {"md_atom_id": "md_dmFA_ex_a019", "md_file": "knowledge_base/domains/FA/examples.md", "md_atom_type": "TABLE_ROW", "md_parent_section": "§FA.1 [Example 1]", "md_verbatim": "| 3 | ABC | FA | ABC-123 | 3 | 90567 | OCCUR | Occurrence Indicator | Sensitivity To Sound | MIGRAINE SYMPTOMS | N | N | 2007-05-16 | 5M PRE-DOSE | 1 | -PT5M | DOSING |", "score": 0.55, "match_basis": "verbatim_token+domain_route:FA"}, {"md_atom_id": "md_dmFA_ex_a125", "md_file": "knowledge_base/domains/FA/examples.md", "md_atom_type": "TABLE_ROW", "md_parent_section": "§FA.5 [Example 5]", "md_verbatim": "| 10 | XYZ | FA | XYZ-701-002 | 10 | SEV | Severity/Intensity | Nausea | GERD SYMPTOMS | MODERATE | | MODERATE | | | | 1 | VISIT 1 | 2006-02-02 | -PT24H |", "score": 0.5475, "match_basis": "verbatim_token+domain_route:FA"}, {"md_atom_id": "md_dmFA_ex_a023", "md_file": "knowledge_base/domains/FA/examples.md", "md_atom_type": "TABLE_ROW", "md_parent_section": "§FA.1 [Example 1]", "md_verbatim": "| 7 | ABC | FA | ABC-123 | 7 | 90567 | OCCUR | Occurrence Indicator | Sensitivity To Light | MIGRAINE SYMPTOMS | Y | Y | 2007-05-16 | 30M POST-DOSE | 2 | PT30M | DOSING |", "score": 0.5459, "match_basis": "verbatim_token+domain_route:FA"}, {"md_atom_id": "md_dmFA_ex_a024", "md_file": "knowledge_base/domains/FA/examples.md", "md_atom_type": "TABLE_ROW", "md_parent_section": "§FA.1 [Example 1]", "md_verbatim": "| 8 | ABC | FA | ABC-123 | 8 | 90567 | OCCUR | Occurrence Indicator | Sensitivity To Sound | MIGRAINE SYMPTOMS | N | N | 2007-05-16 | 30M POST-DOSE | 2 | PT30M | DOSING |", "score": 0.5459, "match_basis": "verbatim_token+domain_route:FA"}], "candidate_count": 5, "zero_candidate": false}
{"pdf_atom_id": "ig34_p0367_a014", "pdf_atom_type": "TABLE_ROW", "pdf_source": "SDTMIG_v3.4", "pdf_page": 367, "pdf_parent_section": "FA – Examples", "pdf_verbatim": "| Answer the following 30 minutes AFTER dosing | |", "figure_ref": null, "candidates": [{"md_atom_id": "md_dmFA_ex_a017", "md_file": "knowledge_base/domains/FA/examples.md", "md_atom_type": "TABLE_ROW", "md_parent_section": "§FA.1 [Example 1]", "md_verbatim": "| 1 | ABC | FA | ABC-123 | 1 | 90567 | SEV | Severity/Intensity | Migraine | MIGRAINE SYMPTOMS | SEVERE | SEVERE | 2007-05-16 | 5M PRE-DOSE | 1 | -PT5M | DOSING |", "score": 0.4407, "match_basis": "verbatim_token+domain_route:FA"}, {"md_atom_id": "md_dmFA_ex_a027", "md_file": "knowledge_base/domains/FA/examples.md", "md_atom_type": "TABLE_ROW", "md_parent_section": "§FA.1 [Example 1]", "md_verbatim": "| 11 | ABC | FA | ABC-123 | 11 | 90567 | SEV | Severity/Intensity | Migraine | MIGRAINE SYMPTOMS | MILD | MILD | 2007-05-16 | 90M POST-DOSE | 3 | PT90M | DOSING |", "score": 0.4387, "match_basis": "verbatim_token+domain_route:FA"}, {"md_atom_id": "md_dmFA_ex_a021", "md_file": "knowledge_base/domains/FA/examples.md", "md_atom_type": "TABLE_ROW", "md_parent_section": "§FA.1 [Example 1]", "md_verbatim": "| 5 | ABC | FA | ABC-123 | 5 | 90567 | OCCUR | Occurrence Indicator | Aura | MIGRAINE SYMPTOMS | Y | Y | 2007-05-16 | 5M PRE-DOSE | 1 | -PT5M | DOSING |", "score": 0.4381, "match_basis": "verbatim_token+domain_route:FA"}, {"md_atom_id": "md_dmFA_ex_a020", "md_file": "knowledge_base/domains/FA/examples.md", "md_atom_type": "TABLE_ROW", "md_parent_section": "§FA.1 [Example 1]", "md_verbatim": "| 4 | ABC | FA | ABC-123 | 4 | 90567 | OCCUR | Occurrence Indicator | Nausea | MIGRAINE SYMPTOMS | Y | Y | 2007-05-16 | 5M PRE-DOSE | 1 | -PT5M | DOSING |", "score": 0.4369, "match_basis": "verbatim_token+domain_route:FA"}, {"md_atom_id": "md_dmFA_ex_a026", "md_file": "knowledge_base/domains/FA/examples.md", "md_atom_type": "TABLE_ROW", "md_parent_section": "§FA.1 [Example 1]", "md_verbatim": "| 10 | ABC | FA | ABC-123 | 10 | 90567 | OCCUR | Occurrence Indicator | Aura | MIGRAINE SYMPTOMS | Y | Y | 2007-05-16 | 30M POST-DOSE | 2 | PT30M | DOSING |", "score": 0.4369, "match_basis": "verbatim_token+domain_route:FA"}], "candidate_count": 5, "zero_candidate": false}
{"pdf_atom_id": "ig34_p0367_a015", "pdf_atom_type": "TABLE_ROW", "pdf_source": "SDTMIG_v3.4", "pdf_page": 367, "pdf_parent_section": "FA – Examples", "pdf_verbatim": "| Severity of migraine | ○ Mild   ○ Moderate   ○ Severe |", "figure_ref": null, "candidates": [{"md_atom_id": "md_dmFA_ex_a022", "md_file": "knowledge_base/domains/FA/examples.md", "md_atom_type": "TABLE_ROW", "md_parent_section": "§FA.1 [Example 1]", "md_verbatim": "| 6 | ABC | FA | ABC-123 | 6 | 90567 | SEV | Severity/Intensity | Migraine | MIGRAINE SYMPTOMS | MODERATE | MODERATE | 2007-05-16 | 30M POST-DOSE | 2 | PT30M | DOSING |", "score": 0.616, "match_basis": "verbatim_token+domain_route:FA"}, {"md_atom_id": "md_dmFA_ex_a027", "md_file": "knowledge_base/domains/FA/examples.md", "md_atom_type": "TABLE_ROW", "md_parent_section": "§FA.1 [Example 1]", "md_verbatim": "| 11 | ABC | FA | ABC-123 | 11 | 90567 | SEV | Severity/Intensity | Migraine | MIGRAINE SYMPTOMS | MILD | MILD | 2007-05-16 | 90M POST-DOSE | 3 | PT90M | DOSING |", "score": 0.568, "match_basis": "verbatim_token+domain_route:FA"}, {"md_atom_id": "md_dmFA_ex_a017", "md_file": "knowledge_base/domains/FA/examples.md", "md_atom_type": "TABLE_ROW", "md_parent_section": "§FA.1 [Example 1]", "md_verbatim": "| 1 | ABC | FA | ABC-123 | 1 | 90567 | SEV | Severity/Intensity | Migraine | MIGRAINE SYMPTOMS | SEVERE | SEVERE | 2007-05-16 | 5M PRE-DOSE | 1 | -PT5M | DOSING |", "score": 0.5625, "match_basis": "verbatim_token+domain_route:FA"}, {"md_atom_id": "md_dmFA_ex_a150", "md_file": "knowledge_base/domains/FA/examples.md", "md_atom_type": "TABLE_ROW", "md_parent_section": "§FA.6 [Example 6]", "md_verbatim": "| 2 | XYZ | FA | XYZ-US-701-002 | 2 | 1 | SEV | Severity/Intensity | Nausea | MODERATE | MAXIMUM | 3 | VISIT 3 | 2006-02-09 | SINCE LAST VISIT |", "score": 0.55, "match_basis": "verbatim_token+domain_route:FA"}, {"md_atom_id": "md_dmFA_ex_a151", "md_file": "knowledge_base/domains/FA/examples.md", "md_atom_type": "TABLE_ROW", "md_parent_section": "§FA.6 [Example 6]", "md_verbatim": "| 3 | XYZ | FA | XYZ-US-701-002 | 3 | 1 | SEV | Severity/Intensity | Nausea | MODERATE | MAXIMUM | 4 | VISIT 4 | 2006-02-16 | SINCE LAST VISIT |", "score": 0.55, "match_basis": "verbatim_token+domain_route:FA"}], "candidate_count": 5, "zero_candidate": false}
{"pdf_atom_id": "ig34_p0367_a016", "pdf_atom_type": "TABLE_ROW", "pdf_source": "SDTMIG_v3.4", "pdf_page": 367, "pdf_parent_section": "FA – Examples", "pdf_verbatim": "| Associated symptoms: Sensitivity to light Sensitivity to sound Nausea Aura | ○ No   ○ Yes ○ No   ○ Yes ○ No   ○ Yes ○ No   ○ Yes |", "figure_ref": null, "candidates": [{"md_atom_id": "md_dmFA_ex_a018", "md_file": "knowledge_base/domains/FA/examples.md", "md_atom_type": "TABLE_ROW", "md_parent_section": "§FA.1 [Example 1]", "md_verbatim": "| 2 | ABC | FA | ABC-123 | 2 | 90567 | OCCUR | Occurrence Indicator | Sensitivity To Light | MIGRAINE SYMPTOMS | Y | Y | 2007-05-16 | 5M PRE-DOSE | 1 | -PT5M | DOSING |", "score": 0.55, "match_basis": "verbatim_token+domain_route:FA"}, {"md_atom_id": "md_dmFA_ex_a019", "md_file": "knowledge_base/domains/FA/examples.md", "md_atom_type": "TABLE_ROW", "md_parent_section": "§FA.1 [Example 1]", "md_verbatim": "| 3 | ABC | FA | ABC-123 | 3 | 90567 | OCCUR | Occurrence Indicator | Sensitivity To Sound | MIGRAINE SYMPTOMS | N | N | 2007-05-16 | 5M PRE-DOSE | 1 | -PT5M | DOSING |", "score": 0.55, "match_basis": "verbatim_token+domain_route:FA"}, {"md_atom_id": "md_dmFA_ex_a125", "md_file": "knowledge_base/domains/FA/examples.md", "md_atom_type": "TABLE_ROW", "md_parent_section": "§FA.5 [Example 5]", "md_verbatim": "| 10 | XYZ | FA | XYZ-701-002 | 10 | SEV | Severity/Intensity | Nausea | GERD SYMPTOMS | MODERATE | | MODERATE | | | | 1 | VISIT 1 | 2006-02-02 | -PT24H |", "score": 0.5475, "match_basis": "verbatim_token+domain_route:FA"}, {"md_atom_id": "md_dmFA_ex_a023", "md_file": "knowledge_base/domains/FA/examples.md", "md_atom_type": "TABLE_ROW", "md_parent_section": "§FA.1 [Example 1]", "md_verbatim": "| 7 | ABC | FA | ABC-123 | 7 | 90567 | OCCUR | Occurrence Indicator | Sensitivity To Light | MIGRAINE SYMPTOMS | Y | Y | 2007-05-16 | 30M POST-DOSE | 2 | PT30M | DOSING |", "score": 0.5459, "match_basis": "verbatim_token+domain_route:FA"}, {"md_atom_id": "md_dmFA_ex_a024", "md_file": "knowledge_base/domains/FA/examples.md", "md_atom_type": "TABLE_ROW", "md_parent_section": "§FA.1 [Example 1]", "md_verbatim": "| 8 | ABC | FA | ABC-123 | 8 | 90567 | OCCUR | Occurrence Indicator | Sensitivity To Sound | MIGRAINE SYMPTOMS | N | N | 2007-05-16 | 30M POST-DOSE | 2 | PT30M | DOSING |", "score": 0.5459, "match_basis": "verbatim_token+domain_route:FA"}], "candidate_count": 5, "zero_candidate": false}
{"pdf_atom_id": "ig34_p0367_a017", "pdf_atom_type": "TABLE_ROW", "pdf_source": "SDTMIG_v3.4", "pdf_page": 367, "pdf_parent_section": "FA – Examples", "pdf_verbatim": "| Answer the following 90 minutes AFTER dosing | |", "figure_ref": null, "candidates": [{"md_atom_id": "md_dmFA_ex_a017", "md_file": "knowledge_base/domains/FA/examples.md", "md_atom_type": "TABLE_ROW", "md_parent_section": "§FA.1 [Example 1]", "md_verbatim": "| 1 | ABC | FA | ABC-123 | 1 | 90567 | SEV | Severity/Intensity | Migraine | MIGRAINE SYMPTOMS | SEVERE | SEVERE | 2007-05-16 | 5M PRE-DOSE | 1 | -PT5M | DOSING |", "score": 0.4407, "match_basis": "verbatim_token+domain_route:FA"}, {"md_atom_id": "md_dmFA_ex_a027", "md_file": "knowledge_base/domains/FA/examples.md", "md_atom_type": "TABLE_ROW", "md_parent_section": "§FA.1 [Example 1]", "md_verbatim": "| 11 | ABC | FA | ABC-123 | 11 | 90567 | SEV | Severity/Intensity | Migraine | MIGRAINE SYMPTOMS | MILD | MILD | 2007-05-16 | 90M POST-DOSE | 3 | PT90M | DOSING |", "score": 0.4387, "match_basis": "verbatim_token+domain_route:FA"}, {"md_atom_id": "md_dmFA_ex_a021", "md_file": "knowledge_base/domains/FA/examples.md", "md_atom_type": "TABLE_ROW", "md_parent_section": "§FA.1 [Example 1]", "md_verbatim": "| 5 | ABC | FA | ABC-123 | 5 | 90567 | OCCUR | Occurrence Indicator | Aura | MIGRAINE SYMPTOMS | Y | Y | 2007-05-16 | 5M PRE-DOSE | 1 | -PT5M | DOSING |", "score": 0.4381, "match_basis": "verbatim_token+domain_route:FA"}, {"md_atom_id": "md_dmFA_ex_a020", "md_file": "knowledge_base/domains/FA/examples.md", "md_atom_type": "TABLE_ROW", "md_parent_section": "§FA.1 [Example 1]", "md_verbatim": "| 4 | ABC | FA | ABC-123 | 4 | 90567 | OCCUR | Occurrence Indicator | Nausea | MIGRAINE SYMPTOMS | Y | Y | 2007-05-16 | 5M PRE-DOSE | 1 | -PT5M | DOSING |", "score": 0.4369, "match_basis": "verbatim_token+domain_route:FA"}, {"md_atom_id": "md_dmFA_ex_a026", "md_file": "knowledge_base/domains/FA/examples.md", "md_atom_type": "TABLE_ROW", "md_parent_section": "§FA.1 [Example 1]", "md_verbatim": "| 10 | ABC | FA | ABC-123 | 10 | 90567 | OCCUR | Occurrence Indicator | Aura | MIGRAINE SYMPTOMS | Y | Y | 2007-05-16 | 30M POST-DOSE | 2 | PT30M | DOSING |", "score": 0.4369, "match_basis": "verbatim_token+domain_route:FA"}], "candidate_count": 5, "zero_candidate": false}
{"pdf_atom_id": "ig34_p0367_a018", "pdf_atom_type": "TABLE_ROW", "pdf_source": "SDTMIG_v3.4", "pdf_page": 367, "pdf_parent_section": "FA – Examples", "pdf_verbatim": "| Severity of migraine | ○ Mild   ○ Moderate   ○ Severe |", "figure_ref": null, "candidates": [{"md_atom_id": "md_dmFA_ex_a022", "md_file": "knowledge_base/domains/FA/examples.md", "md_atom_type": "TABLE_ROW", "md_parent_section": "§FA.1 [Example 1]", "md_verbatim": "| 6 | ABC | FA | ABC-123 | 6 | 90567 | SEV | Severity/Intensity | Migraine | MIGRAINE SYMPTOMS | MODERATE | MODERATE | 2007-05-16 | 30M POST-DOSE | 2 | PT30M | DOSING |", "score": 0.616, "match_basis": "verbatim_token+domain_route:FA"}, {"md_atom_id": "md_dmFA_ex_a027", "md_file": "knowledge_base/domains/FA/examples.md", "md_atom_type": "TABLE_ROW", "md_parent_section": "§FA.1 [Example 1]", "md_verbatim": "| 11 | ABC | FA | ABC-123 | 11 | 90567 | SEV | Severity/Intensity | Migraine | MIGRAINE SYMPTOMS | MILD | MILD | 2007-05-16 | 90M POST-DOSE | 3 | PT90M | DOSING |", "score": 0.568, "match_basis": "verbatim_token+domain_route:FA"}, {"md_atom_id": "md_dmFA_ex_a017", "md_file": "knowledge_base/domains/FA/examples.md", "md_atom_type": "TABLE_ROW", "md_parent_section": "§FA.1 [Example 1]", "md_verbatim": "| 1 | ABC | FA | ABC-123 | 1 | 90567 | SEV | Severity/Intensity | Migraine | MIGRAINE SYMPTOMS | SEVERE | SEVERE | 2007-05-16 | 5M PRE-DOSE | 1 | -PT5M | DOSING |", "score": 0.5625, "match_basis": "verbatim_token+domain_route:FA"}, {"md_atom_id": "md_dmFA_ex_a150", "md_file": "knowledge_base/domains/FA/examples.md", "md_atom_type": "TABLE_ROW", "md_parent_section": "§FA.6 [Example 6]", "md_verbatim": "| 2 | XYZ | FA | XYZ-US-701-002 | 2 | 1 | SEV | Severity/Intensity | Nausea | MODERATE | MAXIMUM | 3 | VISIT 3 | 2006-02-09 | SINCE LAST VISIT |", "score": 0.55, "match_basis": "verbatim_token+domain_route:FA"}, {"md_atom_id": "md_dmFA_ex_a151", "md_file": "knowledge_base/domains/FA/examples.md", "md_atom_type": "TABLE_ROW", "md_parent_section": "§FA.6 [Example 6]", "md_verbatim": "| 3 | XYZ | FA | XYZ-US-701-002 | 3 | 1 | SEV | Severity/Intensity | Nausea | MODERATE | MAXIMUM | 4 | VISIT 4 | 2006-02-16 | SINCE LAST VISIT |", "score": 0.55, "match_basis": "verbatim_token+domain_route:FA"}], "candidate_count": 5, "zero_candidate": false}
{"pdf_atom_id": "ig34_p0367_a019", "pdf_atom_type": "TABLE_ROW", "pdf_source": "SDTMIG_v3.4", "pdf_page": 367, "pdf_parent_section": "FA – Examples", "pdf_verbatim": "| Associated symptoms: Sensitivity to light Sensitivity to sound Nausea Aura | ○ No   ○ Yes ○ No   ○ Yes ○ No   ○ Yes ○ No   ○ Yes |", "figure_ref": null, "candidates": [{"md_atom_id": "md_dmFA_ex_a018", "md_file": "knowledge_base/domains/FA/examples.md", "md_atom_type": "TABLE_ROW", "md_parent_section": "§FA.1 [Example 1]", "md_verbatim": "| 2 | ABC | FA | ABC-123 | 2 | 90567 | OCCUR | Occurrence Indicator | Sensitivity To Light | MIGRAINE SYMPTOMS | Y | Y | 2007-05-16 | 5M PRE-DOSE | 1 | -PT5M | DOSING |", "score": 0.55, "match_basis": "verbatim_token+domain_route:FA"}, {"md_atom_id": "md_dmFA_ex_a019", "md_file": "knowledge_base/domains/FA/examples.md", "md_atom_type": "TABLE_ROW", "md_parent_section": "§FA.1 [Example 1]", "md_verbatim": "| 3 | ABC | FA | ABC-123 | 3 | 90567 | OCCUR | Occurrence Indicator | Sensitivity To Sound | MIGRAINE SYMPTOMS | N | N | 2007-05-16 | 5M PRE-DOSE | 1 | -PT5M | DOSING |", "score": 0.55, "match_basis": "verbatim_token+domain_route:FA"}, {"md_atom_id": "md_dmFA_ex_a125", "md_file": "knowledge_base/domains/FA/examples.md", "md_atom_type": "TABLE_ROW", "md_parent_section": "§FA.5 [Example 5]", "md_verbatim": "| 10 | XYZ | FA | XYZ-701-002 | 10 | SEV | Severity/Intensity | Nausea | GERD SYMPTOMS | MODERATE | | MODERATE | | | | 1 | VISIT 1 | 2006-02-02 | -PT24H |", "score": 0.5475, "match_basis": "verbatim_token+domain_route:FA"}, {"md_atom_id": "md_dmFA_ex_a023", "md_file": "knowledge_base/domains/FA/examples.md", "md_atom_type": "TABLE_ROW", "md_parent_section": "§FA.1 [Example 1]", "md_verbatim": "| 7 | ABC | FA | ABC-123 | 7 | 90567 | OCCUR | Occurrence Indicator | Sensitivity To Light | MIGRAINE SYMPTOMS | Y | Y | 2007-05-16 | 30M POST-DOSE | 2 | PT30M | DOSING |", "score": 0.5459, "match_basis": "verbatim_token+domain_route:FA"}, {"md_atom_id": "md_dmFA_ex_a024", "md_file": "knowledge_base/domains/FA/examples.md", "md_atom_type": "TABLE_ROW", "md_parent_section": "§FA.1 [Example 1]", "md_verbatim": "| 8 | ABC | FA | ABC-123 | 8 | 90567 | OCCUR | Occurrence Indicator | Sensitivity To Sound | MIGRAINE SYMPTOMS | N | N | 2007-05-16 | 30M POST-DOSE | 2 | PT30M | DOSING |", "score": 0.5459, "match_basis": "verbatim_token+domain_route:FA"}], "candidate_count": 5, "zero_candidate": false}
{"pdf_atom_id": "ig34_p0368_a001", "pdf_atom_type": "SENTENCE", "pdf_source": "SDTMIG_v3.4", "pdf_page": 368, "pdf_parent_section": "FA – Examples", "pdf_verbatim": "In this example trial, migraines and symptoms associated with migraines were considered clinical events rather than reportable adverse events. The migraine, its sponsor identifier (i.e., the \"Migraine Reference Number\" on the CRF), and its start date were represented in a CE record.", "figure_ref": null, "candidates": [{"md_atom_id": "md_dmFA_ex_a004", "md_file": "knowledge_base/domains/FA/examples.md", "md_atom_type": "SENTENCE", "md_parent_section": "§FA.1 [Example 1]", "md_verbatim": "In this example trial, migraines and symptoms associated with migraines were considered clinical events rather than reportable adverse events. The migraine, its sponsor identifier (i.e., the \"Migraine Reference Number\" on the CRF), and its start date were represented in a CE record.", "score": 1.0, "match_basis": "verbatim_token+domain_route:FA"}, {"md_atom_id": "md_dmFA_ex_a039", "md_file": "knowledge_base/domains/FA/examples.md", "md_atom_type": "SENTENCE", "md_parent_section": "§FA.2 [Example 2]", "md_verbatim": "In this scenario, the injection site rash event was considered a reportable adverse event; therefore, the rash itself was represented in the AE domain. The rash assessment form collects a reference number for the AE, represented in AESPID. Certain required or expected variables have been omitted from the example dataset in consideration of space and clarity.", "score": 0.581, "match_basis": "verbatim_token+domain_route:FA"}, {"md_atom_id": "md_dmFA_ex_a014", "md_file": "knowledge_base/domains/FA/examples.md", "md_atom_type": "SENTENCE", "md_parent_section": "§FA.1 [Example 1]", "md_verbatim": "**Rows 2-5, 7-10, 12-15:** The presence of symptoms associated with migraine was represented with the name of the symptom in FAOBJ, as the data collected is about the occurrence of a particular symptom. The test code value \"OCCUR\" is derived from the events class variable name --OCCUR, but is an assessment at a point in time, rather than about the event as a whole. The relationship of these symptoms to migraine is represented in FACAT, which indicates that these data were collected in the Migraine Symptoms Diary.", "score": 0.5608, "match_basis": "verbatim_token+domain_route:FA"}, {"md_atom_id": "md_dmFA_ex_a013", "md_file": "knowledge_base/domains/FA/examples.md", "md_atom_type": "SENTENCE", "md_parent_section": "§FA.1 [Example 1]", "md_verbatim": "**Rows 1, 6, 11:** Severity of the migraine was represented with FATESTCD=\"SEV\". This FATESTCD value is derived from the events class variable name --SEV, and represents the same assessment as CESEV, except that this assessment is at a point in time rather than for the event as a whole.", "score": 0.5376, "match_basis": "verbatim_token+domain_route:FA"}, {"md_atom_id": "md_dmFA_ex_a067", "md_file": "knowledge_base/domains/FA/examples.md", "md_atom_type": "SENTENCE", "md_parent_section": "§FA.3 [Example 3]", "md_verbatim": "In this study, data were collected only at baseline. Because the occurrence and severity apply to the symptoms as a whole, they are represented in the MH domain. Note that the average duration of early morning stiffness cannot be represented in MHDUR because MHDUR would be the duration of the entire event, rather than the average of daily durations.", "score": 0.5283, "match_basis": "verbatim_token+domain_route:FA"}], "candidate_count": 5, "zero_candidate": false}
{"pdf_atom_id": "ig34_p0368_a002", "pdf_atom_type": "CODE_LITERAL", "pdf_source": "SDTMIG_v3.4", "pdf_page": 368, "pdf_parent_section": "FA – Examples", "pdf_verbatim": "ce.xpt", "figure_ref": null, "candidates": [{"md_atom_id": "md_dmFA_ex_a005", "md_file": "knowledge_base/domains/FA/examples.md", "md_atom_type": "SENTENCE", "md_parent_section": "§FA.1 [Example 1]", "md_verbatim": "**ce.xpt**", "score": 0.79, "match_basis": "verbatim_token+domain_route:FA"}, {"md_atom_id": "md_dmFA_ex_a009", "md_file": "knowledge_base/domains/FA/examples.md", "md_atom_type": "SENTENCE", "md_parent_section": "§FA.1 [Example 1]", "md_verbatim": "**ex.xpt**", "score": 0.79, "match_basis": "verbatim_token+domain_route:FA"}, {"md_atom_id": "md_dmFA_ex_a041", "md_file": "knowledge_base/domains/FA/examples.md", "md_atom_type": "SENTENCE", "md_parent_section": "§FA.2 [Example 2]", "md_verbatim": "**ae.xpt**", "score": 0.79, "match_basis": "verbatim_token+domain_route:FA"}, {"md_atom_id": "md_dmFA_ex_a070", "md_file": "knowledge_base/domains/FA/examples.md", "md_atom_type": "SENTENCE", "md_parent_section": "§FA.3 [Example 3]", "md_verbatim": "**mh.xpt**", "score": 0.79, "match_basis": "verbatim_token+domain_route:FA"}, {"md_atom_id": "md_dmFA_ex_a098", "md_file": "knowledge_base/domains/FA/examples.md", "md_atom_type": "SENTENCE", "md_parent_section": "§FA.4 [Example 4]", "md_verbatim": "**ae.xpt**", "score": 0.79, "match_basis": "verbatim_token+domain_route:FA"}, {"md_atom_id": "md_dmFA_ex_a140", "md_file": "knowledge_base/domains/FA/examples.md", "md_atom_type": "SENTENCE", "md_parent_section": "§FA.6 [Example 6]", "md_verbatim": "**ae.xpt**", "score": 0.79, "match_basis": "verbatim_token+domain_route:FA"}, {"md_atom_id": "md_dmFA_ex_a015", "md_file": "knowledge_base/domains/FA/examples.md", "md_atom_type": "SENTENCE", "md_parent_section": "§FA.1 [Example 1]", "md_verbatim": "**face.xpt**", "score": 0.39, "match_basis": "verbatim_token+domain_route:FA"}, {"md_atom_id": "md_dmFA_ex_a044", "md_file": "knowledge_base/domains/FA/examples.md", "md_atom_type": "SENTENCE", "md_parent_section": "§FA.2 [Example 2]", "md_verbatim": "**faae.xpt**", "score": 0.39, "match_basis": "verbatim_token+domain_route:FA"}, {"md_atom_id": "md_dmFA_ex_a088", "md_file": "knowledge_base/domains/FA/examples.md", "md_atom_type": "SENTENCE", "md_parent_section": "§FA.4 [Example 4]", "md_verbatim": "**faae.xpt**", "score": 0.39, "match_basis": "verbatim_token+domain_route:FA"}, {"md_atom_id": "md_dmFA_ex_a114", "md_file": "knowledge_base/domains/FA/examples.md", "md_atom_type": "SENTENCE", "md_parent_section": "§FA.5 [Example 5]", "md_verbatim": "**face.xpt**", "score": 0.39, "match_basis": "verbatim_token+domain_route:FA"}], "candidate_count": 10, "zero_candidate": false}
{"pdf_atom_id": "ig34_p0368_a003", "pdf_atom_type": "TABLE_HEADER", "pdf_source": "SDTMIG_v3.4", "pdf_page": 368, "pdf_parent_section": "FA – Examples", "pdf_verbatim": "| Row | STUDYID | DOMAIN | USUBJID | CESEQ | CESPID | CETERM | CEDECOD | CESTDTC |", "figure_ref": null, "candidates": [{"md_atom_id": "md_dmFA_ex_a006", "md_file": "knowledge_base/domains/FA/examples.md", "md_atom_type": "TABLE_HEADER", "md_parent_section": "§FA.1 [Example 1]", "md_verbatim": "| Row | STUDYID | DOMAIN | USUBJID | CESEQ | CESPID | CETERM | CEDECOD | CESTDTC |\n|-----|---------|--------|---------|-------|--------|--------|---------|---------|", "score": 1.0, "match_basis": "verbatim_token+domain_route:FA"}, {"md_atom_id": "md_dmFA_ex_a141", "md_file": "knowledge_base/domains/FA/examples.md", "md_atom_type": "TABLE_HEADER", "md_parent_section": "§FA.6 [Example 6]", "md_verbatim": "| Row | DOMAIN | USUBJID | AESEQ | AESPID | AETERM | AEDECOD | AESEV | AESTDTC | AEENDTC |\n|-----|--------|---------|-------|--------|--------|---------|-------|---------|---------|", "score": 0.7714, "match_basis": "verbatim_token+domain_route:FA"}, {"md_atom_id": "md_dmFA_ex_a099", "md_file": "knowledge_base/domains/FA/examples.md", "md_atom_type": "TABLE_HEADER", "md_parent_section": "§FA.4 [Example 4]", "md_verbatim": "| Row | STUDYID | DOMAIN | USUBJID | AESEQ | AETERM | AEDECOD | AEPRESP | AEBODSYS | AESEV | AEACN | AESTDTC | AEENDTC |\n|-----|---------|--------|---------|-------|--------|---------|---------|----------|-------|-------|---------|---------|", "score": 0.7164, "match_basis": "verbatim_token+domain_route:FA"}, {"md_atom_id": "md_dmFA_ex_a042", "md_file": "knowledge_base/domains/FA/examples.md", "md_atom_type": "TABLE_HEADER", "md_parent_section": "§FA.2 [Example 2]", "md_verbatim": "| Row | STUDYID | DOMAIN | USUBJID | AESEQ | AESPID | AETERM | AEBODSYS | AELOC | AELAT | AESEV | AESER | AEACN | AESTDTC |\n|-----|---------|--------|---------|-------|--------|--------|----------|-------|-------|-------|-------|-------|---------|", "score": 0.7115, "match_basis": "verbatim_token+domain_route:FA"}, {"md_atom_id": "md_dmFA_ex_a071", "md_file": "knowledge_base/domains/FA/examples.md", "md_atom_type": "TABLE_HEADER", "md_parent_section": "§FA.3 [Example 3]", "md_verbatim": "| Row | STUDYID | DOMAIN | USUBJID | MHSEQ | MHTERM | MHDECOD | MHEVDTYP | MHCAT | MHSCAT | MHPRESP | MHOCCUR | MHSEV | MHDTC | MHSTDTC | MHEVLINT |\n|-----|---------|--------|---------|-------|--------|---------|----------|-------|--------|---------|---------|-------|-------|---------|----------|", "score": 0.6239, "match_basis": "verbatim_token+domain_route:FA"}], "candidate_count": 5, "zero_candidate": false}
{"pdf_atom_id": "ig34_p0368_a004", "pdf_atom_type": "TABLE_ROW", "pdf_source": "SDTMIG_v3.4", "pdf_page": 368, "pdf_parent_section": "FA – Examples", "pdf_verbatim": "| 1 | ABC | CE | ABC-123 | 1 | 90567 | Migraine | Migraine | 2007-05-16T10:30 |", "figure_ref": null, "candidates": [{"md_atom_id": "md_dmFA_ex_a007", "md_file": "knowledge_base/domains/FA/examples.md", "md_atom_type": "TABLE_ROW", "md_parent_section": "§FA.1 [Example 1]", "md_verbatim": "| 1 | ABC | CE | ABC-123 | 1 | 90567 | Migraine | Migraine | 2007-05-16T10:30 |", "score": 1.0, "match_basis": "verbatim_token+domain_route:FA"}, {"md_atom_id": "md_dmFA_ex_a017", "md_file": "knowledge_base/domains/FA/examples.md", "md_atom_type": "TABLE_ROW", "md_parent_section": "§FA.1 [Example 1]", "md_verbatim": "| 1 | ABC | FA | ABC-123 | 1 | 90567 | SEV | Severity/Intensity | Migraine | MIGRAINE SYMPTOMS | SEVERE | SEVERE | 2007-05-16 | 5M PRE-DOSE | 1 | -PT5M | DOSING |", "score": 0.5814, "match_basis": "verbatim_token+domain_route:FA"}, {"md_atom_id": "md_dmFA_ex_a027", "md_file": "knowledge_base/domains/FA/examples.md", "md_atom_type": "TABLE_ROW", "md_parent_section": "§FA.1 [Example 1]", "md_verbatim": "| 11 | ABC | FA | ABC-123 | 11 | 90567 | SEV | Severity/Intensity | Migraine | MIGRAINE SYMPTOMS | MILD | MILD | 2007-05-16 | 90M POST-DOSE | 3 | PT90M | DOSING |", "score": 0.5696, "match_basis": "verbatim_token+domain_route:FA"}, {"md_atom_id": "md_dmFA_ex_a021", "md_file": "knowledge_base/domains/FA/examples.md", "md_atom_type": "TABLE_ROW", "md_parent_section": "§FA.1 [Example 1]", "md_verbatim": "| 5 | ABC | FA | ABC-123 | 5 | 90567 | OCCUR | Occurrence Indicator | Aura | MIGRAINE SYMPTOMS | Y | Y | 2007-05-16 | 5M PRE-DOSE | 1 | -PT5M | DOSING |", "score": 0.566, "match_basis": "verbatim_token+domain_route:FA"}, {"md_atom_id": "md_dmFA_ex_a020", "md_file": "knowledge_base/domains/FA/examples.md", "md_atom_type": "TABLE_ROW", "md_parent_section": "§FA.1 [Example 1]", "md_verbatim": "| 4 | ABC | FA | ABC-123 | 4 | 90567 | OCCUR | Occurrence Indicator | Nausea | MIGRAINE SYMPTOMS | Y | Y | 2007-05-16 | 5M PRE-DOSE | 1 | -PT5M | DOSING |", "score": 0.5592, "match_basis": "verbatim_token+domain_route:FA"}], "candidate_count": 5, "zero_candidate": false}
{"pdf_atom_id": "ig34_p0368_a005", "pdf_atom_type": "SENTENCE", "pdf_source": "SDTMIG_v3.4", "pdf_page": 368, "pdf_parent_section": "FA – Examples", "pdf_verbatim": "The time migraine medication was taken was recorded in the Exposure (EX) domain. This date also serves as the reference time point for the symptom assessments.", "figure_ref": null, "candidates": [{"md_atom_id": "md_dmFA_ex_a008", "md_file": "knowledge_base/domains/FA/examples.md", "md_atom_type": "SENTENCE", "md_parent_section": "§FA.1 [Example 1]", "md_verbatim": "The time the migraine medication was taken was recorded in the Exposure (EX) domain. This date also serves as the reference time point for the symptom assessments.", "score": 1.0, "match_basis": "verbatim_token+domain_route:FA"}, {"md_atom_id": "md_dmFA_ex_a014", "md_file": "knowledge_base/domains/FA/examples.md", "md_atom_type": "SENTENCE", "md_parent_section": "§FA.1 [Example 1]", "md_verbatim": "**Rows 2-5, 7-10, 12-15:** The presence of symptoms associated with migraine was represented with the name of the symptom in FAOBJ, as the data collected is about the occurrence of a particular symptom. The test code value \"OCCUR\" is derived from the events class variable name --OCCUR, but is an assessment at a point in time, rather than about the event as a whole. The relationship of these symptoms to migraine is represented in FACAT, which indicates that these data were collected in the Migraine Symptoms Diary.", "score": 0.5376, "match_basis": "verbatim_token+domain_route:FA"}, {"md_atom_id": "md_dmFA_ex_a012", "md_file": "knowledge_base/domains/FA/examples.md", "md_atom_type": "SENTENCE", "md_parent_section": "§FA.1 [Example 1]", "md_verbatim": "The remaining data on the CRF were \"snapshots\" taken at 3 time points; in accordance with Section 6.4.1, When to Use Findings About Events or Interventions, criterion 1, these were represented as findings about events. The FACAT value \"MIGRAINE SYMPTOMS\" was used to represent the fact that these data were collected in a CRF module called \"Migraine Symptoms Diary.\"", "score": 0.5351, "match_basis": "verbatim_token+domain_route:FA"}, {"md_atom_id": "md_dmFA_ex_a004", "md_file": "knowledge_base/domains/FA/examples.md", "md_atom_type": "SENTENCE", "md_parent_section": "§FA.1 [Example 1]", "md_verbatim": "In this example trial, migraines and symptoms associated with migraines were considered clinical events rather than reportable adverse events. The migraine, its sponsor identifier (i.e., the \"Migraine Reference Number\" on the CRF), and its start date were represented in a CE record.", "score": 0.5257, "match_basis": "verbatim_token+domain_route:FA"}, {"md_atom_id": "md_dmFA_ex_a013", "md_file": "knowledge_base/domains/FA/examples.md", "md_atom_type": "SENTENCE", "md_parent_section": "§FA.1 [Example 1]", "md_verbatim": "**Rows 1, 6, 11:** Severity of the migraine was represented with FATESTCD=\"SEV\". This FATESTCD value is derived from the events class variable name --SEV, and represents the same assessment as CESEV, except that this assessment is at a point in time rather than for the event as a whole.", "score": 0.52, "match_basis": "verbatim_token+domain_route:FA"}], "candidate_count": 5, "zero_candidate": false}
{"pdf_atom_id": "ig34_p0368_a006", "pdf_atom_type": "CODE_LITERAL", "pdf_source": "SDTMIG_v3.4", "pdf_page": 368, "pdf_parent_section": "FA – Examples", "pdf_verbatim": "ex.xpt", "figure_ref": null, "candidates": [{"md_atom_id": "md_dmFA_ex_a005", "md_file": "knowledge_base/domains/FA/examples.md", "md_atom_type": "SENTENCE", "md_parent_section": "§FA.1 [Example 1]", "md_verbatim": "**ce.xpt**", "score": 0.79, "match_basis": "verbatim_token+domain_route:FA"}, {"md_atom_id": "md_dmFA_ex_a009", "md_file": "knowledge_base/domains/FA/examples.md", "md_atom_type": "SENTENCE", "md_parent_section": "§FA.1 [Example 1]", "md_verbatim": "**ex.xpt**", "score": 0.79, "match_basis": "verbatim_token+domain_route:FA"}, {"md_atom_id": "md_dmFA_ex_a041", "md_file": "knowledge_base/domains/FA/examples.md", "md_atom_type": "SENTENCE", "md_parent_section": "§FA.2 [Example 2]", "md_verbatim": "**ae.xpt**", "score": 0.79, "match_basis": "verbatim_token+domain_route:FA"}, {"md_atom_id": "md_dmFA_ex_a070", "md_file": "knowledge_base/domains/FA/examples.md", "md_atom_type": "SENTENCE", "md_parent_section": "§FA.3 [Example 3]", "md_verbatim": "**mh.xpt**", "score": 0.79, "match_basis": "verbatim_token+domain_route:FA"}, {"md_atom_id": "md_dmFA_ex_a098", "md_file": "knowledge_base/domains/FA/examples.md", "md_atom_type": "SENTENCE", "md_parent_section": "§FA.4 [Example 4]", "md_verbatim": "**ae.xpt**", "score": 0.79, "match_basis": "verbatim_token+domain_route:FA"}, {"md_atom_id": "md_dmFA_ex_a140", "md_file": "knowledge_base/domains/FA/examples.md", "md_atom_type": "SENTENCE", "md_parent_section": "§FA.6 [Example 6]", "md_verbatim": "**ae.xpt**", "score": 0.79, "match_basis": "verbatim_token+domain_route:FA"}, {"md_atom_id": "md_dmFA_ex_a015", "md_file": "knowledge_base/domains/FA/examples.md", "md_atom_type": "SENTENCE", "md_parent_section": "§FA.1 [Example 1]", "md_verbatim": "**face.xpt**", "score": 0.39, "match_basis": "verbatim_token+domain_route:FA"}, {"md_atom_id": "md_dmFA_ex_a044", "md_file": "knowledge_base/domains/FA/examples.md", "md_atom_type": "SENTENCE", "md_parent_section": "§FA.2 [Example 2]", "md_verbatim": "**faae.xpt**", "score": 0.39, "match_basis": "verbatim_token+domain_route:FA"}, {"md_atom_id": "md_dmFA_ex_a088", "md_file": "knowledge_base/domains/FA/examples.md", "md_atom_type": "SENTENCE", "md_parent_section": "§FA.4 [Example 4]", "md_verbatim": "**faae.xpt**", "score": 0.39, "match_basis": "verbatim_token+domain_route:FA"}, {"md_atom_id": "md_dmFA_ex_a114", "md_file": "knowledge_base/domains/FA/examples.md", "md_atom_type": "SENTENCE", "md_parent_section": "§FA.5 [Example 5]", "md_verbatim": "**face.xpt**", "score": 0.39, "match_basis": "verbatim_token+domain_route:FA"}], "candidate_count": 10, "zero_candidate": false}
{"pdf_atom_id": "ig34_p0368_a007", "pdf_atom_type": "TABLE_HEADER", "pdf_source": "SDTMIG_v3.4", "pdf_page": 368, "pdf_parent_section": "FA – Examples", "pdf_verbatim": "| Row | STUDYID | DOMAIN | USUBJID | EXSEQ | EXSPID | EXTRT | EXDOSE | EXDOSU | EXDOSFRM | EXDOSFRQ | EXROUTE | EPOCH | EXSTDTC | EXENDTC |", "figure_ref": null, "candidates": [{"md_atom_id": "md_dmFA_ex_a010", "md_file": "knowledge_base/domains/FA/examples.md", "md_atom_type": "TABLE_HEADER", "md_parent_section": "§FA.1 [Example 1]", "md_verbatim": "| Row | STUDYID | DOMAIN | USUBJID | EXSEQ | EXSPID | EXTRT | EXDOSE | EXDOSU | EXDOSFRM | EXDOSFRQ | EXROUTE | EPOCH | EXSTDTC | EXENDTC |\n|-----|---------|--------|---------|-------|--------|-------|--------|--------|----------|----------|---------|-------|---------|---------|", "score": 1.0, "match_basis": "verbatim_token+domain_route:FA"}, {"md_atom_id": "md_dmFA_ex_a006", "md_file": "knowledge_base/domains/FA/examples.md", "md_atom_type": "TABLE_HEADER", "md_parent_section": "§FA.1 [Example 1]", "md_verbatim": "| Row | STUDYID | DOMAIN | USUBJID | CESEQ | CESPID | CETERM | CEDECOD | CESTDTC |\n|-----|---------|--------|---------|-------|--------|--------|---------|---------|", "score": 0.6032, "match_basis": "verbatim_token+domain_route:FA"}, {"md_atom_id": "md_dmFA_ex_a042", "md_file": "knowledge_base/domains/FA/examples.md", "md_atom_type": "TABLE_HEADER", "md_parent_section": "§FA.2 [Example 2]", "md_verbatim": "| Row | STUDYID | DOMAIN | USUBJID | AESEQ | AESPID | AETERM | AEBODSYS | AELOC | AELAT | AESEV | AESER | AEACN | AESTDTC |\n|-----|---------|--------|---------|-------|--------|--------|----------|-------|-------|-------|-------|-------|---------|", "score": 0.5726, "match_basis": "verbatim_token+domain_route:FA"}, {"md_atom_id": "md_dmFA_ex_a141", "md_file": "knowledge_base/domains/FA/examples.md", "md_atom_type": "TABLE_HEADER", "md_parent_section": "§FA.6 [Example 6]", "md_verbatim": "| Row | DOMAIN | USUBJID | AESEQ | AESPID | AETERM | AEDECOD | AESEV | AESTDTC | AEENDTC |\n|-----|--------|---------|-------|--------|--------|---------|-------|---------|---------|", "score": 0.5662, "match_basis": "verbatim_token+domain_route:FA"}, {"md_atom_id": "md_dmFA_ex_a099", "md_file": "knowledge_base/domains/FA/examples.md", "md_atom_type": "TABLE_HEADER", "md_parent_section": "§FA.4 [Example 4]", "md_verbatim": "| Row | STUDYID | DOMAIN | USUBJID | AESEQ | AETERM | AEDECOD | AEPRESP | AEBODSYS | AESEV | AEACN | AESTDTC | AEENDTC |\n|-----|---------|--------|---------|-------|--------|---------|---------|----------|-------|-------|---------|---------|", "score": 0.5615, "match_basis": "verbatim_token+domain_route:FA"}], "candidate_count": 5, "zero_candidate": false}
{"pdf_atom_id": "ig34_p0368_a008", "pdf_atom_type": "TABLE_ROW", "pdf_source": "SDTMIG_v3.4", "pdf_page": 368, "pdf_parent_section": "FA – Examples", "pdf_verbatim": "| 1 | ABC | EX | ABC-123 | 1 | 4 | CURALL | 50 | mg | TABLET | ONCE | ORAL | TREATMENT | 2007-05-16T11:05 | 2007-05-16T11:05 |", "figure_ref": null, "candidates": [{"md_atom_id": "md_dmFA_ex_a011", "md_file": "knowledge_base/domains/FA/examples.md", "md_atom_type": "TABLE_ROW", "md_parent_section": "§FA.1 [Example 1]", "md_verbatim": "| 1 | ABC | EX | ABC-123 | 1 | 4 | CURALL | 50 | mg | TABLET | ONCE | ORAL | TREATMENT | 2007-05-16T11:05 | 2007-05-16T11:05 |", "score": 1.0, "match_basis": "verbatim_token+domain_route:FA"}, {"md_atom_id": "md_dmFA_ex_a007", "md_file": "knowledge_base/domains/FA/examples.md", "md_atom_type": "TABLE_ROW", "md_parent_section": "§FA.1 [Example 1]", "md_verbatim": "| 1 | ABC | CE | ABC-123 | 1 | 90567 | Migraine | Migraine | 2007-05-16T10:30 |", "score": 0.5029, "match_basis": "verbatim_token+domain_route:FA"}, {"md_atom_id": "md_dmFA_ex_a021", "md_file": "knowledge_base/domains/FA/examples.md", "md_atom_type": "TABLE_ROW", "md_parent_section": "§FA.1 [Example 1]", "md_verbatim": "| 5 | ABC | FA | ABC-123 | 5 | 90567 | OCCUR | Occurrence Indicator | Aura | MIGRAINE SYMPTOMS | Y | Y | 2007-05-16 | 5M PRE-DOSE | 1 | -PT5M | DOSING |", "score": 0.4677, "match_basis": "verbatim_token+domain_route:FA"}, {"md_atom_id": "md_dmFA_ex_a026", "md_file": "knowledge_base/domains/FA/examples.md", "md_atom_type": "TABLE_ROW", "md_parent_section": "§FA.1 [Example 1]", "md_verbatim": "| 10 | ABC | FA | ABC-123 | 10 | 90567 | OCCUR | Occurrence Indicator | Aura | MIGRAINE SYMPTOMS | Y | Y | 2007-05-16 | 30M POST-DOSE | 2 | PT30M | DOSING |", "score": 0.4656, "match_basis": "verbatim_token+domain_route:FA"}, {"md_atom_id": "md_dmFA_ex_a031", "md_file": "knowledge_base/domains/FA/examples.md", "md_atom_type": "TABLE_ROW", "md_parent_section": "§FA.1 [Example 1]", "md_verbatim": "| 15 | ABC | FA | ABC-123 | 15 | 90567 | OCCUR | Occurrence Indicator | Aura | MIGRAINE SYMPTOMS | N | N | 2007-05-16 | 90M POST-DOSE | 3 | PT90M | DOSING |", "score": 0.4656, "match_basis": "verbatim_token+domain_route:FA"}], "candidate_count": 5, "zero_candidate": false}
{"pdf_atom_id": "ig34_p0368_a009", "pdf_atom_type": "SENTENCE", "pdf_source": "SDTMIG_v3.4", "pdf_page": 368, "pdf_parent_section": "FA – Examples", "pdf_verbatim": "The remaining data on the CRF were \"snapshots\" taken at 3 time points; in accordance with Section 6.4.1, When to Use Findings About Events or Interventions, criterion 1, these were represented as findings about events. The FACAT value \"MIGRAINE SYMPTOMS\" was used to represent the fact that these data were collected in a CRF module called \"Migraine Symptoms Diary.\"", "figure_ref": null, "candidates": [{"md_atom_id": "md_dmFA_ex_a012", "md_file": "knowledge_base/domains/FA/examples.md", "md_atom_type": "SENTENCE", "md_parent_section": "§FA.1 [Example 1]", "md_verbatim": "The remaining data on the CRF were \"snapshots\" taken at 3 time points; in accordance with Section 6.4.1, When to Use Findings About Events or Interventions, criterion 1, these were represented as findings about events. The FACAT value \"MIGRAINE SYMPTOMS\" was used to represent the fact that these data were collected in a CRF module called \"Migraine Symptoms Diary.\"", "score": 1.0, "match_basis": "verbatim_token+domain_route:FA"}, {"md_atom_id": "md_dmFA_ex_a136", "md_file": "knowledge_base/domains/FA/examples.md", "md_atom_type": "SENTENCE", "md_parent_section": "§FA.6 [Example 6]", "md_verbatim": "*Note: The FA Example 6 CRF shows severity assessed at Visits 2-6 for up to 3 concurrent AEs per subject. The data collected about severity at each visit represents snapshots or slices of the AE over time, meeting criterion 1 for When to Use Findings About Events or Interventions.*", "score": 0.6151, "match_basis": "verbatim_token+domain_route:FA"}, {"md_atom_id": "md_dmFA_ex_a138", "md_file": "knowledge_base/domains/FA/examples.md", "md_atom_type": "SENTENCE", "md_parent_section": "§FA.6 [Example 6]", "md_verbatim": "The collected data met criterion 1 in Section 6.4.1, When to Use Findings About Events or Interventions, for data that do not describe an event or intervention as a whole.", "score": 0.6112, "match_basis": "verbatim_token+domain_route:FA"}, {"md_atom_id": "md_dmFA_ex_a014", "md_file": "knowledge_base/domains/FA/examples.md", "md_atom_type": "SENTENCE", "md_parent_section": "§FA.1 [Example 1]", "md_verbatim": "**Rows 2-5, 7-10, 12-15:** The presence of symptoms associated with migraine was represented with the name of the symptom in FAOBJ, as the data collected is about the occurrence of a particular symptom. The test code value \"OCCUR\" is derived from the events class variable name --OCCUR, but is an assessment at a point in time, rather than about the event as a whole. The relationship of these symptoms to migraine is represented in FACAT, which indicates that these data were collected in the Migraine Symptoms Diary.", "score": 0.6086, "match_basis": "verbatim_token+domain_route:FA"}, {"md_atom_id": "md_dmFA_ex_a083", "md_file": "knowledge_base/domains/FA/examples.md", "md_atom_type": "SENTENCE", "md_parent_section": "§FA.4 [Example 4]", "md_verbatim": "In this example, the occurrence of prespecified adverse events was solicited at every visit and the visit date was used as the date of collection. The data collected meet criterion 3 in Section 6.4.1, When to Use Findings About Events or Interventions; that is, data that indicate the occurrence of prespecified AEs.", "score": 0.5911, "match_basis": "verbatim_token+domain_route:FA"}], "candidate_count": 5, "zero_candidate": false}
{"pdf_atom_id": "ig34_p0368_a010", "pdf_atom_type": "LIST_ITEM", "pdf_source": "SDTMIG_v3.4", "pdf_page": 368, "pdf_parent_section": "FA – Examples", "pdf_verbatim": "Rows 1, 6, 11: Severity of the migraine was represented with FATESTCD=\"SEV\". This FATESTCD value is derived from the events class variable name --SEV, and represents the same assessment as CESEV, except that this assessment is at a point in time rather than for the event as a whole.", "figure_ref": null, "candidates": [{"md_atom_id": "md_dmFA_ex_a013", "md_file": "knowledge_base/domains/FA/examples.md", "md_atom_type": "SENTENCE", "md_parent_section": "§FA.1 [Example 1]", "md_verbatim": "**Rows 1, 6, 11:** Severity of the migraine was represented with FATESTCD=\"SEV\". This FATESTCD value is derived from the events class variable name --SEV, and represents the same assessment as CESEV, except that this assessment is at a point in time rather than for the event as a whole.", "score": 0.91, "match_basis": "verbatim_token+domain_route:FA"}, {"md_atom_id": "md_dmFA_assn_a005", "md_file": "knowledge_base/domains/FA/assumptions.md", "md_atom_type": "LIST_ITEM", "md_parent_section": "§FA [FA — Assumptions]", "md_verbatim": "4. Some variables in the events and interventions domains (e.g., OCCUR, SEV, TOXGR) represent findings about the whole of the event or intervention. When FA is used to represent findings about a part of the event or intervention (i.e., the assessment has different timing from the event as a whole), the FATEST and FATESTCD values should be the same as the variable name and variable label in the corresponding event or intervention domain. See Section 6.4.3, Variables Unique to Findings About.", "score": 0.5855, "match_basis": "verbatim_token+domain_route:FA"}, {"md_atom_id": "md_dmFA_ex_a014", "md_file": "knowledge_base/domains/FA/examples.md", "md_atom_type": "SENTENCE", "md_parent_section": "§FA.1 [Example 1]", "md_verbatim": "**Rows 2-5, 7-10, 12-15:** The presence of symptoms associated with migraine was represented with the name of the symptom in FAOBJ, as the data collected is about the occurrence of a particular symptom. The test code value \"OCCUR\" is derived from the events class variable name --OCCUR, but is an assessment at a point in time, rather than about the event as a whole. The relationship of these symptoms to migraine is represented in FACAT, which indicates that these data were collected in the Migraine Symptoms Diary.", "score": 0.5732, "match_basis": "verbatim_token+domain_route:FA"}, {"md_atom_id": "md_dmFA_ex_a135", "md_file": "knowledge_base/domains/FA/examples.md", "md_atom_type": "LIST_ITEM", "md_parent_section": "§FA.6 [Example 6]", "md_verbatim": "- A module for the severity assessment, where a record would be entered for each assessment", "score": 0.5059, "match_basis": "verbatim_token+domain_route:FA"}, {"md_atom_id": "md_dmFA_assn_a007", "md_file": "knowledge_base/domains/FA/assumptions.md", "md_atom_type": "LIST_ITEM", "md_parent_section": "§FA [FA — Assumptions]", "md_verbatim": "5. When data collection establishes a relationship between FA records and an events or interventions record, the relationship should be represented in RELREC.", "score": 0.4773, "match_basis": "verbatim_token+domain_route:FA"}], "candidate_count": 5, "zero_candidate": false}
{"pdf_atom_id": "ig34_p0368_a011", "pdf_atom_type": "LIST_ITEM", "pdf_source": "SDTMIG_v3.4", "pdf_page": 368, "pdf_parent_section": "FA – Examples", "pdf_verbatim": "Rows 2-5, 7-10, 12-15: The presence of symptoms associated with migraine was represented with the name of the symptom in FAOBJ, as the data collected is about the occurrence of a particular symptom. The test code value \"OCCUR\" is derived from the events class variable name --OCCUR, but is an assessment at a point in time, rather than about the event as a whole. The relationship of these symptoms to migraine is represented in FACAT, which indicates that these data were collected in the Migraine Symptoms Diary.", "figure_ref": null, "candidates": [{"md_atom_id": "md_dmFA_ex_a014", "md_file": "knowledge_base/domains/FA/examples.md", "md_atom_type": "SENTENCE", "md_parent_section": "§FA.1 [Example 1]", "md_verbatim": "**Rows 2-5, 7-10, 12-15:** The presence of symptoms associated with migraine was represented with the name of the symptom in FAOBJ, as the data collected is about the occurrence of a particular symptom. The test code value \"OCCUR\" is derived from the events class variable name --OCCUR, but is an assessment at a point in time, rather than about the event as a whole. The relationship of these symptoms to migraine is represented in FACAT, which indicates that these data were collected in the Migraine Symptoms Diary.", "score": 0.91, "match_basis": "verbatim_token+domain_route:FA"}, {"md_atom_id": "md_dmFA_assn_a005", "md_file": "knowledge_base/domains/FA/assumptions.md", "md_atom_type": "LIST_ITEM", "md_parent_section": "§FA [FA — Assumptions]", "md_verbatim": "4. Some variables in the events and interventions domains (e.g., OCCUR, SEV, TOXGR) represent findings about the whole of the event or intervention. When FA is used to represent findings about a part of the event or intervention (i.e., the assessment has different timing from the event as a whole), the FATEST and FATESTCD values should be the same as the variable name and variable label in the corresponding event or intervention domain. See Section 6.4.3, Variables Unique to Findings About.", "score": 0.5794, "match_basis": "verbatim_token+domain_route:FA"}, {"md_atom_id": "md_dmFA_ex_a013", "md_file": "knowledge_base/domains/FA/examples.md", "md_atom_type": "SENTENCE", "md_parent_section": "§FA.1 [Example 1]", "md_verbatim": "**Rows 1, 6, 11:** Severity of the migraine was represented with FATESTCD=\"SEV\". This FATESTCD value is derived from the events class variable name --SEV, and represents the same assessment as CESEV, except that this assessment is at a point in time rather than for the event as a whole.", "score": 0.5732, "match_basis": "verbatim_token+domain_route:FA"}, {"md_atom_id": "md_dmFA_assn_a007", "md_file": "knowledge_base/domains/FA/assumptions.md", "md_atom_type": "LIST_ITEM", "md_parent_section": "§FA [FA — Assumptions]", "md_verbatim": "5. When data collection establishes a relationship between FA records and an events or interventions record, the relationship should be represented in RELREC.", "score": 0.5214, "match_basis": "verbatim_token+domain_route:FA"}, {"md_atom_id": "md_dmFA_ex_a012", "md_file": "knowledge_base/domains/FA/examples.md", "md_atom_type": "SENTENCE", "md_parent_section": "§FA.1 [Example 1]", "md_verbatim": "The remaining data on the CRF were \"snapshots\" taken at 3 time points; in accordance with Section 6.4.1, When to Use Findings About Events or Interventions, criterion 1, these were represented as findings about events. The FACAT value \"MIGRAINE SYMPTOMS\" was used to represent the fact that these data were collected in a CRF module called \"Migraine Symptoms Diary.\"", "score": 0.5186, "match_basis": "verbatim_token+domain_route:FA"}], "candidate_count": 5, "zero_candidate": false}
{"pdf_atom_id": "ig34_p0368_a012", "pdf_atom_type": "CODE_LITERAL", "pdf_source": "SDTMIG_v3.4", "pdf_page": 368, "pdf_parent_section": "FA – Examples", "pdf_verbatim": "face.xpt", "figure_ref": null, "candidates": [{"md_atom_id": "md_dmFA_ex_a015", "md_file": "knowledge_base/domains/FA/examples.md", "md_atom_type": "SENTENCE", "md_parent_section": "§FA.1 [Example 1]", "md_verbatim": "**face.xpt**", "score": 0.79, "match_basis": "verbatim_token+domain_route:FA"}, {"md_atom_id": "md_dmFA_ex_a114", "md_file": "knowledge_base/domains/FA/examples.md", "md_atom_type": "SENTENCE", "md_parent_section": "§FA.5 [Example 5]", "md_verbatim": "**face.xpt**", "score": 0.79, "match_basis": "verbatim_token+domain_route:FA"}, {"md_atom_id": "md_dmFA_ex_a005", "md_file": "knowledge_base/domains/FA/examples.md", "md_atom_type": "SENTENCE", "md_parent_section": "§FA.1 [Example 1]", "md_verbatim": "**ce.xpt**", "score": 0.39, "match_basis": "verbatim_token+domain_route:FA"}, {"md_atom_id": "md_dmFA_ex_a009", "md_file": "knowledge_base/domains/FA/examples.md", "md_atom_type": "SENTENCE", "md_parent_section": "§FA.1 [Example 1]", "md_verbatim": "**ex.xpt**", "score": 0.39, "match_basis": "verbatim_token+domain_route:FA"}, {"md_atom_id": "md_dmFA_ex_a041", "md_file": "knowledge_base/domains/FA/examples.md", "md_atom_type": "SENTENCE", "md_parent_section": "§FA.2 [Example 2]", "md_verbatim": "**ae.xpt**", "score": 0.39, "match_basis": "verbatim_token+domain_route:FA"}, {"md_atom_id": "md_dmFA_ex_a070", "md_file": "knowledge_base/domains/FA/examples.md", "md_atom_type": "SENTENCE", "md_parent_section": "§FA.3 [Example 3]", "md_verbatim": "**mh.xpt**", "score": 0.39, "match_basis": "verbatim_token+domain_route:FA"}, {"md_atom_id": "md_dmFA_ex_a098", "md_file": "knowledge_base/domains/FA/examples.md", "md_atom_type": "SENTENCE", "md_parent_section": "§FA.4 [Example 4]", "md_verbatim": "**ae.xpt**", "score": 0.39, "match_basis": "verbatim_token+domain_route:FA"}, {"md_atom_id": "md_dmFA_ex_a140", "md_file": "knowledge_base/domains/FA/examples.md", "md_atom_type": "SENTENCE", "md_parent_section": "§FA.6 [Example 6]", "md_verbatim": "**ae.xpt**", "score": 0.39, "match_basis": "verbatim_token+domain_route:FA"}, {"md_atom_id": "md_dmFA_ex_a044", "md_file": "knowledge_base/domains/FA/examples.md", "md_atom_type": "SENTENCE", "md_parent_section": "§FA.2 [Example 2]", "md_verbatim": "**faae.xpt**", "score": 0.31, "match_basis": "verbatim_token+domain_route:FA"}, {"md_atom_id": "md_dmFA_ex_a088", "md_file": "knowledge_base/domains/FA/examples.md", "md_atom_type": "SENTENCE", "md_parent_section": "§FA.4 [Example 4]", "md_verbatim": "**faae.xpt**", "score": 0.31, "match_basis": "verbatim_token+domain_route:FA"}], "candidate_count": 10, "zero_candidate": false}
{"pdf_atom_id": "ig34_p0368_a013", "pdf_atom_type": "TABLE_HEADER", "pdf_source": "SDTMIG_v3.4", "pdf_page": 368, "pdf_parent_section": "FA – Examples", "pdf_verbatim": "| Row | STUDYID | DOMAIN | USUBJID | FASEQ | FASPID | FATESTCD | FATEST | FAOBJ | FACAT | FAORRES | FASTRESC | FADTC | FATPT | FATPTNUM | FAELTM | FATPTREF |", "figure_ref": null, "candidates": [{"md_atom_id": "md_dmFA_ex_a016", "md_file": "knowledge_base/domains/FA/examples.md", "md_atom_type": "TABLE_HEADER", "md_parent_section": "§FA.1 [Example 1]", "md_verbatim": "| Row | STUDYID | DOMAIN | USUBJID | FASEQ | FASPID | FATESTCD | FATEST | FAOBJ | FACAT | FAORRES | FASTRESC | FADTC | FATPT | FATPTNUM | FAELTM | FATPTREF |\n|-----|---------|--------|---------|-------|--------|----------|--------|-------|-------|---------|----------|-------|-------|----------|--------|----------|", "score": 1.0, "match_basis": "verbatim_token+domain_route:FA"}, {"md_atom_id": "md_dmFA_ex_a045", "md_file": "knowledge_base/domains/FA/examples.md", "md_atom_type": "TABLE_HEADER", "md_parent_section": "§FA.2 [Example 2]", "md_verbatim": "| Row | STUDYID | DOMAIN | USUBJID | FASEQ | FASPID | FATESTCD | FATEST | FAOBJ | FAORRES | FAORRESU | FASTRESC | FASTRESU | VISITNUM | FADTC |\n|-----|---------|--------|---------|-------|--------|----------|--------|-------|---------|----------|----------|----------|----------|-------|", "score": 0.83, "match_basis": "verbatim_token+domain_route:FA"}, {"md_atom_id": "md_dmFA_ex_a115", "md_file": "knowledge_base/domains/FA/examples.md", "md_atom_type": "TABLE_HEADER", "md_parent_section": "§FA.5 [Example 5]", "md_verbatim": "| Row | STUDYID | DOMAIN | USUBJID | FASEQ | FATESTCD | FATEST | FAOBJ | FACAT | FAORRES | FAORRESU | FASTRESC | FASTRESN | FASTRESU | FASTAT | VISITNUM | VISIT | FADTC | FAEVLINT |\n|-----|---------|--------|---------|-------|----------|--------|-------|-------|---------|----------|----------|----------|----------|--------|----------|-------|-------|----------|", "score": 0.7882, "match_basis": "verbatim_token+domain_route:FA"}, {"md_atom_id": "md_dmFA_ex_a089", "md_file": "knowledge_base/domains/FA/examples.md", "md_atom_type": "TABLE_HEADER", "md_parent_section": "§FA.4 [Example 4]", "md_verbatim": "| Row | STUDYID | DOMAIN | USUBJID | FASEQ | FATESTCD | FATEST | FAOBJ | FAORRES | FASTRESC | FASTAT | VISITNUM | VISIT | FADTC | FAEVINTX |\n|-----|---------|--------|---------|-------|----------|--------|-------|---------|----------|--------|----------|-------|-------|----------|", "score": 0.7727, "match_basis": "verbatim_token+domain_route:FA"}, {"md_atom_id": "md_dmFA_ex_a148", "md_file": "knowledge_base/domains/FA/examples.md", "md_atom_type": "TABLE_HEADER", "md_parent_section": "§FA.6 [Example 6]", "md_verbatim": "| Row | STUDYID | DOMAIN | USUBJID | FASEQ | FASPID | FATESTCD | FATEST | FAOBJ | FAORRES | FACOLSRT | VISITNUM | VISIT | FADTC | FAEVINTX |\n|-----|---------|--------|---------|-------|--------|----------|--------|-------|---------|----------|----------|-------|-------|----------|", "score": 0.7565, "match_basis": "verbatim_token+domain_route:FA"}], "candidate_count": 5, "zero_candidate": false}
{"pdf_atom_id": "ig34_p0368_a014", "pdf_atom_type": "TABLE_ROW", "pdf_source": "SDTMIG_v3.4", "pdf_page": 368, "pdf_parent_section": "FA – Examples", "pdf_verbatim": "| 1 | ABC | FA | ABC-123 | 1 | 90567 | SEV | Severity/Intensity | Migraine | MIGRAINE SYMPTOMS | SEVERE | SEVERE | 2007-05-16 | 5M PRE-DOSE | 1 | -PT5M | DOSING |", "figure_ref": null, "candidates": [{"md_atom_id": "md_dmFA_ex_a017", "md_file": "knowledge_base/domains/FA/examples.md", "md_atom_type": "TABLE_ROW", "md_parent_section": "§FA.1 [Example 1]", "md_verbatim": "| 1 | ABC | FA | ABC-123 | 1 | 90567 | SEV | Severity/Intensity | Migraine | MIGRAINE SYMPTOMS | SEVERE | SEVERE | 2007-05-16 | 5M PRE-DOSE | 1 | -PT5M | DOSING |", "score": 1.0, "match_basis": "verbatim_token+domain_route:FA"}, {"md_atom_id": "md_dmFA_ex_a027", "md_file": "knowledge_base/domains/FA/examples.md", "md_atom_type": "TABLE_ROW", "md_parent_section": "§FA.1 [Example 1]", "md_verbatim": "| 11 | ABC | FA | ABC-123 | 11 | 90567 | SEV | Severity/Intensity | Migraine | MIGRAINE SYMPTOMS | MILD | MILD | 2007-05-16 | 90M POST-DOSE | 3 | PT90M | DOSING |", "score": 0.8596, "match_basis": "verbatim_token+domain_route:FA"}, {"md_atom_id": "md_dmFA_ex_a022", "md_file": "knowledge_base/domains/FA/examples.md", "md_atom_type": "TABLE_ROW", "md_parent_section": "§FA.1 [Example 1]", "md_verbatim": "| 6 | ABC | FA | ABC-123 | 6 | 90567 | SEV | Severity/Intensity | Migraine | MIGRAINE SYMPTOMS | MODERATE | MODERATE | 2007-05-16 | 30M POST-DOSE | 2 | PT30M | DOSING |", "score": 0.8235, "match_basis": "verbatim_token+domain_route:FA"}, {"md_atom_id": "md_dmFA_ex_a018", "md_file": "knowledge_base/domains/FA/examples.md", "md_atom_type": "TABLE_ROW", "md_parent_section": "§FA.1 [Example 1]", "md_verbatim": "| 2 | ABC | FA | ABC-123 | 2 | 90567 | OCCUR | Occurrence Indicator | Sensitivity To Light | MIGRAINE SYMPTOMS | Y | Y | 2007-05-16 | 5M PRE-DOSE | 1 | -PT5M | DOSING |", "score": 0.6952, "match_basis": "verbatim_token+domain_route:FA"}, {"md_atom_id": "md_dmFA_ex_a019", "md_file": "knowledge_base/domains/FA/examples.md", "md_atom_type": "TABLE_ROW", "md_parent_section": "§FA.1 [Example 1]", "md_verbatim": "| 3 | ABC | FA | ABC-123 | 3 | 90567 | OCCUR | Occurrence Indicator | Sensitivity To Sound | MIGRAINE SYMPTOMS | N | N | 2007-05-16 | 5M PRE-DOSE | 1 | -PT5M | DOSING |", "score": 0.6952, "match_basis": "verbatim_token+domain_route:FA"}], "candidate_count": 5, "zero_candidate": false}
{"pdf_atom_id": "ig34_p0368_a015", "pdf_atom_type": "TABLE_ROW", "pdf_source": "SDTMIG_v3.4", "pdf_page": 368, "pdf_parent_section": "FA – Examples", "pdf_verbatim": "| 2 | ABC | FA | ABC-123 | 2 | 90567 | OCCUR | Occurrence Indicator | Sensitivity To Light | MIGRAINE SYMPTOMS | Y | Y | 2007-05-16 | 5M PRE-DOSE | 1 | -PT5M | DOSING |", "figure_ref": null, "candidates": [{"md_atom_id": "md_dmFA_ex_a018", "md_file": "knowledge_base/domains/FA/examples.md", "md_atom_type": "TABLE_ROW", "md_parent_section": "§FA.1 [Example 1]", "md_verbatim": "| 2 | ABC | FA | ABC-123 | 2 | 90567 | OCCUR | Occurrence Indicator | Sensitivity To Light | MIGRAINE SYMPTOMS | Y | Y | 2007-05-16 | 5M PRE-DOSE | 1 | -PT5M | DOSING |", "score": 1.0, "match_basis": "verbatim_token+domain_route:FA"}, {"md_atom_id": "md_dmFA_ex_a019", "md_file": "knowledge_base/domains/FA/examples.md", "md_atom_type": "TABLE_ROW", "md_parent_section": "§FA.1 [Example 1]", "md_verbatim": "| 3 | ABC | FA | ABC-123 | 3 | 90567 | OCCUR | Occurrence Indicator | Sensitivity To Sound | MIGRAINE SYMPTOMS | N | N | 2007-05-16 | 5M PRE-DOSE | 1 | -PT5M | DOSING |", "score": 0.9368, "match_basis": "verbatim_token+domain_route:FA"}, {"md_atom_id": "md_dmFA_ex_a023", "md_file": "knowledge_base/domains/FA/examples.md", "md_atom_type": "TABLE_ROW", "md_parent_section": "§FA.1 [Example 1]", "md_verbatim": "| 7 | ABC | FA | ABC-123 | 7 | 90567 | OCCUR | Occurrence Indicator | Sensitivity To Light | MIGRAINE SYMPTOMS | Y | Y | 2007-05-16 | 30M POST-DOSE | 2 | PT30M | DOSING |", "score": 0.9186, "match_basis": "verbatim_token+domain_route:FA"}, {"md_atom_id": "md_dmFA_ex_a028", "md_file": "knowledge_base/domains/FA/examples.md", "md_atom_type": "TABLE_ROW", "md_parent_section": "§FA.1 [Example 1]", "md_verbatim": "| 12 | ABC | FA | ABC-123 | 12 | 90567 | OCCUR | Occurrence Indicator | Sensitivity To Light | MIGRAINE SYMPTOMS | N | N | 2007-05-16 | 90M POST-DOSE | 3 | PT90M | DOSING |", "score": 0.9186, "match_basis": "verbatim_token+domain_route:FA"}, {"md_atom_id": "md_dmFA_ex_a024", "md_file": "knowledge_base/domains/FA/examples.md", "md_atom_type": "TABLE_ROW", "md_parent_section": "§FA.1 [Example 1]", "md_verbatim": "| 8 | ABC | FA | ABC-123 | 8 | 90567 | OCCUR | Occurrence Indicator | Sensitivity To Sound | MIGRAINE SYMPTOMS | N | N | 2007-05-16 | 30M POST-DOSE | 2 | PT30M | DOSING |", "score": 0.8645, "match_basis": "verbatim_token+domain_route:FA"}], "candidate_count": 5, "zero_candidate": false}
{"pdf_atom_id": "ig34_p0368_a016", "pdf_atom_type": "TABLE_ROW", "pdf_source": "SDTMIG_v3.4", "pdf_page": 368, "pdf_parent_section": "FA – Examples", "pdf_verbatim": "| 3 | ABC | FA | ABC-123 | 3 | 90567 | OCCUR | Occurrence Indicator | Sensitivity To Sound | MIGRAINE SYMPTOMS | N | N | 2007-05-16 | 5M PRE-DOSE | 1 | -PT5M | DOSING |", "figure_ref": null, "candidates": [{"md_atom_id": "md_dmFA_ex_a019", "md_file": "knowledge_base/domains/FA/examples.md", "md_atom_type": "TABLE_ROW", "md_parent_section": "§FA.1 [Example 1]", "md_verbatim": "| 3 | ABC | FA | ABC-123 | 3 | 90567 | OCCUR | Occurrence Indicator | Sensitivity To Sound | MIGRAINE SYMPTOMS | N | N | 2007-05-16 | 5M PRE-DOSE | 1 | -PT5M | DOSING |", "score": 1.0, "match_basis": "verbatim_token+domain_route:FA"}, {"md_atom_id": "md_dmFA_ex_a018", "md_file": "knowledge_base/domains/FA/examples.md", "md_atom_type": "TABLE_ROW", "md_parent_section": "§FA.1 [Example 1]", "md_verbatim": "| 2 | ABC | FA | ABC-123 | 2 | 90567 | OCCUR | Occurrence Indicator | Sensitivity To Light | MIGRAINE SYMPTOMS | Y | Y | 2007-05-16 | 5M PRE-DOSE | 1 | -PT5M | DOSING |", "score": 0.9368, "match_basis": "verbatim_token+domain_route:FA"}, {"md_atom_id": "md_dmFA_ex_a024", "md_file": "knowledge_base/domains/FA/examples.md", "md_atom_type": "TABLE_ROW", "md_parent_section": "§FA.1 [Example 1]", "md_verbatim": "| 8 | ABC | FA | ABC-123 | 8 | 90567 | OCCUR | Occurrence Indicator | Sensitivity To Sound | MIGRAINE SYMPTOMS | N | N | 2007-05-16 | 30M POST-DOSE | 2 | PT30M | DOSING |", "score": 0.9186, "match_basis": "verbatim_token+domain_route:FA"}, {"md_atom_id": "md_dmFA_ex_a029", "md_file": "knowledge_base/domains/FA/examples.md", "md_atom_type": "TABLE_ROW", "md_parent_section": "§FA.1 [Example 1]", "md_verbatim": "| 13 | ABC | FA | ABC-123 | 13 | 90567 | OCCUR | Occurrence Indicator | Sensitivity To Sound | MIGRAINE SYMPTOMS | N | N | 2007-05-16 | 90M POST-DOSE | 3 | PT90M | DOSING |", "score": 0.9186, "match_basis": "verbatim_token+domain_route:FA"}, {"md_atom_id": "md_dmFA_ex_a023", "md_file": "knowledge_base/domains/FA/examples.md", "md_atom_type": "TABLE_ROW", "md_parent_section": "§FA.1 [Example 1]", "md_verbatim": "| 7 | ABC | FA | ABC-123 | 7 | 90567 | OCCUR | Occurrence Indicator | Sensitivity To Light | MIGRAINE SYMPTOMS | Y | Y | 2007-05-16 | 30M POST-DOSE | 2 | PT30M | DOSING |", "score": 0.8645, "match_basis": "verbatim_token+domain_route:FA"}], "candidate_count": 5, "zero_candidate": false}
{"pdf_atom_id": "ig34_p0368_a017", "pdf_atom_type": "TABLE_ROW", "pdf_source": "SDTMIG_v3.4", "pdf_page": 368, "pdf_parent_section": "FA – Examples", "pdf_verbatim": "| 4 | ABC | FA | ABC-123 | 4 | 90567 | OCCUR | Occurrence Indicator | Nausea | MIGRAINE SYMPTOMS | Y | Y | 2007-05-16 | 5M PRE-DOSE | 1 | -PT5M | DOSING |", "figure_ref": null, "candidates": [{"md_atom_id": "md_dmFA_ex_a020", "md_file": "knowledge_base/domains/FA/examples.md", "md_atom_type": "TABLE_ROW", "md_parent_section": "§FA.1 [Example 1]", "md_verbatim": "| 4 | ABC | FA | ABC-123 | 4 | 90567 | OCCUR | Occurrence Indicator | Nausea | MIGRAINE SYMPTOMS | Y | Y | 2007-05-16 | 5M PRE-DOSE | 1 | -PT5M | DOSING |", "score": 1.0, "match_basis": "verbatim_token+domain_route:FA"}, {"md_atom_id": "md_dmFA_ex_a021", "md_file": "knowledge_base/domains/FA/examples.md", "md_atom_type": "TABLE_ROW", "md_parent_section": "§FA.1 [Example 1]", "md_verbatim": "| 5 | ABC | FA | ABC-123 | 5 | 90567 | OCCUR | Occurrence Indicator | Aura | MIGRAINE SYMPTOMS | Y | Y | 2007-05-16 | 5M PRE-DOSE | 1 | -PT5M | DOSING |", "score": 0.925, "match_basis": "verbatim_token+domain_route:FA"}, {"md_atom_id": "md_dmFA_ex_a025", "md_file": "knowledge_base/domains/FA/examples.md", "md_atom_type": "TABLE_ROW", "md_parent_section": "§FA.1 [Example 1]", "md_verbatim": "| 9 | ABC | FA | ABC-123 | 9 | 90567 | OCCUR | Occurrence Indicator | Nausea | MIGRAINE SYMPTOMS | N | N | 2007-05-16 | 30M POST-DOSE | 2 | PT30M | DOSING |", "score": 0.9059, "match_basis": "verbatim_token+domain_route:FA"}, {"md_atom_id": "md_dmFA_ex_a030", "md_file": "knowledge_base/domains/FA/examples.md", "md_atom_type": "TABLE_ROW", "md_parent_section": "§FA.1 [Example 1]", "md_verbatim": "| 14 | ABC | FA | ABC-123 | 14 | 90567 | OCCUR | Occurrence Indicator | Nausea | MIGRAINE SYMPTOMS | N | N | 2007-05-16 | 90M POST-DOSE | 3 | PT90M | DOSING |", "score": 0.9059, "match_basis": "verbatim_token+domain_route:FA"}, {"md_atom_id": "md_dmFA_ex_a026", "md_file": "knowledge_base/domains/FA/examples.md", "md_atom_type": "TABLE_ROW", "md_parent_section": "§FA.1 [Example 1]", "md_verbatim": "| 10 | ABC | FA | ABC-123 | 10 | 90567 | OCCUR | Occurrence Indicator | Aura | MIGRAINE SYMPTOMS | Y | Y | 2007-05-16 | 30M POST-DOSE | 2 | PT30M | DOSING |", "score": 0.8415, "match_basis": "verbatim_token+domain_route:FA"}], "candidate_count": 5, "zero_candidate": false}
{"pdf_atom_id": "ig34_p0368_a018", "pdf_atom_type": "TABLE_ROW", "pdf_source": "SDTMIG_v3.4", "pdf_page": 368, "pdf_parent_section": "FA – Examples", "pdf_verbatim": "| 5 | ABC | FA | ABC-123 | 5 | 90567 | OCCUR | Occurrence Indicator | Aura | MIGRAINE SYMPTOMS | Y | Y | 2007-05-16 | 5M PRE-DOSE | 1 | -PT5M | DOSING |", "figure_ref": null, "candidates": [{"md_atom_id": "md_dmFA_ex_a021", "md_file": "knowledge_base/domains/FA/examples.md", "md_atom_type": "TABLE_ROW", "md_parent_section": "§FA.1 [Example 1]", "md_verbatim": "| 5 | ABC | FA | ABC-123 | 5 | 90567 | OCCUR | Occurrence Indicator | Aura | MIGRAINE SYMPTOMS | Y | Y | 2007-05-16 | 5M PRE-DOSE | 1 | -PT5M | DOSING |", "score": 1.0, "match_basis": "verbatim_token+domain_route:FA"}, {"md_atom_id": "md_dmFA_ex_a020", "md_file": "knowledge_base/domains/FA/examples.md", "md_atom_type": "TABLE_ROW", "md_parent_section": "§FA.1 [Example 1]", "md_verbatim": "| 4 | ABC | FA | ABC-123 | 4 | 90567 | OCCUR | Occurrence Indicator | Nausea | MIGRAINE SYMPTOMS | Y | Y | 2007-05-16 | 5M PRE-DOSE | 1 | -PT5M | DOSING |", "score": 0.925, "match_basis": "verbatim_token+domain_route:FA"}, {"md_atom_id": "md_dmFA_ex_a026", "md_file": "knowledge_base/domains/FA/examples.md", "md_atom_type": "TABLE_ROW", "md_parent_section": "§FA.1 [Example 1]", "md_verbatim": "| 10 | ABC | FA | ABC-123 | 10 | 90567 | OCCUR | Occurrence Indicator | Aura | MIGRAINE SYMPTOMS | Y | Y | 2007-05-16 | 30M POST-DOSE | 2 | PT30M | DOSING |", "score": 0.902, "match_basis": "verbatim_token+domain_route:FA"}, {"md_atom_id": "md_dmFA_ex_a031", "md_file": "knowledge_base/domains/FA/examples.md", "md_atom_type": "TABLE_ROW", "md_parent_section": "§FA.1 [Example 1]", "md_verbatim": "| 15 | ABC | FA | ABC-123 | 15 | 90567 | OCCUR | Occurrence Indicator | Aura | MIGRAINE SYMPTOMS | N | N | 2007-05-16 | 90M POST-DOSE | 3 | PT90M | DOSING |", "score": 0.902, "match_basis": "verbatim_token+domain_route:FA"}, {"md_atom_id": "md_dmFA_ex_a018", "md_file": "knowledge_base/domains/FA/examples.md", "md_atom_type": "TABLE_ROW", "md_parent_section": "§FA.1 [Example 1]", "md_verbatim": "| 2 | ABC | FA | ABC-123 | 2 | 90567 | OCCUR | Occurrence Indicator | Sensitivity To Light | MIGRAINE SYMPTOMS | Y | Y | 2007-05-16 | 5M PRE-DOSE | 1 | -PT5M | DOSING |", "score": 0.85, "match_basis": "verbatim_token+domain_route:FA"}], "candidate_count": 5, "zero_candidate": false}
{"pdf_atom_id": "ig34_p0368_a019", "pdf_atom_type": "TABLE_ROW", "pdf_source": "SDTMIG_v3.4", "pdf_page": 368, "pdf_parent_section": "FA – Examples", "pdf_verbatim": "| 6 | ABC | FA | ABC-123 | 6 | 90567 | SEV | Severity/Intensity | Migraine | MIGRAINE SYMPTOMS | MODERATE | MODERATE | 2007-05-16 | 30M POST-DOSE | 2 | PT30M | DOSING |", "figure_ref": null, "candidates": [{"md_atom_id": "md_dmFA_ex_a022", "md_file": "knowledge_base/domains/FA/examples.md", "md_atom_type": "TABLE_ROW", "md_parent_section": "§FA.1 [Example 1]", "md_verbatim": "| 6 | ABC | FA | ABC-123 | 6 | 90567 | SEV | Severity/Intensity | Migraine | MIGRAINE SYMPTOMS | MODERATE | MODERATE | 2007-05-16 | 30M POST-DOSE | 2 | PT30M | DOSING |", "score": 1.0, "match_basis": "verbatim_token+domain_route:FA"}, {"md_atom_id": "md_dmFA_ex_a027", "md_file": "knowledge_base/domains/FA/examples.md", "md_atom_type": "TABLE_ROW", "md_parent_section": "§FA.1 [Example 1]", "md_verbatim": "| 11 | ABC | FA | ABC-123 | 11 | 90567 | SEV | Severity/Intensity | Migraine | MIGRAINE SYMPTOMS | MILD | MILD | 2007-05-16 | 90M POST-DOSE | 3 | PT90M | DOSING |", "score": 0.8385, "match_basis": "verbatim_token+domain_route:FA"}, {"md_atom_id": "md_dmFA_ex_a017", "md_file": "knowledge_base/domains/FA/examples.md", "md_atom_type": "TABLE_ROW", "md_parent_section": "§FA.1 [Example 1]", "md_verbatim": "| 1 | ABC | FA | ABC-123 | 1 | 90567 | SEV | Severity/Intensity | Migraine | MIGRAINE SYMPTOMS | SEVERE | SEVERE | 2007-05-16 | 5M PRE-DOSE | 1 | -PT5M | DOSING |", "score": 0.8235, "match_basis": "verbatim_token+domain_route:FA"}, {"md_atom_id": "md_dmFA_ex_a023", "md_file": "knowledge_base/domains/FA/examples.md", "md_atom_type": "TABLE_ROW", "md_parent_section": "§FA.1 [Example 1]", "md_verbatim": "| 7 | ABC | FA | ABC-123 | 7 | 90567 | OCCUR | Occurrence Indicator | Sensitivity To Light | MIGRAINE SYMPTOMS | Y | Y | 2007-05-16 | 30M POST-DOSE | 2 | PT30M | DOSING |", "score": 0.6829, "match_basis": "verbatim_token+domain_route:FA"}, {"md_atom_id": "md_dmFA_ex_a024", "md_file": "knowledge_base/domains/FA/examples.md", "md_atom_type": "TABLE_ROW", "md_parent_section": "§FA.1 [Example 1]", "md_verbatim": "| 8 | ABC | FA | ABC-123 | 8 | 90567 | OCCUR | Occurrence Indicator | Sensitivity To Sound | MIGRAINE SYMPTOMS | N | N | 2007-05-16 | 30M POST-DOSE | 2 | PT30M | DOSING |", "score": 0.6829, "match_basis": "verbatim_token+domain_route:FA"}], "candidate_count": 5, "zero_candidate": false}
{"pdf_atom_id": "ig34_p0368_a020", "pdf_atom_type": "TABLE_ROW", "pdf_source": "SDTMIG_v3.4", "pdf_page": 368, "pdf_parent_section": "FA – Examples", "pdf_verbatim": "| 7 | ABC | FA | ABC-123 | 7 | 90567 | OCCUR | Occurrence Indicator | Sensitivity To Light | MIGRAINE SYMPTOMS | Y | Y | 2007-05-16 | 30M POST-DOSE | 2 | PT30M | DOSING |", "figure_ref": null, "candidates": [{"md_atom_id": "md_dmFA_ex_a023", "md_file": "knowledge_base/domains/FA/examples.md", "md_atom_type": "TABLE_ROW", "md_parent_section": "§FA.1 [Example 1]", "md_verbatim": "| 7 | ABC | FA | ABC-123 | 7 | 90567 | OCCUR | Occurrence Indicator | Sensitivity To Light | MIGRAINE SYMPTOMS | Y | Y | 2007-05-16 | 30M POST-DOSE | 2 | PT30M | DOSING |", "score": 1.0, "match_basis": "verbatim_token+domain_route:FA"}, {"md_atom_id": "md_dmFA_ex_a024", "md_file": "knowledge_base/domains/FA/examples.md", "md_atom_type": "TABLE_ROW", "md_parent_section": "§FA.1 [Example 1]", "md_verbatim": "| 8 | ABC | FA | ABC-123 | 8 | 90567 | OCCUR | Occurrence Indicator | Sensitivity To Sound | MIGRAINE SYMPTOMS | N | N | 2007-05-16 | 30M POST-DOSE | 2 | PT30M | DOSING |", "score": 0.939, "match_basis": "verbatim_token+domain_route:FA"}, {"md_atom_id": "md_dmFA_ex_a028", "md_file": "knowledge_base/domains/FA/examples.md", "md_atom_type": "TABLE_ROW", "md_parent_section": "§FA.1 [Example 1]", "md_verbatim": "| 12 | ABC | FA | ABC-123 | 12 | 90567 | OCCUR | Occurrence Indicator | Sensitivity To Light | MIGRAINE SYMPTOMS | N | N | 2007-05-16 | 90M POST-DOSE | 3 | PT90M | DOSING |", "score": 0.939, "match_basis": "verbatim_token+domain_route:FA"}, {"md_atom_id": "md_dmFA_ex_a018", "md_file": "knowledge_base/domains/FA/examples.md", "md_atom_type": "TABLE_ROW", "md_parent_section": "§FA.1 [Example 1]", "md_verbatim": "| 2 | ABC | FA | ABC-123 | 2 | 90567 | OCCUR | Occurrence Indicator | Sensitivity To Light | MIGRAINE SYMPTOMS | Y | Y | 2007-05-16 | 5M PRE-DOSE | 1 | -PT5M | DOSING |", "score": 0.9186, "match_basis": "verbatim_token+domain_route:FA"}, {"md_atom_id": "md_dmFA_ex_a029", "md_file": "knowledge_base/domains/FA/examples.md", "md_atom_type": "TABLE_ROW", "md_parent_section": "§FA.1 [Example 1]", "md_verbatim": "| 13 | ABC | FA | ABC-123 | 13 | 90567 | OCCUR | Occurrence Indicator | Sensitivity To Sound | MIGRAINE SYMPTOMS | N | N | 2007-05-16 | 90M POST-DOSE | 3 | PT90M | DOSING |", "score": 0.8839, "match_basis": "verbatim_token+domain_route:FA"}], "candidate_count": 5, "zero_candidate": false}
{"pdf_atom_id": "ig34_p0368_a021", "pdf_atom_type": "TABLE_ROW", "pdf_source": "SDTMIG_v3.4", "pdf_page": 368, "pdf_parent_section": "FA – Examples", "pdf_verbatim": "| 8 | ABC | FA | ABC-123 | 8 | 90567 | OCCUR | Occurrence Indicator | Sensitivity To Sound | MIGRAINE SYMPTOMS | N | N | 2007-05-16 | 30M POST-DOSE | 2 | PT30M | DOSING |", "figure_ref": null, "candidates": [{"md_atom_id": "md_dmFA_ex_a024", "md_file": "knowledge_base/domains/FA/examples.md", "md_atom_type": "TABLE_ROW", "md_parent_section": "§FA.1 [Example 1]", "md_verbatim": "| 8 | ABC | FA | ABC-123 | 8 | 90567 | OCCUR | Occurrence Indicator | Sensitivity To Sound | MIGRAINE SYMPTOMS | N | N | 2007-05-16 | 30M POST-DOSE | 2 | PT30M | DOSING |", "score": 1.0, "match_basis": "verbatim_token+domain_route:FA"}, {"md_atom_id": "md_dmFA_ex_a023", "md_file": "knowledge_base/domains/FA/examples.md", "md_atom_type": "TABLE_ROW", "md_parent_section": "§FA.1 [Example 1]", "md_verbatim": "| 7 | ABC | FA | ABC-123 | 7 | 90567 | OCCUR | Occurrence Indicator | Sensitivity To Light | MIGRAINE SYMPTOMS | Y | Y | 2007-05-16 | 30M POST-DOSE | 2 | PT30M | DOSING |", "score": 0.939, "match_basis": "verbatim_token+domain_route:FA"}, {"md_atom_id": "md_dmFA_ex_a029", "md_file": "knowledge_base/domains/FA/examples.md", "md_atom_type": "TABLE_ROW", "md_parent_section": "§FA.1 [Example 1]", "md_verbatim": "| 13 | ABC | FA | ABC-123 | 13 | 90567 | OCCUR | Occurrence Indicator | Sensitivity To Sound | MIGRAINE SYMPTOMS | N | N | 2007-05-16 | 90M POST-DOSE | 3 | PT90M | DOSING |", "score": 0.939, "match_basis": "verbatim_token+domain_route:FA"}, {"md_atom_id": "md_dmFA_ex_a019", "md_file": "knowledge_base/domains/FA/examples.md", "md_atom_type": "TABLE_ROW", "md_parent_section": "§FA.1 [Example 1]", "md_verbatim": "| 3 | ABC | FA | ABC-123 | 3 | 90567 | OCCUR | Occurrence Indicator | Sensitivity To Sound | MIGRAINE SYMPTOMS | N | N | 2007-05-16 | 5M PRE-DOSE | 1 | -PT5M | DOSING |", "score": 0.9186, "match_basis": "verbatim_token+domain_route:FA"}, {"md_atom_id": "md_dmFA_ex_a028", "md_file": "knowledge_base/domains/FA/examples.md", "md_atom_type": "TABLE_ROW", "md_parent_section": "§FA.1 [Example 1]", "md_verbatim": "| 12 | ABC | FA | ABC-123 | 12 | 90567 | OCCUR | Occurrence Indicator | Sensitivity To Light | MIGRAINE SYMPTOMS | N | N | 2007-05-16 | 90M POST-DOSE | 3 | PT90M | DOSING |", "score": 0.8839, "match_basis": "verbatim_token+domain_route:FA"}], "candidate_count": 5, "zero_candidate": false}
{"pdf_atom_id": "ig34_p0368_a022", "pdf_atom_type": "TABLE_ROW", "pdf_source": "SDTMIG_v3.4", "pdf_page": 368, "pdf_parent_section": "FA – Examples", "pdf_verbatim": "| 9 | ABC | FA | ABC-123 | 9 | 90567 | OCCUR | Occurrence Indicator | Nausea | MIGRAINE SYMPTOMS | N | N | 2007-05-16 | 30M POST-DOSE | 2 | PT30M | DOSING |", "figure_ref": null, "candidates": [{"md_atom_id": "md_dmFA_ex_a025", "md_file": "knowledge_base/domains/FA/examples.md", "md_atom_type": "TABLE_ROW", "md_parent_section": "§FA.1 [Example 1]", "md_verbatim": "| 9 | ABC | FA | ABC-123 | 9 | 90567 | OCCUR | Occurrence Indicator | Nausea | MIGRAINE SYMPTOMS | N | N | 2007-05-16 | 30M POST-DOSE | 2 | PT30M | DOSING |", "score": 1.0, "match_basis": "verbatim_token+domain_route:FA"}, {"md_atom_id": "md_dmFA_ex_a030", "md_file": "knowledge_base/domains/FA/examples.md", "md_atom_type": "TABLE_ROW", "md_parent_section": "§FA.1 [Example 1]", "md_verbatim": "| 14 | ABC | FA | ABC-123 | 14 | 90567 | OCCUR | Occurrence Indicator | Nausea | MIGRAINE SYMPTOMS | N | N | 2007-05-16 | 90M POST-DOSE | 3 | PT90M | DOSING |", "score": 0.9294, "match_basis": "verbatim_token+domain_route:FA"}, {"md_atom_id": "md_dmFA_ex_a026", "md_file": "knowledge_base/domains/FA/examples.md", "md_atom_type": "TABLE_ROW", "md_parent_section": "§FA.1 [Example 1]", "md_verbatim": "| 10 | ABC | FA | ABC-123 | 10 | 90567 | OCCUR | Occurrence Indicator | Aura | MIGRAINE SYMPTOMS | Y | Y | 2007-05-16 | 30M POST-DOSE | 2 | PT30M | DOSING |", "score": 0.928, "match_basis": "verbatim_token+domain_route:FA"}, {"md_atom_id": "md_dmFA_ex_a020", "md_file": "knowledge_base/domains/FA/examples.md", "md_atom_type": "TABLE_ROW", "md_parent_section": "§FA.1 [Example 1]", "md_verbatim": "| 4 | ABC | FA | ABC-123 | 4 | 90567 | OCCUR | Occurrence Indicator | Nausea | MIGRAINE SYMPTOMS | Y | Y | 2007-05-16 | 5M PRE-DOSE | 1 | -PT5M | DOSING |", "score": 0.9059, "match_basis": "verbatim_token+domain_route:FA"}, {"md_atom_id": "md_dmFA_ex_a031", "md_file": "knowledge_base/domains/FA/examples.md", "md_atom_type": "TABLE_ROW", "md_parent_section": "§FA.1 [Example 1]", "md_verbatim": "| 15 | ABC | FA | ABC-123 | 15 | 90567 | OCCUR | Occurrence Indicator | Aura | MIGRAINE SYMPTOMS | N | N | 2007-05-16 | 90M POST-DOSE | 3 | PT90M | DOSING |", "score": 0.8642, "match_basis": "verbatim_token+domain_route:FA"}], "candidate_count": 5, "zero_candidate": false}
{"pdf_atom_id": "ig34_p0369_a001", "pdf_atom_type": "TABLE_ROW", "pdf_source": "SDTMIG_v3.4", "pdf_page": 369, "pdf_parent_section": "FA – Examples", "pdf_verbatim": "| 10 | ABC | FA | ABC-123 | 10 | 90567 | OCCUR | Occurrence Indicator | Aura | MIGRAINE SYMPTOMS | Y | Y | 2007-05-16 | 30M POST-DOSE | 2 | PT30M | DOSING |", "figure_ref": null, "candidates": [{"md_atom_id": "md_dmFA_ex_a026", "md_file": "knowledge_base/domains/FA/examples.md", "md_atom_type": "TABLE_ROW", "md_parent_section": "§FA.1 [Example 1]", "md_verbatim": "| 10 | ABC | FA | ABC-123 | 10 | 90567 | OCCUR | Occurrence Indicator | Aura | MIGRAINE SYMPTOMS | Y | Y | 2007-05-16 | 30M POST-DOSE | 2 | PT30M | DOSING |", "score": 1.0, "match_basis": "verbatim_token+domain_route:FA"}, {"md_atom_id": "md_dmFA_ex_a025", "md_file": "knowledge_base/domains/FA/examples.md", "md_atom_type": "TABLE_ROW", "md_parent_section": "§FA.1 [Example 1]", "md_verbatim": "| 9 | ABC | FA | ABC-123 | 9 | 90567 | OCCUR | Occurrence Indicator | Nausea | MIGRAINE SYMPTOMS | N | N | 2007-05-16 | 30M POST-DOSE | 2 | PT30M | DOSING |", "score": 0.928, "match_basis": "verbatim_token+domain_route:FA"}, {"md_atom_id": "md_dmFA_ex_a031", "md_file": "knowledge_base/domains/FA/examples.md", "md_atom_type": "TABLE_ROW", "md_parent_section": "§FA.1 [Example 1]", "md_verbatim": "| 15 | ABC | FA | ABC-123 | 15 | 90567 | OCCUR | Occurrence Indicator | Aura | MIGRAINE SYMPTOMS | N | N | 2007-05-16 | 90M POST-DOSE | 3 | PT90M | DOSING |", "score": 0.9265, "match_basis": "verbatim_token+domain_route:FA"}, {"md_atom_id": "md_dmFA_ex_a021", "md_file": "knowledge_base/domains/FA/examples.md", "md_atom_type": "TABLE_ROW", "md_parent_section": "§FA.1 [Example 1]", "md_verbatim": "| 5 | ABC | FA | ABC-123 | 5 | 90567 | OCCUR | Occurrence Indicator | Aura | MIGRAINE SYMPTOMS | Y | Y | 2007-05-16 | 5M PRE-DOSE | 1 | -PT5M | DOSING |", "score": 0.902, "match_basis": "verbatim_token+domain_route:FA"}, {"md_atom_id": "md_dmFA_ex_a030", "md_file": "knowledge_base/domains/FA/examples.md", "md_atom_type": "TABLE_ROW", "md_parent_section": "§FA.1 [Example 1]", "md_verbatim": "| 14 | ABC | FA | ABC-123 | 14 | 90567 | OCCUR | Occurrence Indicator | Nausea | MIGRAINE SYMPTOMS | N | N | 2007-05-16 | 90M POST-DOSE | 3 | PT90M | DOSING |", "score": 0.8642, "match_basis": "verbatim_token+domain_route:FA"}], "candidate_count": 5, "zero_candidate": false}
{"pdf_atom_id": "ig34_p0369_a002", "pdf_atom_type": "TABLE_ROW", "pdf_source": "SDTMIG_v3.4", "pdf_page": 369, "pdf_parent_section": "FA – Examples", "pdf_verbatim": "| 11 | ABC | FA | ABC-123 | 11 | 90567 | SEV | Severity/Intensity | Migraine | MIGRAINE SYMPTOMS | MILD | MILD | 2007-05-16 | 90M POST-DOSE | 3 | PT90M | DOSING |", "figure_ref": null, "candidates": [{"md_atom_id": "md_dmFA_ex_a027", "md_file": "knowledge_base/domains/FA/examples.md", "md_atom_type": "TABLE_ROW", "md_parent_section": "§FA.1 [Example 1]", "md_verbatim": "| 11 | ABC | FA | ABC-123 | 11 | 90567 | SEV | Severity/Intensity | Migraine | MIGRAINE SYMPTOMS | MILD | MILD | 2007-05-16 | 90M POST-DOSE | 3 | PT90M | DOSING |", "score": 1.0, "match_basis": "verbatim_token+domain_route:FA"}, {"md_atom_id": "md_dmFA_ex_a017", "md_file": "knowledge_base/domains/FA/examples.md", "md_atom_type": "TABLE_ROW", "md_parent_section": "§FA.1 [Example 1]", "md_verbatim": "| 1 | ABC | FA | ABC-123 | 1 | 90567 | SEV | Severity/Intensity | Migraine | MIGRAINE SYMPTOMS | SEVERE | SEVERE | 2007-05-16 | 5M PRE-DOSE | 1 | -PT5M | DOSING |", "score": 0.8596, "match_basis": "verbatim_token+domain_route:FA"}, {"md_atom_id": "md_dmFA_ex_a022", "md_file": "knowledge_base/domains/FA/examples.md", "md_atom_type": "TABLE_ROW", "md_parent_section": "§FA.1 [Example 1]", "md_verbatim": "| 6 | ABC | FA | ABC-123 | 6 | 90567 | SEV | Severity/Intensity | Migraine | MIGRAINE SYMPTOMS | MODERATE | MODERATE | 2007-05-16 | 30M POST-DOSE | 2 | PT30M | DOSING |", "score": 0.8385, "match_basis": "verbatim_token+domain_route:FA"}, {"md_atom_id": "md_dmFA_ex_a028", "md_file": "knowledge_base/domains/FA/examples.md", "md_atom_type": "TABLE_ROW", "md_parent_section": "§FA.1 [Example 1]", "md_verbatim": "| 12 | ABC | FA | ABC-123 | 12 | 90567 | OCCUR | Occurrence Indicator | Sensitivity To Light | MIGRAINE SYMPTOMS | N | N | 2007-05-16 | 90M POST-DOSE | 3 | PT90M | DOSING |", "score": 0.7, "match_basis": "verbatim_token+domain_route:FA"}, {"md_atom_id": "md_dmFA_ex_a029", "md_file": "knowledge_base/domains/FA/examples.md", "md_atom_type": "TABLE_ROW", "md_parent_section": "§FA.1 [Example 1]", "md_verbatim": "| 13 | ABC | FA | ABC-123 | 13 | 90567 | OCCUR | Occurrence Indicator | Sensitivity To Sound | MIGRAINE SYMPTOMS | N | N | 2007-05-16 | 90M POST-DOSE | 3 | PT90M | DOSING |", "score": 0.7, "match_basis": "verbatim_token+domain_route:FA"}], "candidate_count": 5, "zero_candidate": false}
{"pdf_atom_id": "ig34_p0369_a003", "pdf_atom_type": "TABLE_ROW", "pdf_source": "SDTMIG_v3.4", "pdf_page": 369, "pdf_parent_section": "FA – Examples", "pdf_verbatim": "| 12 | ABC | FA | ABC-123 | 12 | 90567 | OCCUR | Occurrence Indicator | Sensitivity To Light | MIGRAINE SYMPTOMS | N | N | 2007-05-16 | 90M POST-DOSE | 3 | PT90M | DOSING |", "figure_ref": null, "candidates": [{"md_atom_id": "md_dmFA_ex_a028", "md_file": "knowledge_base/domains/FA/examples.md", "md_atom_type": "TABLE_ROW", "md_parent_section": "§FA.1 [Example 1]", "md_verbatim": "| 12 | ABC | FA | ABC-123 | 12 | 90567 | OCCUR | Occurrence Indicator | Sensitivity To Light | MIGRAINE SYMPTOMS | N | N | 2007-05-16 | 90M POST-DOSE | 3 | PT90M | DOSING |", "score": 1.0, "match_basis": "verbatim_token+domain_route:FA"}, {"md_atom_id": "md_dmFA_ex_a023", "md_file": "knowledge_base/domains/FA/examples.md", "md_atom_type": "TABLE_ROW", "md_parent_section": "§FA.1 [Example 1]", "md_verbatim": "| 7 | ABC | FA | ABC-123 | 7 | 90567 | OCCUR | Occurrence Indicator | Sensitivity To Light | MIGRAINE SYMPTOMS | Y | Y | 2007-05-16 | 30M POST-DOSE | 2 | PT30M | DOSING |", "score": 0.939, "match_basis": "verbatim_token+domain_route:FA"}, {"md_atom_id": "md_dmFA_ex_a029", "md_file": "knowledge_base/domains/FA/examples.md", "md_atom_type": "TABLE_ROW", "md_parent_section": "§FA.1 [Example 1]", "md_verbatim": "| 13 | ABC | FA | ABC-123 | 13 | 90567 | OCCUR | Occurrence Indicator | Sensitivity To Sound | MIGRAINE SYMPTOMS | N | N | 2007-05-16 | 90M POST-DOSE | 3 | PT90M | DOSING |", "score": 0.939, "match_basis": "verbatim_token+domain_route:FA"}, {"md_atom_id": "md_dmFA_ex_a018", "md_file": "knowledge_base/domains/FA/examples.md", "md_atom_type": "TABLE_ROW", "md_parent_section": "§FA.1 [Example 1]", "md_verbatim": "| 2 | ABC | FA | ABC-123 | 2 | 90567 | OCCUR | Occurrence Indicator | Sensitivity To Light | MIGRAINE SYMPTOMS | Y | Y | 2007-05-16 | 5M PRE-DOSE | 1 | -PT5M | DOSING |", "score": 0.9186, "match_basis": "verbatim_token+domain_route:FA"}, {"md_atom_id": "md_dmFA_ex_a024", "md_file": "knowledge_base/domains/FA/examples.md", "md_atom_type": "TABLE_ROW", "md_parent_section": "§FA.1 [Example 1]", "md_verbatim": "| 8 | ABC | FA | ABC-123 | 8 | 90567 | OCCUR | Occurrence Indicator | Sensitivity To Sound | MIGRAINE SYMPTOMS | N | N | 2007-05-16 | 30M POST-DOSE | 2 | PT30M | DOSING |", "score": 0.8839, "match_basis": "verbatim_token+domain_route:FA"}], "candidate_count": 5, "zero_candidate": false}
{"pdf_atom_id": "ig34_p0369_a004", "pdf_atom_type": "TABLE_ROW", "pdf_source": "SDTMIG_v3.4", "pdf_page": 369, "pdf_parent_section": "FA – Examples", "pdf_verbatim": "| 13 | ABC | FA | ABC-123 | 13 | 90567 | OCCUR | Occurrence Indicator | Sensitivity To Sound | MIGRAINE SYMPTOMS | N | N | 2007-05-16 | 90M POST-DOSE | 3 | PT90M | DOSING |", "figure_ref": null, "candidates": [{"md_atom_id": "md_dmFA_ex_a029", "md_file": "knowledge_base/domains/FA/examples.md", "md_atom_type": "TABLE_ROW", "md_parent_section": "§FA.1 [Example 1]", "md_verbatim": "| 13 | ABC | FA | ABC-123 | 13 | 90567 | OCCUR | Occurrence Indicator | Sensitivity To Sound | MIGRAINE SYMPTOMS | N | N | 2007-05-16 | 90M POST-DOSE | 3 | PT90M | DOSING |", "score": 1.0, "match_basis": "verbatim_token+domain_route:FA"}, {"md_atom_id": "md_dmFA_ex_a024", "md_file": "knowledge_base/domains/FA/examples.md", "md_atom_type": "TABLE_ROW", "md_parent_section": "§FA.1 [Example 1]", "md_verbatim": "| 8 | ABC | FA | ABC-123 | 8 | 90567 | OCCUR | Occurrence Indicator | Sensitivity To Sound | MIGRAINE SYMPTOMS | N | N | 2007-05-16 | 30M POST-DOSE | 2 | PT30M | DOSING |", "score": 0.939, "match_basis": "verbatim_token+domain_route:FA"}, {"md_atom_id": "md_dmFA_ex_a028", "md_file": "knowledge_base/domains/FA/examples.md", "md_atom_type": "TABLE_ROW", "md_parent_section": "§FA.1 [Example 1]", "md_verbatim": "| 12 | ABC | FA | ABC-123 | 12 | 90567 | OCCUR | Occurrence Indicator | Sensitivity To Light | MIGRAINE SYMPTOMS | N | N | 2007-05-16 | 90M POST-DOSE | 3 | PT90M | DOSING |", "score": 0.939, "match_basis": "verbatim_token+domain_route:FA"}, {"md_atom_id": "md_dmFA_ex_a019", "md_file": "knowledge_base/domains/FA/examples.md", "md_atom_type": "TABLE_ROW", "md_parent_section": "§FA.1 [Example 1]", "md_verbatim": "| 3 | ABC | FA | ABC-123 | 3 | 90567 | OCCUR | Occurrence Indicator | Sensitivity To Sound | MIGRAINE SYMPTOMS | N | N | 2007-05-16 | 5M PRE-DOSE | 1 | -PT5M | DOSING |", "score": 0.9186, "match_basis": "verbatim_token+domain_route:FA"}, {"md_atom_id": "md_dmFA_ex_a023", "md_file": "knowledge_base/domains/FA/examples.md", "md_atom_type": "TABLE_ROW", "md_parent_section": "§FA.1 [Example 1]", "md_verbatim": "| 7 | ABC | FA | ABC-123 | 7 | 90567 | OCCUR | Occurrence Indicator | Sensitivity To Light | MIGRAINE SYMPTOMS | Y | Y | 2007-05-16 | 30M POST-DOSE | 2 | PT30M | DOSING |", "score": 0.8839, "match_basis": "verbatim_token+domain_route:FA"}], "candidate_count": 5, "zero_candidate": false}
