{"pdf_atom_id": "ig34_p0317_a005", "pdf_atom_type": "TABLE_ROW", "pdf_source": "SDTMIG_v3.4", "pdf_page": 317, "pdf_parent_section": "§6.3.8 Physical Examination (PE)", "pdf_verbatim": "| VISIT | Visit Name | Char | | Timing | Protocol-defined description of a clinical encounter. May be used in addition to VISITNUM and/or VISITDY. | Perm |", "figure_ref": null, "candidates": [{"md_atom_id": "md_dmPE_ex_a011", "md_file": "knowledge_base/domains/PE/examples.md", "md_atom_type": "TABLE_ROW", "md_parent_section": "§PE.1 [Example 1]", "md_verbatim": "| 4 | ABC | PE | ABC-001-001 | 4 | 2 | SKIN | Skin | HANDS | | Skin and subcutaneous tissue disorder | DERMATITIS | Dermatitis | -1 | BASELINE | -1 | 1999-06-06 | -3 |", "score": 0.4316, "match_basis": "verbatim_token+domain_route:PE"}, {"md_atom_id": "md_dmPE_ex_a010", "md_file": "knowledge_base/domains/PE/examples.md", "md_atom_type": "TABLE_ROW", "md_parent_section": "§PE.1 [Example 1]", "md_verbatim": "| 3 | ABC | PE | ABC-001-001 | 3 | 1 | SKIN | Skin | FACE | | Skin and subcutaneous tissue disorder | ACNE | Acne | -1 | BASELINE | -1 | 1999-06-06 | -3 |", "score": 0.4194, "match_basis": "verbatim_token+domain_route:PE"}, {"md_atom_id": "md_dmPE_ex_a012", "md_file": "knowledge_base/domains/PE/examples.md", "md_atom_type": "TABLE_ROW", "md_parent_section": "§PE.1 [Example 1]", "md_verbatim": "| 5 | ABC | PE | ABC-001-001 | 5 | 3 | SKIN | Skin | ARM | LEFT | Skin and subcutaneous tissue disorder | SKIN RASH | Rash | -1 | BASELINE | -1 | 1999-06-06 | -3 |", "score": 0.4191, "match_basis": "verbatim_token+domain_route:PE"}, {"md_atom_id": "md_dmPE_ex_a008", "md_file": "knowledge_base/domains/PE/examples.md", "md_atom_type": "TABLE_ROW", "md_parent_section": "§PE.1 [Example 1]", "md_verbatim": "| 1 | ABC | PE | ABC-001-001 | 1 | | HEAD | Head | | | | NORMAL | NORMAL | -1 | BASELINE | -1 | 1999-06-06 | -3 |", "score": 0.4164, "match_basis": "verbatim_token+domain_route:PE"}, {"md_atom_id": "md_dmPE_ex_a013", "md_file": "knowledge_base/domains/PE/examples.md", "md_atom_type": "TABLE_ROW", "md_parent_section": "§PE.1 [Example 1]", "md_verbatim": "| 6 | ABC | PE | ABC-001-001 | 6 | | HEART | Heart | | | | NORMAL | NORMAL | -1 | BASELINE | -1 | 1999-06-06 | -3 |", "score": 0.4162, "match_basis": "verbatim_token+domain_route:PE"}], "candidate_count": 5, "zero_candidate": false}
{"pdf_atom_id": "ig34_p0317_a006", "pdf_atom_type": "TABLE_ROW", "pdf_source": "SDTMIG_v3.4", "pdf_page": 317, "pdf_parent_section": "§6.3.8 Physical Examination (PE)", "pdf_verbatim": "| VISITDY | Planned Study Day of Visit | Num | | Timing | Planned study day of VISIT. Should be an integer. | Perm |", "figure_ref": null, "candidates": [{"md_atom_id": "md_dmPE_ex_a011", "md_file": "knowledge_base/domains/PE/examples.md", "md_atom_type": "TABLE_ROW", "md_parent_section": "§PE.1 [Example 1]", "md_verbatim": "| 4 | ABC | PE | ABC-001-001 | 4 | 2 | SKIN | Skin | HANDS | | Skin and subcutaneous tissue disorder | DERMATITIS | Dermatitis | -1 | BASELINE | -1 | 1999-06-06 | -3 |", "score": 0.4086, "match_basis": "verbatim_token+domain_route:PE"}, {"md_atom_id": "md_dmPE_ex_a007", "md_file": "knowledge_base/domains/PE/examples.md", "md_atom_type": "TABLE_HEADER", "md_parent_section": "§PE.1 [Example 1]", "md_verbatim": "| Row | STUDYID | DOMAIN | USUBJID | PESEQ | PESPID | PETESTCD | PETEST | PELOC | PELAT | PEBODSYS | PEORRES | PESTRESC | VISITNUM | VISIT | VISITDY | PEDTC | PEDY |\n|-----|---------|--------|---------|-------|--------|----------|--------|-------|-------|----------|---------|----------|----------|-------|---------|-------|------|", "score": 0.4084, "match_basis": "verbatim_token+domain_route:PE"}, {"md_atom_id": "md_dmPE_ex_a008", "md_file": "knowledge_base/domains/PE/examples.md", "md_atom_type": "TABLE_ROW", "md_parent_section": "§PE.1 [Example 1]", "md_verbatim": "| 1 | ABC | PE | ABC-001-001 | 1 | | HEAD | Head | | | | NORMAL | NORMAL | -1 | BASELINE | -1 | 1999-06-06 | -3 |", "score": 0.4, "match_basis": "verbatim_token+domain_route:PE"}, {"md_atom_id": "md_dmPE_ex_a009", "md_file": "knowledge_base/domains/PE/examples.md", "md_atom_type": "TABLE_ROW", "md_parent_section": "§PE.1 [Example 1]", "md_verbatim": "| 2 | ABC | PE | ABC-001-001 | 2 | | ENT | Ear/Nose/Throat | | | | NORMAL | NORMAL | -1 | BASELINE | -1 | 1999-06-06 | -3 |", "score": 0.4, "match_basis": "verbatim_token+domain_route:PE"}, {"md_atom_id": "md_dmPE_ex_a010", "md_file": "knowledge_base/domains/PE/examples.md", "md_atom_type": "TABLE_ROW", "md_parent_section": "§PE.1 [Example 1]", "md_verbatim": "| 3 | ABC | PE | ABC-001-001 | 3 | 1 | SKIN | Skin | FACE | | Skin and subcutaneous tissue disorder | ACNE | Acne | -1 | BASELINE | -1 | 1999-06-06 | -3 |", "score": 0.4, "match_basis": "verbatim_token+domain_route:PE"}], "candidate_count": 5, "zero_candidate": false}
{"pdf_atom_id": "ig34_p0317_a007", "pdf_atom_type": "TABLE_ROW", "pdf_source": "SDTMIG_v3.4", "pdf_page": 317, "pdf_parent_section": "§6.3.8 Physical Examination (PE)", "pdf_verbatim": "| TAETORD | Planned Order of Element within Arm | Num | | Timing | Number that gives the planned order of the element within the arm for the element in which the assessment was made. | Perm |", "figure_ref": null, "candidates": [{"md_atom_id": "md_dmPE_ex_a012", "md_file": "knowledge_base/domains/PE/examples.md", "md_atom_type": "TABLE_ROW", "md_parent_section": "§PE.1 [Example 1]", "md_verbatim": "| 5 | ABC | PE | ABC-001-001 | 5 | 3 | SKIN | Skin | ARM | LEFT | Skin and subcutaneous tissue disorder | SKIN RASH | Rash | -1 | BASELINE | -1 | 1999-06-06 | -3 |", "score": 0.4282, "match_basis": "verbatim_token+domain_route:PE"}, {"md_atom_id": "md_dmPE_ex_a011", "md_file": "knowledge_base/domains/PE/examples.md", "md_atom_type": "TABLE_ROW", "md_parent_section": "§PE.1 [Example 1]", "md_verbatim": "| 4 | ABC | PE | ABC-001-001 | 4 | 2 | SKIN | Skin | HANDS | | Skin and subcutaneous tissue disorder | DERMATITIS | Dermatitis | -1 | BASELINE | -1 | 1999-06-06 | -3 |", "score": 0.4273, "match_basis": "verbatim_token+domain_route:PE"}, {"md_atom_id": "md_dmPE_ex_a010", "md_file": "knowledge_base/domains/PE/examples.md", "md_atom_type": "TABLE_ROW", "md_parent_section": "§PE.1 [Example 1]", "md_verbatim": "| 3 | ABC | PE | ABC-001-001 | 3 | 1 | SKIN | Skin | FACE | | Skin and subcutaneous tissue disorder | ACNE | Acne | -1 | BASELINE | -1 | 1999-06-06 | -3 |", "score": 0.4212, "match_basis": "verbatim_token+domain_route:PE"}, {"md_atom_id": "md_dmPE_ex_a009", "md_file": "knowledge_base/domains/PE/examples.md", "md_atom_type": "TABLE_ROW", "md_parent_section": "§PE.1 [Example 1]", "md_verbatim": "| 2 | ABC | PE | ABC-001-001 | 2 | | ENT | Ear/Nose/Throat | | | | NORMAL | NORMAL | -1 | BASELINE | -1 | 1999-06-06 | -3 |", "score": 0.4083, "match_basis": "verbatim_token+domain_route:PE"}, {"md_atom_id": "md_dmPE_ex_a008", "md_file": "knowledge_base/domains/PE/examples.md", "md_atom_type": "TABLE_ROW", "md_parent_section": "§PE.1 [Example 1]", "md_verbatim": "| 1 | ABC | PE | ABC-001-001 | 1 | | HEAD | Head | | | | NORMAL | NORMAL | -1 | BASELINE | -1 | 1999-06-06 | -3 |", "score": 0.4, "match_basis": "verbatim_token+domain_route:PE"}], "candidate_count": 5, "zero_candidate": false}
{"pdf_atom_id": "ig34_p0317_a008", "pdf_atom_type": "TABLE_ROW", "pdf_source": "SDTMIG_v3.4", "pdf_page": 317, "pdf_parent_section": "§6.3.8 Physical Examination (PE)", "pdf_verbatim": "| EPOCH | Epoch | Char | (EPOCH) | Timing | Epoch associated with the observation date/time of the physical exam finding. | Perm |", "figure_ref": null, "candidates": [{"md_atom_id": "md_dmPE_ex_a011", "md_file": "knowledge_base/domains/PE/examples.md", "md_atom_type": "TABLE_ROW", "md_parent_section": "§PE.1 [Example 1]", "md_verbatim": "| 4 | ABC | PE | ABC-001-001 | 4 | 2 | SKIN | Skin | HANDS | | Skin and subcutaneous tissue disorder | DERMATITIS | Dermatitis | -1 | BASELINE | -1 | 1999-06-06 | -3 |", "score": 0.4143, "match_basis": "verbatim_token+domain_route:PE"}, {"md_atom_id": "md_dmPE_ex_a008", "md_file": "knowledge_base/domains/PE/examples.md", "md_atom_type": "TABLE_ROW", "md_parent_section": "§PE.1 [Example 1]", "md_verbatim": "| 1 | ABC | PE | ABC-001-001 | 1 | | HEAD | Head | | | | NORMAL | NORMAL | -1 | BASELINE | -1 | 1999-06-06 | -3 |", "score": 0.4, "match_basis": "verbatim_token+domain_route:PE"}, {"md_atom_id": "md_dmPE_ex_a009", "md_file": "knowledge_base/domains/PE/examples.md", "md_atom_type": "TABLE_ROW", "md_parent_section": "§PE.1 [Example 1]", "md_verbatim": "| 2 | ABC | PE | ABC-001-001 | 2 | | ENT | Ear/Nose/Throat | | | | NORMAL | NORMAL | -1 | BASELINE | -1 | 1999-06-06 | -3 |", "score": 0.4, "match_basis": "verbatim_token+domain_route:PE"}, {"md_atom_id": "md_dmPE_ex_a010", "md_file": "knowledge_base/domains/PE/examples.md", "md_atom_type": "TABLE_ROW", "md_parent_section": "§PE.1 [Example 1]", "md_verbatim": "| 3 | ABC | PE | ABC-001-001 | 3 | 1 | SKIN | Skin | FACE | | Skin and subcutaneous tissue disorder | ACNE | Acne | -1 | BASELINE | -1 | 1999-06-06 | -3 |", "score": 0.4, "match_basis": "verbatim_token+domain_route:PE"}, {"md_atom_id": "md_dmPE_ex_a012", "md_file": "knowledge_base/domains/PE/examples.md", "md_atom_type": "TABLE_ROW", "md_parent_section": "§PE.1 [Example 1]", "md_verbatim": "| 5 | ABC | PE | ABC-001-001 | 5 | 3 | SKIN | Skin | ARM | LEFT | Skin and subcutaneous tissue disorder | SKIN RASH | Rash | -1 | BASELINE | -1 | 1999-06-06 | -3 |", "score": 0.4, "match_basis": "verbatim_token+domain_route:PE"}], "candidate_count": 5, "zero_candidate": false}
{"pdf_atom_id": "ig34_p0317_a009", "pdf_atom_type": "TABLE_ROW", "pdf_source": "SDTMIG_v3.4", "pdf_page": 317, "pdf_parent_section": "§6.3.8 Physical Examination (PE)", "pdf_verbatim": "| PEDTC | Date/Time of Examination | Char | ISO 8601 datetime or interval | Timing | Date and time of the physical examination represented in ISO 8601 character format. | Exp |", "figure_ref": null, "candidates": [{"md_atom_id": "md_dmPE_ex_a011", "md_file": "knowledge_base/domains/PE/examples.md", "md_atom_type": "TABLE_ROW", "md_parent_section": "§PE.1 [Example 1]", "md_verbatim": "| 4 | ABC | PE | ABC-001-001 | 4 | 2 | SKIN | Skin | HANDS | | Skin and subcutaneous tissue disorder | DERMATITIS | Dermatitis | -1 | BASELINE | -1 | 1999-06-06 | -3 |", "score": 0.4326, "match_basis": "verbatim_token+domain_route:PE"}, {"md_atom_id": "md_dmPE_ex_a009", "md_file": "knowledge_base/domains/PE/examples.md", "md_atom_type": "TABLE_ROW", "md_parent_section": "§PE.1 [Example 1]", "md_verbatim": "| 2 | ABC | PE | ABC-001-001 | 2 | | ENT | Ear/Nose/Throat | | | | NORMAL | NORMAL | -1 | BASELINE | -1 | 1999-06-06 | -3 |", "score": 0.424, "match_basis": "verbatim_token+domain_route:PE"}, {"md_atom_id": "md_dmPE_ex_a008", "md_file": "knowledge_base/domains/PE/examples.md", "md_atom_type": "TABLE_ROW", "md_parent_section": "§PE.1 [Example 1]", "md_verbatim": "| 1 | ABC | PE | ABC-001-001 | 1 | | HEAD | Head | | | | NORMAL | NORMAL | -1 | BASELINE | -1 | 1999-06-06 | -3 |", "score": 0.4171, "match_basis": "verbatim_token+domain_route:PE"}, {"md_atom_id": "md_dmPE_ex_a013", "md_file": "knowledge_base/domains/PE/examples.md", "md_atom_type": "TABLE_ROW", "md_parent_section": "§PE.1 [Example 1]", "md_verbatim": "| 6 | ABC | PE | ABC-001-001 | 6 | | HEART | Heart | | | | NORMAL | NORMAL | -1 | BASELINE | -1 | 1999-06-06 | -3 |", "score": 0.4169, "match_basis": "verbatim_token+domain_route:PE"}, {"md_atom_id": "md_dmPE_ex_a010", "md_file": "knowledge_base/domains/PE/examples.md", "md_atom_type": "TABLE_ROW", "md_parent_section": "§PE.1 [Example 1]", "md_verbatim": "| 3 | ABC | PE | ABC-001-001 | 3 | 1 | SKIN | Skin | FACE | | Skin and subcutaneous tissue disorder | ACNE | Acne | -1 | BASELINE | -1 | 1999-06-06 | -3 |", "score": 0.4132, "match_basis": "verbatim_token+domain_route:PE"}], "candidate_count": 5, "zero_candidate": false}
{"pdf_atom_id": "ig34_p0317_a010", "pdf_atom_type": "TABLE_ROW", "pdf_source": "SDTMIG_v3.4", "pdf_page": 317, "pdf_parent_section": "§6.3.8 Physical Examination (PE)", "pdf_verbatim": "| PEDY | Study Day of Examination | Num | | Timing | Study day of physical exam, measured as integer days. Algorithm for calculations must be relative to the sponsor-defined RFSTDTC variable in Demographics. | Perm |", "figure_ref": null, "candidates": [{"md_atom_id": "md_dmPE_ex_a011", "md_file": "knowledge_base/domains/PE/examples.md", "md_atom_type": "TABLE_ROW", "md_parent_section": "§PE.1 [Example 1]", "md_verbatim": "| 4 | ABC | PE | ABC-001-001 | 4 | 2 | SKIN | Skin | HANDS | | Skin and subcutaneous tissue disorder | DERMATITIS | Dermatitis | -1 | BASELINE | -1 | 1999-06-06 | -3 |", "score": 0.4189, "match_basis": "verbatim_token+domain_route:PE"}, {"md_atom_id": "md_dmPE_ex_a010", "md_file": "knowledge_base/domains/PE/examples.md", "md_atom_type": "TABLE_ROW", "md_parent_section": "§PE.1 [Example 1]", "md_verbatim": "| 3 | ABC | PE | ABC-001-001 | 3 | 1 | SKIN | Skin | FACE | | Skin and subcutaneous tissue disorder | ACNE | Acne | -1 | BASELINE | -1 | 1999-06-06 | -3 |", "score": 0.4096, "match_basis": "verbatim_token+domain_route:PE"}, {"md_atom_id": "md_dmPE_ex_a012", "md_file": "knowledge_base/domains/PE/examples.md", "md_atom_type": "TABLE_ROW", "md_parent_section": "§PE.1 [Example 1]", "md_verbatim": "| 5 | ABC | PE | ABC-001-001 | 5 | 3 | SKIN | Skin | ARM | LEFT | Skin and subcutaneous tissue disorder | SKIN RASH | Rash | -1 | BASELINE | -1 | 1999-06-06 | -3 |", "score": 0.4095, "match_basis": "verbatim_token+domain_route:PE"}, {"md_atom_id": "md_dmPE_ex_a008", "md_file": "knowledge_base/domains/PE/examples.md", "md_atom_type": "TABLE_ROW", "md_parent_section": "§PE.1 [Example 1]", "md_verbatim": "| 1 | ABC | PE | ABC-001-001 | 1 | | HEAD | Head | | | | NORMAL | NORMAL | -1 | BASELINE | -1 | 1999-06-06 | -3 |", "score": 0.4057, "match_basis": "verbatim_token+domain_route:PE"}, {"md_atom_id": "md_dmPE_ex_a013", "md_file": "knowledge_base/domains/PE/examples.md", "md_atom_type": "TABLE_ROW", "md_parent_section": "§PE.1 [Example 1]", "md_verbatim": "| 6 | ABC | PE | ABC-001-001 | 6 | | HEART | Heart | | | | NORMAL | NORMAL | -1 | BASELINE | -1 | 1999-06-06 | -3 |", "score": 0.4057, "match_basis": "verbatim_token+domain_route:PE"}], "candidate_count": 5, "zero_candidate": false}
{"pdf_atom_id": "ig34_p0317_a011", "pdf_atom_type": "NOTE", "pdf_source": "SDTMIG_v3.4", "pdf_page": 317, "pdf_parent_section": "§6.3.8 Physical Examination (PE)", "pdf_verbatim": "1In this column, an asterisk (*) indicates that the variable may be subject to controlled terminology. CDISC/NCI codelist values are enclosed in parentheses.", "figure_ref": null, "candidates": [{"md_atom_id": "md_dmPE_ex_a003", "md_file": "knowledge_base/domains/PE/examples.md", "md_atom_type": "SENTENCE", "md_parent_section": "§PE.1 [Example 1]", "md_verbatim": "This example shows data for 1 subject collected at 1 visit. The data come from a general physical examination.", "score": 0.3772, "match_basis": "verbatim_token+domain_route:PE"}, {"md_atom_id": "md_dmPE_ex_a005", "md_file": "knowledge_base/domains/PE/examples.md", "md_atom_type": "SENTENCE", "md_parent_section": "§PE.1 [Example 1]", "md_verbatim": "**Rows 3-5:** Show how PESPID is used to show the sponsor-defined identifier, which in this case is the CRF sequence number used for identifying abnormalities within a body system. Additionally, the abnormalities were encoded; PESTRESC represents the MedDRA Preferred Term and PEBODSYS represents the MedDRA system organ class.", "score": 0.3483, "match_basis": "verbatim_token+domain_route:PE"}, {"md_atom_id": "md_dmPE_assn_a003", "md_file": "knowledge_base/domains/PE/assumptions.md", "md_atom_type": "LIST_ITEM", "md_parent_section": "§PE [PE — Assumptions]", "md_verbatim": "2. Abnormalities observed during a physical examination may be encoded. When collected/reported as a PE finding, the verbatim value is represented in PEORRES and the encoded value in PESTRESC. When collected/reported as medical history or an adverse event, the verbatim value is represented in MHTERM or AETERM and the encoded value is represented in MHDECOD or AEDECOD, respectively.", "score": 0.3284, "match_basis": "verbatim_token+domain_route:PE"}, {"md_atom_id": "md_dmPE_ex_a004", "md_file": "knowledge_base/domains/PE/examples.md", "md_atom_type": "SENTENCE", "md_parent_section": "§PE.1 [Example 1]", "md_verbatim": "**Rows 1-2, 6:** Show how PESTRESC is populated if result is \"NORMAL\".", "score": 0.3159, "match_basis": "verbatim_token+domain_route:PE"}, {"md_atom_id": "md_dmPE_assn_a004", "md_file": "knowledge_base/domains/PE/assumptions.md", "md_atom_type": "LIST_ITEM", "md_parent_section": "§PE [PE — Assumptions]", "md_verbatim": "3. Any Identifiers, Timing variables, or Findings general observation class qualifiers may be added to the PE domain, but the following qualifiers would generally not be used: --XFN, --NAM, --LOINC, --FAST, --TOX, --TOXGR.", "score": 0.3121, "match_basis": "verbatim_token+domain_route:PE"}], "candidate_count": 5, "zero_candidate": false}
{"pdf_atom_id": "ig34_p0317_a012", "pdf_atom_type": "HEADING", "pdf_source": "SDTMIG_v3.4", "pdf_page": 317, "pdf_parent_section": "§6.3.8 Physical Examination (PE)", "pdf_verbatim": "PE – Assumptions", "figure_ref": null, "candidates": [{"md_atom_id": "md_dmPE_assn_a001", "md_file": "knowledge_base/domains/PE/assumptions.md", "md_atom_type": "HEADING", "md_parent_section": "§PE [PE — Assumptions]", "md_verbatim": "# PE — Assumptions", "score": 1.0, "match_basis": "verbatim_token+domain_route:PE"}, {"md_atom_id": "md_dmPE_ex_a001", "md_file": "knowledge_base/domains/PE/examples.md", "md_atom_type": "HEADING", "md_parent_section": "§PE [PE — Examples]", "md_verbatim": "# PE — Examples", "score": 0.4, "match_basis": "verbatim_token+domain_route:PE"}, {"md_atom_id": "md_dmPE_ex_a002", "md_file": "knowledge_base/domains/PE/examples.md", "md_atom_type": "HEADING", "md_parent_section": "§PE [PE — Examples]", "md_verbatim": "## Example 1", "score": 0.4, "match_basis": "verbatim_token+domain_route:PE"}], "candidate_count": 3, "zero_candidate": false}
{"pdf_atom_id": "ig34_p0317_a013", "pdf_atom_type": "LIST_ITEM", "pdf_source": "SDTMIG_v3.4", "pdf_page": 317, "pdf_parent_section": "§6.3.8 Physical Examination (PE)", "pdf_verbatim": "1. PE findings reflect the presence or absence of physical signs of disease or abnormality observed during a general physical examination. Multiple body systems are assessed during a physical examination, often starting at the head and ending at the toes, where the body is evaluated by inspection, palpation (feeling with the hands), percussion (tapping with fingers), and auscultation (listening). The examination often includes macro assessments (e.g., normal/abnormal) of appearance, general health, behavior, and body system review from head to toe.", "figure_ref": null, "candidates": [{"md_atom_id": "md_dmPE_assn_a002", "md_file": "knowledge_base/domains/PE/assumptions.md", "md_atom_type": "LIST_ITEM", "md_parent_section": "§PE [PE — Assumptions]", "md_verbatim": "1. PE findings reflect the presence or absence of physical signs of disease or abnormality observed during a general physical examination. Multiple body systems are assessed during a physical examination, often starting at the head and ending at the toes, where the body is evaluated by inspection, palpation (feeling with the hands), percussion (tapping with fingers), and auscultation (listening). The examination often includes macro assessments (e.g., normal/abnormal) of appearance, general health, behavior, and body system review from head to toe.\n   a. Evaluation of targeted body systems (e.g., cardiovascular, ophthalmic, reproductive) as part of therapeutic specific assessments should be represented in the appropriate body system domain (e.g., CV, OE, RP, respectively).\n   b. See CDASHIG Section 8.3.11, PE - Physical Examination (available at https://www.cdisc.org/standards/foundational/cdash/), for additional collection guidance.", "score": 0.7847, "match_basis": "verbatim_token+domain_route:PE"}, {"md_atom_id": "md_dmPE_assn_a003", "md_file": "knowledge_base/domains/PE/assumptions.md", "md_atom_type": "LIST_ITEM", "md_parent_section": "§PE [PE — Assumptions]", "md_verbatim": "2. Abnormalities observed during a physical examination may be encoded. When collected/reported as a PE finding, the verbatim value is represented in PEORRES and the encoded value in PESTRESC. When collected/reported as medical history or an adverse event, the verbatim value is represented in MHTERM or AETERM and the encoded value is represented in MHDECOD or AEDECOD, respectively.", "score": 0.5355, "match_basis": "verbatim_token+domain_route:PE"}, {"md_atom_id": "md_dmPE_assn_a004", "md_file": "knowledge_base/domains/PE/assumptions.md", "md_atom_type": "LIST_ITEM", "md_parent_section": "§PE [PE — Assumptions]", "md_verbatim": "3. Any Identifiers, Timing variables, or Findings general observation class qualifiers may be added to the PE domain, but the following qualifiers would generally not be used: --XFN, --NAM, --LOINC, --FAST, --TOX, --TOXGR.", "score": 0.4653, "match_basis": "verbatim_token+domain_route:PE"}, {"md_atom_id": "md_dmPE_ex_a003", "md_file": "knowledge_base/domains/PE/examples.md", "md_atom_type": "SENTENCE", "md_parent_section": "§PE.1 [Example 1]", "md_verbatim": "This example shows data for 1 subject collected at 1 visit. The data come from a general physical examination.", "score": 0.3883, "match_basis": "verbatim_token+domain_route:PE"}, {"md_atom_id": "md_dmPE_ex_a005", "md_file": "knowledge_base/domains/PE/examples.md", "md_atom_type": "SENTENCE", "md_parent_section": "§PE.1 [Example 1]", "md_verbatim": "**Rows 3-5:** Show how PESPID is used to show the sponsor-defined identifier, which in this case is the CRF sequence number used for identifying abnormalities within a body system. Additionally, the abnormalities were encoded; PESTRESC represents the MedDRA Preferred Term and PEBODSYS represents the MedDRA system organ class.", "score": 0.3878, "match_basis": "verbatim_token+domain_route:PE"}], "candidate_count": 5, "zero_candidate": false}
{"pdf_atom_id": "ig34_p0317_a014", "pdf_atom_type": "LIST_ITEM", "pdf_source": "SDTMIG_v3.4", "pdf_page": 317, "pdf_parent_section": "§6.3.8 Physical Examination (PE)", "pdf_verbatim": "a. Evaluation of targeted body systems (e.g., cardiovascular, ophthalmic, reproductive) as part of therapeutic specific assessments should be represented in the appropriate body system domain (e.g., CV, OE, RP, respectively).", "figure_ref": null, "candidates": [{"md_atom_id": "md_dmPE_assn_a002", "md_file": "knowledge_base/domains/PE/assumptions.md", "md_atom_type": "LIST_ITEM", "md_parent_section": "§PE [PE — Assumptions]", "md_verbatim": "1. PE findings reflect the presence or absence of physical signs of disease or abnormality observed during a general physical examination. Multiple body systems are assessed during a physical examination, often starting at the head and ending at the toes, where the body is evaluated by inspection, palpation (feeling with the hands), percussion (tapping with fingers), and auscultation (listening). The examination often includes macro assessments (e.g., normal/abnormal) of appearance, general health, behavior, and body system review from head to toe.\n   a. Evaluation of targeted body systems (e.g., cardiovascular, ophthalmic, reproductive) as part of therapeutic specific assessments should be represented in the appropriate body system domain (e.g., CV, OE, RP, respectively).\n   b. See CDASHIG Section 8.3.11, PE - Physical Examination (available at https://www.cdisc.org/standards/foundational/cdash/), for additional collection guidance.", "score": 0.6132, "match_basis": "verbatim_token+domain_route:PE"}, {"md_atom_id": "md_dmPE_assn_a003", "md_file": "knowledge_base/domains/PE/assumptions.md", "md_atom_type": "LIST_ITEM", "md_parent_section": "§PE [PE — Assumptions]", "md_verbatim": "2. Abnormalities observed during a physical examination may be encoded. When collected/reported as a PE finding, the verbatim value is represented in PEORRES and the encoded value in PESTRESC. When collected/reported as medical history or an adverse event, the verbatim value is represented in MHTERM or AETERM and the encoded value is represented in MHDECOD or AEDECOD, respectively.", "score": 0.4761, "match_basis": "verbatim_token+domain_route:PE"}, {"md_atom_id": "md_dmPE_assn_a004", "md_file": "knowledge_base/domains/PE/assumptions.md", "md_atom_type": "LIST_ITEM", "md_parent_section": "§PE [PE — Assumptions]", "md_verbatim": "3. Any Identifiers, Timing variables, or Findings general observation class qualifiers may be added to the PE domain, but the following qualifiers would generally not be used: --XFN, --NAM, --LOINC, --FAST, --TOX, --TOXGR.", "score": 0.4536, "match_basis": "verbatim_token+domain_route:PE"}, {"md_atom_id": "md_dmPE_ex_a005", "md_file": "knowledge_base/domains/PE/examples.md", "md_atom_type": "SENTENCE", "md_parent_section": "§PE.1 [Example 1]", "md_verbatim": "**Rows 3-5:** Show how PESPID is used to show the sponsor-defined identifier, which in this case is the CRF sequence number used for identifying abnormalities within a body system. Additionally, the abnormalities were encoded; PESTRESC represents the MedDRA Preferred Term and PEBODSYS represents the MedDRA system organ class.", "score": 0.3724, "match_basis": "verbatim_token+domain_route:PE"}, {"md_atom_id": "md_dmPE_ex_a003", "md_file": "knowledge_base/domains/PE/examples.md", "md_atom_type": "SENTENCE", "md_parent_section": "§PE.1 [Example 1]", "md_verbatim": "This example shows data for 1 subject collected at 1 visit. The data come from a general physical examination.", "score": 0.3433, "match_basis": "verbatim_token+domain_route:PE"}], "candidate_count": 5, "zero_candidate": false}
{"pdf_atom_id": "ig34_p0317_a015", "pdf_atom_type": "LIST_ITEM", "pdf_source": "SDTMIG_v3.4", "pdf_page": 317, "pdf_parent_section": "§6.3.8 Physical Examination (PE)", "pdf_verbatim": "b. See CDASHIG Section 8.3.11, PE - Physical Examination (available at https://www.cdisc.org/standards/foundational/cdash/), for additional collection guidance.", "figure_ref": null, "candidates": [{"md_atom_id": "md_dmPE_assn_a002", "md_file": "knowledge_base/domains/PE/assumptions.md", "md_atom_type": "LIST_ITEM", "md_parent_section": "§PE [PE — Assumptions]", "md_verbatim": "1. PE findings reflect the presence or absence of physical signs of disease or abnormality observed during a general physical examination. Multiple body systems are assessed during a physical examination, often starting at the head and ending at the toes, where the body is evaluated by inspection, palpation (feeling with the hands), percussion (tapping with fingers), and auscultation (listening). The examination often includes macro assessments (e.g., normal/abnormal) of appearance, general health, behavior, and body system review from head to toe.\n   a. Evaluation of targeted body systems (e.g., cardiovascular, ophthalmic, reproductive) as part of therapeutic specific assessments should be represented in the appropriate body system domain (e.g., CV, OE, RP, respectively).\n   b. See CDASHIG Section 8.3.11, PE - Physical Examination (available at https://www.cdisc.org/standards/foundational/cdash/), for additional collection guidance.", "score": 0.5401, "match_basis": "verbatim_token+domain_route:PE"}, {"md_atom_id": "md_dmPE_assn_a003", "md_file": "knowledge_base/domains/PE/assumptions.md", "md_atom_type": "LIST_ITEM", "md_parent_section": "§PE [PE — Assumptions]", "md_verbatim": "2. Abnormalities observed during a physical examination may be encoded. When collected/reported as a PE finding, the verbatim value is represented in PEORRES and the encoded value in PESTRESC. When collected/reported as medical history or an adverse event, the verbatim value is represented in MHTERM or AETERM and the encoded value is represented in MHDECOD or AEDECOD, respectively.", "score": 0.4841, "match_basis": "verbatim_token+domain_route:PE"}, {"md_atom_id": "md_dmPE_ex_a003", "md_file": "knowledge_base/domains/PE/examples.md", "md_atom_type": "SENTENCE", "md_parent_section": "§PE.1 [Example 1]", "md_verbatim": "This example shows data for 1 subject collected at 1 visit. The data come from a general physical examination.", "score": 0.4489, "match_basis": "verbatim_token+domain_route:PE"}, {"md_atom_id": "md_dmPE_assn_a004", "md_file": "knowledge_base/domains/PE/assumptions.md", "md_atom_type": "LIST_ITEM", "md_parent_section": "§PE [PE — Assumptions]", "md_verbatim": "3. Any Identifiers, Timing variables, or Findings general observation class qualifiers may be added to the PE domain, but the following qualifiers would generally not be used: --XFN, --NAM, --LOINC, --FAST, --TOX, --TOXGR.", "score": 0.4343, "match_basis": "verbatim_token+domain_route:PE"}, {"md_atom_id": "md_dmPE_ex_a005", "md_file": "knowledge_base/domains/PE/examples.md", "md_atom_type": "SENTENCE", "md_parent_section": "§PE.1 [Example 1]", "md_verbatim": "**Rows 3-5:** Show how PESPID is used to show the sponsor-defined identifier, which in this case is the CRF sequence number used for identifying abnormalities within a body system. Additionally, the abnormalities were encoded; PESTRESC represents the MedDRA Preferred Term and PEBODSYS represents the MedDRA system organ class.", "score": 0.3509, "match_basis": "verbatim_token+domain_route:PE"}], "candidate_count": 5, "zero_candidate": false}
{"pdf_atom_id": "ig34_p0317_a016", "pdf_atom_type": "LIST_ITEM", "pdf_source": "SDTMIG_v3.4", "pdf_page": 317, "pdf_parent_section": "§6.3.8 Physical Examination (PE)", "pdf_verbatim": "2. Abnormalities observed during a physical examination may be encoded. When collected/reported as a PE finding, the verbatim value is represented in PEORRES and the encoded value in PESTRESC. When collected/reported as medical history or an adverse event, the verbatim value is represented in MHTERM or AETERM and the encoded value is represented in MHDECOD or AEDECOD, respectively.", "figure_ref": null, "candidates": [{"md_atom_id": "md_dmPE_assn_a003", "md_file": "knowledge_base/domains/PE/assumptions.md", "md_atom_type": "LIST_ITEM", "md_parent_section": "§PE [PE — Assumptions]", "md_verbatim": "2. Abnormalities observed during a physical examination may be encoded. When collected/reported as a PE finding, the verbatim value is represented in PEORRES and the encoded value in PESTRESC. When collected/reported as medical history or an adverse event, the verbatim value is represented in MHTERM or AETERM and the encoded value is represented in MHDECOD or AEDECOD, respectively.", "score": 1.0, "match_basis": "verbatim_token+domain_route:PE"}, {"md_atom_id": "md_dmPE_assn_a002", "md_file": "knowledge_base/domains/PE/assumptions.md", "md_atom_type": "LIST_ITEM", "md_parent_section": "§PE [PE — Assumptions]", "md_verbatim": "1. PE findings reflect the presence or absence of physical signs of disease or abnormality observed during a general physical examination. Multiple body systems are assessed during a physical examination, often starting at the head and ending at the toes, where the body is evaluated by inspection, palpation (feeling with the hands), percussion (tapping with fingers), and auscultation (listening). The examination often includes macro assessments (e.g., normal/abnormal) of appearance, general health, behavior, and body system review from head to toe.\n   a. Evaluation of targeted body systems (e.g., cardiovascular, ophthalmic, reproductive) as part of therapeutic specific assessments should be represented in the appropriate body system domain (e.g., CV, OE, RP, respectively).\n   b. See CDASHIG Section 8.3.11, PE - Physical Examination (available at https://www.cdisc.org/standards/foundational/cdash/), for additional collection guidance.", "score": 0.5225, "match_basis": "verbatim_token+domain_route:PE"}, {"md_atom_id": "md_dmPE_assn_a004", "md_file": "knowledge_base/domains/PE/assumptions.md", "md_atom_type": "LIST_ITEM", "md_parent_section": "§PE [PE — Assumptions]", "md_verbatim": "3. Any Identifiers, Timing variables, or Findings general observation class qualifiers may be added to the PE domain, but the following qualifiers would generally not be used: --XFN, --NAM, --LOINC, --FAST, --TOX, --TOXGR.", "score": 0.47, "match_basis": "verbatim_token+domain_route:PE"}, {"md_atom_id": "md_dmPE_ex_a005", "md_file": "knowledge_base/domains/PE/examples.md", "md_atom_type": "SENTENCE", "md_parent_section": "§PE.1 [Example 1]", "md_verbatim": "**Rows 3-5:** Show how PESPID is used to show the sponsor-defined identifier, which in this case is the CRF sequence number used for identifying abnormalities within a body system. Additionally, the abnormalities were encoded; PESTRESC represents the MedDRA Preferred Term and PEBODSYS represents the MedDRA system organ class.", "score": 0.4294, "match_basis": "verbatim_token+domain_route:PE"}, {"md_atom_id": "md_dmPE_ex_a003", "md_file": "knowledge_base/domains/PE/examples.md", "md_atom_type": "SENTENCE", "md_parent_section": "§PE.1 [Example 1]", "md_verbatim": "This example shows data for 1 subject collected at 1 visit. The data come from a general physical examination.", "score": 0.4086, "match_basis": "verbatim_token+domain_route:PE"}], "candidate_count": 5, "zero_candidate": false}
{"pdf_atom_id": "ig34_p0317_a017", "pdf_atom_type": "LIST_ITEM", "pdf_source": "SDTMIG_v3.4", "pdf_page": 317, "pdf_parent_section": "§6.3.8 Physical Examination (PE)", "pdf_verbatim": "3. Any Identifiers, Timing variables, or Findings general observation class qualifiers may be added to the PE domain, but the following qualifiers would generally not be used: --XFN, --NAM, --LOINC, --FAST, --TOX, --TOXGR.", "figure_ref": null, "candidates": [{"md_atom_id": "md_dmPE_assn_a004", "md_file": "knowledge_base/domains/PE/assumptions.md", "md_atom_type": "LIST_ITEM", "md_parent_section": "§PE [PE — Assumptions]", "md_verbatim": "3. Any Identifiers, Timing variables, or Findings general observation class qualifiers may be added to the PE domain, but the following qualifiers would generally not be used: --XFN, --NAM, --LOINC, --FAST, --TOX, --TOXGR.", "score": 1.0, "match_basis": "verbatim_token+domain_route:PE"}, {"md_atom_id": "md_dmPE_assn_a003", "md_file": "knowledge_base/domains/PE/assumptions.md", "md_atom_type": "LIST_ITEM", "md_parent_section": "§PE [PE — Assumptions]", "md_verbatim": "2. Abnormalities observed during a physical examination may be encoded. When collected/reported as a PE finding, the verbatim value is represented in PEORRES and the encoded value in PESTRESC. When collected/reported as medical history or an adverse event, the verbatim value is represented in MHTERM or AETERM and the encoded value is represented in MHDECOD or AEDECOD, respectively.", "score": 0.47, "match_basis": "verbatim_token+domain_route:PE"}, {"md_atom_id": "md_dmPE_assn_a002", "md_file": "knowledge_base/domains/PE/assumptions.md", "md_atom_type": "LIST_ITEM", "md_parent_section": "§PE [PE — Assumptions]", "md_verbatim": "1. PE findings reflect the presence or absence of physical signs of disease or abnormality observed during a general physical examination. Multiple body systems are assessed during a physical examination, often starting at the head and ending at the toes, where the body is evaluated by inspection, palpation (feeling with the hands), percussion (tapping with fingers), and auscultation (listening). The examination often includes macro assessments (e.g., normal/abnormal) of appearance, general health, behavior, and body system review from head to toe.\n   a. Evaluation of targeted body systems (e.g., cardiovascular, ophthalmic, reproductive) as part of therapeutic specific assessments should be represented in the appropriate body system domain (e.g., CV, OE, RP, respectively).\n   b. See CDASHIG Section 8.3.11, PE - Physical Examination (available at https://www.cdisc.org/standards/foundational/cdash/), for additional collection guidance.", "score": 0.4691, "match_basis": "verbatim_token+domain_route:PE"}, {"md_atom_id": "md_dmPE_ex_a005", "md_file": "knowledge_base/domains/PE/examples.md", "md_atom_type": "SENTENCE", "md_parent_section": "§PE.1 [Example 1]", "md_verbatim": "**Rows 3-5:** Show how PESPID is used to show the sponsor-defined identifier, which in this case is the CRF sequence number used for identifying abnormalities within a body system. Additionally, the abnormalities were encoded; PESTRESC represents the MedDRA Preferred Term and PEBODSYS represents the MedDRA system organ class.", "score": 0.3871, "match_basis": "verbatim_token+domain_route:PE"}, {"md_atom_id": "md_dmPE_ex_a003", "md_file": "knowledge_base/domains/PE/examples.md", "md_atom_type": "SENTENCE", "md_parent_section": "§PE.1 [Example 1]", "md_verbatim": "This example shows data for 1 subject collected at 1 visit. The data come from a general physical examination.", "score": 0.365, "match_basis": "verbatim_token+domain_route:PE"}], "candidate_count": 5, "zero_candidate": false}
{"pdf_atom_id": "ig34_p0318_a001", "pdf_atom_type": "HEADING", "pdf_source": "SDTMIG_v3.4", "pdf_page": 318, "pdf_parent_section": "§6.3.8 Physical Examination (PE)", "pdf_verbatim": "PE – Examples", "figure_ref": null, "candidates": [{"md_atom_id": "md_dmPE_ex_a001", "md_file": "knowledge_base/domains/PE/examples.md", "md_atom_type": "HEADING", "md_parent_section": "§PE [PE — Examples]", "md_verbatim": "# PE — Examples", "score": 1.0, "match_basis": "verbatim_token+domain_route:PE"}, {"md_atom_id": "md_dmPE_ex_a002", "md_file": "knowledge_base/domains/PE/examples.md", "md_atom_type": "HEADING", "md_parent_section": "§PE [PE — Examples]", "md_verbatim": "## Example 1", "score": 0.9, "match_basis": "verbatim_token+domain_route:PE"}, {"md_atom_id": "md_dmPE_assn_a001", "md_file": "knowledge_base/domains/PE/assumptions.md", "md_atom_type": "HEADING", "md_parent_section": "§PE [PE — Assumptions]", "md_verbatim": "# PE — Assumptions", "score": 0.4, "match_basis": "verbatim_token+domain_route:PE"}], "candidate_count": 3, "zero_candidate": false}
{"pdf_atom_id": "ig34_p0318_a002", "pdf_atom_type": "HEADING", "pdf_source": "SDTMIG_v3.4", "pdf_page": 318, "pdf_parent_section": "§6.3.8 Physical Examination (PE)", "pdf_verbatim": "Example 1", "figure_ref": null, "candidates": [{"md_atom_id": "md_dmPE_ex_a002", "md_file": "knowledge_base/domains/PE/examples.md", "md_atom_type": "HEADING", "md_parent_section": "§PE [PE — Examples]", "md_verbatim": "## Example 1", "score": 1.0, "match_basis": "verbatim_token+domain_route:PE"}, {"md_atom_id": "md_dmPE_ex_a001", "md_file": "knowledge_base/domains/PE/examples.md", "md_atom_type": "HEADING", "md_parent_section": "§PE [PE — Examples]", "md_verbatim": "# PE — Examples", "score": 0.9, "match_basis": "verbatim_token+domain_route:PE"}, {"md_atom_id": "md_dmPE_assn_a001", "md_file": "knowledge_base/domains/PE/assumptions.md", "md_atom_type": "HEADING", "md_parent_section": "§PE [PE — Assumptions]", "md_verbatim": "# PE — Assumptions", "score": 0.4, "match_basis": "verbatim_token+domain_route:PE"}], "candidate_count": 3, "zero_candidate": false}
{"pdf_atom_id": "ig34_p0318_a003", "pdf_atom_type": "SENTENCE", "pdf_source": "SDTMIG_v3.4", "pdf_page": 318, "pdf_parent_section": "§6.3.8 Physical Examination (PE)", "pdf_verbatim": "This example shows data for 1 subject collected at 1 visit. The data come from a general physical examination.", "figure_ref": null, "candidates": [{"md_atom_id": "md_dmPE_ex_a003", "md_file": "knowledge_base/domains/PE/examples.md", "md_atom_type": "SENTENCE", "md_parent_section": "§PE.1 [Example 1]", "md_verbatim": "This example shows data for 1 subject collected at 1 visit. The data come from a general physical examination.", "score": 1.0, "match_basis": "verbatim_token+domain_route:PE"}, {"md_atom_id": "md_dmPE_ex_a004", "md_file": "knowledge_base/domains/PE/examples.md", "md_atom_type": "SENTENCE", "md_parent_section": "§PE.1 [Example 1]", "md_verbatim": "**Rows 1-2, 6:** Show how PESTRESC is populated if result is \"NORMAL\".", "score": 0.4343, "match_basis": "verbatim_token+domain_route:PE"}, {"md_atom_id": "md_dmPE_ex_a005", "md_file": "knowledge_base/domains/PE/examples.md", "md_atom_type": "SENTENCE", "md_parent_section": "§PE.1 [Example 1]", "md_verbatim": "**Rows 3-5:** Show how PESPID is used to show the sponsor-defined identifier, which in this case is the CRF sequence number used for identifying abnormalities within a body system. Additionally, the abnormalities were encoded; PESTRESC represents the MedDRA Preferred Term and PEBODSYS represents the MedDRA system organ class.", "score": 0.4333, "match_basis": "verbatim_token+domain_route:PE"}, {"md_atom_id": "md_dmPE_assn_a003", "md_file": "knowledge_base/domains/PE/assumptions.md", "md_atom_type": "LIST_ITEM", "md_parent_section": "§PE [PE — Assumptions]", "md_verbatim": "2. Abnormalities observed during a physical examination may be encoded. When collected/reported as a PE finding, the verbatim value is represented in PEORRES and the encoded value in PESTRESC. When collected/reported as medical history or an adverse event, the verbatim value is represented in MHTERM or AETERM and the encoded value is represented in MHDECOD or AEDECOD, respectively.", "score": 0.4086, "match_basis": "verbatim_token+domain_route:PE"}, {"md_atom_id": "md_dmPE_ex_a006", "md_file": "knowledge_base/domains/PE/examples.md", "md_atom_type": "SENTENCE", "md_parent_section": "§PE.1 [Example 1]", "md_verbatim": "**pe.xpt**", "score": 0.4, "match_basis": "verbatim_token+domain_route:PE"}], "candidate_count": 5, "zero_candidate": false}
{"pdf_atom_id": "ig34_p0318_a004", "pdf_atom_type": "LIST_ITEM", "pdf_source": "SDTMIG_v3.4", "pdf_page": 318, "pdf_parent_section": "§6.3.8 Physical Examination (PE)", "pdf_verbatim": "Rows 1-2, 6:\tShow how PESTRESC is populated if result is \"NORMAL\".", "figure_ref": null, "candidates": [{"md_atom_id": "md_dmPE_ex_a004", "md_file": "knowledge_base/domains/PE/examples.md", "md_atom_type": "SENTENCE", "md_parent_section": "§PE.1 [Example 1]", "md_verbatim": "**Rows 1-2, 6:** Show how PESTRESC is populated if result is \"NORMAL\".", "score": 0.91, "match_basis": "verbatim_token+domain_route:PE"}, {"md_atom_id": "md_dmPE_assn_a003", "md_file": "knowledge_base/domains/PE/assumptions.md", "md_atom_type": "LIST_ITEM", "md_parent_section": "§PE [PE — Assumptions]", "md_verbatim": "2. Abnormalities observed during a physical examination may be encoded. When collected/reported as a PE finding, the verbatim value is represented in PEORRES and the encoded value in PESTRESC. When collected/reported as medical history or an adverse event, the verbatim value is represented in MHTERM or AETERM and the encoded value is represented in MHDECOD or AEDECOD, respectively.", "score": 0.4496, "match_basis": "verbatim_token+domain_route:PE"}, {"md_atom_id": "md_dmPE_assn_a002", "md_file": "knowledge_base/domains/PE/assumptions.md", "md_atom_type": "LIST_ITEM", "md_parent_section": "§PE [PE — Assumptions]", "md_verbatim": "1. PE findings reflect the presence or absence of physical signs of disease or abnormality observed during a general physical examination. Multiple body systems are assessed during a physical examination, often starting at the head and ending at the toes, where the body is evaluated by inspection, palpation (feeling with the hands), percussion (tapping with fingers), and auscultation (listening). The examination often includes macro assessments (e.g., normal/abnormal) of appearance, general health, behavior, and body system review from head to toe.\n   a. Evaluation of targeted body systems (e.g., cardiovascular, ophthalmic, reproductive) as part of therapeutic specific assessments should be represented in the appropriate body system domain (e.g., CV, OE, RP, respectively).\n   b. See CDASHIG Section 8.3.11, PE - Physical Examination (available at https://www.cdisc.org/standards/foundational/cdash/), for additional collection guidance.", "score": 0.4199, "match_basis": "verbatim_token+domain_route:PE"}, {"md_atom_id": "md_dmPE_assn_a004", "md_file": "knowledge_base/domains/PE/assumptions.md", "md_atom_type": "LIST_ITEM", "md_parent_section": "§PE [PE — Assumptions]", "md_verbatim": "3. Any Identifiers, Timing variables, or Findings general observation class qualifiers may be added to the PE domain, but the following qualifiers would generally not be used: --XFN, --NAM, --LOINC, --FAST, --TOX, --TOXGR.", "score": 0.4, "match_basis": "verbatim_token+domain_route:PE"}, {"md_atom_id": "md_dmPE_ex_a005", "md_file": "knowledge_base/domains/PE/examples.md", "md_atom_type": "SENTENCE", "md_parent_section": "§PE.1 [Example 1]", "md_verbatim": "**Rows 3-5:** Show how PESPID is used to show the sponsor-defined identifier, which in this case is the CRF sequence number used for identifying abnormalities within a body system. Additionally, the abnormalities were encoded; PESTRESC represents the MedDRA Preferred Term and PEBODSYS represents the MedDRA system organ class.", "score": 0.3741, "match_basis": "verbatim_token+domain_route:PE"}], "candidate_count": 5, "zero_candidate": false}
{"pdf_atom_id": "ig34_p0318_a005", "pdf_atom_type": "LIST_ITEM", "pdf_source": "SDTMIG_v3.4", "pdf_page": 318, "pdf_parent_section": "§6.3.8 Physical Examination (PE)", "pdf_verbatim": "Rows 3-5:\tShow how PESPID is used to show the sponsor-defined identifier, which in this case is the CRF sequence number used for identifying abnormalities within a body system. Additionally, the abnormalities were encoded; PESTRESC represents the MedDRA Preferred Term and PEBODSYS represents the MedDRA system organ class.", "figure_ref": null, "candidates": [{"md_atom_id": "md_dmPE_ex_a005", "md_file": "knowledge_base/domains/PE/examples.md", "md_atom_type": "SENTENCE", "md_parent_section": "§PE.1 [Example 1]", "md_verbatim": "**Rows 3-5:** Show how PESPID is used to show the sponsor-defined identifier, which in this case is the CRF sequence number used for identifying abnormalities within a body system. Additionally, the abnormalities were encoded; PESTRESC represents the MedDRA Preferred Term and PEBODSYS represents the MedDRA system organ class.", "score": 0.91, "match_basis": "verbatim_token+domain_route:PE"}, {"md_atom_id": "md_dmPE_assn_a003", "md_file": "knowledge_base/domains/PE/assumptions.md", "md_atom_type": "LIST_ITEM", "md_parent_section": "§PE [PE — Assumptions]", "md_verbatim": "2. Abnormalities observed during a physical examination may be encoded. When collected/reported as a PE finding, the verbatim value is represented in PEORRES and the encoded value in PESTRESC. When collected/reported as medical history or an adverse event, the verbatim value is represented in MHTERM or AETERM and the encoded value is represented in MHDECOD or AEDECOD, respectively.", "score": 0.5194, "match_basis": "verbatim_token+domain_route:PE"}, {"md_atom_id": "md_dmPE_assn_a002", "md_file": "knowledge_base/domains/PE/assumptions.md", "md_atom_type": "LIST_ITEM", "md_parent_section": "§PE [PE — Assumptions]", "md_verbatim": "1. PE findings reflect the presence or absence of physical signs of disease or abnormality observed during a general physical examination. Multiple body systems are assessed during a physical examination, often starting at the head and ending at the toes, where the body is evaluated by inspection, palpation (feeling with the hands), percussion (tapping with fingers), and auscultation (listening). The examination often includes macro assessments (e.g., normal/abnormal) of appearance, general health, behavior, and body system review from head to toe.\n   a. Evaluation of targeted body systems (e.g., cardiovascular, ophthalmic, reproductive) as part of therapeutic specific assessments should be represented in the appropriate body system domain (e.g., CV, OE, RP, respectively).\n   b. See CDASHIG Section 8.3.11, PE - Physical Examination (available at https://www.cdisc.org/standards/foundational/cdash/), for additional collection guidance.", "score": 0.48, "match_basis": "verbatim_token+domain_route:PE"}, {"md_atom_id": "md_dmPE_assn_a004", "md_file": "knowledge_base/domains/PE/assumptions.md", "md_atom_type": "LIST_ITEM", "md_parent_section": "§PE [PE — Assumptions]", "md_verbatim": "3. Any Identifiers, Timing variables, or Findings general observation class qualifiers may be added to the PE domain, but the following qualifiers would generally not be used: --XFN, --NAM, --LOINC, --FAST, --TOX, --TOXGR.", "score": 0.4771, "match_basis": "verbatim_token+domain_route:PE"}, {"md_atom_id": "md_dmPE_ex_a004", "md_file": "knowledge_base/domains/PE/examples.md", "md_atom_type": "SENTENCE", "md_parent_section": "§PE.1 [Example 1]", "md_verbatim": "**Rows 1-2, 6:** Show how PESTRESC is populated if result is \"NORMAL\".", "score": 0.3741, "match_basis": "verbatim_token+domain_route:PE"}], "candidate_count": 5, "zero_candidate": false}
{"pdf_atom_id": "ig34_p0318_a006", "pdf_atom_type": "CODE_LITERAL", "pdf_source": "SDTMIG_v3.4", "pdf_page": 318, "pdf_parent_section": "§6.3.8 Physical Examination (PE)", "pdf_verbatim": "pe.xpt", "figure_ref": null, "candidates": [{"md_atom_id": "md_dmPE_ex_a006", "md_file": "knowledge_base/domains/PE/examples.md", "md_atom_type": "SENTENCE", "md_parent_section": "§PE.1 [Example 1]", "md_verbatim": "**pe.xpt**", "score": 0.79, "match_basis": "verbatim_token+domain_route:PE"}, {"md_atom_id": "md_dmPE_assn_a001", "md_file": "knowledge_base/domains/PE/assumptions.md", "md_atom_type": "HEADING", "md_parent_section": "§PE [PE — Assumptions]", "md_verbatim": "# PE — Assumptions", "score": 0.19, "match_basis": "verbatim_token+domain_route:PE"}, {"md_atom_id": "md_dmPE_assn_a002", "md_file": "knowledge_base/domains/PE/assumptions.md", "md_atom_type": "LIST_ITEM", "md_parent_section": "§PE [PE — Assumptions]", "md_verbatim": "1. PE findings reflect the presence or absence of physical signs of disease or abnormality observed during a general physical examination. Multiple body systems are assessed during a physical examination, often starting at the head and ending at the toes, where the body is evaluated by inspection, palpation (feeling with the hands), percussion (tapping with fingers), and auscultation (listening). The examination often includes macro assessments (e.g., normal/abnormal) of appearance, general health, behavior, and body system review from head to toe.\n   a. Evaluation of targeted body systems (e.g., cardiovascular, ophthalmic, reproductive) as part of therapeutic specific assessments should be represented in the appropriate body system domain (e.g., CV, OE, RP, respectively).\n   b. See CDASHIG Section 8.3.11, PE - Physical Examination (available at https://www.cdisc.org/standards/foundational/cdash/), for additional collection guidance.", "score": 0.19, "match_basis": "verbatim_token+domain_route:PE"}, {"md_atom_id": "md_dmPE_assn_a003", "md_file": "knowledge_base/domains/PE/assumptions.md", "md_atom_type": "LIST_ITEM", "md_parent_section": "§PE [PE — Assumptions]", "md_verbatim": "2. Abnormalities observed during a physical examination may be encoded. When collected/reported as a PE finding, the verbatim value is represented in PEORRES and the encoded value in PESTRESC. When collected/reported as medical history or an adverse event, the verbatim value is represented in MHTERM or AETERM and the encoded value is represented in MHDECOD or AEDECOD, respectively.", "score": 0.19, "match_basis": "verbatim_token+domain_route:PE"}, {"md_atom_id": "md_dmPE_assn_a004", "md_file": "knowledge_base/domains/PE/assumptions.md", "md_atom_type": "LIST_ITEM", "md_parent_section": "§PE [PE — Assumptions]", "md_verbatim": "3. Any Identifiers, Timing variables, or Findings general observation class qualifiers may be added to the PE domain, but the following qualifiers would generally not be used: --XFN, --NAM, --LOINC, --FAST, --TOX, --TOXGR.", "score": 0.19, "match_basis": "verbatim_token+domain_route:PE"}, {"md_atom_id": "md_dmPE_ex_a001", "md_file": "knowledge_base/domains/PE/examples.md", "md_atom_type": "HEADING", "md_parent_section": "§PE [PE — Examples]", "md_verbatim": "# PE — Examples", "score": 0.19, "match_basis": "verbatim_token+domain_route:PE"}, {"md_atom_id": "md_dmPE_ex_a002", "md_file": "knowledge_base/domains/PE/examples.md", "md_atom_type": "HEADING", "md_parent_section": "§PE [PE — Examples]", "md_verbatim": "## Example 1", "score": 0.19, "match_basis": "verbatim_token+domain_route:PE"}, {"md_atom_id": "md_dmPE_ex_a003", "md_file": "knowledge_base/domains/PE/examples.md", "md_atom_type": "SENTENCE", "md_parent_section": "§PE.1 [Example 1]", "md_verbatim": "This example shows data for 1 subject collected at 1 visit. The data come from a general physical examination.", "score": 0.19, "match_basis": "verbatim_token+domain_route:PE"}, {"md_atom_id": "md_dmPE_ex_a004", "md_file": "knowledge_base/domains/PE/examples.md", "md_atom_type": "SENTENCE", "md_parent_section": "§PE.1 [Example 1]", "md_verbatim": "**Rows 1-2, 6:** Show how PESTRESC is populated if result is \"NORMAL\".", "score": 0.19, "match_basis": "verbatim_token+domain_route:PE"}, {"md_atom_id": "md_dmPE_ex_a005", "md_file": "knowledge_base/domains/PE/examples.md", "md_atom_type": "SENTENCE", "md_parent_section": "§PE.1 [Example 1]", "md_verbatim": "**Rows 3-5:** Show how PESPID is used to show the sponsor-defined identifier, which in this case is the CRF sequence number used for identifying abnormalities within a body system. Additionally, the abnormalities were encoded; PESTRESC represents the MedDRA Preferred Term and PEBODSYS represents the MedDRA system organ class.", "score": 0.19, "match_basis": "verbatim_token+domain_route:PE"}], "candidate_count": 10, "zero_candidate": false}
{"pdf_atom_id": "ig34_p0318_a007", "pdf_atom_type": "TABLE_HEADER", "pdf_source": "SDTMIG_v3.4", "pdf_page": 318, "pdf_parent_section": "§6.3.8 Physical Examination (PE)", "pdf_verbatim": "| Row | STUDYID | DOMAIN | USUBJID | PESEQ | PESPID | PETESTCD | PETEST | PELOC | PELAT | PEBODSYS | PEORRES | PESTRESC | VISITNUM | VISIT | VISITDY | PEDTC | PEDY |", "figure_ref": null, "candidates": [{"md_atom_id": "md_dmPE_ex_a007", "md_file": "knowledge_base/domains/PE/examples.md", "md_atom_type": "TABLE_HEADER", "md_parent_section": "§PE.1 [Example 1]", "md_verbatim": "| Row | STUDYID | DOMAIN | USUBJID | PESEQ | PESPID | PETESTCD | PETEST | PELOC | PELAT | PEBODSYS | PEORRES | PESTRESC | VISITNUM | VISIT | VISITDY | PEDTC | PEDY |\n|-----|---------|--------|---------|-------|--------|----------|--------|-------|-------|----------|---------|----------|----------|-------|---------|-------|------|", "score": 1.0, "match_basis": "verbatim_token+domain_route:PE"}, {"md_atom_id": "md_dmPE_ex_a010", "md_file": "knowledge_base/domains/PE/examples.md", "md_atom_type": "TABLE_ROW", "md_parent_section": "§PE.1 [Example 1]", "md_verbatim": "| 3 | ABC | PE | ABC-001-001 | 3 | 1 | SKIN | Skin | FACE | | Skin and subcutaneous tissue disorder | ACNE | Acne | -1 | BASELINE | -1 | 1999-06-06 | -3 |", "score": 0.3464, "match_basis": "verbatim_token+domain_route:PE"}, {"md_atom_id": "md_dmPE_ex_a012", "md_file": "knowledge_base/domains/PE/examples.md", "md_atom_type": "TABLE_ROW", "md_parent_section": "§PE.1 [Example 1]", "md_verbatim": "| 5 | ABC | PE | ABC-001-001 | 5 | 3 | SKIN | Skin | ARM | LEFT | Skin and subcutaneous tissue disorder | SKIN RASH | Rash | -1 | BASELINE | -1 | 1999-06-06 | -3 |", "score": 0.3463, "match_basis": "verbatim_token+domain_route:PE"}, {"md_atom_id": "md_dmPE_ex_a011", "md_file": "knowledge_base/domains/PE/examples.md", "md_atom_type": "TABLE_ROW", "md_parent_section": "§PE.1 [Example 1]", "md_verbatim": "| 4 | ABC | PE | ABC-001-001 | 4 | 2 | SKIN | Skin | HANDS | | Skin and subcutaneous tissue disorder | DERMATITIS | Dermatitis | -1 | BASELINE | -1 | 1999-06-06 | -3 |", "score": 0.3461, "match_basis": "verbatim_token+domain_route:PE"}, {"md_atom_id": "md_dmPE_ex_a008", "md_file": "knowledge_base/domains/PE/examples.md", "md_atom_type": "TABLE_ROW", "md_parent_section": "§PE.1 [Example 1]", "md_verbatim": "| 1 | ABC | PE | ABC-001-001 | 1 | | HEAD | Head | | | | NORMAL | NORMAL | -1 | BASELINE | -1 | 1999-06-06 | -3 |", "score": 0.34, "match_basis": "verbatim_token+domain_route:PE"}], "candidate_count": 5, "zero_candidate": false}
{"pdf_atom_id": "ig34_p0318_a008", "pdf_atom_type": "TABLE_ROW", "pdf_source": "SDTMIG_v3.4", "pdf_page": 318, "pdf_parent_section": "§6.3.8 Physical Examination (PE)", "pdf_verbatim": "| 1 | ABC | PE | ABC-001-001 | 1 | | HEAD | Head | | | | NORMAL | NORMAL | -1 | BASELINE | -1 | 1999-06-06 | -3 |", "figure_ref": null, "candidates": [{"md_atom_id": "md_dmPE_ex_a008", "md_file": "knowledge_base/domains/PE/examples.md", "md_atom_type": "TABLE_ROW", "md_parent_section": "§PE.1 [Example 1]", "md_verbatim": "| 1 | ABC | PE | ABC-001-001 | 1 | | HEAD | Head | | | | NORMAL | NORMAL | -1 | BASELINE | -1 | 1999-06-06 | -3 |", "score": 1.0, "match_basis": "verbatim_token+domain_route:PE"}, {"md_atom_id": "md_dmPE_ex_a013", "md_file": "knowledge_base/domains/PE/examples.md", "md_atom_type": "TABLE_ROW", "md_parent_section": "§PE.1 [Example 1]", "md_verbatim": "| 6 | ABC | PE | ABC-001-001 | 6 | | HEART | Heart | | | | NORMAL | NORMAL | -1 | BASELINE | -1 | 1999-06-06 | -3 |", "score": 0.9, "match_basis": "verbatim_token+domain_route:PE"}, {"md_atom_id": "md_dmPE_ex_a009", "md_file": "knowledge_base/domains/PE/examples.md", "md_atom_type": "TABLE_ROW", "md_parent_section": "§PE.1 [Example 1]", "md_verbatim": "| 2 | ABC | PE | ABC-001-001 | 2 | | ENT | Ear/Nose/Throat | | | | NORMAL | NORMAL | -1 | BASELINE | -1 | 1999-06-06 | -3 |", "score": 0.75, "match_basis": "verbatim_token+domain_route:PE"}, {"md_atom_id": "md_dmPE_ex_a011", "md_file": "knowledge_base/domains/PE/examples.md", "md_atom_type": "TABLE_ROW", "md_parent_section": "§PE.1 [Example 1]", "md_verbatim": "| 4 | ABC | PE | ABC-001-001 | 4 | 2 | SKIN | Skin | HANDS | | Skin and subcutaneous tissue disorder | DERMATITIS | Dermatitis | -1 | BASELINE | -1 | 1999-06-06 | -3 |", "score": 0.5435, "match_basis": "verbatim_token+domain_route:PE"}, {"md_atom_id": "md_dmPE_ex_a010", "md_file": "knowledge_base/domains/PE/examples.md", "md_atom_type": "TABLE_ROW", "md_parent_section": "§PE.1 [Example 1]", "md_verbatim": "| 3 | ABC | PE | ABC-001-001 | 3 | 1 | SKIN | Skin | FACE | | Skin and subcutaneous tissue disorder | ACNE | Acne | -1 | BASELINE | -1 | 1999-06-06 | -3 |", "score": 0.5395, "match_basis": "verbatim_token+domain_route:PE"}], "candidate_count": 5, "zero_candidate": false}
{"pdf_atom_id": "ig34_p0318_a009", "pdf_atom_type": "TABLE_ROW", "pdf_source": "SDTMIG_v3.4", "pdf_page": 318, "pdf_parent_section": "§6.3.8 Physical Examination (PE)", "pdf_verbatim": "| 2 | ABC | PE | ABC-001-001 | 2 | | ENT | Ear/Nose/Throat | | | | NORMAL | NORMAL | -1 | BASELINE | -1 | 1999-06-06 | -3 |", "figure_ref": null, "candidates": [{"md_atom_id": "md_dmPE_ex_a009", "md_file": "knowledge_base/domains/PE/examples.md", "md_atom_type": "TABLE_ROW", "md_parent_section": "§PE.1 [Example 1]", "md_verbatim": "| 2 | ABC | PE | ABC-001-001 | 2 | | ENT | Ear/Nose/Throat | | | | NORMAL | NORMAL | -1 | BASELINE | -1 | 1999-06-06 | -3 |", "score": 1.0, "match_basis": "verbatim_token+domain_route:PE"}, {"md_atom_id": "md_dmPE_ex_a013", "md_file": "knowledge_base/domains/PE/examples.md", "md_atom_type": "TABLE_ROW", "md_parent_section": "§PE.1 [Example 1]", "md_verbatim": "| 6 | ABC | PE | ABC-001-001 | 6 | | HEART | Heart | | | | NORMAL | NORMAL | -1 | BASELINE | -1 | 1999-06-06 | -3 |", "score": 0.775, "match_basis": "verbatim_token+domain_route:PE"}, {"md_atom_id": "md_dmPE_ex_a008", "md_file": "knowledge_base/domains/PE/examples.md", "md_atom_type": "TABLE_ROW", "md_parent_section": "§PE.1 [Example 1]", "md_verbatim": "| 1 | ABC | PE | ABC-001-001 | 1 | | HEAD | Head | | | | NORMAL | NORMAL | -1 | BASELINE | -1 | 1999-06-06 | -3 |", "score": 0.75, "match_basis": "verbatim_token+domain_route:PE"}, {"md_atom_id": "md_dmPE_ex_a011", "md_file": "knowledge_base/domains/PE/examples.md", "md_atom_type": "TABLE_ROW", "md_parent_section": "§PE.1 [Example 1]", "md_verbatim": "| 4 | ABC | PE | ABC-001-001 | 4 | 2 | SKIN | Skin | HANDS | | Skin and subcutaneous tissue disorder | DERMATITIS | Dermatitis | -1 | BASELINE | -1 | 1999-06-06 | -3 |", "score": 0.5269, "match_basis": "verbatim_token+domain_route:PE"}, {"md_atom_id": "md_dmPE_ex_a010", "md_file": "knowledge_base/domains/PE/examples.md", "md_atom_type": "TABLE_ROW", "md_parent_section": "§PE.1 [Example 1]", "md_verbatim": "| 3 | ABC | PE | ABC-001-001 | 3 | 1 | SKIN | Skin | FACE | | Skin and subcutaneous tissue disorder | ACNE | Acne | -1 | BASELINE | -1 | 1999-06-06 | -3 |", "score": 0.5224, "match_basis": "verbatim_token+domain_route:PE"}], "candidate_count": 5, "zero_candidate": false}
{"pdf_atom_id": "ig34_p0318_a010", "pdf_atom_type": "TABLE_ROW", "pdf_source": "SDTMIG_v3.4", "pdf_page": 318, "pdf_parent_section": "§6.3.8 Physical Examination (PE)", "pdf_verbatim": "| 3 | ABC | PE | ABC-001-001 | 3 | 1 | SKIN | Skin | FACE | | Skin and subcutaneous tissue disorder | ACNE | Acne | -1 | BASELINE | -1 | 1999-06-06 | -3 |", "figure_ref": null, "candidates": [{"md_atom_id": "md_dmPE_ex_a010", "md_file": "knowledge_base/domains/PE/examples.md", "md_atom_type": "TABLE_ROW", "md_parent_section": "§PE.1 [Example 1]", "md_verbatim": "| 3 | ABC | PE | ABC-001-001 | 3 | 1 | SKIN | Skin | FACE | | Skin and subcutaneous tissue disorder | ACNE | Acne | -1 | BASELINE | -1 | 1999-06-06 | -3 |", "score": 1.0, "match_basis": "verbatim_token+domain_route:PE"}, {"md_atom_id": "md_dmPE_ex_a012", "md_file": "knowledge_base/domains/PE/examples.md", "md_atom_type": "TABLE_ROW", "md_parent_section": "§PE.1 [Example 1]", "md_verbatim": "| 5 | ABC | PE | ABC-001-001 | 5 | 3 | SKIN | Skin | ARM | LEFT | Skin and subcutaneous tissue disorder | SKIN RASH | Rash | -1 | BASELINE | -1 | 1999-06-06 | -3 |", "score": 0.8714, "match_basis": "verbatim_token+domain_route:PE"}, {"md_atom_id": "md_dmPE_ex_a011", "md_file": "knowledge_base/domains/PE/examples.md", "md_atom_type": "TABLE_ROW", "md_parent_section": "§PE.1 [Example 1]", "md_verbatim": "| 4 | ABC | PE | ABC-001-001 | 4 | 2 | SKIN | Skin | HANDS | | Skin and subcutaneous tissue disorder | DERMATITIS | Dermatitis | -1 | BASELINE | -1 | 1999-06-06 | -3 |", "score": 0.84, "match_basis": "verbatim_token+domain_route:PE"}, {"md_atom_id": "md_dmPE_ex_a008", "md_file": "knowledge_base/domains/PE/examples.md", "md_atom_type": "TABLE_ROW", "md_parent_section": "§PE.1 [Example 1]", "md_verbatim": "| 1 | ABC | PE | ABC-001-001 | 1 | | HEAD | Head | | | | NORMAL | NORMAL | -1 | BASELINE | -1 | 1999-06-06 | -3 |", "score": 0.5395, "match_basis": "verbatim_token+domain_route:PE"}, {"md_atom_id": "md_dmPE_ex_a013", "md_file": "knowledge_base/domains/PE/examples.md", "md_atom_type": "TABLE_ROW", "md_parent_section": "§PE.1 [Example 1]", "md_verbatim": "| 6 | ABC | PE | ABC-001-001 | 6 | | HEART | Heart | | | | NORMAL | NORMAL | -1 | BASELINE | -1 | 1999-06-06 | -3 |", "score": 0.5364, "match_basis": "verbatim_token+domain_route:PE"}], "candidate_count": 5, "zero_candidate": false}
{"pdf_atom_id": "ig34_p0318_a011", "pdf_atom_type": "TABLE_ROW", "pdf_source": "SDTMIG_v3.4", "pdf_page": 318, "pdf_parent_section": "§6.3.8 Physical Examination (PE)", "pdf_verbatim": "| 4 | ABC | PE | ABC-001-001 | 4 | 2 | SKIN | Skin | HANDS | | Skin and subcutaneous tissue disorder | DERMATITIS | Dermatitis | -1 | BASELINE | -1 | 1999-06-06 | -3 |", "figure_ref": null, "candidates": [{"md_atom_id": "md_dmPE_ex_a011", "md_file": "knowledge_base/domains/PE/examples.md", "md_atom_type": "TABLE_ROW", "md_parent_section": "§PE.1 [Example 1]", "md_verbatim": "| 4 | ABC | PE | ABC-001-001 | 4 | 2 | SKIN | Skin | HANDS | | Skin and subcutaneous tissue disorder | DERMATITIS | Dermatitis | -1 | BASELINE | -1 | 1999-06-06 | -3 |", "score": 1.0, "match_basis": "verbatim_token+domain_route:PE"}, {"md_atom_id": "md_dmPE_ex_a010", "md_file": "knowledge_base/domains/PE/examples.md", "md_atom_type": "TABLE_ROW", "md_parent_section": "§PE.1 [Example 1]", "md_verbatim": "| 3 | ABC | PE | ABC-001-001 | 3 | 1 | SKIN | Skin | FACE | | Skin and subcutaneous tissue disorder | ACNE | Acne | -1 | BASELINE | -1 | 1999-06-06 | -3 |", "score": 0.84, "match_basis": "verbatim_token+domain_route:PE"}, {"md_atom_id": "md_dmPE_ex_a012", "md_file": "knowledge_base/domains/PE/examples.md", "md_atom_type": "TABLE_ROW", "md_parent_section": "§PE.1 [Example 1]", "md_verbatim": "| 5 | ABC | PE | ABC-001-001 | 5 | 3 | SKIN | Skin | ARM | LEFT | Skin and subcutaneous tissue disorder | SKIN RASH | Rash | -1 | BASELINE | -1 | 1999-06-06 | -3 |", "score": 0.8304, "match_basis": "verbatim_token+domain_route:PE"}, {"md_atom_id": "md_dmPE_ex_a008", "md_file": "knowledge_base/domains/PE/examples.md", "md_atom_type": "TABLE_ROW", "md_parent_section": "§PE.1 [Example 1]", "md_verbatim": "| 1 | ABC | PE | ABC-001-001 | 1 | | HEAD | Head | | | | NORMAL | NORMAL | -1 | BASELINE | -1 | 1999-06-06 | -3 |", "score": 0.5435, "match_basis": "verbatim_token+domain_route:PE"}, {"md_atom_id": "md_dmPE_ex_a013", "md_file": "knowledge_base/domains/PE/examples.md", "md_atom_type": "TABLE_ROW", "md_parent_section": "§PE.1 [Example 1]", "md_verbatim": "| 6 | ABC | PE | ABC-001-001 | 6 | | HEART | Heart | | | | NORMAL | NORMAL | -1 | BASELINE | -1 | 1999-06-06 | -3 |", "score": 0.5404, "match_basis": "verbatim_token+domain_route:PE"}], "candidate_count": 5, "zero_candidate": false}
{"pdf_atom_id": "ig34_p0318_a012", "pdf_atom_type": "TABLE_ROW", "pdf_source": "SDTMIG_v3.4", "pdf_page": 318, "pdf_parent_section": "§6.3.8 Physical Examination (PE)", "pdf_verbatim": "| 5 | ABC | PE | ABC-001-001 | 5 | 3 | SKIN | Skin | ARM | LEFT | Skin and subcutaneous tissue disorder | SKIN RASH | Rash | -1 | BASELINE | -1 | 1999-06-06 | -3 |", "figure_ref": null, "candidates": [{"md_atom_id": "md_dmPE_ex_a012", "md_file": "knowledge_base/domains/PE/examples.md", "md_atom_type": "TABLE_ROW", "md_parent_section": "§PE.1 [Example 1]", "md_verbatim": "| 5 | ABC | PE | ABC-001-001 | 5 | 3 | SKIN | Skin | ARM | LEFT | Skin and subcutaneous tissue disorder | SKIN RASH | Rash | -1 | BASELINE | -1 | 1999-06-06 | -3 |", "score": 1.0, "match_basis": "verbatim_token+domain_route:PE"}, {"md_atom_id": "md_dmPE_ex_a010", "md_file": "knowledge_base/domains/PE/examples.md", "md_atom_type": "TABLE_ROW", "md_parent_section": "§PE.1 [Example 1]", "md_verbatim": "| 3 | ABC | PE | ABC-001-001 | 3 | 1 | SKIN | Skin | FACE | | Skin and subcutaneous tissue disorder | ACNE | Acne | -1 | BASELINE | -1 | 1999-06-06 | -3 |", "score": 0.8714, "match_basis": "verbatim_token+domain_route:PE"}, {"md_atom_id": "md_dmPE_ex_a011", "md_file": "knowledge_base/domains/PE/examples.md", "md_atom_type": "TABLE_ROW", "md_parent_section": "§PE.1 [Example 1]", "md_verbatim": "| 4 | ABC | PE | ABC-001-001 | 4 | 2 | SKIN | Skin | HANDS | | Skin and subcutaneous tissue disorder | DERMATITIS | Dermatitis | -1 | BASELINE | -1 | 1999-06-06 | -3 |", "score": 0.8304, "match_basis": "verbatim_token+domain_route:PE"}, {"md_atom_id": "md_dmPE_ex_a008", "md_file": "knowledge_base/domains/PE/examples.md", "md_atom_type": "TABLE_ROW", "md_parent_section": "§PE.1 [Example 1]", "md_verbatim": "| 1 | ABC | PE | ABC-001-001 | 1 | | HEAD | Head | | | | NORMAL | NORMAL | -1 | BASELINE | -1 | 1999-06-06 | -3 |", "score": 0.5364, "match_basis": "verbatim_token+domain_route:PE"}, {"md_atom_id": "md_dmPE_ex_a013", "md_file": "knowledge_base/domains/PE/examples.md", "md_atom_type": "TABLE_ROW", "md_parent_section": "§PE.1 [Example 1]", "md_verbatim": "| 6 | ABC | PE | ABC-001-001 | 6 | | HEART | Heart | | | | NORMAL | NORMAL | -1 | BASELINE | -1 | 1999-06-06 | -3 |", "score": 0.5333, "match_basis": "verbatim_token+domain_route:PE"}], "candidate_count": 5, "zero_candidate": false}
{"pdf_atom_id": "ig34_p0318_a013", "pdf_atom_type": "TABLE_ROW", "pdf_source": "SDTMIG_v3.4", "pdf_page": 318, "pdf_parent_section": "§6.3.8 Physical Examination (PE)", "pdf_verbatim": "| 6 | ABC | PE | ABC-001-001 | 6 | | HEART | Heart | | | | NORMAL | NORMAL | -1 | BASELINE | -1 | 1999-06-06 | -3 |", "figure_ref": null, "candidates": [{"md_atom_id": "md_dmPE_ex_a013", "md_file": "knowledge_base/domains/PE/examples.md", "md_atom_type": "TABLE_ROW", "md_parent_section": "§PE.1 [Example 1]", "md_verbatim": "| 6 | ABC | PE | ABC-001-001 | 6 | | HEART | Heart | | | | NORMAL | NORMAL | -1 | BASELINE | -1 | 1999-06-06 | -3 |", "score": 1.0, "match_basis": "verbatim_token+domain_route:PE"}, {"md_atom_id": "md_dmPE_ex_a008", "md_file": "knowledge_base/domains/PE/examples.md", "md_atom_type": "TABLE_ROW", "md_parent_section": "§PE.1 [Example 1]", "md_verbatim": "| 1 | ABC | PE | ABC-001-001 | 1 | | HEAD | Head | | | | NORMAL | NORMAL | -1 | BASELINE | -1 | 1999-06-06 | -3 |", "score": 0.9, "match_basis": "verbatim_token+domain_route:PE"}, {"md_atom_id": "md_dmPE_ex_a009", "md_file": "knowledge_base/domains/PE/examples.md", "md_atom_type": "TABLE_ROW", "md_parent_section": "§PE.1 [Example 1]", "md_verbatim": "| 2 | ABC | PE | ABC-001-001 | 2 | | ENT | Ear/Nose/Throat | | | | NORMAL | NORMAL | -1 | BASELINE | -1 | 1999-06-06 | -3 |", "score": 0.775, "match_basis": "verbatim_token+domain_route:PE"}, {"md_atom_id": "md_dmPE_ex_a011", "md_file": "knowledge_base/domains/PE/examples.md", "md_atom_type": "TABLE_ROW", "md_parent_section": "§PE.1 [Example 1]", "md_verbatim": "| 4 | ABC | PE | ABC-001-001 | 4 | 2 | SKIN | Skin | HANDS | | Skin and subcutaneous tissue disorder | DERMATITIS | Dermatitis | -1 | BASELINE | -1 | 1999-06-06 | -3 |", "score": 0.5404, "match_basis": "verbatim_token+domain_route:PE"}, {"md_atom_id": "md_dmPE_ex_a010", "md_file": "knowledge_base/domains/PE/examples.md", "md_atom_type": "TABLE_ROW", "md_parent_section": "§PE.1 [Example 1]", "md_verbatim": "| 3 | ABC | PE | ABC-001-001 | 3 | 1 | SKIN | Skin | FACE | | Skin and subcutaneous tissue disorder | ACNE | Acne | -1 | BASELINE | -1 | 1999-06-06 | -3 |", "score": 0.5364, "match_basis": "verbatim_token+domain_route:PE"}], "candidate_count": 5, "zero_candidate": false}
{"pdf_atom_id": "ig34_p0318_a014", "pdf_atom_type": "HEADING", "pdf_source": "SDTMIG_v3.4", "pdf_page": 318, "pdf_parent_section": "§6.3 [MODELS FOR FINDINGS DOMAINS]", "pdf_verbatim": "6.3.9 Questionnaires, Ratings, and Scales (QRS) Domains (FT, QS, RS)", "figure_ref": null, "candidates": [{"md_atom_id": "md_varindex_a1212", "md_file": "knowledge_base/VARIABLE_INDEX.md", "md_atom_type": "HEADING", "md_parent_section": "§ 二、领域专属变量（仅 1 个域，共 1499 个），按域分组", "md_verbatim": "### QS — Questionnaires (Findings)", "score": 0.5625, "match_basis": "verbatim_token+global_search"}, {"md_atom_id": "md_ch04_a069", "md_file": "knowledge_base/chapters/ch04_general_assumptions.md", "md_atom_type": "HEADING", "md_parent_section": "§4.1.7 [Splitting Domains]", "md_verbatim": "#### 4.1.7.1 Example of Splitting Questionnaires", "score": 0.5211, "match_basis": "verbatim_token+global_search"}, {"md_atom_id": "md_index_a130", "md_file": "knowledge_base/INDEX.md", "md_atom_type": "HEADING", "md_parent_section": "§ Terminology (91 files)", "md_verbatim": "### Questionnaires Terminology (43 files)", "score": 0.5, "match_basis": "verbatim_token+global_search"}, {"md_atom_id": "md_index_a096", "md_file": "knowledge_base/INDEX.md", "md_atom_type": "HEADING", "md_parent_section": "§ Domains (63 domains)", "md_verbatim": "### Relationship Domains", "score": 0.4371, "match_basis": "verbatim_token+global_search"}, {"md_atom_id": "md_ch02_a079", "md_file": "knowledge_base/chapters/ch02_fundamentals.md", "md_atom_type": "HEADING", "md_parent_section": "§2 [Fundamentals of the SDTM]", "md_verbatim": "## 2.6 Creating a New Domain", "score": 0.4313, "match_basis": "verbatim_token+global_search"}], "candidate_count": 5, "zero_candidate": false}
{"pdf_atom_id": "ig34_p0318_a015", "pdf_atom_type": "SENTENCE", "pdf_source": "SDTMIG_v3.4", "pdf_page": 318, "pdf_parent_section": "§6.3.9 Questionnaires, Ratings, and Scales (QRS) Domains (FT, QS, RS)", "pdf_verbatim": "This section includes domains used to represent data from questionnaires, ratings, and scales (QRS). The Functional Tests (FT) and Questionnaires (QS) sections each provide an overview, specifications, assumptions, and examples for these domains.", "figure_ref": null, "candidates": [{"md_atom_id": "md_dmFT_assn_a006", "md_file": "knowledge_base/domains/FT/assumptions.md", "md_atom_type": "SENTENCE", "md_parent_section": "§FT [FT — Assumptions]", "md_verbatim": "The following assumptions are common to the FT and QS domains as well as the Clinical Classifications use case of the RS domain (not the Disease Response use case of RS):", "score": 0.519, "match_basis": "verbatim_token+domain_route:FT"}, {"md_atom_id": "md_dmFT_ex_a005", "md_file": "knowledge_base/domains/FT/examples.md", "md_atom_type": "SENTENCE", "md_parent_section": "§FT.1 [Example 1]", "md_verbatim": "The example represents the distance (in meters) that were walked at each minute of the 6-Minute Walk Test. The assistive device the subject used during the test is represented in the SUPPFT dataset.", "score": 0.5064, "match_basis": "verbatim_token+domain_route:FT"}, {"md_atom_id": "md_dmFT_ex_a002", "md_file": "knowledge_base/domains/FT/examples.md", "md_atom_type": "SENTENCE", "md_parent_section": "§FT [FT — Examples]", "md_verbatim": "CDISC publishes supplements for individual functional tests (at https://www.cdisc.org/standards/foundational/qrs). Additional FT examples can be found in supplements on that webpage.", "score": 0.5049, "match_basis": "verbatim_token+domain_route:FT"}, {"md_atom_id": "md_dmFT_ex_a014", "md_file": "knowledge_base/domains/FT/examples.md", "md_atom_type": "SENTENCE", "md_parent_section": "§FT.1 [Example 1]", "md_verbatim": "The suppft.xpt dataset represents that the subject used a cane while performing the 6 Minute Walk Test. In this example, FTGRPID is used to link this SUPPFT record to the 6 result records in FT. FTGRPID groups the FT records together by FTCAT and VISITNUM for an USUBJID.", "score": 0.4975, "match_basis": "verbatim_token+domain_route:FT"}, {"md_atom_id": "md_dmFT_assn_a002", "md_file": "knowledge_base/domains/FT/assumptions.md", "md_atom_type": "SENTENCE", "md_parent_section": "§FT [FT — Assumptions]", "md_verbatim": "The following assumptions are unique to the FT domain:", "score": 0.4923, "match_basis": "verbatim_token+domain_route:FT"}], "candidate_count": 5, "zero_candidate": false}
{"pdf_atom_id": "ig34_p0318_a016", "pdf_atom_type": "SENTENCE", "pdf_source": "SDTMIG_v3.4", "pdf_page": 318, "pdf_parent_section": "§6.3.9 Questionnaires, Ratings, and Scales (QRS) Domains (FT, QS, RS)", "pdf_verbatim": "The Disease Response and Clin Classification (RS) section contains an overview and specification for that domain; assumptions and examples are provided in subsections for the 2 use cases within the RS domain (i.e., disease response use case, clinical classifications use case).", "figure_ref": null, "candidates": [{"md_atom_id": "md_dmFT_assn_a006", "md_file": "knowledge_base/domains/FT/assumptions.md", "md_atom_type": "SENTENCE", "md_parent_section": "§FT [FT — Assumptions]", "md_verbatim": "The following assumptions are common to the FT and QS domains as well as the Clinical Classifications use case of the RS domain (not the Disease Response use case of RS):", "score": 0.666, "match_basis": "verbatim_token+domain_route:FT"}, {"md_atom_id": "md_dmFT_assn_a002", "md_file": "knowledge_base/domains/FT/assumptions.md", "md_atom_type": "SENTENCE", "md_parent_section": "§FT [FT — Assumptions]", "md_verbatim": "The following assumptions are unique to the FT domain:", "score": 0.4957, "match_basis": "verbatim_token+domain_route:FT"}, {"md_atom_id": "md_dmFT_ex_a005", "md_file": "knowledge_base/domains/FT/examples.md", "md_atom_type": "SENTENCE", "md_parent_section": "§FT.1 [Example 1]", "md_verbatim": "The example represents the distance (in meters) that were walked at each minute of the 6-Minute Walk Test. The assistive device the subject used during the test is represented in the SUPPFT dataset.", "score": 0.4691, "match_basis": "verbatim_token+domain_route:FT"}, {"md_atom_id": "md_dmFT_ex_a014", "md_file": "knowledge_base/domains/FT/examples.md", "md_atom_type": "SENTENCE", "md_parent_section": "§FT.1 [Example 1]", "md_verbatim": "The suppft.xpt dataset represents that the subject used a cane while performing the 6 Minute Walk Test. In this example, FTGRPID is used to link this SUPPFT record to the 6 result records in FT. FTGRPID groups the FT records together by FTCAT and VISITNUM for an USUBJID.", "score": 0.4688, "match_basis": "verbatim_token+domain_route:FT"}, {"md_atom_id": "md_dmFT_ex_a002", "md_file": "knowledge_base/domains/FT/examples.md", "md_atom_type": "SENTENCE", "md_parent_section": "§FT [FT — Examples]", "md_verbatim": "CDISC publishes supplements for individual functional tests (at https://www.cdisc.org/standards/foundational/qrs). Additional FT examples can be found in supplements on that webpage.", "score": 0.4681, "match_basis": "verbatim_token+domain_route:FT"}], "candidate_count": 5, "zero_candidate": false}
{"pdf_atom_id": "ig34_p0318_a017", "pdf_atom_type": "SENTENCE", "pdf_source": "SDTMIG_v3.4", "pdf_page": 318, "pdf_parent_section": "§6.3.9 Questionnaires, Ratings, and Scales (QRS) Domains (FT, QS, RS)", "pdf_verbatim": "The SDTMIG includes the FT, QS, and RS domains for QRS findings for different QRS concepts. These differ only in concept, in domain code, and in informative content such as examples. A set of shared assumptions is included in each of the domain sections.", "figure_ref": null, "candidates": [{"md_atom_id": "md_dmFT_assn_a002", "md_file": "knowledge_base/domains/FT/assumptions.md", "md_atom_type": "SENTENCE", "md_parent_section": "§FT [FT — Assumptions]", "md_verbatim": "The following assumptions are unique to the FT domain:", "score": 0.5032, "match_basis": "verbatim_token+domain_route:FT"}, {"md_atom_id": "md_dmFT_assn_a006", "md_file": "knowledge_base/domains/FT/assumptions.md", "md_atom_type": "SENTENCE", "md_parent_section": "§FT [FT — Assumptions]", "md_verbatim": "The following assumptions are common to the FT and QS domains as well as the Clinical Classifications use case of the RS domain (not the Disease Response use case of RS):", "score": 0.4942, "match_basis": "verbatim_token+domain_route:FT"}, {"md_atom_id": "md_dmFT_ex_a005", "md_file": "knowledge_base/domains/FT/examples.md", "md_atom_type": "SENTENCE", "md_parent_section": "§FT.1 [Example 1]", "md_verbatim": "The example represents the distance (in meters) that were walked at each minute of the 6-Minute Walk Test. The assistive device the subject used during the test is represented in the SUPPFT dataset.", "score": 0.4838, "match_basis": "verbatim_token+domain_route:FT"}, {"md_atom_id": "md_dmFT_ex_a002", "md_file": "knowledge_base/domains/FT/examples.md", "md_atom_type": "SENTENCE", "md_parent_section": "§FT [FT — Examples]", "md_verbatim": "CDISC publishes supplements for individual functional tests (at https://www.cdisc.org/standards/foundational/qrs). Additional FT examples can be found in supplements on that webpage.", "score": 0.4729, "match_basis": "verbatim_token+domain_route:FT"}, {"md_atom_id": "md_dmFT_ex_a014", "md_file": "knowledge_base/domains/FT/examples.md", "md_atom_type": "SENTENCE", "md_parent_section": "§FT.1 [Example 1]", "md_verbatim": "The suppft.xpt dataset represents that the subject used a cane while performing the 6 Minute Walk Test. In this example, FTGRPID is used to link this SUPPFT record to the 6 result records in FT. FTGRPID groups the FT records together by FTCAT and VISITNUM for an USUBJID.", "score": 0.4522, "match_basis": "verbatim_token+domain_route:FT"}], "candidate_count": 5, "zero_candidate": false}
{"pdf_atom_id": "ig34_p0318_a018", "pdf_atom_type": "SENTENCE", "pdf_source": "SDTMIG_v3.4", "pdf_page": 318, "pdf_parent_section": "§6.3.9 Questionnaires, Ratings, and Scales (QRS) Domains (FT, QS, RS)", "pdf_verbatim": "CDISC develops controlled terminology and publishes supplements for individual QRS instruments when the instrument is in the public domain or when permission has been granted by the copyright holder.", "figure_ref": null, "candidates": [{"md_atom_id": "md_dmFT_ex_a002", "md_file": "knowledge_base/domains/FT/examples.md", "md_atom_type": "SENTENCE", "md_parent_section": "§FT [FT — Examples]", "md_verbatim": "CDISC publishes supplements for individual functional tests (at https://www.cdisc.org/standards/foundational/qrs). Additional FT examples can be found in supplements on that webpage.", "score": 0.5378, "match_basis": "verbatim_token+domain_route:FT"}, {"md_atom_id": "md_dmFT_assn_a009", "md_file": "knowledge_base/domains/FT/assumptions.md", "md_atom_type": "LIST_ITEM", "md_parent_section": "§FT [FT — Assumptions]", "md_verbatim": "   b. Refer to the following CDISC Controlled Terminology codelists for QRS instrument --CAT terminology:", "score": 0.4878, "match_basis": "verbatim_token+domain_route:FT"}, {"md_atom_id": "md_dmFT_assn_a008", "md_file": "knowledge_base/domains/FT/assumptions.md", "md_atom_type": "LIST_ITEM", "md_parent_section": "§FT [FT — Assumptions]", "md_verbatim": "   a. The QRS Naming Rules for --CAT, --TEST, and --TESTCD and the list of QRS instruments that have published CDISC Controlled Terminology with NCI/EVS are available at: https://www.cdisc.org/standards/terminology/controlled-terminology.", "score": 0.4873, "match_basis": "verbatim_token+domain_route:FT"}, {"md_atom_id": "md_dmFT_assn_a035", "md_file": "knowledge_base/domains/FT/assumptions.md", "md_atom_type": "LIST_ITEM", "md_parent_section": "§FT [FT — Assumptions]", "md_verbatim": "   a. Sponsors may participate and/or request the development of additional QRS supplements and terminology through the CDISC SDS QRS subteam and the Controlled Terminology QRS subteam.", "score": 0.4814, "match_basis": "verbatim_token+domain_route:FT"}, {"md_atom_id": "md_dmFT_assn_a019", "md_file": "knowledge_base/domains/FT/assumptions.md", "md_atom_type": "LIST_ITEM", "md_parent_section": "§FT [FT — Assumptions]", "md_verbatim": "      i. QRS subtotal, total, etc. scores listed on the CRF are considered captured data and are included in the instrument's controlled terminology.", "score": 0.4576, "match_basis": "verbatim_token+domain_route:FT"}], "candidate_count": 5, "zero_candidate": false}
{"pdf_atom_id": "ig34_p0318_a019", "pdf_atom_type": "LIST_ITEM", "pdf_source": "SDTMIG_v3.4", "pdf_page": 318, "pdf_parent_section": "§6.3.9 Questionnaires, Ratings, and Scales (QRS) Domains (FT, QS, RS)", "pdf_verbatim": "Controlled Terminology release downloads and information about the CT development process are available at: https://www.cdisc.org/standards/terminology/controlled-terminology.", "figure_ref": null, "candidates": [{"md_atom_id": "md_dmFT_assn_a008", "md_file": "knowledge_base/domains/FT/assumptions.md", "md_atom_type": "LIST_ITEM", "md_parent_section": "§FT [FT — Assumptions]", "md_verbatim": "   a. The QRS Naming Rules for --CAT, --TEST, and --TESTCD and the list of QRS instruments that have published CDISC Controlled Terminology with NCI/EVS are available at: https://www.cdisc.org/standards/terminology/controlled-terminology.", "score": 0.6316, "match_basis": "verbatim_token+domain_route:FT"}, {"md_atom_id": "md_dmFT_assn_a035", "md_file": "knowledge_base/domains/FT/assumptions.md", "md_atom_type": "LIST_ITEM", "md_parent_section": "§FT [FT — Assumptions]", "md_verbatim": "   a. Sponsors may participate and/or request the development of additional QRS supplements and terminology through the CDISC SDS QRS subteam and the Controlled Terminology QRS subteam.", "score": 0.5584, "match_basis": "verbatim_token+domain_route:FT"}, {"md_atom_id": "md_dmFT_assn_a009", "md_file": "knowledge_base/domains/FT/assumptions.md", "md_atom_type": "LIST_ITEM", "md_parent_section": "§FT [FT — Assumptions]", "md_verbatim": "   b. Refer to the following CDISC Controlled Terminology codelists for QRS instrument --CAT terminology:", "score": 0.5398, "match_basis": "verbatim_token+domain_route:FT"}, {"md_atom_id": "md_dmFT_assn_a034", "md_file": "knowledge_base/domains/FT/assumptions.md", "md_atom_type": "LIST_ITEM", "md_parent_section": "§FT [FT — Assumptions]", "md_verbatim": "9. All standard QRS supplement development is coordinated with the CDISC SDS QRS Subteam as the governing body. The process involves drafting the controlled terminology and defining instrument-specific standardized values for qualifier, timing, and result variables to populate the SDTMIG FT, QS, and RS domains. These supplements are developed based on user demand and therapeutic area standards development needs. Sponsors should always consult the CDISC website to review the terminology and supplements prior to modeling any QRS instrument.", "score": 0.5205, "match_basis": "verbatim_token+domain_route:FT"}, {"md_atom_id": "md_dmFT_assn_a015", "md_file": "knowledge_base/domains/FT/assumptions.md", "md_atom_type": "LIST_ITEM", "md_parent_section": "§FT [FT — Assumptions]", "md_verbatim": "   a. --SCAT values are not included in the CDISC Controlled Terminology system but rather controlled as described in the QRS supplements in which they are used.", "score": 0.519, "match_basis": "verbatim_token+domain_route:FT"}], "candidate_count": 5, "zero_candidate": false}
{"pdf_atom_id": "ig34_p0318_a020", "pdf_atom_type": "LIST_ITEM", "pdf_source": "SDTMIG_v3.4", "pdf_page": 318, "pdf_parent_section": "§6.3.9 Questionnaires, Ratings, and Scales (QRS) Domains (FT, QS, RS)", "pdf_verbatim": "QRS supplements, implementation documents, and information about the QRS development process are available at: https://www.cdisc.org/standards/foundational/qrs.", "figure_ref": null, "candidates": [{"md_atom_id": "md_dmFT_assn_a036", "md_file": "knowledge_base/domains/FT/assumptions.md", "md_atom_type": "LIST_ITEM", "md_parent_section": "§FT [FT — Assumptions]", "md_verbatim": "      i. Once generated, the QRS supplement is posted on the CDISC website (https://www.cdisc.org/standards/foundational/qrs).", "score": 0.6292, "match_basis": "verbatim_token+domain_route:FT"}, {"md_atom_id": "md_dmFT_assn_a033", "md_file": "knowledge_base/domains/FT/assumptions.md", "md_atom_type": "LIST_ITEM", "md_parent_section": "§FT [FT — Assumptions]", "md_verbatim": "8. --EVAL and --EVALID must not be used to model QRS data in SDTM. These variables have had various interpretations on QRS CRFs and were used to represent a multitude of evaluator information about QRS instruments. This has made it more difficult for users of SDTM QRS data to interpret this data and more difficult to pool data for analyses. If needed, supplemental qualifiers may be used to represent this data. Updated information on a proposed solution to this issue will be posted on the CDISC QRS webpage (https://www.cdisc.org/standards/foundational/qrs).", "score": 0.5563, "match_basis": "verbatim_token+domain_route:FT"}, {"md_atom_id": "md_dmFT_assn_a008", "md_file": "knowledge_base/domains/FT/assumptions.md", "md_atom_type": "LIST_ITEM", "md_parent_section": "§FT [FT — Assumptions]", "md_verbatim": "   a. The QRS Naming Rules for --CAT, --TEST, and --TESTCD and the list of QRS instruments that have published CDISC Controlled Terminology with NCI/EVS are available at: https://www.cdisc.org/standards/terminology/controlled-terminology.", "score": 0.5488, "match_basis": "verbatim_token+domain_route:FT"}, {"md_atom_id": "md_dmFT_assn_a035", "md_file": "knowledge_base/domains/FT/assumptions.md", "md_atom_type": "LIST_ITEM", "md_parent_section": "§FT [FT — Assumptions]", "md_verbatim": "   a. Sponsors may participate and/or request the development of additional QRS supplements and terminology through the CDISC SDS QRS subteam and the Controlled Terminology QRS subteam.", "score": 0.5248, "match_basis": "verbatim_token+domain_route:FT"}, {"md_atom_id": "md_dmFT_assn_a029", "md_file": "knowledge_base/domains/FT/assumptions.md", "md_atom_type": "LIST_ITEM", "md_parent_section": "§FT [FT — Assumptions]", "md_verbatim": "   c. The sponsor is expected to provide information about the version used for each QRS instrument in the metadata (using the Comments column in the Define-XML document). This could be provided as value-level metadata for --CAT.", "score": 0.5145, "match_basis": "verbatim_token+domain_route:FT"}], "candidate_count": 5, "zero_candidate": false}
{"pdf_atom_id": "ig34_p0318_a021", "pdf_atom_type": "SENTENCE", "pdf_source": "SDTMIG_v3.4", "pdf_page": 318, "pdf_parent_section": "§6.3.9 Questionnaires, Ratings, and Scales (QRS) Domains (FT, QS, RS)", "pdf_verbatim": "Each QRS supplement includes instrument-specific implementation assumptions, a dataset example, SDTM mapping strategies, and a list of any applicable supplemental qualifiers. SDTM annotated CRFs are also provided where available.", "figure_ref": null, "candidates": [{"md_atom_id": "md_dmFT_ex_a005", "md_file": "knowledge_base/domains/FT/examples.md", "md_atom_type": "SENTENCE", "md_parent_section": "§FT.1 [Example 1]", "md_verbatim": "The example represents the distance (in meters) that were walked at each minute of the 6-Minute Walk Test. The assistive device the subject used during the test is represented in the SUPPFT dataset.", "score": 0.4797, "match_basis": "verbatim_token+domain_route:FT"}, {"md_atom_id": "md_dmFT_ex_a002", "md_file": "knowledge_base/domains/FT/examples.md", "md_atom_type": "SENTENCE", "md_parent_section": "§FT [FT — Examples]", "md_verbatim": "CDISC publishes supplements for individual functional tests (at https://www.cdisc.org/standards/foundational/qrs). Additional FT examples can be found in supplements on that webpage.", "score": 0.4788, "match_basis": "verbatim_token+domain_route:FT"}, {"md_atom_id": "md_dmFT_assn_a006", "md_file": "knowledge_base/domains/FT/assumptions.md", "md_atom_type": "SENTENCE", "md_parent_section": "§FT [FT — Assumptions]", "md_verbatim": "The following assumptions are common to the FT and QS domains as well as the Clinical Classifications use case of the RS domain (not the Disease Response use case of RS):", "score": 0.4786, "match_basis": "verbatim_token+domain_route:FT"}, {"md_atom_id": "md_dmFT_assn_a016", "md_file": "knowledge_base/domains/FT/assumptions.md", "md_atom_type": "LIST_ITEM", "md_parent_section": "§FT [FT — Assumptions]", "md_verbatim": "3. There are cases where QRS CRFs do not include numeric \"standardized responses\" assigned to text responses (e.g., mild, moderate, severe being 1, 2, 3). It is clearly in everyone's best interest to include the numeric \"standardized responses\" in the SDTMIG QRS dataset. This is only done when the numeric \"standardized responses\" are documented in the QRS CRF instructions, a user manual, a website specific to the QRS instrument, or another reference document that provides a clear explanation and rationale for providing them in the SDTMIG QRS dataset.", "score": 0.4578, "match_basis": "verbatim_token+domain_route:FT"}, {"md_atom_id": "md_dmFT_assn_a002", "md_file": "knowledge_base/domains/FT/assumptions.md", "md_atom_type": "SENTENCE", "md_parent_section": "§FT [FT — Assumptions]", "md_verbatim": "The following assumptions are unique to the FT domain:", "score": 0.4541, "match_basis": "verbatim_token+domain_route:FT"}], "candidate_count": 5, "zero_candidate": false}
{"pdf_atom_id": "ig34_p0319_a001", "pdf_atom_type": "HEADING", "pdf_source": "SDTMIG_v3.4", "pdf_page": 319, "pdf_parent_section": "§6.3.9 Questionnaires, Ratings, and Scales (QRS) Domains (FT, QS, RS)", "pdf_verbatim": "6.3.9.1 Functional Tests (FT)", "figure_ref": null, "candidates": [{"md_atom_id": "md_dmFT_assn_a001", "md_file": "knowledge_base/domains/FT/assumptions.md", "md_atom_type": "HEADING", "md_parent_section": "§FT [FT — Assumptions]", "md_verbatim": "# FT — Assumptions", "score": 0.4667, "match_basis": "verbatim_token+domain_route:FT"}, {"md_atom_id": "md_dmFT_assn_a005", "md_file": "knowledge_base/domains/FT/assumptions.md", "md_atom_type": "HEADING", "md_parent_section": "§FT [FT — Assumptions]", "md_verbatim": "## QRS Shared Assumptions", "score": 0.4522, "match_basis": "verbatim_token+domain_route:FT"}, {"md_atom_id": "md_dmFT_ex_a001", "md_file": "knowledge_base/domains/FT/examples.md", "md_atom_type": "HEADING", "md_parent_section": "§FT [FT — Examples]", "md_verbatim": "# FT — Examples", "score": 0.4, "match_basis": "verbatim_token+domain_route:FT"}, {"md_atom_id": "md_dmFT_ex_a003", "md_file": "knowledge_base/domains/FT/examples.md", "md_atom_type": "HEADING", "md_parent_section": "§FT [FT — Examples]", "md_verbatim": "## Example 1", "score": 0.4, "match_basis": "verbatim_token+domain_route:FT"}], "candidate_count": 4, "zero_candidate": false}
{"pdf_atom_id": "ig34_p0319_a002", "pdf_atom_type": "HEADING", "pdf_source": "SDTMIG_v3.4", "pdf_page": 319, "pdf_parent_section": "§6.3.9.1 Functional Tests (FT)", "pdf_verbatim": "FT – Description/Overview", "figure_ref": null, "candidates": [{"md_atom_id": "md_dmFT_assn_a001", "md_file": "knowledge_base/domains/FT/assumptions.md", "md_atom_type": "HEADING", "md_parent_section": "§FT [FT — Assumptions]", "md_verbatim": "# FT — Assumptions", "score": 0.4857, "match_basis": "verbatim_token+domain_route:FT"}, {"md_atom_id": "md_dmFT_assn_a005", "md_file": "knowledge_base/domains/FT/assumptions.md", "md_atom_type": "HEADING", "md_parent_section": "§FT [FT — Assumptions]", "md_verbatim": "## QRS Shared Assumptions", "score": 0.4692, "match_basis": "verbatim_token+domain_route:FT"}, {"md_atom_id": "md_dmFT_ex_a001", "md_file": "knowledge_base/domains/FT/examples.md", "md_atom_type": "HEADING", "md_parent_section": "§FT [FT — Examples]", "md_verbatim": "# FT — Examples", "score": 0.4, "match_basis": "verbatim_token+domain_route:FT"}, {"md_atom_id": "md_dmFT_ex_a003", "md_file": "knowledge_base/domains/FT/examples.md", "md_atom_type": "HEADING", "md_parent_section": "§FT [FT — Examples]", "md_verbatim": "## Example 1", "score": 0.4, "match_basis": "verbatim_token+domain_route:FT"}], "candidate_count": 4, "zero_candidate": false}
{"pdf_atom_id": "ig34_p0319_a003", "pdf_atom_type": "SENTENCE", "pdf_source": "SDTMIG_v3.4", "pdf_page": 319, "pdf_parent_section": "§6.3.9.1 Functional Tests (FT)", "pdf_verbatim": "A findings domain that contains data for named, stand-alone, task-based evaluations designed to provide an assessment of mobility, dexterity, or cognitive ability.", "figure_ref": null, "candidates": [{"md_atom_id": "md_dmFT_ex_a002", "md_file": "knowledge_base/domains/FT/examples.md", "md_atom_type": "SENTENCE", "md_parent_section": "§FT [FT — Examples]", "md_verbatim": "CDISC publishes supplements for individual functional tests (at https://www.cdisc.org/standards/foundational/qrs). Additional FT examples can be found in supplements on that webpage.", "score": 0.4686, "match_basis": "verbatim_token+domain_route:FT"}, {"md_atom_id": "md_dmFT_ex_a005", "md_file": "knowledge_base/domains/FT/examples.md", "md_atom_type": "SENTENCE", "md_parent_section": "§FT.1 [Example 1]", "md_verbatim": "The example represents the distance (in meters) that were walked at each minute of the 6-Minute Walk Test. The assistive device the subject used during the test is represented in the SUPPFT dataset.", "score": 0.4647, "match_basis": "verbatim_token+domain_route:FT"}, {"md_atom_id": "md_dmFT_assn_a006", "md_file": "knowledge_base/domains/FT/assumptions.md", "md_atom_type": "SENTENCE", "md_parent_section": "§FT [FT — Assumptions]", "md_verbatim": "The following assumptions are common to the FT and QS domains as well as the Clinical Classifications use case of the RS domain (not the Disease Response use case of RS):", "score": 0.4619, "match_basis": "verbatim_token+domain_route:FT"}, {"md_atom_id": "md_dmFT_assn_a002", "md_file": "knowledge_base/domains/FT/assumptions.md", "md_atom_type": "SENTENCE", "md_parent_section": "§FT [FT — Assumptions]", "md_verbatim": "The following assumptions are unique to the FT domain:", "score": 0.4545, "match_basis": "verbatim_token+domain_route:FT"}, {"md_atom_id": "md_dmFT_ex_a014", "md_file": "knowledge_base/domains/FT/examples.md", "md_atom_type": "SENTENCE", "md_parent_section": "§FT.1 [Example 1]", "md_verbatim": "The suppft.xpt dataset represents that the subject used a cane while performing the 6 Minute Walk Test. In this example, FTGRPID is used to link this SUPPFT record to the 6 result records in FT. FTGRPID groups the FT records together by FTCAT and VISITNUM for an USUBJID.", "score": 0.4405, "match_basis": "verbatim_token+domain_route:FT"}], "candidate_count": 5, "zero_candidate": false}
{"pdf_atom_id": "ig34_p0319_a004", "pdf_atom_type": "HEADING", "pdf_source": "SDTMIG_v3.4", "pdf_page": 319, "pdf_parent_section": "§6.3.9.1 Functional Tests (FT)", "pdf_verbatim": "FT – Specification", "figure_ref": null, "candidates": [{"md_atom_id": "md_dmFT_assn_a001", "md_file": "knowledge_base/domains/FT/assumptions.md", "md_atom_type": "HEADING", "md_parent_section": "§FT [FT — Assumptions]", "md_verbatim": "# FT — Assumptions", "score": 0.4667, "match_basis": "verbatim_token+domain_route:FT"}, {"md_atom_id": "md_dmFT_assn_a005", "md_file": "knowledge_base/domains/FT/assumptions.md", "md_atom_type": "HEADING", "md_parent_section": "§FT [FT — Assumptions]", "md_verbatim": "## QRS Shared Assumptions", "score": 0.4522, "match_basis": "verbatim_token+domain_route:FT"}, {"md_atom_id": "md_dmFT_ex_a001", "md_file": "knowledge_base/domains/FT/examples.md", "md_atom_type": "HEADING", "md_parent_section": "§FT [FT — Examples]", "md_verbatim": "# FT — Examples", "score": 0.4, "match_basis": "verbatim_token+domain_route:FT"}, {"md_atom_id": "md_dmFT_ex_a003", "md_file": "knowledge_base/domains/FT/examples.md", "md_atom_type": "HEADING", "md_parent_section": "§FT [FT — Examples]", "md_verbatim": "## Example 1", "score": 0.4, "match_basis": "verbatim_token+domain_route:FT"}], "candidate_count": 4, "zero_candidate": false}
{"pdf_atom_id": "ig34_p0319_a005", "pdf_atom_type": "CODE_LITERAL", "pdf_source": "SDTMIG_v3.4", "pdf_page": 319, "pdf_parent_section": "§6.3.9.1 Functional Tests (FT)", "pdf_verbatim": "ft.xpt", "figure_ref": null, "candidates": [{"md_atom_id": "md_dmFT_ex_a006", "md_file": "knowledge_base/domains/FT/examples.md", "md_atom_type": "SENTENCE", "md_parent_section": "§FT.1 [Example 1]", "md_verbatim": "**ft.xpt**", "score": 0.79, "match_basis": "verbatim_token+domain_route:FT"}, {"md_atom_id": "md_dmFT_ex_a015", "md_file": "knowledge_base/domains/FT/examples.md", "md_atom_type": "SENTENCE", "md_parent_section": "§FT.1 [Example 1]", "md_verbatim": "**suppft.xpt**", "score": 0.31, "match_basis": "verbatim_token+domain_route:FT"}, {"md_atom_id": "md_dmFT_ex_a014", "md_file": "knowledge_base/domains/FT/examples.md", "md_atom_type": "SENTENCE", "md_parent_section": "§FT.1 [Example 1]", "md_verbatim": "The suppft.xpt dataset represents that the subject used a cane while performing the 6 Minute Walk Test. In this example, FTGRPID is used to link this SUPPFT record to the 6 result records in FT. FTGRPID groups the FT records together by FTCAT and VISITNUM for an USUBJID.", "score": 0.1965, "match_basis": "verbatim_token+domain_route:FT"}, {"md_atom_id": "md_dmFT_assn_a001", "md_file": "knowledge_base/domains/FT/assumptions.md", "md_atom_type": "HEADING", "md_parent_section": "§FT [FT — Assumptions]", "md_verbatim": "# FT — Assumptions", "score": 0.19, "match_basis": "verbatim_token+domain_route:FT"}, {"md_atom_id": "md_dmFT_assn_a002", "md_file": "knowledge_base/domains/FT/assumptions.md", "md_atom_type": "SENTENCE", "md_parent_section": "§FT [FT — Assumptions]", "md_verbatim": "The following assumptions are unique to the FT domain:", "score": 0.19, "match_basis": "verbatim_token+domain_route:FT"}, {"md_atom_id": "md_dmFT_assn_a003", "md_file": "knowledge_base/domains/FT/assumptions.md", "md_atom_type": "LIST_ITEM", "md_parent_section": "§FT [FT — Assumptions]", "md_verbatim": "1. A functional test is not a subjective assessment of how the subject generally performs a task, but rather an objective measurement of the performance of the task by the subject in a specific instance.", "score": 0.19, "match_basis": "verbatim_token+domain_route:FT"}, {"md_atom_id": "md_dmFT_assn_a004", "md_file": "knowledge_base/domains/FT/assumptions.md", "md_atom_type": "LIST_ITEM", "md_parent_section": "§FT [FT — Assumptions]", "md_verbatim": "2. Functional tests have documented methods for administration and analysis and require a subject to perform specific activities that are evaluated and recorded. Most often, functional tests are direct quantitative measurements. Examples of functional tests include the Timed 25-Foot Walk, 9-Hole Peg Test, and the Hauser Ambulation Index.", "score": 0.19, "match_basis": "verbatim_token+domain_route:FT"}, {"md_atom_id": "md_dmFT_assn_a005", "md_file": "knowledge_base/domains/FT/assumptions.md", "md_atom_type": "HEADING", "md_parent_section": "§FT [FT — Assumptions]", "md_verbatim": "## QRS Shared Assumptions", "score": 0.19, "match_basis": "verbatim_token+domain_route:FT"}, {"md_atom_id": "md_dmFT_assn_a006", "md_file": "knowledge_base/domains/FT/assumptions.md", "md_atom_type": "SENTENCE", "md_parent_section": "§FT [FT — Assumptions]", "md_verbatim": "The following assumptions are common to the FT and QS domains as well as the Clinical Classifications use case of the RS domain (not the Disease Response use case of RS):", "score": 0.19, "match_basis": "verbatim_token+domain_route:FT"}, {"md_atom_id": "md_dmFT_assn_a007", "md_file": "knowledge_base/domains/FT/assumptions.md", "md_atom_type": "LIST_ITEM", "md_parent_section": "§FT [FT — Assumptions]", "md_verbatim": "1. The name of a QRS instrument is described under the variable --CAT in the relevant QRS domain (i.e., FT, QS, RS), and may be either abbreviations or longer names. For example, \"ADAS-COG\", \"BPI SHORT FORM\", and \"APACHE II\" are all --CATs which are shortened names for the instruments they represent, whereas \"4 STAIR ASCEND\" is the FTCAT for the instrument of the same name. Sponsors should always reference CDISC Controlled Terminology.", "score": 0.19, "match_basis": "verbatim_token+domain_route:FT"}], "candidate_count": 10, "zero_candidate": false}
{"pdf_atom_id": "ig34_p0319_a006", "pdf_atom_type": "SENTENCE", "pdf_source": "SDTMIG_v3.4", "pdf_page": 319, "pdf_parent_section": "§6.3.9.1 Functional Tests (FT)", "pdf_verbatim": "ft.xpt, Functional Tests — Findings. One record per Functional Test finding per time point per visit per subject, Tabulation.", "figure_ref": null, "candidates": [{"md_atom_id": "md_dmFT_ex_a014", "md_file": "knowledge_base/domains/FT/examples.md", "md_atom_type": "SENTENCE", "md_parent_section": "§FT.1 [Example 1]", "md_verbatim": "The suppft.xpt dataset represents that the subject used a cane while performing the 6 Minute Walk Test. In this example, FTGRPID is used to link this SUPPFT record to the 6 result records in FT. FTGRPID groups the FT records together by FTCAT and VISITNUM for an USUBJID.", "score": 0.4864, "match_basis": "verbatim_token+domain_route:FT"}, {"md_atom_id": "md_dmFT_ex_a002", "md_file": "knowledge_base/domains/FT/examples.md", "md_atom_type": "SENTENCE", "md_parent_section": "§FT [FT — Examples]", "md_verbatim": "CDISC publishes supplements for individual functional tests (at https://www.cdisc.org/standards/foundational/qrs). Additional FT examples can be found in supplements on that webpage.", "score": 0.4816, "match_basis": "verbatim_token+domain_route:FT"}, {"md_atom_id": "md_dmFT_ex_a005", "md_file": "knowledge_base/domains/FT/examples.md", "md_atom_type": "SENTENCE", "md_parent_section": "§FT.1 [Example 1]", "md_verbatim": "The example represents the distance (in meters) that were walked at each minute of the 6-Minute Walk Test. The assistive device the subject used during the test is represented in the SUPPFT dataset.", "score": 0.4449, "match_basis": "verbatim_token+domain_route:FT"}, {"md_atom_id": "md_dmFT_assn_a011", "md_file": "knowledge_base/domains/FT/assumptions.md", "md_atom_type": "LIST_ITEM", "md_parent_section": "§FT [FT — Assumptions]", "md_verbatim": "      ii. Category of Functional Test", "score": 0.4324, "match_basis": "verbatim_token+domain_route:FT"}, {"md_atom_id": "md_dmFT_assn_a002", "md_file": "knowledge_base/domains/FT/assumptions.md", "md_atom_type": "SENTENCE", "md_parent_section": "§FT [FT — Assumptions]", "md_verbatim": "The following assumptions are unique to the FT domain:", "score": 0.4273, "match_basis": "verbatim_token+domain_route:FT"}], "candidate_count": 5, "zero_candidate": false}
{"pdf_atom_id": "ig34_p0319_a007", "pdf_atom_type": "TABLE_HEADER", "pdf_source": "SDTMIG_v3.4", "pdf_page": 319, "pdf_parent_section": "§6.3.9.1 Functional Tests (FT)", "pdf_verbatim": "| Variable Name | Variable Label | Type | Controlled Terms, Codelist or Format1 | Role | CDISC Notes | Core |", "figure_ref": null, "candidates": [{"md_atom_id": "md_dmFT_ex_a016", "md_file": "knowledge_base/domains/FT/examples.md", "md_atom_type": "TABLE_HEADER", "md_parent_section": "§FT.1 [Example 1]", "md_verbatim": "| Row | STUDYID | RDOMAIN | USUBJID | IDVAR | IDVARVAL | QNAM | QLABEL | QVAL | QORIG | QEVAL |\n|-----|---------|---------|---------|-------|----------|------|--------|------|-------|-------|", "score": 0.4411, "match_basis": "verbatim_token+domain_route:FT"}, {"md_atom_id": "md_dmFT_ex_a007", "md_file": "knowledge_base/domains/FT/examples.md", "md_atom_type": "TABLE_HEADER", "md_parent_section": "§FT.1 [Example 1]", "md_verbatim": "| Row | STUDYID | DOMAIN | USUBJID | FTSEQ | FTGRPID | FTTESTCD | FTTEST | FTCAT | FTORRES | FTORRESU | FTSTRESC | FTSTRESN | FTSTRESU | FTBLFL | VISITNUM | FTDTC |\n|-----|---------|--------|---------|-------|---------|----------|--------|-------|---------|----------|----------|----------|----------|--------|----------|-------|", "score": 0.4061, "match_basis": "verbatim_token+domain_route:FT"}, {"md_atom_id": "md_dmFT_ex_a009", "md_file": "knowledge_base/domains/FT/examples.md", "md_atom_type": "TABLE_ROW", "md_parent_section": "§FT.1 [Example 1]", "md_verbatim": "| 2 | STUDYX | FT | MS01-01 | 2 | 1 | SIXMW102 | SIXMW1-Distance at 2 Minutes | SIX MINUTE WALK | 201 | m | 201 | 201 | m | Y | 1 | 2014-03-10 |", "score": 0.3665, "match_basis": "verbatim_token+domain_route:FT"}, {"md_atom_id": "md_dmFT_ex_a010", "md_file": "knowledge_base/domains/FT/examples.md", "md_atom_type": "TABLE_ROW", "md_parent_section": "§FT.1 [Example 1]", "md_verbatim": "| 3 | STUDYX | FT | MS01-01 | 3 | 1 | SIXMW103 | SIXMW1-Distance at 3 Minutes | SIX MINUTE WALK | 299 | m | 299 | 299 | m | Y | 1 | 2014-03-10 |", "score": 0.3661, "match_basis": "verbatim_token+domain_route:FT"}, {"md_atom_id": "md_dmFT_ex_a011", "md_file": "knowledge_base/domains/FT/examples.md", "md_atom_type": "TABLE_ROW", "md_parent_section": "§FT.1 [Example 1]", "md_verbatim": "| 4 | STUDYX | FT | MS01-01 | 4 | 1 | SIXMW104 | SIXMW1-Distance at 4 Minutes | SIX MINUTE WALK | 396 | m | 396 | 396 | m | Y | 1 | 2014-03-10 |", "score": 0.3661, "match_basis": "verbatim_token+domain_route:FT"}], "candidate_count": 5, "zero_candidate": false}
{"pdf_atom_id": "ig34_p0319_a008", "pdf_atom_type": "TABLE_ROW", "pdf_source": "SDTMIG_v3.4", "pdf_page": 319, "pdf_parent_section": "§6.3.9.1 Functional Tests (FT)", "pdf_verbatim": "| STUDYID | Study Identifier | Char | | Identifier | Unique identifier for a study. | Req |", "figure_ref": null, "candidates": [{"md_atom_id": "md_dmFT_ex_a008", "md_file": "knowledge_base/domains/FT/examples.md", "md_atom_type": "TABLE_ROW", "md_parent_section": "§FT.1 [Example 1]", "md_verbatim": "| 1 | STUDYX | FT | MS01-01 | 1 | 1 | SIXMW101 | SIXMW1-Distance at 1 Minute | SIX MINUTE WALK | 101 | m | 101 | 101 | m | Y | 1 | 2014-03-10 |", "score": 0.4409, "match_basis": "verbatim_token+domain_route:FT"}, {"md_atom_id": "md_dmFT_ex_a009", "md_file": "knowledge_base/domains/FT/examples.md", "md_atom_type": "TABLE_ROW", "md_parent_section": "§FT.1 [Example 1]", "md_verbatim": "| 2 | STUDYX | FT | MS01-01 | 2 | 1 | SIXMW102 | SIXMW1-Distance at 2 Minutes | SIX MINUTE WALK | 201 | m | 201 | 201 | m | Y | 1 | 2014-03-10 |", "score": 0.44, "match_basis": "verbatim_token+domain_route:FT"}, {"md_atom_id": "md_dmFT_ex_a010", "md_file": "knowledge_base/domains/FT/examples.md", "md_atom_type": "TABLE_ROW", "md_parent_section": "§FT.1 [Example 1]", "md_verbatim": "| 3 | STUDYX | FT | MS01-01 | 3 | 1 | SIXMW103 | SIXMW1-Distance at 3 Minutes | SIX MINUTE WALK | 299 | m | 299 | 299 | m | Y | 1 | 2014-03-10 |", "score": 0.4391, "match_basis": "verbatim_token+domain_route:FT"}, {"md_atom_id": "md_dmFT_ex_a011", "md_file": "knowledge_base/domains/FT/examples.md", "md_atom_type": "TABLE_ROW", "md_parent_section": "§FT.1 [Example 1]", "md_verbatim": "| 4 | STUDYX | FT | MS01-01 | 4 | 1 | SIXMW104 | SIXMW1-Distance at 4 Minutes | SIX MINUTE WALK | 396 | m | 396 | 396 | m | Y | 1 | 2014-03-10 |", "score": 0.4391, "match_basis": "verbatim_token+domain_route:FT"}, {"md_atom_id": "md_dmFT_ex_a012", "md_file": "knowledge_base/domains/FT/examples.md", "md_atom_type": "TABLE_ROW", "md_parent_section": "§FT.1 [Example 1]", "md_verbatim": "| 5 | STUDYX | FT | MS01-01 | 5 | 1 | SIXMW105 | SIXMW1-Distance at 5 Minutes | SIX MINUTE WALK | 493 | m | 493 | 493 | m | Y | 1 | 2014-03-10 |", "score": 0.4391, "match_basis": "verbatim_token+domain_route:FT"}], "candidate_count": 5, "zero_candidate": false}
{"pdf_atom_id": "ig34_p0319_a009", "pdf_atom_type": "TABLE_ROW", "pdf_source": "SDTMIG_v3.4", "pdf_page": 319, "pdf_parent_section": "§6.3.9.1 Functional Tests (FT)", "pdf_verbatim": "| DOMAIN | Domain Abbreviation | Char | FT | Identifier | Two-character abbreviation for the domain. | Req |", "figure_ref": null, "candidates": [{"md_atom_id": "md_dmFT_ex_a017", "md_file": "knowledge_base/domains/FT/examples.md", "md_atom_type": "TABLE_ROW", "md_parent_section": "§FT.1 [Example 1]", "md_verbatim": "| 1 | STUDYX | FT | MS01-01 | FTGRPID | 1 | FTASSTDV | Assistance Device | CANE | CRF | INVESTIGATOR |", "score": 0.4082, "match_basis": "verbatim_token+domain_route:FT"}, {"md_atom_id": "md_dmFT_ex_a008", "md_file": "knowledge_base/domains/FT/examples.md", "md_atom_type": "TABLE_ROW", "md_parent_section": "§FT.1 [Example 1]", "md_verbatim": "| 1 | STUDYX | FT | MS01-01 | 1 | 1 | SIXMW101 | SIXMW1-Distance at 1 Minute | SIX MINUTE WALK | 101 | m | 101 | 101 | m | Y | 1 | 2014-03-10 |", "score": 0.4, "match_basis": "verbatim_token+domain_route:FT"}, {"md_atom_id": "md_dmFT_ex_a009", "md_file": "knowledge_base/domains/FT/examples.md", "md_atom_type": "TABLE_ROW", "md_parent_section": "§FT.1 [Example 1]", "md_verbatim": "| 2 | STUDYX | FT | MS01-01 | 2 | 1 | SIXMW102 | SIXMW1-Distance at 2 Minutes | SIX MINUTE WALK | 201 | m | 201 | 201 | m | Y | 1 | 2014-03-10 |", "score": 0.4, "match_basis": "verbatim_token+domain_route:FT"}, {"md_atom_id": "md_dmFT_ex_a010", "md_file": "knowledge_base/domains/FT/examples.md", "md_atom_type": "TABLE_ROW", "md_parent_section": "§FT.1 [Example 1]", "md_verbatim": "| 3 | STUDYX | FT | MS01-01 | 3 | 1 | SIXMW103 | SIXMW1-Distance at 3 Minutes | SIX MINUTE WALK | 299 | m | 299 | 299 | m | Y | 1 | 2014-03-10 |", "score": 0.4, "match_basis": "verbatim_token+domain_route:FT"}, {"md_atom_id": "md_dmFT_ex_a011", "md_file": "knowledge_base/domains/FT/examples.md", "md_atom_type": "TABLE_ROW", "md_parent_section": "§FT.1 [Example 1]", "md_verbatim": "| 4 | STUDYX | FT | MS01-01 | 4 | 1 | SIXMW104 | SIXMW1-Distance at 4 Minutes | SIX MINUTE WALK | 396 | m | 396 | 396 | m | Y | 1 | 2014-03-10 |", "score": 0.4, "match_basis": "verbatim_token+domain_route:FT"}], "candidate_count": 5, "zero_candidate": false}
{"pdf_atom_id": "ig34_p0319_a010", "pdf_atom_type": "TABLE_ROW", "pdf_source": "SDTMIG_v3.4", "pdf_page": 319, "pdf_parent_section": "§6.3.9.1 Functional Tests (FT)", "pdf_verbatim": "| USUBJID | Unique Subject Identifier | Char | | Identifier | Identifier used to uniquely identify a subject across all studies for all applications or submissions involving the product. | Req |", "figure_ref": null, "candidates": [{"md_atom_id": "md_dmFT_ex_a017", "md_file": "knowledge_base/domains/FT/examples.md", "md_atom_type": "TABLE_ROW", "md_parent_section": "§FT.1 [Example 1]", "md_verbatim": "| 1 | STUDYX | FT | MS01-01 | FTGRPID | 1 | FTASSTDV | Assistance Device | CANE | CRF | INVESTIGATOR |", "score": 0.4229, "match_basis": "verbatim_token+domain_route:FT"}, {"md_atom_id": "md_dmFT_ex_a008", "md_file": "knowledge_base/domains/FT/examples.md", "md_atom_type": "TABLE_ROW", "md_parent_section": "§FT.1 [Example 1]", "md_verbatim": "| 1 | STUDYX | FT | MS01-01 | 1 | 1 | SIXMW101 | SIXMW1-Distance at 1 Minute | SIX MINUTE WALK | 101 | m | 101 | 101 | m | Y | 1 | 2014-03-10 |", "score": 0.413, "match_basis": "verbatim_token+domain_route:FT"}, {"md_atom_id": "md_dmFT_ex_a009", "md_file": "knowledge_base/domains/FT/examples.md", "md_atom_type": "TABLE_ROW", "md_parent_section": "§FT.1 [Example 1]", "md_verbatim": "| 2 | STUDYX | FT | MS01-01 | 2 | 1 | SIXMW102 | SIXMW1-Distance at 2 Minutes | SIX MINUTE WALK | 201 | m | 201 | 201 | m | Y | 1 | 2014-03-10 |", "score": 0.4129, "match_basis": "verbatim_token+domain_route:FT"}, {"md_atom_id": "md_dmFT_ex_a010", "md_file": "knowledge_base/domains/FT/examples.md", "md_atom_type": "TABLE_ROW", "md_parent_section": "§FT.1 [Example 1]", "md_verbatim": "| 3 | STUDYX | FT | MS01-01 | 3 | 1 | SIXMW103 | SIXMW1-Distance at 3 Minutes | SIX MINUTE WALK | 299 | m | 299 | 299 | m | Y | 1 | 2014-03-10 |", "score": 0.4128, "match_basis": "verbatim_token+domain_route:FT"}, {"md_atom_id": "md_dmFT_ex_a011", "md_file": "knowledge_base/domains/FT/examples.md", "md_atom_type": "TABLE_ROW", "md_parent_section": "§FT.1 [Example 1]", "md_verbatim": "| 4 | STUDYX | FT | MS01-01 | 4 | 1 | SIXMW104 | SIXMW1-Distance at 4 Minutes | SIX MINUTE WALK | 396 | m | 396 | 396 | m | Y | 1 | 2014-03-10 |", "score": 0.4128, "match_basis": "verbatim_token+domain_route:FT"}], "candidate_count": 5, "zero_candidate": false}
{"pdf_atom_id": "ig34_p0319_a011", "pdf_atom_type": "TABLE_ROW", "pdf_source": "SDTMIG_v3.4", "pdf_page": 319, "pdf_parent_section": "§6.3.9.1 Functional Tests (FT)", "pdf_verbatim": "| FTSEQ | Sequence Number | Num | | Identifier | Sequence number to ensure uniqueness of records within a dataset for a subject. May be any valid number. | Req |", "figure_ref": null, "candidates": [{"md_atom_id": "md_dmFT_ex_a017", "md_file": "knowledge_base/domains/FT/examples.md", "md_atom_type": "TABLE_ROW", "md_parent_section": "§FT.1 [Example 1]", "md_verbatim": "| 1 | STUDYX | FT | MS01-01 | FTGRPID | 1 | FTASSTDV | Assistance Device | CANE | CRF | INVESTIGATOR |", "score": 0.4126, "match_basis": "verbatim_token+domain_route:FT"}, {"md_atom_id": "md_dmFT_ex_a008", "md_file": "knowledge_base/domains/FT/examples.md", "md_atom_type": "TABLE_ROW", "md_parent_section": "§FT.1 [Example 1]", "md_verbatim": "| 1 | STUDYX | FT | MS01-01 | 1 | 1 | SIXMW101 | SIXMW1-Distance at 1 Minute | SIX MINUTE WALK | 101 | m | 101 | 101 | m | Y | 1 | 2014-03-10 |", "score": 0.4074, "match_basis": "verbatim_token+domain_route:FT"}, {"md_atom_id": "md_dmFT_ex_a009", "md_file": "knowledge_base/domains/FT/examples.md", "md_atom_type": "TABLE_ROW", "md_parent_section": "§FT.1 [Example 1]", "md_verbatim": "| 2 | STUDYX | FT | MS01-01 | 2 | 1 | SIXMW102 | SIXMW1-Distance at 2 Minutes | SIX MINUTE WALK | 201 | m | 201 | 201 | m | Y | 1 | 2014-03-10 |", "score": 0.4073, "match_basis": "verbatim_token+domain_route:FT"}, {"md_atom_id": "md_dmFT_ex_a010", "md_file": "knowledge_base/domains/FT/examples.md", "md_atom_type": "TABLE_ROW", "md_parent_section": "§FT.1 [Example 1]", "md_verbatim": "| 3 | STUDYX | FT | MS01-01 | 3 | 1 | SIXMW103 | SIXMW1-Distance at 3 Minutes | SIX MINUTE WALK | 299 | m | 299 | 299 | m | Y | 1 | 2014-03-10 |", "score": 0.4072, "match_basis": "verbatim_token+domain_route:FT"}, {"md_atom_id": "md_dmFT_ex_a011", "md_file": "knowledge_base/domains/FT/examples.md", "md_atom_type": "TABLE_ROW", "md_parent_section": "§FT.1 [Example 1]", "md_verbatim": "| 4 | STUDYX | FT | MS01-01 | 4 | 1 | SIXMW104 | SIXMW1-Distance at 4 Minutes | SIX MINUTE WALK | 396 | m | 396 | 396 | m | Y | 1 | 2014-03-10 |", "score": 0.4072, "match_basis": "verbatim_token+domain_route:FT"}], "candidate_count": 5, "zero_candidate": false}
{"pdf_atom_id": "ig34_p0319_a012", "pdf_atom_type": "TABLE_ROW", "pdf_source": "SDTMIG_v3.4", "pdf_page": 319, "pdf_parent_section": "§6.3.9.1 Functional Tests (FT)", "pdf_verbatim": "| FTGRPID | Group ID | Char | | Identifier | Optional group identifier, used to link together a block of related records within a subject in a domain. | Perm |", "figure_ref": null, "candidates": [{"md_atom_id": "md_dmFT_ex_a017", "md_file": "knowledge_base/domains/FT/examples.md", "md_atom_type": "TABLE_ROW", "md_parent_section": "§FT.1 [Example 1]", "md_verbatim": "| 1 | STUDYX | FT | MS01-01 | FTGRPID | 1 | FTASSTDV | Assistance Device | CANE | CRF | INVESTIGATOR |", "score": 0.4306, "match_basis": "verbatim_token+domain_route:FT"}, {"md_atom_id": "md_dmFT_ex_a007", "md_file": "knowledge_base/domains/FT/examples.md", "md_atom_type": "TABLE_HEADER", "md_parent_section": "§FT.1 [Example 1]", "md_verbatim": "| Row | STUDYID | DOMAIN | USUBJID | FTSEQ | FTGRPID | FTTESTCD | FTTEST | FTCAT | FTORRES | FTORRESU | FTSTRESC | FTSTRESN | FTSTRESU | FTBLFL | VISITNUM | FTDTC |\n|-----|---------|--------|---------|-------|---------|----------|--------|-------|---------|----------|----------|----------|----------|--------|----------|-------|", "score": 0.4017, "match_basis": "verbatim_token+domain_route:FT"}, {"md_atom_id": "md_dmFT_ex_a008", "md_file": "knowledge_base/domains/FT/examples.md", "md_atom_type": "TABLE_ROW", "md_parent_section": "§FT.1 [Example 1]", "md_verbatim": "| 1 | STUDYX | FT | MS01-01 | 1 | 1 | SIXMW101 | SIXMW1-Distance at 1 Minute | SIX MINUTE WALK | 101 | m | 101 | 101 | m | Y | 1 | 2014-03-10 |", "score": 0.4, "match_basis": "verbatim_token+domain_route:FT"}, {"md_atom_id": "md_dmFT_ex_a009", "md_file": "knowledge_base/domains/FT/examples.md", "md_atom_type": "TABLE_ROW", "md_parent_section": "§FT.1 [Example 1]", "md_verbatim": "| 2 | STUDYX | FT | MS01-01 | 2 | 1 | SIXMW102 | SIXMW1-Distance at 2 Minutes | SIX MINUTE WALK | 201 | m | 201 | 201 | m | Y | 1 | 2014-03-10 |", "score": 0.4, "match_basis": "verbatim_token+domain_route:FT"}, {"md_atom_id": "md_dmFT_ex_a010", "md_file": "knowledge_base/domains/FT/examples.md", "md_atom_type": "TABLE_ROW", "md_parent_section": "§FT.1 [Example 1]", "md_verbatim": "| 3 | STUDYX | FT | MS01-01 | 3 | 1 | SIXMW103 | SIXMW1-Distance at 3 Minutes | SIX MINUTE WALK | 299 | m | 299 | 299 | m | Y | 1 | 2014-03-10 |", "score": 0.4, "match_basis": "verbatim_token+domain_route:FT"}], "candidate_count": 5, "zero_candidate": false}
{"pdf_atom_id": "ig34_p0319_a013", "pdf_atom_type": "TABLE_ROW", "pdf_source": "SDTMIG_v3.4", "pdf_page": 319, "pdf_parent_section": "§6.3.9.1 Functional Tests (FT)", "pdf_verbatim": "| FTREFID | Reference ID | Char | | Identifier | Optional internal or external identifier. | Perm |", "figure_ref": null, "candidates": [{"md_atom_id": "md_dmFT_ex_a008", "md_file": "knowledge_base/domains/FT/examples.md", "md_atom_type": "TABLE_ROW", "md_parent_section": "§FT.1 [Example 1]", "md_verbatim": "| 1 | STUDYX | FT | MS01-01 | 1 | 1 | SIXMW101 | SIXMW1-Distance at 1 Minute | SIX MINUTE WALK | 101 | m | 101 | 101 | m | Y | 1 | 2014-03-10 |", "score": 0.4098, "match_basis": "verbatim_token+domain_route:FT"}, {"md_atom_id": "md_dmFT_ex_a009", "md_file": "knowledge_base/domains/FT/examples.md", "md_atom_type": "TABLE_ROW", "md_parent_section": "§FT.1 [Example 1]", "md_verbatim": "| 2 | STUDYX | FT | MS01-01 | 2 | 1 | SIXMW102 | SIXMW1-Distance at 2 Minutes | SIX MINUTE WALK | 201 | m | 201 | 201 | m | Y | 1 | 2014-03-10 |", "score": 0.4097, "match_basis": "verbatim_token+domain_route:FT"}, {"md_atom_id": "md_dmFT_ex_a010", "md_file": "knowledge_base/domains/FT/examples.md", "md_atom_type": "TABLE_ROW", "md_parent_section": "§FT.1 [Example 1]", "md_verbatim": "| 3 | STUDYX | FT | MS01-01 | 3 | 1 | SIXMW103 | SIXMW1-Distance at 3 Minutes | SIX MINUTE WALK | 299 | m | 299 | 299 | m | Y | 1 | 2014-03-10 |", "score": 0.4095, "match_basis": "verbatim_token+domain_route:FT"}, {"md_atom_id": "md_dmFT_ex_a011", "md_file": "knowledge_base/domains/FT/examples.md", "md_atom_type": "TABLE_ROW", "md_parent_section": "§FT.1 [Example 1]", "md_verbatim": "| 4 | STUDYX | FT | MS01-01 | 4 | 1 | SIXMW104 | SIXMW1-Distance at 4 Minutes | SIX MINUTE WALK | 396 | m | 396 | 396 | m | Y | 1 | 2014-03-10 |", "score": 0.4095, "match_basis": "verbatim_token+domain_route:FT"}, {"md_atom_id": "md_dmFT_ex_a012", "md_file": "knowledge_base/domains/FT/examples.md", "md_atom_type": "TABLE_ROW", "md_parent_section": "§FT.1 [Example 1]", "md_verbatim": "| 5 | STUDYX | FT | MS01-01 | 5 | 1 | SIXMW105 | SIXMW1-Distance at 5 Minutes | SIX MINUTE WALK | 493 | m | 493 | 493 | m | Y | 1 | 2014-03-10 |", "score": 0.4095, "match_basis": "verbatim_token+domain_route:FT"}], "candidate_count": 5, "zero_candidate": false}
{"pdf_atom_id": "ig34_p0319_a014", "pdf_atom_type": "TABLE_ROW", "pdf_source": "SDTMIG_v3.4", "pdf_page": 319, "pdf_parent_section": "§6.3.9.1 Functional Tests (FT)", "pdf_verbatim": "| FTSPID | Sponsor-Defined Identifier | Char | | Identifier | Sponsor-defined identifier. May be preprinted on the CRF as an explicit line identifier or defined in the sponsor's operational database. Example: Line number on the Test page. | Perm |", "figure_ref": null, "candidates": [{"md_atom_id": "md_dmFT_ex_a017", "md_file": "knowledge_base/domains/FT/examples.md", "md_atom_type": "TABLE_ROW", "md_parent_section": "§FT.1 [Example 1]", "md_verbatim": "| 1 | STUDYX | FT | MS01-01 | FTGRPID | 1 | FTASSTDV | Assistance Device | CANE | CRF | INVESTIGATOR |", "score": 0.4165, "match_basis": "verbatim_token+domain_route:FT"}, {"md_atom_id": "md_dmFT_ex_a009", "md_file": "knowledge_base/domains/FT/examples.md", "md_atom_type": "TABLE_ROW", "md_parent_section": "§FT.1 [Example 1]", "md_verbatim": "| 2 | STUDYX | FT | MS01-01 | 2 | 1 | SIXMW102 | SIXMW1-Distance at 2 Minutes | SIX MINUTE WALK | 201 | m | 201 | 201 | m | Y | 1 | 2014-03-10 |", "score": 0.4062, "match_basis": "verbatim_token+domain_route:FT"}, {"md_atom_id": "md_dmFT_ex_a010", "md_file": "knowledge_base/domains/FT/examples.md", "md_atom_type": "TABLE_ROW", "md_parent_section": "§FT.1 [Example 1]", "md_verbatim": "| 3 | STUDYX | FT | MS01-01 | 3 | 1 | SIXMW103 | SIXMW1-Distance at 3 Minutes | SIX MINUTE WALK | 299 | m | 299 | 299 | m | Y | 1 | 2014-03-10 |", "score": 0.4061, "match_basis": "verbatim_token+domain_route:FT"}, {"md_atom_id": "md_dmFT_ex_a011", "md_file": "knowledge_base/domains/FT/examples.md", "md_atom_type": "TABLE_ROW", "md_parent_section": "§FT.1 [Example 1]", "md_verbatim": "| 4 | STUDYX | FT | MS01-01 | 4 | 1 | SIXMW104 | SIXMW1-Distance at 4 Minutes | SIX MINUTE WALK | 396 | m | 396 | 396 | m | Y | 1 | 2014-03-10 |", "score": 0.4061, "match_basis": "verbatim_token+domain_route:FT"}, {"md_atom_id": "md_dmFT_ex_a012", "md_file": "knowledge_base/domains/FT/examples.md", "md_atom_type": "TABLE_ROW", "md_parent_section": "§FT.1 [Example 1]", "md_verbatim": "| 5 | STUDYX | FT | MS01-01 | 5 | 1 | SIXMW105 | SIXMW1-Distance at 5 Minutes | SIX MINUTE WALK | 493 | m | 493 | 493 | m | Y | 1 | 2014-03-10 |", "score": 0.4061, "match_basis": "verbatim_token+domain_route:FT"}], "candidate_count": 5, "zero_candidate": false}
{"pdf_atom_id": "ig34_p0319_a015", "pdf_atom_type": "TABLE_ROW", "pdf_source": "SDTMIG_v3.4", "pdf_page": 319, "pdf_parent_section": "§6.3.9.1 Functional Tests (FT)", "pdf_verbatim": "| FTTESTCD | Short Name of Test | Char | * | Topic | Short character value for FTTEST, which can be used as a column name when converting from a vertical format to a horizontal format. The value cannot be longer than 8 characters, nor can it start with a number (e.g., \"1TEST\" is not valid). FTTESTCD cannot contain characters other than letters, numbers, or underscores. Controlled terminology for FTTESTCD is published in separate codelists for each instrument. See https://www.cdisc.org/standards/terminology/controlled-terminology for values for FTTESTCD. Examples: \"W250101\", \"W25F0102\". | Req |", "figure_ref": null, "candidates": [{"md_atom_id": "md_dmFT_ex_a009", "md_file": "knowledge_base/domains/FT/examples.md", "md_atom_type": "TABLE_ROW", "md_parent_section": "§FT.1 [Example 1]", "md_verbatim": "| 2 | STUDYX | FT | MS01-01 | 2 | 1 | SIXMW102 | SIXMW1-Distance at 2 Minutes | SIX MINUTE WALK | 201 | m | 201 | 201 | m | Y | 1 | 2014-03-10 |", "score": 0.4219, "match_basis": "verbatim_token+domain_route:FT"}, {"md_atom_id": "md_dmFT_ex_a008", "md_file": "knowledge_base/domains/FT/examples.md", "md_atom_type": "TABLE_ROW", "md_parent_section": "§FT.1 [Example 1]", "md_verbatim": "| 1 | STUDYX | FT | MS01-01 | 1 | 1 | SIXMW101 | SIXMW1-Distance at 1 Minute | SIX MINUTE WALK | 101 | m | 101 | 101 | m | Y | 1 | 2014-03-10 |", "score": 0.4187, "match_basis": "verbatim_token+domain_route:FT"}, {"md_atom_id": "md_dmFT_ex_a010", "md_file": "knowledge_base/domains/FT/examples.md", "md_atom_type": "TABLE_ROW", "md_parent_section": "§FT.1 [Example 1]", "md_verbatim": "| 3 | STUDYX | FT | MS01-01 | 3 | 1 | SIXMW103 | SIXMW1-Distance at 3 Minutes | SIX MINUTE WALK | 299 | m | 299 | 299 | m | Y | 1 | 2014-03-10 |", "score": 0.4186, "match_basis": "verbatim_token+domain_route:FT"}, {"md_atom_id": "md_dmFT_ex_a011", "md_file": "knowledge_base/domains/FT/examples.md", "md_atom_type": "TABLE_ROW", "md_parent_section": "§FT.1 [Example 1]", "md_verbatim": "| 4 | STUDYX | FT | MS01-01 | 4 | 1 | SIXMW104 | SIXMW1-Distance at 4 Minutes | SIX MINUTE WALK | 396 | m | 396 | 396 | m | Y | 1 | 2014-03-10 |", "score": 0.4186, "match_basis": "verbatim_token+domain_route:FT"}, {"md_atom_id": "md_dmFT_ex_a012", "md_file": "knowledge_base/domains/FT/examples.md", "md_atom_type": "TABLE_ROW", "md_parent_section": "§FT.1 [Example 1]", "md_verbatim": "| 5 | STUDYX | FT | MS01-01 | 5 | 1 | SIXMW105 | SIXMW1-Distance at 5 Minutes | SIX MINUTE WALK | 493 | m | 493 | 493 | m | Y | 1 | 2014-03-10 |", "score": 0.4186, "match_basis": "verbatim_token+domain_route:FT"}], "candidate_count": 5, "zero_candidate": false}
{"pdf_atom_id": "ig34_p0319_a016", "pdf_atom_type": "TABLE_ROW", "pdf_source": "SDTMIG_v3.4", "pdf_page": 319, "pdf_parent_section": "§6.3.9.1 Functional Tests (FT)", "pdf_verbatim": "| FTTEST | Name of Test | Char | * | Synonym Qualifier | Verbatim name of the question used to obtain the finding. The value in FTTEST cannot be longer than 40 characters. Controlled terminology for FTTEST is published in separate codelists for each instrument. See https://www.cdisc.org/standards/terminology/controlled-terminology for values for FTTEST. Examples: \"W2501-25 Foot Walk Time\", \"W25F-More Than Two Attempts\". | Req |", "figure_ref": null, "candidates": [{"md_atom_id": "md_dmFT_ex_a009", "md_file": "knowledge_base/domains/FT/examples.md", "md_atom_type": "TABLE_ROW", "md_parent_section": "§FT.1 [Example 1]", "md_verbatim": "| 2 | STUDYX | FT | MS01-01 | 2 | 1 | SIXMW102 | SIXMW1-Distance at 2 Minutes | SIX MINUTE WALK | 201 | m | 201 | 201 | m | Y | 1 | 2014-03-10 |", "score": 0.4289, "match_basis": "verbatim_token+domain_route:FT"}, {"md_atom_id": "md_dmFT_ex_a010", "md_file": "knowledge_base/domains/FT/examples.md", "md_atom_type": "TABLE_ROW", "md_parent_section": "§FT.1 [Example 1]", "md_verbatim": "| 3 | STUDYX | FT | MS01-01 | 3 | 1 | SIXMW103 | SIXMW1-Distance at 3 Minutes | SIX MINUTE WALK | 299 | m | 299 | 299 | m | Y | 1 | 2014-03-10 |", "score": 0.4287, "match_basis": "verbatim_token+domain_route:FT"}, {"md_atom_id": "md_dmFT_ex_a011", "md_file": "knowledge_base/domains/FT/examples.md", "md_atom_type": "TABLE_ROW", "md_parent_section": "§FT.1 [Example 1]", "md_verbatim": "| 4 | STUDYX | FT | MS01-01 | 4 | 1 | SIXMW104 | SIXMW1-Distance at 4 Minutes | SIX MINUTE WALK | 396 | m | 396 | 396 | m | Y | 1 | 2014-03-10 |", "score": 0.4287, "match_basis": "verbatim_token+domain_route:FT"}, {"md_atom_id": "md_dmFT_ex_a012", "md_file": "knowledge_base/domains/FT/examples.md", "md_atom_type": "TABLE_ROW", "md_parent_section": "§FT.1 [Example 1]", "md_verbatim": "| 5 | STUDYX | FT | MS01-01 | 5 | 1 | SIXMW105 | SIXMW1-Distance at 5 Minutes | SIX MINUTE WALK | 493 | m | 493 | 493 | m | Y | 1 | 2014-03-10 |", "score": 0.4287, "match_basis": "verbatim_token+domain_route:FT"}, {"md_atom_id": "md_dmFT_ex_a013", "md_file": "knowledge_base/domains/FT/examples.md", "md_atom_type": "TABLE_ROW", "md_parent_section": "§FT.1 [Example 1]", "md_verbatim": "| 6 | STUDYX | FT | MS01-01 | 6 | 1 | SIXMW106 | SIXMW1-Distance at 6 Minutes | SIX MINUTE WALK | 597 | m | 597 | 597 | m | Y | 1 | 2014-03-10 |", "score": 0.4287, "match_basis": "verbatim_token+domain_route:FT"}], "candidate_count": 5, "zero_candidate": false}
{"pdf_atom_id": "ig34_p0319_a017", "pdf_atom_type": "TABLE_ROW", "pdf_source": "SDTMIG_v3.4", "pdf_page": 319, "pdf_parent_section": "§6.3.9.1 Functional Tests (FT)", "pdf_verbatim": "| FTCAT | Category | Char | (FTCAT) | Grouping Qualifier | Used to specify the functional test in which the functional test question identified by FTTEST and FTTESTCD was included. | Req |", "figure_ref": null, "candidates": [{"md_atom_id": "md_dmFT_ex_a017", "md_file": "knowledge_base/domains/FT/examples.md", "md_atom_type": "TABLE_ROW", "md_parent_section": "§FT.1 [Example 1]", "md_verbatim": "| 1 | STUDYX | FT | MS01-01 | FTGRPID | 1 | FTASSTDV | Assistance Device | CANE | CRF | INVESTIGATOR |", "score": 0.4114, "match_basis": "verbatim_token+domain_route:FT"}, {"md_atom_id": "md_dmFT_ex_a009", "md_file": "knowledge_base/domains/FT/examples.md", "md_atom_type": "TABLE_ROW", "md_parent_section": "§FT.1 [Example 1]", "md_verbatim": "| 2 | STUDYX | FT | MS01-01 | 2 | 1 | SIXMW102 | SIXMW1-Distance at 2 Minutes | SIX MINUTE WALK | 201 | m | 201 | 201 | m | Y | 1 | 2014-03-10 |", "score": 0.4065, "match_basis": "verbatim_token+domain_route:FT"}, {"md_atom_id": "md_dmFT_ex_a010", "md_file": "knowledge_base/domains/FT/examples.md", "md_atom_type": "TABLE_ROW", "md_parent_section": "§FT.1 [Example 1]", "md_verbatim": "| 3 | STUDYX | FT | MS01-01 | 3 | 1 | SIXMW103 | SIXMW1-Distance at 3 Minutes | SIX MINUTE WALK | 299 | m | 299 | 299 | m | Y | 1 | 2014-03-10 |", "score": 0.4065, "match_basis": "verbatim_token+domain_route:FT"}, {"md_atom_id": "md_dmFT_ex_a011", "md_file": "knowledge_base/domains/FT/examples.md", "md_atom_type": "TABLE_ROW", "md_parent_section": "§FT.1 [Example 1]", "md_verbatim": "| 4 | STUDYX | FT | MS01-01 | 4 | 1 | SIXMW104 | SIXMW1-Distance at 4 Minutes | SIX MINUTE WALK | 396 | m | 396 | 396 | m | Y | 1 | 2014-03-10 |", "score": 0.4065, "match_basis": "verbatim_token+domain_route:FT"}, {"md_atom_id": "md_dmFT_ex_a012", "md_file": "knowledge_base/domains/FT/examples.md", "md_atom_type": "TABLE_ROW", "md_parent_section": "§FT.1 [Example 1]", "md_verbatim": "| 5 | STUDYX | FT | MS01-01 | 5 | 1 | SIXMW105 | SIXMW1-Distance at 5 Minutes | SIX MINUTE WALK | 493 | m | 493 | 493 | m | Y | 1 | 2014-03-10 |", "score": 0.4065, "match_basis": "verbatim_token+domain_route:FT"}], "candidate_count": 5, "zero_candidate": false}
{"pdf_atom_id": "ig34_p0319_a018", "pdf_atom_type": "TABLE_ROW", "pdf_source": "SDTMIG_v3.4", "pdf_page": 319, "pdf_parent_section": "§6.3.9.1 Functional Tests (FT)", "pdf_verbatim": "| FTSCAT | Subcategory | Char | | Grouping Qualifier | Used to define a further categorization of FTCAT values. | Perm |", "figure_ref": null, "candidates": [{"md_atom_id": "md_dmFT_ex_a008", "md_file": "knowledge_base/domains/FT/examples.md", "md_atom_type": "TABLE_ROW", "md_parent_section": "§FT.1 [Example 1]", "md_verbatim": "| 1 | STUDYX | FT | MS01-01 | 1 | 1 | SIXMW101 | SIXMW1-Distance at 1 Minute | SIX MINUTE WALK | 101 | m | 101 | 101 | m | Y | 1 | 2014-03-10 |", "score": 0.4, "match_basis": "verbatim_token+domain_route:FT"}, {"md_atom_id": "md_dmFT_ex_a009", "md_file": "knowledge_base/domains/FT/examples.md", "md_atom_type": "TABLE_ROW", "md_parent_section": "§FT.1 [Example 1]", "md_verbatim": "| 2 | STUDYX | FT | MS01-01 | 2 | 1 | SIXMW102 | SIXMW1-Distance at 2 Minutes | SIX MINUTE WALK | 201 | m | 201 | 201 | m | Y | 1 | 2014-03-10 |", "score": 0.4, "match_basis": "verbatim_token+domain_route:FT"}, {"md_atom_id": "md_dmFT_ex_a010", "md_file": "knowledge_base/domains/FT/examples.md", "md_atom_type": "TABLE_ROW", "md_parent_section": "§FT.1 [Example 1]", "md_verbatim": "| 3 | STUDYX | FT | MS01-01 | 3 | 1 | SIXMW103 | SIXMW1-Distance at 3 Minutes | SIX MINUTE WALK | 299 | m | 299 | 299 | m | Y | 1 | 2014-03-10 |", "score": 0.4, "match_basis": "verbatim_token+domain_route:FT"}, {"md_atom_id": "md_dmFT_ex_a011", "md_file": "knowledge_base/domains/FT/examples.md", "md_atom_type": "TABLE_ROW", "md_parent_section": "§FT.1 [Example 1]", "md_verbatim": "| 4 | STUDYX | FT | MS01-01 | 4 | 1 | SIXMW104 | SIXMW1-Distance at 4 Minutes | SIX MINUTE WALK | 396 | m | 396 | 396 | m | Y | 1 | 2014-03-10 |", "score": 0.4, "match_basis": "verbatim_token+domain_route:FT"}, {"md_atom_id": "md_dmFT_ex_a012", "md_file": "knowledge_base/domains/FT/examples.md", "md_atom_type": "TABLE_ROW", "md_parent_section": "§FT.1 [Example 1]", "md_verbatim": "| 5 | STUDYX | FT | MS01-01 | 5 | 1 | SIXMW105 | SIXMW1-Distance at 5 Minutes | SIX MINUTE WALK | 493 | m | 493 | 493 | m | Y | 1 | 2014-03-10 |", "score": 0.4, "match_basis": "verbatim_token+domain_route:FT"}], "candidate_count": 5, "zero_candidate": false}
{"pdf_atom_id": "ig34_p0319_a019", "pdf_atom_type": "TABLE_ROW", "pdf_source": "SDTMIG_v3.4", "pdf_page": 319, "pdf_parent_section": "§6.3.9.1 Functional Tests (FT)", "pdf_verbatim": "| FTPOS | Position of Subject During Observation | Char | (POSITION) | Record Qualifier | Position of the subject during the test. Examples: \"SUPINE\", \"STANDING\", \"SITTING\". | Perm |", "figure_ref": null, "candidates": [{"md_atom_id": "md_dmFT_ex_a009", "md_file": "knowledge_base/domains/FT/examples.md", "md_atom_type": "TABLE_ROW", "md_parent_section": "§FT.1 [Example 1]", "md_verbatim": "| 2 | STUDYX | FT | MS01-01 | 2 | 1 | SIXMW102 | SIXMW1-Distance at 2 Minutes | SIX MINUTE WALK | 201 | m | 201 | 201 | m | Y | 1 | 2014-03-10 |", "score": 0.4214, "match_basis": "verbatim_token+domain_route:FT"}, {"md_atom_id": "md_dmFT_ex_a010", "md_file": "knowledge_base/domains/FT/examples.md", "md_atom_type": "TABLE_ROW", "md_parent_section": "§FT.1 [Example 1]", "md_verbatim": "| 3 | STUDYX | FT | MS01-01 | 3 | 1 | SIXMW103 | SIXMW1-Distance at 3 Minutes | SIX MINUTE WALK | 299 | m | 299 | 299 | m | Y | 1 | 2014-03-10 |", "score": 0.4212, "match_basis": "verbatim_token+domain_route:FT"}, {"md_atom_id": "md_dmFT_ex_a011", "md_file": "knowledge_base/domains/FT/examples.md", "md_atom_type": "TABLE_ROW", "md_parent_section": "§FT.1 [Example 1]", "md_verbatim": "| 4 | STUDYX | FT | MS01-01 | 4 | 1 | SIXMW104 | SIXMW1-Distance at 4 Minutes | SIX MINUTE WALK | 396 | m | 396 | 396 | m | Y | 1 | 2014-03-10 |", "score": 0.4212, "match_basis": "verbatim_token+domain_route:FT"}, {"md_atom_id": "md_dmFT_ex_a012", "md_file": "knowledge_base/domains/FT/examples.md", "md_atom_type": "TABLE_ROW", "md_parent_section": "§FT.1 [Example 1]", "md_verbatim": "| 5 | STUDYX | FT | MS01-01 | 5 | 1 | SIXMW105 | SIXMW1-Distance at 5 Minutes | SIX MINUTE WALK | 493 | m | 493 | 493 | m | Y | 1 | 2014-03-10 |", "score": 0.4212, "match_basis": "verbatim_token+domain_route:FT"}, {"md_atom_id": "md_dmFT_ex_a013", "md_file": "knowledge_base/domains/FT/examples.md", "md_atom_type": "TABLE_ROW", "md_parent_section": "§FT.1 [Example 1]", "md_verbatim": "| 6 | STUDYX | FT | MS01-01 | 6 | 1 | SIXMW106 | SIXMW1-Distance at 6 Minutes | SIX MINUTE WALK | 597 | m | 597 | 597 | m | Y | 1 | 2014-03-10 |", "score": 0.4212, "match_basis": "verbatim_token+domain_route:FT"}], "candidate_count": 5, "zero_candidate": false}
{"pdf_atom_id": "ig34_p0319_a020", "pdf_atom_type": "TABLE_ROW", "pdf_source": "SDTMIG_v3.4", "pdf_page": 319, "pdf_parent_section": "§6.3.9.1 Functional Tests (FT)", "pdf_verbatim": "| FTORRES | Result or Finding in Original Units | Char | | Result Qualifier | Result of the measurement or finding as originally received or collected. | Exp |", "figure_ref": null, "candidates": [{"md_atom_id": "md_dmFT_ex_a017", "md_file": "knowledge_base/domains/FT/examples.md", "md_atom_type": "TABLE_ROW", "md_parent_section": "§FT.1 [Example 1]", "md_verbatim": "| 1 | STUDYX | FT | MS01-01 | FTGRPID | 1 | FTASSTDV | Assistance Device | CANE | CRF | INVESTIGATOR |", "score": 0.4062, "match_basis": "verbatim_token+domain_route:FT"}, {"md_atom_id": "md_dmFT_ex_a008", "md_file": "knowledge_base/domains/FT/examples.md", "md_atom_type": "TABLE_ROW", "md_parent_section": "§FT.1 [Example 1]", "md_verbatim": "| 1 | STUDYX | FT | MS01-01 | 1 | 1 | SIXMW101 | SIXMW1-Distance at 1 Minute | SIX MINUTE WALK | 101 | m | 101 | 101 | m | Y | 1 | 2014-03-10 |", "score": 0.4, "match_basis": "verbatim_token+domain_route:FT"}, {"md_atom_id": "md_dmFT_ex_a009", "md_file": "knowledge_base/domains/FT/examples.md", "md_atom_type": "TABLE_ROW", "md_parent_section": "§FT.1 [Example 1]", "md_verbatim": "| 2 | STUDYX | FT | MS01-01 | 2 | 1 | SIXMW102 | SIXMW1-Distance at 2 Minutes | SIX MINUTE WALK | 201 | m | 201 | 201 | m | Y | 1 | 2014-03-10 |", "score": 0.4, "match_basis": "verbatim_token+domain_route:FT"}, {"md_atom_id": "md_dmFT_ex_a010", "md_file": "knowledge_base/domains/FT/examples.md", "md_atom_type": "TABLE_ROW", "md_parent_section": "§FT.1 [Example 1]", "md_verbatim": "| 3 | STUDYX | FT | MS01-01 | 3 | 1 | SIXMW103 | SIXMW1-Distance at 3 Minutes | SIX MINUTE WALK | 299 | m | 299 | 299 | m | Y | 1 | 2014-03-10 |", "score": 0.4, "match_basis": "verbatim_token+domain_route:FT"}, {"md_atom_id": "md_dmFT_ex_a011", "md_file": "knowledge_base/domains/FT/examples.md", "md_atom_type": "TABLE_ROW", "md_parent_section": "§FT.1 [Example 1]", "md_verbatim": "| 4 | STUDYX | FT | MS01-01 | 4 | 1 | SIXMW104 | SIXMW1-Distance at 4 Minutes | SIX MINUTE WALK | 396 | m | 396 | 396 | m | Y | 1 | 2014-03-10 |", "score": 0.4, "match_basis": "verbatim_token+domain_route:FT"}], "candidate_count": 5, "zero_candidate": false}
{"pdf_atom_id": "ig34_p0319_a021", "pdf_atom_type": "TABLE_ROW", "pdf_source": "SDTMIG_v3.4", "pdf_page": 319, "pdf_parent_section": "§6.3.9.1 Functional Tests (FT)", "pdf_verbatim": "| FTORRESU | Original Units | Char | (UNIT) | Variable Qualifier | Original units in which the data were collected. Unit for FTORRES. | Perm |", "figure_ref": null, "candidates": [{"md_atom_id": "md_dmFT_ex_a017", "md_file": "knowledge_base/domains/FT/examples.md", "md_atom_type": "TABLE_ROW", "md_parent_section": "§FT.1 [Example 1]", "md_verbatim": "| 1 | STUDYX | FT | MS01-01 | FTGRPID | 1 | FTASSTDV | Assistance Device | CANE | CRF | INVESTIGATOR |", "score": 0.4068, "match_basis": "verbatim_token+domain_route:FT"}, {"md_atom_id": "md_dmFT_ex_a008", "md_file": "knowledge_base/domains/FT/examples.md", "md_atom_type": "TABLE_ROW", "md_parent_section": "§FT.1 [Example 1]", "md_verbatim": "| 1 | STUDYX | FT | MS01-01 | 1 | 1 | SIXMW101 | SIXMW1-Distance at 1 Minute | SIX MINUTE WALK | 101 | m | 101 | 101 | m | Y | 1 | 2014-03-10 |", "score": 0.4, "match_basis": "verbatim_token+domain_route:FT"}, {"md_atom_id": "md_dmFT_ex_a009", "md_file": "knowledge_base/domains/FT/examples.md", "md_atom_type": "TABLE_ROW", "md_parent_section": "§FT.1 [Example 1]", "md_verbatim": "| 2 | STUDYX | FT | MS01-01 | 2 | 1 | SIXMW102 | SIXMW1-Distance at 2 Minutes | SIX MINUTE WALK | 201 | m | 201 | 201 | m | Y | 1 | 2014-03-10 |", "score": 0.4, "match_basis": "verbatim_token+domain_route:FT"}, {"md_atom_id": "md_dmFT_ex_a010", "md_file": "knowledge_base/domains/FT/examples.md", "md_atom_type": "TABLE_ROW", "md_parent_section": "§FT.1 [Example 1]", "md_verbatim": "| 3 | STUDYX | FT | MS01-01 | 3 | 1 | SIXMW103 | SIXMW1-Distance at 3 Minutes | SIX MINUTE WALK | 299 | m | 299 | 299 | m | Y | 1 | 2014-03-10 |", "score": 0.4, "match_basis": "verbatim_token+domain_route:FT"}, {"md_atom_id": "md_dmFT_ex_a011", "md_file": "knowledge_base/domains/FT/examples.md", "md_atom_type": "TABLE_ROW", "md_parent_section": "§FT.1 [Example 1]", "md_verbatim": "| 4 | STUDYX | FT | MS01-01 | 4 | 1 | SIXMW104 | SIXMW1-Distance at 4 Minutes | SIX MINUTE WALK | 396 | m | 396 | 396 | m | Y | 1 | 2014-03-10 |", "score": 0.4, "match_basis": "verbatim_token+domain_route:FT"}], "candidate_count": 5, "zero_candidate": false}
{"pdf_atom_id": "ig34_p0319_a022", "pdf_atom_type": "TABLE_ROW", "pdf_source": "SDTMIG_v3.4", "pdf_page": 319, "pdf_parent_section": "§6.3.9.1 Functional Tests (FT)", "pdf_verbatim": "| FTSTRESC | Result or Finding in Standard Format | Char | | Result Qualifier | Contains the result value for all findings, copied or derived from FTORRES in a standard format or in standard units. FTSTRESC should store all results or findings in character format; if results are numeric, they should also be stored in numeric format in FTSTRESN. | Exp |", "figure_ref": null, "candidates": [{"md_atom_id": "md_dmFT_ex_a017", "md_file": "knowledge_base/domains/FT/examples.md", "md_atom_type": "TABLE_ROW", "md_parent_section": "§FT.1 [Example 1]", "md_verbatim": "| 1 | STUDYX | FT | MS01-01 | FTGRPID | 1 | FTASSTDV | Assistance Device | CANE | CRF | INVESTIGATOR |", "score": 0.4145, "match_basis": "verbatim_token+domain_route:FT"}, {"md_atom_id": "md_dmFT_ex_a008", "md_file": "knowledge_base/domains/FT/examples.md", "md_atom_type": "TABLE_ROW", "md_parent_section": "§FT.1 [Example 1]", "md_verbatim": "| 1 | STUDYX | FT | MS01-01 | 1 | 1 | SIXMW101 | SIXMW1-Distance at 1 Minute | SIX MINUTE WALK | 101 | m | 101 | 101 | m | Y | 1 | 2014-03-10 |", "score": 0.4109, "match_basis": "verbatim_token+domain_route:FT"}, {"md_atom_id": "md_dmFT_ex_a009", "md_file": "knowledge_base/domains/FT/examples.md", "md_atom_type": "TABLE_ROW", "md_parent_section": "§FT.1 [Example 1]", "md_verbatim": "| 2 | STUDYX | FT | MS01-01 | 2 | 1 | SIXMW102 | SIXMW1-Distance at 2 Minutes | SIX MINUTE WALK | 201 | m | 201 | 201 | m | Y | 1 | 2014-03-10 |", "score": 0.4108, "match_basis": "verbatim_token+domain_route:FT"}, {"md_atom_id": "md_dmFT_ex_a010", "md_file": "knowledge_base/domains/FT/examples.md", "md_atom_type": "TABLE_ROW", "md_parent_section": "§FT.1 [Example 1]", "md_verbatim": "| 3 | STUDYX | FT | MS01-01 | 3 | 1 | SIXMW103 | SIXMW1-Distance at 3 Minutes | SIX MINUTE WALK | 299 | m | 299 | 299 | m | Y | 1 | 2014-03-10 |", "score": 0.4107, "match_basis": "verbatim_token+domain_route:FT"}, {"md_atom_id": "md_dmFT_ex_a011", "md_file": "knowledge_base/domains/FT/examples.md", "md_atom_type": "TABLE_ROW", "md_parent_section": "§FT.1 [Example 1]", "md_verbatim": "| 4 | STUDYX | FT | MS01-01 | 4 | 1 | SIXMW104 | SIXMW1-Distance at 4 Minutes | SIX MINUTE WALK | 396 | m | 396 | 396 | m | Y | 1 | 2014-03-10 |", "score": 0.4107, "match_basis": "verbatim_token+domain_route:FT"}], "candidate_count": 5, "zero_candidate": false}
{"pdf_atom_id": "ig34_p0319_a023", "pdf_atom_type": "TABLE_ROW", "pdf_source": "SDTMIG_v3.4", "pdf_page": 319, "pdf_parent_section": "§6.3.9.1 Functional Tests (FT)", "pdf_verbatim": "| FTSTRESN | Numeric Result/Finding in Standard Units | Num | | Result Qualifier | Used for continuous or numeric results or findings in standard format; copied in numeric format from FTSTRESC. FTSTRESN should store all numeric test results or findings. | Perm |", "figure_ref": null, "candidates": [{"md_atom_id": "md_dmFT_ex_a009", "md_file": "knowledge_base/domains/FT/examples.md", "md_atom_type": "TABLE_ROW", "md_parent_section": "§FT.1 [Example 1]", "md_verbatim": "| 2 | STUDYX | FT | MS01-01 | 2 | 1 | SIXMW102 | SIXMW1-Distance at 2 Minutes | SIX MINUTE WALK | 201 | m | 201 | 201 | m | Y | 1 | 2014-03-10 |", "score": 0.4258, "match_basis": "verbatim_token+domain_route:FT"}, {"md_atom_id": "md_dmFT_ex_a010", "md_file": "knowledge_base/domains/FT/examples.md", "md_atom_type": "TABLE_ROW", "md_parent_section": "§FT.1 [Example 1]", "md_verbatim": "| 3 | STUDYX | FT | MS01-01 | 3 | 1 | SIXMW103 | SIXMW1-Distance at 3 Minutes | SIX MINUTE WALK | 299 | m | 299 | 299 | m | Y | 1 | 2014-03-10 |", "score": 0.4255, "match_basis": "verbatim_token+domain_route:FT"}, {"md_atom_id": "md_dmFT_ex_a011", "md_file": "knowledge_base/domains/FT/examples.md", "md_atom_type": "TABLE_ROW", "md_parent_section": "§FT.1 [Example 1]", "md_verbatim": "| 4 | STUDYX | FT | MS01-01 | 4 | 1 | SIXMW104 | SIXMW1-Distance at 4 Minutes | SIX MINUTE WALK | 396 | m | 396 | 396 | m | Y | 1 | 2014-03-10 |", "score": 0.4255, "match_basis": "verbatim_token+domain_route:FT"}, {"md_atom_id": "md_dmFT_ex_a012", "md_file": "knowledge_base/domains/FT/examples.md", "md_atom_type": "TABLE_ROW", "md_parent_section": "§FT.1 [Example 1]", "md_verbatim": "| 5 | STUDYX | FT | MS01-01 | 5 | 1 | SIXMW105 | SIXMW1-Distance at 5 Minutes | SIX MINUTE WALK | 493 | m | 493 | 493 | m | Y | 1 | 2014-03-10 |", "score": 0.4255, "match_basis": "verbatim_token+domain_route:FT"}, {"md_atom_id": "md_dmFT_ex_a013", "md_file": "knowledge_base/domains/FT/examples.md", "md_atom_type": "TABLE_ROW", "md_parent_section": "§FT.1 [Example 1]", "md_verbatim": "| 6 | STUDYX | FT | MS01-01 | 6 | 1 | SIXMW106 | SIXMW1-Distance at 6 Minutes | SIX MINUTE WALK | 597 | m | 597 | 597 | m | Y | 1 | 2014-03-10 |", "score": 0.4255, "match_basis": "verbatim_token+domain_route:FT"}], "candidate_count": 5, "zero_candidate": false}
{"pdf_atom_id": "ig34_p0320_a001", "pdf_atom_type": "TABLE_ROW", "pdf_source": "SDTMIG_v3.4", "pdf_page": 320, "pdf_parent_section": "§6.3.9.1 Functional Tests (FT)", "pdf_verbatim": "| FTSTRESU | Standard Units | Char | (UNIT) | Variable Qualifier | Standardized units used for FTSTRESC and FTSTRESN. | Perm |", "figure_ref": null, "candidates": [{"md_atom_id": "md_dmFT_ex_a008", "md_file": "knowledge_base/domains/FT/examples.md", "md_atom_type": "TABLE_ROW", "md_parent_section": "§FT.1 [Example 1]", "md_verbatim": "| 1 | STUDYX | FT | MS01-01 | 1 | 1 | SIXMW101 | SIXMW1-Distance at 1 Minute | SIX MINUTE WALK | 101 | m | 101 | 101 | m | Y | 1 | 2014-03-10 |", "score": 0.4185, "match_basis": "verbatim_token+domain_route:FT"}, {"md_atom_id": "md_dmFT_ex_a009", "md_file": "knowledge_base/domains/FT/examples.md", "md_atom_type": "TABLE_ROW", "md_parent_section": "§FT.1 [Example 1]", "md_verbatim": "| 2 | STUDYX | FT | MS01-01 | 2 | 1 | SIXMW102 | SIXMW1-Distance at 2 Minutes | SIX MINUTE WALK | 201 | m | 201 | 201 | m | Y | 1 | 2014-03-10 |", "score": 0.4182, "match_basis": "verbatim_token+domain_route:FT"}, {"md_atom_id": "md_dmFT_ex_a010", "md_file": "knowledge_base/domains/FT/examples.md", "md_atom_type": "TABLE_ROW", "md_parent_section": "§FT.1 [Example 1]", "md_verbatim": "| 3 | STUDYX | FT | MS01-01 | 3 | 1 | SIXMW103 | SIXMW1-Distance at 3 Minutes | SIX MINUTE WALK | 299 | m | 299 | 299 | m | Y | 1 | 2014-03-10 |", "score": 0.4179, "match_basis": "verbatim_token+domain_route:FT"}, {"md_atom_id": "md_dmFT_ex_a011", "md_file": "knowledge_base/domains/FT/examples.md", "md_atom_type": "TABLE_ROW", "md_parent_section": "§FT.1 [Example 1]", "md_verbatim": "| 4 | STUDYX | FT | MS01-01 | 4 | 1 | SIXMW104 | SIXMW1-Distance at 4 Minutes | SIX MINUTE WALK | 396 | m | 396 | 396 | m | Y | 1 | 2014-03-10 |", "score": 0.4179, "match_basis": "verbatim_token+domain_route:FT"}, {"md_atom_id": "md_dmFT_ex_a012", "md_file": "knowledge_base/domains/FT/examples.md", "md_atom_type": "TABLE_ROW", "md_parent_section": "§FT.1 [Example 1]", "md_verbatim": "| 5 | STUDYX | FT | MS01-01 | 5 | 1 | SIXMW105 | SIXMW1-Distance at 5 Minutes | SIX MINUTE WALK | 493 | m | 493 | 493 | m | Y | 1 | 2014-03-10 |", "score": 0.4179, "match_basis": "verbatim_token+domain_route:FT"}], "candidate_count": 5, "zero_candidate": false}
{"pdf_atom_id": "ig34_p0320_a002", "pdf_atom_type": "TABLE_ROW", "pdf_source": "SDTMIG_v3.4", "pdf_page": 320, "pdf_parent_section": "§6.3.9.1 Functional Tests (FT)", "pdf_verbatim": "| FTSTAT | Completion Status | Char | (ND) | Record Qualifier | Used to indicate that a test was not done, or a test was attempted but did not generate a result. Should be null or have a value of \"NOT DONE\". | Perm |", "figure_ref": null, "candidates": [{"md_atom_id": "md_dmFT_ex_a009", "md_file": "knowledge_base/domains/FT/examples.md", "md_atom_type": "TABLE_ROW", "md_parent_section": "§FT.1 [Example 1]", "md_verbatim": "| 2 | STUDYX | FT | MS01-01 | 2 | 1 | SIXMW102 | SIXMW1-Distance at 2 Minutes | SIX MINUTE WALK | 201 | m | 201 | 201 | m | Y | 1 | 2014-03-10 |", "score": 0.4121, "match_basis": "verbatim_token+domain_route:FT"}, {"md_atom_id": "md_dmFT_ex_a010", "md_file": "knowledge_base/domains/FT/examples.md", "md_atom_type": "TABLE_ROW", "md_parent_section": "§FT.1 [Example 1]", "md_verbatim": "| 3 | STUDYX | FT | MS01-01 | 3 | 1 | SIXMW103 | SIXMW1-Distance at 3 Minutes | SIX MINUTE WALK | 299 | m | 299 | 299 | m | Y | 1 | 2014-03-10 |", "score": 0.412, "match_basis": "verbatim_token+domain_route:FT"}, {"md_atom_id": "md_dmFT_ex_a011", "md_file": "knowledge_base/domains/FT/examples.md", "md_atom_type": "TABLE_ROW", "md_parent_section": "§FT.1 [Example 1]", "md_verbatim": "| 4 | STUDYX | FT | MS01-01 | 4 | 1 | SIXMW104 | SIXMW1-Distance at 4 Minutes | SIX MINUTE WALK | 396 | m | 396 | 396 | m | Y | 1 | 2014-03-10 |", "score": 0.412, "match_basis": "verbatim_token+domain_route:FT"}, {"md_atom_id": "md_dmFT_ex_a012", "md_file": "knowledge_base/domains/FT/examples.md", "md_atom_type": "TABLE_ROW", "md_parent_section": "§FT.1 [Example 1]", "md_verbatim": "| 5 | STUDYX | FT | MS01-01 | 5 | 1 | SIXMW105 | SIXMW1-Distance at 5 Minutes | SIX MINUTE WALK | 493 | m | 493 | 493 | m | Y | 1 | 2014-03-10 |", "score": 0.412, "match_basis": "verbatim_token+domain_route:FT"}, {"md_atom_id": "md_dmFT_ex_a013", "md_file": "knowledge_base/domains/FT/examples.md", "md_atom_type": "TABLE_ROW", "md_parent_section": "§FT.1 [Example 1]", "md_verbatim": "| 6 | STUDYX | FT | MS01-01 | 6 | 1 | SIXMW106 | SIXMW1-Distance at 6 Minutes | SIX MINUTE WALK | 597 | m | 597 | 597 | m | Y | 1 | 2014-03-10 |", "score": 0.412, "match_basis": "verbatim_token+domain_route:FT"}], "candidate_count": 5, "zero_candidate": false}
{"pdf_atom_id": "ig34_p0320_a003", "pdf_atom_type": "TABLE_ROW", "pdf_source": "SDTMIG_v3.4", "pdf_page": 320, "pdf_parent_section": "§6.3.9.1 Functional Tests (FT)", "pdf_verbatim": "| FTREASND | Reason Not Done | Char | | Record Qualifier | Describes why a test was not done, or a test was attempted but did not generate a result. Used in conjunction with FTSTAT when value is \"NOT DONE\". | Perm |", "figure_ref": null, "candidates": [{"md_atom_id": "md_dmFT_ex_a009", "md_file": "knowledge_base/domains/FT/examples.md", "md_atom_type": "TABLE_ROW", "md_parent_section": "§FT.1 [Example 1]", "md_verbatim": "| 2 | STUDYX | FT | MS01-01 | 2 | 1 | SIXMW102 | SIXMW1-Distance at 2 Minutes | SIX MINUTE WALK | 201 | m | 201 | 201 | m | Y | 1 | 2014-03-10 |", "score": 0.4117, "match_basis": "verbatim_token+domain_route:FT"}, {"md_atom_id": "md_dmFT_ex_a010", "md_file": "knowledge_base/domains/FT/examples.md", "md_atom_type": "TABLE_ROW", "md_parent_section": "§FT.1 [Example 1]", "md_verbatim": "| 3 | STUDYX | FT | MS01-01 | 3 | 1 | SIXMW103 | SIXMW1-Distance at 3 Minutes | SIX MINUTE WALK | 299 | m | 299 | 299 | m | Y | 1 | 2014-03-10 |", "score": 0.4115, "match_basis": "verbatim_token+domain_route:FT"}, {"md_atom_id": "md_dmFT_ex_a011", "md_file": "knowledge_base/domains/FT/examples.md", "md_atom_type": "TABLE_ROW", "md_parent_section": "§FT.1 [Example 1]", "md_verbatim": "| 4 | STUDYX | FT | MS01-01 | 4 | 1 | SIXMW104 | SIXMW1-Distance at 4 Minutes | SIX MINUTE WALK | 396 | m | 396 | 396 | m | Y | 1 | 2014-03-10 |", "score": 0.4115, "match_basis": "verbatim_token+domain_route:FT"}, {"md_atom_id": "md_dmFT_ex_a012", "md_file": "knowledge_base/domains/FT/examples.md", "md_atom_type": "TABLE_ROW", "md_parent_section": "§FT.1 [Example 1]", "md_verbatim": "| 5 | STUDYX | FT | MS01-01 | 5 | 1 | SIXMW105 | SIXMW1-Distance at 5 Minutes | SIX MINUTE WALK | 493 | m | 493 | 493 | m | Y | 1 | 2014-03-10 |", "score": 0.4115, "match_basis": "verbatim_token+domain_route:FT"}, {"md_atom_id": "md_dmFT_ex_a013", "md_file": "knowledge_base/domains/FT/examples.md", "md_atom_type": "TABLE_ROW", "md_parent_section": "§FT.1 [Example 1]", "md_verbatim": "| 6 | STUDYX | FT | MS01-01 | 6 | 1 | SIXMW106 | SIXMW1-Distance at 6 Minutes | SIX MINUTE WALK | 597 | m | 597 | 597 | m | Y | 1 | 2014-03-10 |", "score": 0.4115, "match_basis": "verbatim_token+domain_route:FT"}], "candidate_count": 5, "zero_candidate": false}
{"pdf_atom_id": "ig34_p0320_a004", "pdf_atom_type": "TABLE_ROW", "pdf_source": "SDTMIG_v3.4", "pdf_page": 320, "pdf_parent_section": "§6.3.9.1 Functional Tests (FT)", "pdf_verbatim": "| FTXFN | External File Path | Char | | Record Qualifier | File path to an external file. | Perm |", "figure_ref": null, "candidates": [{"md_atom_id": "md_dmFT_ex_a008", "md_file": "knowledge_base/domains/FT/examples.md", "md_atom_type": "TABLE_ROW", "md_parent_section": "§FT.1 [Example 1]", "md_verbatim": "| 1 | STUDYX | FT | MS01-01 | 1 | 1 | SIXMW101 | SIXMW1-Distance at 1 Minute | SIX MINUTE WALK | 101 | m | 101 | 101 | m | Y | 1 | 2014-03-10 |", "score": 0.4, "match_basis": "verbatim_token+domain_route:FT"}, {"md_atom_id": "md_dmFT_ex_a009", "md_file": "knowledge_base/domains/FT/examples.md", "md_atom_type": "TABLE_ROW", "md_parent_section": "§FT.1 [Example 1]", "md_verbatim": "| 2 | STUDYX | FT | MS01-01 | 2 | 1 | SIXMW102 | SIXMW1-Distance at 2 Minutes | SIX MINUTE WALK | 201 | m | 201 | 201 | m | Y | 1 | 2014-03-10 |", "score": 0.4, "match_basis": "verbatim_token+domain_route:FT"}, {"md_atom_id": "md_dmFT_ex_a010", "md_file": "knowledge_base/domains/FT/examples.md", "md_atom_type": "TABLE_ROW", "md_parent_section": "§FT.1 [Example 1]", "md_verbatim": "| 3 | STUDYX | FT | MS01-01 | 3 | 1 | SIXMW103 | SIXMW1-Distance at 3 Minutes | SIX MINUTE WALK | 299 | m | 299 | 299 | m | Y | 1 | 2014-03-10 |", "score": 0.4, "match_basis": "verbatim_token+domain_route:FT"}, {"md_atom_id": "md_dmFT_ex_a011", "md_file": "knowledge_base/domains/FT/examples.md", "md_atom_type": "TABLE_ROW", "md_parent_section": "§FT.1 [Example 1]", "md_verbatim": "| 4 | STUDYX | FT | MS01-01 | 4 | 1 | SIXMW104 | SIXMW1-Distance at 4 Minutes | SIX MINUTE WALK | 396 | m | 396 | 396 | m | Y | 1 | 2014-03-10 |", "score": 0.4, "match_basis": "verbatim_token+domain_route:FT"}, {"md_atom_id": "md_dmFT_ex_a012", "md_file": "knowledge_base/domains/FT/examples.md", "md_atom_type": "TABLE_ROW", "md_parent_section": "§FT.1 [Example 1]", "md_verbatim": "| 5 | STUDYX | FT | MS01-01 | 5 | 1 | SIXMW105 | SIXMW1-Distance at 5 Minutes | SIX MINUTE WALK | 493 | m | 493 | 493 | m | Y | 1 | 2014-03-10 |", "score": 0.4, "match_basis": "verbatim_token+domain_route:FT"}], "candidate_count": 5, "zero_candidate": false}
{"pdf_atom_id": "ig34_p0320_a005", "pdf_atom_type": "TABLE_ROW", "pdf_source": "SDTMIG_v3.4", "pdf_page": 320, "pdf_parent_section": "§6.3.9.1 Functional Tests (FT)", "pdf_verbatim": "| FTNAM | Vendor Name | Char | | Record Qualifier | Name or identifier of the vendor or laboratory that provided the test results. | Perm |", "figure_ref": null, "candidates": [{"md_atom_id": "md_dmFT_ex_a017", "md_file": "knowledge_base/domains/FT/examples.md", "md_atom_type": "TABLE_ROW", "md_parent_section": "§FT.1 [Example 1]", "md_verbatim": "| 1 | STUDYX | FT | MS01-01 | FTGRPID | 1 | FTASSTDV | Assistance Device | CANE | CRF | INVESTIGATOR |", "score": 0.4202, "match_basis": "verbatim_token+domain_route:FT"}, {"md_atom_id": "md_dmFT_ex_a009", "md_file": "knowledge_base/domains/FT/examples.md", "md_atom_type": "TABLE_ROW", "md_parent_section": "§FT.1 [Example 1]", "md_verbatim": "| 2 | STUDYX | FT | MS01-01 | 2 | 1 | SIXMW102 | SIXMW1-Distance at 2 Minutes | SIX MINUTE WALK | 201 | m | 201 | 201 | m | Y | 1 | 2014-03-10 |", "score": 0.4078, "match_basis": "verbatim_token+domain_route:FT"}, {"md_atom_id": "md_dmFT_ex_a010", "md_file": "knowledge_base/domains/FT/examples.md", "md_atom_type": "TABLE_ROW", "md_parent_section": "§FT.1 [Example 1]", "md_verbatim": "| 3 | STUDYX | FT | MS01-01 | 3 | 1 | SIXMW103 | SIXMW1-Distance at 3 Minutes | SIX MINUTE WALK | 299 | m | 299 | 299 | m | Y | 1 | 2014-03-10 |", "score": 0.4077, "match_basis": "verbatim_token+domain_route:FT"}, {"md_atom_id": "md_dmFT_ex_a011", "md_file": "knowledge_base/domains/FT/examples.md", "md_atom_type": "TABLE_ROW", "md_parent_section": "§FT.1 [Example 1]", "md_verbatim": "| 4 | STUDYX | FT | MS01-01 | 4 | 1 | SIXMW104 | SIXMW1-Distance at 4 Minutes | SIX MINUTE WALK | 396 | m | 396 | 396 | m | Y | 1 | 2014-03-10 |", "score": 0.4077, "match_basis": "verbatim_token+domain_route:FT"}, {"md_atom_id": "md_dmFT_ex_a012", "md_file": "knowledge_base/domains/FT/examples.md", "md_atom_type": "TABLE_ROW", "md_parent_section": "§FT.1 [Example 1]", "md_verbatim": "| 5 | STUDYX | FT | MS01-01 | 5 | 1 | SIXMW105 | SIXMW1-Distance at 5 Minutes | SIX MINUTE WALK | 493 | m | 493 | 493 | m | Y | 1 | 2014-03-10 |", "score": 0.4077, "match_basis": "verbatim_token+domain_route:FT"}], "candidate_count": 5, "zero_candidate": false}
{"pdf_atom_id": "ig34_p0320_a006", "pdf_atom_type": "TABLE_ROW", "pdf_source": "SDTMIG_v3.4", "pdf_page": 320, "pdf_parent_section": "§6.3.9.1 Functional Tests (FT)", "pdf_verbatim": "| FTMETHOD | Method of Test or Examination | Char | (QRSMTHOD) | Record Qualifier | Method of the test or examination. | Perm |", "figure_ref": null, "candidates": [{"md_atom_id": "md_dmFT_ex_a009", "md_file": "knowledge_base/domains/FT/examples.md", "md_atom_type": "TABLE_ROW", "md_parent_section": "§FT.1 [Example 1]", "md_verbatim": "| 2 | STUDYX | FT | MS01-01 | 2 | 1 | SIXMW102 | SIXMW1-Distance at 2 Minutes | SIX MINUTE WALK | 201 | m | 201 | 201 | m | Y | 1 | 2014-03-10 |", "score": 0.4194, "match_basis": "verbatim_token+domain_route:FT"}, {"md_atom_id": "md_dmFT_ex_a010", "md_file": "knowledge_base/domains/FT/examples.md", "md_atom_type": "TABLE_ROW", "md_parent_section": "§FT.1 [Example 1]", "md_verbatim": "| 3 | STUDYX | FT | MS01-01 | 3 | 1 | SIXMW103 | SIXMW1-Distance at 3 Minutes | SIX MINUTE WALK | 299 | m | 299 | 299 | m | Y | 1 | 2014-03-10 |", "score": 0.419, "match_basis": "verbatim_token+domain_route:FT"}, {"md_atom_id": "md_dmFT_ex_a011", "md_file": "knowledge_base/domains/FT/examples.md", "md_atom_type": "TABLE_ROW", "md_parent_section": "§FT.1 [Example 1]", "md_verbatim": "| 4 | STUDYX | FT | MS01-01 | 4 | 1 | SIXMW104 | SIXMW1-Distance at 4 Minutes | SIX MINUTE WALK | 396 | m | 396 | 396 | m | Y | 1 | 2014-03-10 |", "score": 0.419, "match_basis": "verbatim_token+domain_route:FT"}, {"md_atom_id": "md_dmFT_ex_a012", "md_file": "knowledge_base/domains/FT/examples.md", "md_atom_type": "TABLE_ROW", "md_parent_section": "§FT.1 [Example 1]", "md_verbatim": "| 5 | STUDYX | FT | MS01-01 | 5 | 1 | SIXMW105 | SIXMW1-Distance at 5 Minutes | SIX MINUTE WALK | 493 | m | 493 | 493 | m | Y | 1 | 2014-03-10 |", "score": 0.419, "match_basis": "verbatim_token+domain_route:FT"}, {"md_atom_id": "md_dmFT_ex_a013", "md_file": "knowledge_base/domains/FT/examples.md", "md_atom_type": "TABLE_ROW", "md_parent_section": "§FT.1 [Example 1]", "md_verbatim": "| 6 | STUDYX | FT | MS01-01 | 6 | 1 | SIXMW106 | SIXMW1-Distance at 6 Minutes | SIX MINUTE WALK | 597 | m | 597 | 597 | m | Y | 1 | 2014-03-10 |", "score": 0.419, "match_basis": "verbatim_token+domain_route:FT"}], "candidate_count": 5, "zero_candidate": false}
{"pdf_atom_id": "ig34_p0320_a007", "pdf_atom_type": "TABLE_ROW", "pdf_source": "SDTMIG_v3.4", "pdf_page": 320, "pdf_parent_section": "§6.3.9.1 Functional Tests (FT)", "pdf_verbatim": "| FTLOBXFL | Last Observation Before Exposure Flag | Char | (NY) | Record Qualifier | Operationally-derived indicator used to identify the last non-missing value prior to RFXSTDTC. The value should be \"Y\" or null. | Exp |", "figure_ref": null, "candidates": [{"md_atom_id": "md_dmFT_ex_a017", "md_file": "knowledge_base/domains/FT/examples.md", "md_atom_type": "TABLE_ROW", "md_parent_section": "§FT.1 [Example 1]", "md_verbatim": "| 1 | STUDYX | FT | MS01-01 | FTGRPID | 1 | FTASSTDV | Assistance Device | CANE | CRF | INVESTIGATOR |", "score": 0.4182, "match_basis": "verbatim_token+domain_route:FT"}, {"md_atom_id": "md_dmFT_ex_a008", "md_file": "knowledge_base/domains/FT/examples.md", "md_atom_type": "TABLE_ROW", "md_parent_section": "§FT.1 [Example 1]", "md_verbatim": "| 1 | STUDYX | FT | MS01-01 | 1 | 1 | SIXMW101 | SIXMW1-Distance at 1 Minute | SIX MINUTE WALK | 101 | m | 101 | 101 | m | Y | 1 | 2014-03-10 |", "score": 0.4, "match_basis": "verbatim_token+domain_route:FT"}, {"md_atom_id": "md_dmFT_ex_a009", "md_file": "knowledge_base/domains/FT/examples.md", "md_atom_type": "TABLE_ROW", "md_parent_section": "§FT.1 [Example 1]", "md_verbatim": "| 2 | STUDYX | FT | MS01-01 | 2 | 1 | SIXMW102 | SIXMW1-Distance at 2 Minutes | SIX MINUTE WALK | 201 | m | 201 | 201 | m | Y | 1 | 2014-03-10 |", "score": 0.4, "match_basis": "verbatim_token+domain_route:FT"}, {"md_atom_id": "md_dmFT_ex_a010", "md_file": "knowledge_base/domains/FT/examples.md", "md_atom_type": "TABLE_ROW", "md_parent_section": "§FT.1 [Example 1]", "md_verbatim": "| 3 | STUDYX | FT | MS01-01 | 3 | 1 | SIXMW103 | SIXMW1-Distance at 3 Minutes | SIX MINUTE WALK | 299 | m | 299 | 299 | m | Y | 1 | 2014-03-10 |", "score": 0.4, "match_basis": "verbatim_token+domain_route:FT"}, {"md_atom_id": "md_dmFT_ex_a011", "md_file": "knowledge_base/domains/FT/examples.md", "md_atom_type": "TABLE_ROW", "md_parent_section": "§FT.1 [Example 1]", "md_verbatim": "| 4 | STUDYX | FT | MS01-01 | 4 | 1 | SIXMW104 | SIXMW1-Distance at 4 Minutes | SIX MINUTE WALK | 396 | m | 396 | 396 | m | Y | 1 | 2014-03-10 |", "score": 0.4, "match_basis": "verbatim_token+domain_route:FT"}], "candidate_count": 5, "zero_candidate": false}
{"pdf_atom_id": "ig34_p0320_a008", "pdf_atom_type": "TABLE_ROW", "pdf_source": "SDTMIG_v3.4", "pdf_page": 320, "pdf_parent_section": "§6.3.9.1 Functional Tests (FT)", "pdf_verbatim": "| FTBLFL | Baseline Flag | Char | (NY) | Record Qualifier | A baseline defined by the sponsor (could be derived in the same manner as FTLOBXFL or ABLFL, but is not required to be). The value should be \"Y\" or null. Note that FTBLFL is retained for backward compatibility. The authoritative baseline flag for statistical analysis is in an ADaM dataset. | Perm |", "figure_ref": null, "candidates": [{"md_atom_id": "md_dmFT_ex_a017", "md_file": "knowledge_base/domains/FT/examples.md", "md_atom_type": "TABLE_ROW", "md_parent_section": "§FT.1 [Example 1]", "md_verbatim": "| 1 | STUDYX | FT | MS01-01 | FTGRPID | 1 | FTASSTDV | Assistance Device | CANE | CRF | INVESTIGATOR |", "score": 0.4185, "match_basis": "verbatim_token+domain_route:FT"}, {"md_atom_id": "md_dmFT_ex_a008", "md_file": "knowledge_base/domains/FT/examples.md", "md_atom_type": "TABLE_ROW", "md_parent_section": "§FT.1 [Example 1]", "md_verbatim": "| 1 | STUDYX | FT | MS01-01 | 1 | 1 | SIXMW101 | SIXMW1-Distance at 1 Minute | SIX MINUTE WALK | 101 | m | 101 | 101 | m | Y | 1 | 2014-03-10 |", "score": 0.408, "match_basis": "verbatim_token+domain_route:FT"}, {"md_atom_id": "md_dmFT_ex_a009", "md_file": "knowledge_base/domains/FT/examples.md", "md_atom_type": "TABLE_ROW", "md_parent_section": "§FT.1 [Example 1]", "md_verbatim": "| 2 | STUDYX | FT | MS01-01 | 2 | 1 | SIXMW102 | SIXMW1-Distance at 2 Minutes | SIX MINUTE WALK | 201 | m | 201 | 201 | m | Y | 1 | 2014-03-10 |", "score": 0.4079, "match_basis": "verbatim_token+domain_route:FT"}, {"md_atom_id": "md_dmFT_ex_a010", "md_file": "knowledge_base/domains/FT/examples.md", "md_atom_type": "TABLE_ROW", "md_parent_section": "§FT.1 [Example 1]", "md_verbatim": "| 3 | STUDYX | FT | MS01-01 | 3 | 1 | SIXMW103 | SIXMW1-Distance at 3 Minutes | SIX MINUTE WALK | 299 | m | 299 | 299 | m | Y | 1 | 2014-03-10 |", "score": 0.4079, "match_basis": "verbatim_token+domain_route:FT"}, {"md_atom_id": "md_dmFT_ex_a011", "md_file": "knowledge_base/domains/FT/examples.md", "md_atom_type": "TABLE_ROW", "md_parent_section": "§FT.1 [Example 1]", "md_verbatim": "| 4 | STUDYX | FT | MS01-01 | 4 | 1 | SIXMW104 | SIXMW1-Distance at 4 Minutes | SIX MINUTE WALK | 396 | m | 396 | 396 | m | Y | 1 | 2014-03-10 |", "score": 0.4079, "match_basis": "verbatim_token+domain_route:FT"}], "candidate_count": 5, "zero_candidate": false}
{"pdf_atom_id": "ig34_p0320_a009", "pdf_atom_type": "TABLE_ROW", "pdf_source": "SDTMIG_v3.4", "pdf_page": 320, "pdf_parent_section": "§6.3.9.1 Functional Tests (FT)", "pdf_verbatim": "| FTDRVFL | Derived Flag | Char | (NY) | Record Qualifier | Used to indicate a derived record (e.g., a record that represents the average of other records such as a computed baseline). Should be \"Y\" or null. | Perm |", "figure_ref": null, "candidates": [{"md_atom_id": "md_dmFT_ex_a008", "md_file": "knowledge_base/domains/FT/examples.md", "md_atom_type": "TABLE_ROW", "md_parent_section": "§FT.1 [Example 1]", "md_verbatim": "| 1 | STUDYX | FT | MS01-01 | 1 | 1 | SIXMW101 | SIXMW1-Distance at 1 Minute | SIX MINUTE WALK | 101 | m | 101 | 101 | m | Y | 1 | 2014-03-10 |", "score": 0.4061, "match_basis": "verbatim_token+domain_route:FT"}, {"md_atom_id": "md_dmFT_ex_a009", "md_file": "knowledge_base/domains/FT/examples.md", "md_atom_type": "TABLE_ROW", "md_parent_section": "§FT.1 [Example 1]", "md_verbatim": "| 2 | STUDYX | FT | MS01-01 | 2 | 1 | SIXMW102 | SIXMW1-Distance at 2 Minutes | SIX MINUTE WALK | 201 | m | 201 | 201 | m | Y | 1 | 2014-03-10 |", "score": 0.406, "match_basis": "verbatim_token+domain_route:FT"}, {"md_atom_id": "md_dmFT_ex_a010", "md_file": "knowledge_base/domains/FT/examples.md", "md_atom_type": "TABLE_ROW", "md_parent_section": "§FT.1 [Example 1]", "md_verbatim": "| 3 | STUDYX | FT | MS01-01 | 3 | 1 | SIXMW103 | SIXMW1-Distance at 3 Minutes | SIX MINUTE WALK | 299 | m | 299 | 299 | m | Y | 1 | 2014-03-10 |", "score": 0.4059, "match_basis": "verbatim_token+domain_route:FT"}, {"md_atom_id": "md_dmFT_ex_a011", "md_file": "knowledge_base/domains/FT/examples.md", "md_atom_type": "TABLE_ROW", "md_parent_section": "§FT.1 [Example 1]", "md_verbatim": "| 4 | STUDYX | FT | MS01-01 | 4 | 1 | SIXMW104 | SIXMW1-Distance at 4 Minutes | SIX MINUTE WALK | 396 | m | 396 | 396 | m | Y | 1 | 2014-03-10 |", "score": 0.4059, "match_basis": "verbatim_token+domain_route:FT"}, {"md_atom_id": "md_dmFT_ex_a012", "md_file": "knowledge_base/domains/FT/examples.md", "md_atom_type": "TABLE_ROW", "md_parent_section": "§FT.1 [Example 1]", "md_verbatim": "| 5 | STUDYX | FT | MS01-01 | 5 | 1 | SIXMW105 | SIXMW1-Distance at 5 Minutes | SIX MINUTE WALK | 493 | m | 493 | 493 | m | Y | 1 | 2014-03-10 |", "score": 0.4059, "match_basis": "verbatim_token+domain_route:FT"}], "candidate_count": 5, "zero_candidate": false}
{"pdf_atom_id": "ig34_p0320_a010", "pdf_atom_type": "TABLE_ROW", "pdf_source": "SDTMIG_v3.4", "pdf_page": 320, "pdf_parent_section": "§6.3.9.1 Functional Tests (FT)", "pdf_verbatim": "| FTREPNUM | Repetition Number | Num | | Record Qualifier | The incidence number of a test that is repeated within a given timeframe for the same test. The level of granularity can vary (e.g., within a time point, within a visit). Examples: multiple measurements of blood pressure, multiple analyses of a sample. | Perm |", "figure_ref": null, "candidates": [{"md_atom_id": "md_dmFT_ex_a017", "md_file": "knowledge_base/domains/FT/examples.md", "md_atom_type": "TABLE_ROW", "md_parent_section": "§FT.1 [Example 1]", "md_verbatim": "| 1 | STUDYX | FT | MS01-01 | FTGRPID | 1 | FTASSTDV | Assistance Device | CANE | CRF | INVESTIGATOR |", "score": 0.4117, "match_basis": "verbatim_token+domain_route:FT"}, {"md_atom_id": "md_dmFT_ex_a009", "md_file": "knowledge_base/domains/FT/examples.md", "md_atom_type": "TABLE_ROW", "md_parent_section": "§FT.1 [Example 1]", "md_verbatim": "| 2 | STUDYX | FT | MS01-01 | 2 | 1 | SIXMW102 | SIXMW1-Distance at 2 Minutes | SIX MINUTE WALK | 201 | m | 201 | 201 | m | Y | 1 | 2014-03-10 |", "score": 0.4085, "match_basis": "verbatim_token+domain_route:FT"}, {"md_atom_id": "md_dmFT_ex_a010", "md_file": "knowledge_base/domains/FT/examples.md", "md_atom_type": "TABLE_ROW", "md_parent_section": "§FT.1 [Example 1]", "md_verbatim": "| 3 | STUDYX | FT | MS01-01 | 3 | 1 | SIXMW103 | SIXMW1-Distance at 3 Minutes | SIX MINUTE WALK | 299 | m | 299 | 299 | m | Y | 1 | 2014-03-10 |", "score": 0.4085, "match_basis": "verbatim_token+domain_route:FT"}, {"md_atom_id": "md_dmFT_ex_a011", "md_file": "knowledge_base/domains/FT/examples.md", "md_atom_type": "TABLE_ROW", "md_parent_section": "§FT.1 [Example 1]", "md_verbatim": "| 4 | STUDYX | FT | MS01-01 | 4 | 1 | SIXMW104 | SIXMW1-Distance at 4 Minutes | SIX MINUTE WALK | 396 | m | 396 | 396 | m | Y | 1 | 2014-03-10 |", "score": 0.4085, "match_basis": "verbatim_token+domain_route:FT"}, {"md_atom_id": "md_dmFT_ex_a012", "md_file": "knowledge_base/domains/FT/examples.md", "md_atom_type": "TABLE_ROW", "md_parent_section": "§FT.1 [Example 1]", "md_verbatim": "| 5 | STUDYX | FT | MS01-01 | 5 | 1 | SIXMW105 | SIXMW1-Distance at 5 Minutes | SIX MINUTE WALK | 493 | m | 493 | 493 | m | Y | 1 | 2014-03-10 |", "score": 0.4085, "match_basis": "verbatim_token+domain_route:FT"}], "candidate_count": 5, "zero_candidate": false}
{"pdf_atom_id": "ig34_p0320_a011", "pdf_atom_type": "TABLE_ROW", "pdf_source": "SDTMIG_v3.4", "pdf_page": 320, "pdf_parent_section": "§6.3.9.1 Functional Tests (FT)", "pdf_verbatim": "| VISITNUM | Visit Number | Num | | Timing | Clinical encounter number. Numeric version of VISIT, used for sorting. | Exp |", "figure_ref": null, "candidates": [{"md_atom_id": "md_dmFT_ex_a008", "md_file": "knowledge_base/domains/FT/examples.md", "md_atom_type": "TABLE_ROW", "md_parent_section": "§FT.1 [Example 1]", "md_verbatim": "| 1 | STUDYX | FT | MS01-01 | 1 | 1 | SIXMW101 | SIXMW1-Distance at 1 Minute | SIX MINUTE WALK | 101 | m | 101 | 101 | m | Y | 1 | 2014-03-10 |", "score": 0.4088, "match_basis": "verbatim_token+domain_route:FT"}, {"md_atom_id": "md_dmFT_ex_a009", "md_file": "knowledge_base/domains/FT/examples.md", "md_atom_type": "TABLE_ROW", "md_parent_section": "§FT.1 [Example 1]", "md_verbatim": "| 2 | STUDYX | FT | MS01-01 | 2 | 1 | SIXMW102 | SIXMW1-Distance at 2 Minutes | SIX MINUTE WALK | 201 | m | 201 | 201 | m | Y | 1 | 2014-03-10 |", "score": 0.4087, "match_basis": "verbatim_token+domain_route:FT"}, {"md_atom_id": "md_dmFT_ex_a010", "md_file": "knowledge_base/domains/FT/examples.md", "md_atom_type": "TABLE_ROW", "md_parent_section": "§FT.1 [Example 1]", "md_verbatim": "| 3 | STUDYX | FT | MS01-01 | 3 | 1 | SIXMW103 | SIXMW1-Distance at 3 Minutes | SIX MINUTE WALK | 299 | m | 299 | 299 | m | Y | 1 | 2014-03-10 |", "score": 0.4086, "match_basis": "verbatim_token+domain_route:FT"}, {"md_atom_id": "md_dmFT_ex_a011", "md_file": "knowledge_base/domains/FT/examples.md", "md_atom_type": "TABLE_ROW", "md_parent_section": "§FT.1 [Example 1]", "md_verbatim": "| 4 | STUDYX | FT | MS01-01 | 4 | 1 | SIXMW104 | SIXMW1-Distance at 4 Minutes | SIX MINUTE WALK | 396 | m | 396 | 396 | m | Y | 1 | 2014-03-10 |", "score": 0.4086, "match_basis": "verbatim_token+domain_route:FT"}, {"md_atom_id": "md_dmFT_ex_a012", "md_file": "knowledge_base/domains/FT/examples.md", "md_atom_type": "TABLE_ROW", "md_parent_section": "§FT.1 [Example 1]", "md_verbatim": "| 5 | STUDYX | FT | MS01-01 | 5 | 1 | SIXMW105 | SIXMW1-Distance at 5 Minutes | SIX MINUTE WALK | 493 | m | 493 | 493 | m | Y | 1 | 2014-03-10 |", "score": 0.4086, "match_basis": "verbatim_token+domain_route:FT"}], "candidate_count": 5, "zero_candidate": false}
{"pdf_atom_id": "ig34_p0320_a012", "pdf_atom_type": "TABLE_ROW", "pdf_source": "SDTMIG_v3.4", "pdf_page": 320, "pdf_parent_section": "§6.3.9.1 Functional Tests (FT)", "pdf_verbatim": "| VISIT | Visit Name | Char | | Timing | Protocol-defined description of a clinical encounter. | Perm |", "figure_ref": null, "candidates": [{"md_atom_id": "md_dmFT_ex_a008", "md_file": "knowledge_base/domains/FT/examples.md", "md_atom_type": "TABLE_ROW", "md_parent_section": "§FT.1 [Example 1]", "md_verbatim": "| 1 | STUDYX | FT | MS01-01 | 1 | 1 | SIXMW101 | SIXMW1-Distance at 1 Minute | SIX MINUTE WALK | 101 | m | 101 | 101 | m | Y | 1 | 2014-03-10 |", "score": 0.4085, "match_basis": "verbatim_token+domain_route:FT"}, {"md_atom_id": "md_dmFT_ex_a009", "md_file": "knowledge_base/domains/FT/examples.md", "md_atom_type": "TABLE_ROW", "md_parent_section": "§FT.1 [Example 1]", "md_verbatim": "| 2 | STUDYX | FT | MS01-01 | 2 | 1 | SIXMW102 | SIXMW1-Distance at 2 Minutes | SIX MINUTE WALK | 201 | m | 201 | 201 | m | Y | 1 | 2014-03-10 |", "score": 0.4083, "match_basis": "verbatim_token+domain_route:FT"}, {"md_atom_id": "md_dmFT_ex_a010", "md_file": "knowledge_base/domains/FT/examples.md", "md_atom_type": "TABLE_ROW", "md_parent_section": "§FT.1 [Example 1]", "md_verbatim": "| 3 | STUDYX | FT | MS01-01 | 3 | 1 | SIXMW103 | SIXMW1-Distance at 3 Minutes | SIX MINUTE WALK | 299 | m | 299 | 299 | m | Y | 1 | 2014-03-10 |", "score": 0.4082, "match_basis": "verbatim_token+domain_route:FT"}, {"md_atom_id": "md_dmFT_ex_a011", "md_file": "knowledge_base/domains/FT/examples.md", "md_atom_type": "TABLE_ROW", "md_parent_section": "§FT.1 [Example 1]", "md_verbatim": "| 4 | STUDYX | FT | MS01-01 | 4 | 1 | SIXMW104 | SIXMW1-Distance at 4 Minutes | SIX MINUTE WALK | 396 | m | 396 | 396 | m | Y | 1 | 2014-03-10 |", "score": 0.4082, "match_basis": "verbatim_token+domain_route:FT"}, {"md_atom_id": "md_dmFT_ex_a012", "md_file": "knowledge_base/domains/FT/examples.md", "md_atom_type": "TABLE_ROW", "md_parent_section": "§FT.1 [Example 1]", "md_verbatim": "| 5 | STUDYX | FT | MS01-01 | 5 | 1 | SIXMW105 | SIXMW1-Distance at 5 Minutes | SIX MINUTE WALK | 493 | m | 493 | 493 | m | Y | 1 | 2014-03-10 |", "score": 0.4082, "match_basis": "verbatim_token+domain_route:FT"}], "candidate_count": 5, "zero_candidate": false}
{"pdf_atom_id": "ig34_p0320_a013", "pdf_atom_type": "TABLE_ROW", "pdf_source": "SDTMIG_v3.4", "pdf_page": 320, "pdf_parent_section": "§6.3.9.1 Functional Tests (FT)", "pdf_verbatim": "| VISITDY | Planned Study Day of Visit | Num | | Timing | Planned study day of VISIT based upon RFSTDTC in Demographics. Should be an integer. | Perm |", "figure_ref": null, "candidates": [{"md_atom_id": "md_dmFT_ex_a008", "md_file": "knowledge_base/domains/FT/examples.md", "md_atom_type": "TABLE_ROW", "md_parent_section": "§FT.1 [Example 1]", "md_verbatim": "| 1 | STUDYX | FT | MS01-01 | 1 | 1 | SIXMW101 | SIXMW1-Distance at 1 Minute | SIX MINUTE WALK | 101 | m | 101 | 101 | m | Y | 1 | 2014-03-10 |", "score": 0.4333, "match_basis": "verbatim_token+domain_route:FT"}, {"md_atom_id": "md_dmFT_ex_a009", "md_file": "knowledge_base/domains/FT/examples.md", "md_atom_type": "TABLE_ROW", "md_parent_section": "§FT.1 [Example 1]", "md_verbatim": "| 2 | STUDYX | FT | MS01-01 | 2 | 1 | SIXMW102 | SIXMW1-Distance at 2 Minutes | SIX MINUTE WALK | 201 | m | 201 | 201 | m | Y | 1 | 2014-03-10 |", "score": 0.4329, "match_basis": "verbatim_token+domain_route:FT"}, {"md_atom_id": "md_dmFT_ex_a010", "md_file": "knowledge_base/domains/FT/examples.md", "md_atom_type": "TABLE_ROW", "md_parent_section": "§FT.1 [Example 1]", "md_verbatim": "| 3 | STUDYX | FT | MS01-01 | 3 | 1 | SIXMW103 | SIXMW1-Distance at 3 Minutes | SIX MINUTE WALK | 299 | m | 299 | 299 | m | Y | 1 | 2014-03-10 |", "score": 0.4324, "match_basis": "verbatim_token+domain_route:FT"}, {"md_atom_id": "md_dmFT_ex_a011", "md_file": "knowledge_base/domains/FT/examples.md", "md_atom_type": "TABLE_ROW", "md_parent_section": "§FT.1 [Example 1]", "md_verbatim": "| 4 | STUDYX | FT | MS01-01 | 4 | 1 | SIXMW104 | SIXMW1-Distance at 4 Minutes | SIX MINUTE WALK | 396 | m | 396 | 396 | m | Y | 1 | 2014-03-10 |", "score": 0.4324, "match_basis": "verbatim_token+domain_route:FT"}, {"md_atom_id": "md_dmFT_ex_a012", "md_file": "knowledge_base/domains/FT/examples.md", "md_atom_type": "TABLE_ROW", "md_parent_section": "§FT.1 [Example 1]", "md_verbatim": "| 5 | STUDYX | FT | MS01-01 | 5 | 1 | SIXMW105 | SIXMW1-Distance at 5 Minutes | SIX MINUTE WALK | 493 | m | 493 | 493 | m | Y | 1 | 2014-03-10 |", "score": 0.4324, "match_basis": "verbatim_token+domain_route:FT"}], "candidate_count": 5, "zero_candidate": false}
{"pdf_atom_id": "ig34_p0320_a014", "pdf_atom_type": "TABLE_ROW", "pdf_source": "SDTMIG_v3.4", "pdf_page": 320, "pdf_parent_section": "§6.3.9.1 Functional Tests (FT)", "pdf_verbatim": "| TAETORD | Planned Order of Element within Arm | Num | | Timing | Number that gives the planned order of the element within the arm for the element in which the assessment was made. | Perm |", "figure_ref": null, "candidates": [{"md_atom_id": "md_dmFT_ex_a017", "md_file": "knowledge_base/domains/FT/examples.md", "md_atom_type": "TABLE_ROW", "md_parent_section": "§FT.1 [Example 1]", "md_verbatim": "| 1 | STUDYX | FT | MS01-01 | FTGRPID | 1 | FTASSTDV | Assistance Device | CANE | CRF | INVESTIGATOR |", "score": 0.4202, "match_basis": "verbatim_token+domain_route:FT"}, {"md_atom_id": "md_dmFT_ex_a008", "md_file": "knowledge_base/domains/FT/examples.md", "md_atom_type": "TABLE_ROW", "md_parent_section": "§FT.1 [Example 1]", "md_verbatim": "| 1 | STUDYX | FT | MS01-01 | 1 | 1 | SIXMW101 | SIXMW1-Distance at 1 Minute | SIX MINUTE WALK | 101 | m | 101 | 101 | m | Y | 1 | 2014-03-10 |", "score": 0.4079, "match_basis": "verbatim_token+domain_route:FT"}, {"md_atom_id": "md_dmFT_ex_a009", "md_file": "knowledge_base/domains/FT/examples.md", "md_atom_type": "TABLE_ROW", "md_parent_section": "§FT.1 [Example 1]", "md_verbatim": "| 2 | STUDYX | FT | MS01-01 | 2 | 1 | SIXMW102 | SIXMW1-Distance at 2 Minutes | SIX MINUTE WALK | 201 | m | 201 | 201 | m | Y | 1 | 2014-03-10 |", "score": 0.4078, "match_basis": "verbatim_token+domain_route:FT"}, {"md_atom_id": "md_dmFT_ex_a010", "md_file": "knowledge_base/domains/FT/examples.md", "md_atom_type": "TABLE_ROW", "md_parent_section": "§FT.1 [Example 1]", "md_verbatim": "| 3 | STUDYX | FT | MS01-01 | 3 | 1 | SIXMW103 | SIXMW1-Distance at 3 Minutes | SIX MINUTE WALK | 299 | m | 299 | 299 | m | Y | 1 | 2014-03-10 |", "score": 0.4077, "match_basis": "verbatim_token+domain_route:FT"}, {"md_atom_id": "md_dmFT_ex_a011", "md_file": "knowledge_base/domains/FT/examples.md", "md_atom_type": "TABLE_ROW", "md_parent_section": "§FT.1 [Example 1]", "md_verbatim": "| 4 | STUDYX | FT | MS01-01 | 4 | 1 | SIXMW104 | SIXMW1-Distance at 4 Minutes | SIX MINUTE WALK | 396 | m | 396 | 396 | m | Y | 1 | 2014-03-10 |", "score": 0.4077, "match_basis": "verbatim_token+domain_route:FT"}], "candidate_count": 5, "zero_candidate": false}
{"pdf_atom_id": "ig34_p0320_a015", "pdf_atom_type": "TABLE_ROW", "pdf_source": "SDTMIG_v3.4", "pdf_page": 320, "pdf_parent_section": "§6.3.9.1 Functional Tests (FT)", "pdf_verbatim": "| EPOCH | Epoch | Char | (EPOCH) | Timing | Epoch associated with the observation date/time of the functional tests finding. | Perm |", "figure_ref": null, "candidates": [{"md_atom_id": "md_dmFT_ex_a009", "md_file": "knowledge_base/domains/FT/examples.md", "md_atom_type": "TABLE_ROW", "md_parent_section": "§FT.1 [Example 1]", "md_verbatim": "| 2 | STUDYX | FT | MS01-01 | 2 | 1 | SIXMW102 | SIXMW1-Distance at 2 Minutes | SIX MINUTE WALK | 201 | m | 201 | 201 | m | Y | 1 | 2014-03-10 |", "score": 0.4169, "match_basis": "verbatim_token+domain_route:FT"}, {"md_atom_id": "md_dmFT_ex_a010", "md_file": "knowledge_base/domains/FT/examples.md", "md_atom_type": "TABLE_ROW", "md_parent_section": "§FT.1 [Example 1]", "md_verbatim": "| 3 | STUDYX | FT | MS01-01 | 3 | 1 | SIXMW103 | SIXMW1-Distance at 3 Minutes | SIX MINUTE WALK | 299 | m | 299 | 299 | m | Y | 1 | 2014-03-10 |", "score": 0.4167, "match_basis": "verbatim_token+domain_route:FT"}, {"md_atom_id": "md_dmFT_ex_a011", "md_file": "knowledge_base/domains/FT/examples.md", "md_atom_type": "TABLE_ROW", "md_parent_section": "§FT.1 [Example 1]", "md_verbatim": "| 4 | STUDYX | FT | MS01-01 | 4 | 1 | SIXMW104 | SIXMW1-Distance at 4 Minutes | SIX MINUTE WALK | 396 | m | 396 | 396 | m | Y | 1 | 2014-03-10 |", "score": 0.4167, "match_basis": "verbatim_token+domain_route:FT"}, {"md_atom_id": "md_dmFT_ex_a012", "md_file": "knowledge_base/domains/FT/examples.md", "md_atom_type": "TABLE_ROW", "md_parent_section": "§FT.1 [Example 1]", "md_verbatim": "| 5 | STUDYX | FT | MS01-01 | 5 | 1 | SIXMW105 | SIXMW1-Distance at 5 Minutes | SIX MINUTE WALK | 493 | m | 493 | 493 | m | Y | 1 | 2014-03-10 |", "score": 0.4167, "match_basis": "verbatim_token+domain_route:FT"}, {"md_atom_id": "md_dmFT_ex_a013", "md_file": "knowledge_base/domains/FT/examples.md", "md_atom_type": "TABLE_ROW", "md_parent_section": "§FT.1 [Example 1]", "md_verbatim": "| 6 | STUDYX | FT | MS01-01 | 6 | 1 | SIXMW106 | SIXMW1-Distance at 6 Minutes | SIX MINUTE WALK | 597 | m | 597 | 597 | m | Y | 1 | 2014-03-10 |", "score": 0.4167, "match_basis": "verbatim_token+domain_route:FT"}], "candidate_count": 5, "zero_candidate": false}
{"pdf_atom_id": "ig34_p0320_a016", "pdf_atom_type": "TABLE_ROW", "pdf_source": "SDTMIG_v3.4", "pdf_page": 320, "pdf_parent_section": "§6.3.9.1 Functional Tests (FT)", "pdf_verbatim": "| FTDTC | Date/Time of Test | Char | ISO 8601 datetime or interval | Timing | Collection date and time of functional test. | Exp |", "figure_ref": null, "candidates": [{"md_atom_id": "md_dmFT_ex_a009", "md_file": "knowledge_base/domains/FT/examples.md", "md_atom_type": "TABLE_ROW", "md_parent_section": "§FT.1 [Example 1]", "md_verbatim": "| 2 | STUDYX | FT | MS01-01 | 2 | 1 | SIXMW102 | SIXMW1-Distance at 2 Minutes | SIX MINUTE WALK | 201 | m | 201 | 201 | m | Y | 1 | 2014-03-10 |", "score": 0.4185, "match_basis": "verbatim_token+domain_route:FT"}, {"md_atom_id": "md_dmFT_ex_a010", "md_file": "knowledge_base/domains/FT/examples.md", "md_atom_type": "TABLE_ROW", "md_parent_section": "§FT.1 [Example 1]", "md_verbatim": "| 3 | STUDYX | FT | MS01-01 | 3 | 1 | SIXMW103 | SIXMW1-Distance at 3 Minutes | SIX MINUTE WALK | 299 | m | 299 | 299 | m | Y | 1 | 2014-03-10 |", "score": 0.4182, "match_basis": "verbatim_token+domain_route:FT"}, {"md_atom_id": "md_dmFT_ex_a011", "md_file": "knowledge_base/domains/FT/examples.md", "md_atom_type": "TABLE_ROW", "md_parent_section": "§FT.1 [Example 1]", "md_verbatim": "| 4 | STUDYX | FT | MS01-01 | 4 | 1 | SIXMW104 | SIXMW1-Distance at 4 Minutes | SIX MINUTE WALK | 396 | m | 396 | 396 | m | Y | 1 | 2014-03-10 |", "score": 0.4182, "match_basis": "verbatim_token+domain_route:FT"}, {"md_atom_id": "md_dmFT_ex_a012", "md_file": "knowledge_base/domains/FT/examples.md", "md_atom_type": "TABLE_ROW", "md_parent_section": "§FT.1 [Example 1]", "md_verbatim": "| 5 | STUDYX | FT | MS01-01 | 5 | 1 | SIXMW105 | SIXMW1-Distance at 5 Minutes | SIX MINUTE WALK | 493 | m | 493 | 493 | m | Y | 1 | 2014-03-10 |", "score": 0.4182, "match_basis": "verbatim_token+domain_route:FT"}, {"md_atom_id": "md_dmFT_ex_a013", "md_file": "knowledge_base/domains/FT/examples.md", "md_atom_type": "TABLE_ROW", "md_parent_section": "§FT.1 [Example 1]", "md_verbatim": "| 6 | STUDYX | FT | MS01-01 | 6 | 1 | SIXMW106 | SIXMW1-Distance at 6 Minutes | SIX MINUTE WALK | 597 | m | 597 | 597 | m | Y | 1 | 2014-03-10 |", "score": 0.4182, "match_basis": "verbatim_token+domain_route:FT"}], "candidate_count": 5, "zero_candidate": false}
{"pdf_atom_id": "ig34_p0320_a017", "pdf_atom_type": "TABLE_ROW", "pdf_source": "SDTMIG_v3.4", "pdf_page": 320, "pdf_parent_section": "§6.3.9.1 Functional Tests (FT)", "pdf_verbatim": "| FTDY | Study Day of Test | Num | | Timing | Actual study day of test expressed in integer days relative to the sponsor-defined RFSTDTC in Demographics. | Perm |", "figure_ref": null, "candidates": [{"md_atom_id": "md_dmFT_ex_a009", "md_file": "knowledge_base/domains/FT/examples.md", "md_atom_type": "TABLE_ROW", "md_parent_section": "§FT.1 [Example 1]", "md_verbatim": "| 2 | STUDYX | FT | MS01-01 | 2 | 1 | SIXMW102 | SIXMW1-Distance at 2 Minutes | SIX MINUTE WALK | 201 | m | 201 | 201 | m | Y | 1 | 2014-03-10 |", "score": 0.4349, "match_basis": "verbatim_token+domain_route:FT"}, {"md_atom_id": "md_dmFT_ex_a010", "md_file": "knowledge_base/domains/FT/examples.md", "md_atom_type": "TABLE_ROW", "md_parent_section": "§FT.1 [Example 1]", "md_verbatim": "| 3 | STUDYX | FT | MS01-01 | 3 | 1 | SIXMW103 | SIXMW1-Distance at 3 Minutes | SIX MINUTE WALK | 299 | m | 299 | 299 | m | Y | 1 | 2014-03-10 |", "score": 0.4345, "match_basis": "verbatim_token+domain_route:FT"}, {"md_atom_id": "md_dmFT_ex_a011", "md_file": "knowledge_base/domains/FT/examples.md", "md_atom_type": "TABLE_ROW", "md_parent_section": "§FT.1 [Example 1]", "md_verbatim": "| 4 | STUDYX | FT | MS01-01 | 4 | 1 | SIXMW104 | SIXMW1-Distance at 4 Minutes | SIX MINUTE WALK | 396 | m | 396 | 396 | m | Y | 1 | 2014-03-10 |", "score": 0.4345, "match_basis": "verbatim_token+domain_route:FT"}, {"md_atom_id": "md_dmFT_ex_a012", "md_file": "knowledge_base/domains/FT/examples.md", "md_atom_type": "TABLE_ROW", "md_parent_section": "§FT.1 [Example 1]", "md_verbatim": "| 5 | STUDYX | FT | MS01-01 | 5 | 1 | SIXMW105 | SIXMW1-Distance at 5 Minutes | SIX MINUTE WALK | 493 | m | 493 | 493 | m | Y | 1 | 2014-03-10 |", "score": 0.4345, "match_basis": "verbatim_token+domain_route:FT"}, {"md_atom_id": "md_dmFT_ex_a013", "md_file": "knowledge_base/domains/FT/examples.md", "md_atom_type": "TABLE_ROW", "md_parent_section": "§FT.1 [Example 1]", "md_verbatim": "| 6 | STUDYX | FT | MS01-01 | 6 | 1 | SIXMW106 | SIXMW1-Distance at 6 Minutes | SIX MINUTE WALK | 597 | m | 597 | 597 | m | Y | 1 | 2014-03-10 |", "score": 0.4345, "match_basis": "verbatim_token+domain_route:FT"}], "candidate_count": 5, "zero_candidate": false}
{"pdf_atom_id": "ig34_p0320_a018", "pdf_atom_type": "TABLE_ROW", "pdf_source": "SDTMIG_v3.4", "pdf_page": 320, "pdf_parent_section": "§6.3.9.1 Functional Tests (FT)", "pdf_verbatim": "| FTTPT | Planned Time Point Name | Char | | Timing | Text description of time when a measurement or observation should be taken, as defined in the protocol. This may be represented as an elapsed time relative to a fixed reference point, such as time of last dose. See FTTPTNUM and FTTPTREF. | Perm |", "figure_ref": null, "candidates": [{"md_atom_id": "md_dmFT_ex_a008", "md_file": "knowledge_base/domains/FT/examples.md", "md_atom_type": "TABLE_ROW", "md_parent_section": "§FT.1 [Example 1]", "md_verbatim": "| 1 | STUDYX | FT | MS01-01 | 1 | 1 | SIXMW101 | SIXMW1-Distance at 1 Minute | SIX MINUTE WALK | 101 | m | 101 | 101 | m | Y | 1 | 2014-03-10 |", "score": 0.4088, "match_basis": "verbatim_token+domain_route:FT"}, {"md_atom_id": "md_dmFT_ex_a009", "md_file": "knowledge_base/domains/FT/examples.md", "md_atom_type": "TABLE_ROW", "md_parent_section": "§FT.1 [Example 1]", "md_verbatim": "| 2 | STUDYX | FT | MS01-01 | 2 | 1 | SIXMW102 | SIXMW1-Distance at 2 Minutes | SIX MINUTE WALK | 201 | m | 201 | 201 | m | Y | 1 | 2014-03-10 |", "score": 0.4088, "match_basis": "verbatim_token+domain_route:FT"}, {"md_atom_id": "md_dmFT_ex_a010", "md_file": "knowledge_base/domains/FT/examples.md", "md_atom_type": "TABLE_ROW", "md_parent_section": "§FT.1 [Example 1]", "md_verbatim": "| 3 | STUDYX | FT | MS01-01 | 3 | 1 | SIXMW103 | SIXMW1-Distance at 3 Minutes | SIX MINUTE WALK | 299 | m | 299 | 299 | m | Y | 1 | 2014-03-10 |", "score": 0.4087, "match_basis": "verbatim_token+domain_route:FT"}, {"md_atom_id": "md_dmFT_ex_a011", "md_file": "knowledge_base/domains/FT/examples.md", "md_atom_type": "TABLE_ROW", "md_parent_section": "§FT.1 [Example 1]", "md_verbatim": "| 4 | STUDYX | FT | MS01-01 | 4 | 1 | SIXMW104 | SIXMW1-Distance at 4 Minutes | SIX MINUTE WALK | 396 | m | 396 | 396 | m | Y | 1 | 2014-03-10 |", "score": 0.4087, "match_basis": "verbatim_token+domain_route:FT"}, {"md_atom_id": "md_dmFT_ex_a012", "md_file": "knowledge_base/domains/FT/examples.md", "md_atom_type": "TABLE_ROW", "md_parent_section": "§FT.1 [Example 1]", "md_verbatim": "| 5 | STUDYX | FT | MS01-01 | 5 | 1 | SIXMW105 | SIXMW1-Distance at 5 Minutes | SIX MINUTE WALK | 493 | m | 493 | 493 | m | Y | 1 | 2014-03-10 |", "score": 0.4087, "match_basis": "verbatim_token+domain_route:FT"}], "candidate_count": 5, "zero_candidate": false}
{"pdf_atom_id": "ig34_p0320_a019", "pdf_atom_type": "TABLE_ROW", "pdf_source": "SDTMIG_v3.4", "pdf_page": 320, "pdf_parent_section": "§6.3.9.1 Functional Tests (FT)", "pdf_verbatim": "| FTTPTNUM | Planned Time Point Number | Num | | Timing | Numeric version of planned time point used in sorting. | Perm |", "figure_ref": null, "candidates": [{"md_atom_id": "md_dmFT_ex_a008", "md_file": "knowledge_base/domains/FT/examples.md", "md_atom_type": "TABLE_ROW", "md_parent_section": "§FT.1 [Example 1]", "md_verbatim": "| 1 | STUDYX | FT | MS01-01 | 1 | 1 | SIXMW101 | SIXMW1-Distance at 1 Minute | SIX MINUTE WALK | 101 | m | 101 | 101 | m | Y | 1 | 2014-03-10 |", "score": 0.4094, "match_basis": "verbatim_token+domain_route:FT"}, {"md_atom_id": "md_dmFT_ex_a009", "md_file": "knowledge_base/domains/FT/examples.md", "md_atom_type": "TABLE_ROW", "md_parent_section": "§FT.1 [Example 1]", "md_verbatim": "| 2 | STUDYX | FT | MS01-01 | 2 | 1 | SIXMW102 | SIXMW1-Distance at 2 Minutes | SIX MINUTE WALK | 201 | m | 201 | 201 | m | Y | 1 | 2014-03-10 |", "score": 0.4092, "match_basis": "verbatim_token+domain_route:FT"}, {"md_atom_id": "md_dmFT_ex_a010", "md_file": "knowledge_base/domains/FT/examples.md", "md_atom_type": "TABLE_ROW", "md_parent_section": "§FT.1 [Example 1]", "md_verbatim": "| 3 | STUDYX | FT | MS01-01 | 3 | 1 | SIXMW103 | SIXMW1-Distance at 3 Minutes | SIX MINUTE WALK | 299 | m | 299 | 299 | m | Y | 1 | 2014-03-10 |", "score": 0.4091, "match_basis": "verbatim_token+domain_route:FT"}, {"md_atom_id": "md_dmFT_ex_a011", "md_file": "knowledge_base/domains/FT/examples.md", "md_atom_type": "TABLE_ROW", "md_parent_section": "§FT.1 [Example 1]", "md_verbatim": "| 4 | STUDYX | FT | MS01-01 | 4 | 1 | SIXMW104 | SIXMW1-Distance at 4 Minutes | SIX MINUTE WALK | 396 | m | 396 | 396 | m | Y | 1 | 2014-03-10 |", "score": 0.4091, "match_basis": "verbatim_token+domain_route:FT"}, {"md_atom_id": "md_dmFT_ex_a012", "md_file": "knowledge_base/domains/FT/examples.md", "md_atom_type": "TABLE_ROW", "md_parent_section": "§FT.1 [Example 1]", "md_verbatim": "| 5 | STUDYX | FT | MS01-01 | 5 | 1 | SIXMW105 | SIXMW1-Distance at 5 Minutes | SIX MINUTE WALK | 493 | m | 493 | 493 | m | Y | 1 | 2014-03-10 |", "score": 0.4091, "match_basis": "verbatim_token+domain_route:FT"}], "candidate_count": 5, "zero_candidate": false}
{"pdf_atom_id": "ig34_p0320_a020", "pdf_atom_type": "TABLE_ROW", "pdf_source": "SDTMIG_v3.4", "pdf_page": 320, "pdf_parent_section": "§6.3.9.1 Functional Tests (FT)", "pdf_verbatim": "| FTELTM | Planned Elapsed Time from Time Point Ref | Char | ISO 8601 duration | Timing | Planned elapsed time relative to a planned fixed reference (FTTPTREF). Not a clock time or a date/time variable, but an interval, represented as ISO duration. | Perm |", "figure_ref": null, "candidates": [{"md_atom_id": "md_dmFT_ex_a008", "md_file": "knowledge_base/domains/FT/examples.md", "md_atom_type": "TABLE_ROW", "md_parent_section": "§FT.1 [Example 1]", "md_verbatim": "| 1 | STUDYX | FT | MS01-01 | 1 | 1 | SIXMW101 | SIXMW1-Distance at 1 Minute | SIX MINUTE WALK | 101 | m | 101 | 101 | m | Y | 1 | 2014-03-10 |", "score": 0.4113, "match_basis": "verbatim_token+domain_route:FT"}, {"md_atom_id": "md_dmFT_ex_a009", "md_file": "knowledge_base/domains/FT/examples.md", "md_atom_type": "TABLE_ROW", "md_parent_section": "§FT.1 [Example 1]", "md_verbatim": "| 2 | STUDYX | FT | MS01-01 | 2 | 1 | SIXMW102 | SIXMW1-Distance at 2 Minutes | SIX MINUTE WALK | 201 | m | 201 | 201 | m | Y | 1 | 2014-03-10 |", "score": 0.4112, "match_basis": "verbatim_token+domain_route:FT"}, {"md_atom_id": "md_dmFT_ex_a010", "md_file": "knowledge_base/domains/FT/examples.md", "md_atom_type": "TABLE_ROW", "md_parent_section": "§FT.1 [Example 1]", "md_verbatim": "| 3 | STUDYX | FT | MS01-01 | 3 | 1 | SIXMW103 | SIXMW1-Distance at 3 Minutes | SIX MINUTE WALK | 299 | m | 299 | 299 | m | Y | 1 | 2014-03-10 |", "score": 0.4111, "match_basis": "verbatim_token+domain_route:FT"}, {"md_atom_id": "md_dmFT_ex_a011", "md_file": "knowledge_base/domains/FT/examples.md", "md_atom_type": "TABLE_ROW", "md_parent_section": "§FT.1 [Example 1]", "md_verbatim": "| 4 | STUDYX | FT | MS01-01 | 4 | 1 | SIXMW104 | SIXMW1-Distance at 4 Minutes | SIX MINUTE WALK | 396 | m | 396 | 396 | m | Y | 1 | 2014-03-10 |", "score": 0.4111, "match_basis": "verbatim_token+domain_route:FT"}, {"md_atom_id": "md_dmFT_ex_a012", "md_file": "knowledge_base/domains/FT/examples.md", "md_atom_type": "TABLE_ROW", "md_parent_section": "§FT.1 [Example 1]", "md_verbatim": "| 5 | STUDYX | FT | MS01-01 | 5 | 1 | SIXMW105 | SIXMW1-Distance at 5 Minutes | SIX MINUTE WALK | 493 | m | 493 | 493 | m | Y | 1 | 2014-03-10 |", "score": 0.4111, "match_basis": "verbatim_token+domain_route:FT"}], "candidate_count": 5, "zero_candidate": false}
{"pdf_atom_id": "ig34_p0320_a021", "pdf_atom_type": "TABLE_ROW", "pdf_source": "SDTMIG_v3.4", "pdf_page": 320, "pdf_parent_section": "§6.3.9.1 Functional Tests (FT)", "pdf_verbatim": "| FTTPTREF | Time Point Reference | Char | | Timing | Description of the fixed reference point referred to by FTELTM, FTTPTNUM, and FTTPT. Examples: \"PREVIOUS DOSE\", \"PREVIOUS MEAL\". | Perm |", "figure_ref": null, "candidates": [{"md_atom_id": "md_dmFT_ex_a008", "md_file": "knowledge_base/domains/FT/examples.md", "md_atom_type": "TABLE_ROW", "md_parent_section": "§FT.1 [Example 1]", "md_verbatim": "| 1 | STUDYX | FT | MS01-01 | 1 | 1 | SIXMW101 | SIXMW1-Distance at 1 Minute | SIX MINUTE WALK | 101 | m | 101 | 101 | m | Y | 1 | 2014-03-10 |", "score": 0.4136, "match_basis": "verbatim_token+domain_route:FT"}, {"md_atom_id": "md_dmFT_ex_a009", "md_file": "knowledge_base/domains/FT/examples.md", "md_atom_type": "TABLE_ROW", "md_parent_section": "§FT.1 [Example 1]", "md_verbatim": "| 2 | STUDYX | FT | MS01-01 | 2 | 1 | SIXMW102 | SIXMW1-Distance at 2 Minutes | SIX MINUTE WALK | 201 | m | 201 | 201 | m | Y | 1 | 2014-03-10 |", "score": 0.4135, "match_basis": "verbatim_token+domain_route:FT"}, {"md_atom_id": "md_dmFT_ex_a010", "md_file": "knowledge_base/domains/FT/examples.md", "md_atom_type": "TABLE_ROW", "md_parent_section": "§FT.1 [Example 1]", "md_verbatim": "| 3 | STUDYX | FT | MS01-01 | 3 | 1 | SIXMW103 | SIXMW1-Distance at 3 Minutes | SIX MINUTE WALK | 299 | m | 299 | 299 | m | Y | 1 | 2014-03-10 |", "score": 0.4133, "match_basis": "verbatim_token+domain_route:FT"}, {"md_atom_id": "md_dmFT_ex_a011", "md_file": "knowledge_base/domains/FT/examples.md", "md_atom_type": "TABLE_ROW", "md_parent_section": "§FT.1 [Example 1]", "md_verbatim": "| 4 | STUDYX | FT | MS01-01 | 4 | 1 | SIXMW104 | SIXMW1-Distance at 4 Minutes | SIX MINUTE WALK | 396 | m | 396 | 396 | m | Y | 1 | 2014-03-10 |", "score": 0.4133, "match_basis": "verbatim_token+domain_route:FT"}, {"md_atom_id": "md_dmFT_ex_a012", "md_file": "knowledge_base/domains/FT/examples.md", "md_atom_type": "TABLE_ROW", "md_parent_section": "§FT.1 [Example 1]", "md_verbatim": "| 5 | STUDYX | FT | MS01-01 | 5 | 1 | SIXMW105 | SIXMW1-Distance at 5 Minutes | SIX MINUTE WALK | 493 | m | 493 | 493 | m | Y | 1 | 2014-03-10 |", "score": 0.4133, "match_basis": "verbatim_token+domain_route:FT"}], "candidate_count": 5, "zero_candidate": false}
{"pdf_atom_id": "ig34_p0320_a022", "pdf_atom_type": "TABLE_ROW", "pdf_source": "SDTMIG_v3.4", "pdf_page": 320, "pdf_parent_section": "§6.3.9.1 Functional Tests (FT)", "pdf_verbatim": "| FTRFTDTC | Date/Time of Reference Time Point | Char | ISO 8601 datetime or interval | Timing | Date/time for a fixed reference time point defined by FTTPTREF. | Perm |", "figure_ref": null, "candidates": [{"md_atom_id": "md_dmFT_ex_a008", "md_file": "knowledge_base/domains/FT/examples.md", "md_atom_type": "TABLE_ROW", "md_parent_section": "§FT.1 [Example 1]", "md_verbatim": "| 1 | STUDYX | FT | MS01-01 | 1 | 1 | SIXMW101 | SIXMW1-Distance at 1 Minute | SIX MINUTE WALK | 101 | m | 101 | 101 | m | Y | 1 | 2014-03-10 |", "score": 0.416, "match_basis": "verbatim_token+domain_route:FT"}, {"md_atom_id": "md_dmFT_ex_a009", "md_file": "knowledge_base/domains/FT/examples.md", "md_atom_type": "TABLE_ROW", "md_parent_section": "§FT.1 [Example 1]", "md_verbatim": "| 2 | STUDYX | FT | MS01-01 | 2 | 1 | SIXMW102 | SIXMW1-Distance at 2 Minutes | SIX MINUTE WALK | 201 | m | 201 | 201 | m | Y | 1 | 2014-03-10 |", "score": 0.4158, "match_basis": "verbatim_token+domain_route:FT"}, {"md_atom_id": "md_dmFT_ex_a010", "md_file": "knowledge_base/domains/FT/examples.md", "md_atom_type": "TABLE_ROW", "md_parent_section": "§FT.1 [Example 1]", "md_verbatim": "| 3 | STUDYX | FT | MS01-01 | 3 | 1 | SIXMW103 | SIXMW1-Distance at 3 Minutes | SIX MINUTE WALK | 299 | m | 299 | 299 | m | Y | 1 | 2014-03-10 |", "score": 0.4156, "match_basis": "verbatim_token+domain_route:FT"}, {"md_atom_id": "md_dmFT_ex_a011", "md_file": "knowledge_base/domains/FT/examples.md", "md_atom_type": "TABLE_ROW", "md_parent_section": "§FT.1 [Example 1]", "md_verbatim": "| 4 | STUDYX | FT | MS01-01 | 4 | 1 | SIXMW104 | SIXMW1-Distance at 4 Minutes | SIX MINUTE WALK | 396 | m | 396 | 396 | m | Y | 1 | 2014-03-10 |", "score": 0.4156, "match_basis": "verbatim_token+domain_route:FT"}, {"md_atom_id": "md_dmFT_ex_a012", "md_file": "knowledge_base/domains/FT/examples.md", "md_atom_type": "TABLE_ROW", "md_parent_section": "§FT.1 [Example 1]", "md_verbatim": "| 5 | STUDYX | FT | MS01-01 | 5 | 1 | SIXMW105 | SIXMW1-Distance at 5 Minutes | SIX MINUTE WALK | 493 | m | 493 | 493 | m | Y | 1 | 2014-03-10 |", "score": 0.4156, "match_basis": "verbatim_token+domain_route:FT"}], "candidate_count": 5, "zero_candidate": false}
