{"pdf_atom_id": "sv20_p0071_a024", "pdf_atom_type": "LIST_ITEM", "pdf_source": "SDTM_v2.0", "pdf_page": 71, "pdf_parent_section": "§7 [Changes from SDTM v1.8 to SDTM v2.0]", "pdf_verbatim": "--TSTPNL, Test Panel", "figure_ref": null, "candidates": [{"md_atom_id": "md_ch04_a184", "md_file": "knowledge_base/chapters/ch04_general_assumptions.md", "md_atom_type": "LIST_ITEM", "md_parent_section": "§4.2.1.1 [--TEST and --TESTCD Conventions (Findings)]", "md_verbatim": "- --TEST: full descriptive name of the test", "score": 0.3522, "match_basis": "verbatim_token+global_search"}, {"md_atom_id": "md_dmFT_assn_a011", "md_file": "knowledge_base/domains/FT/assumptions.md", "md_atom_type": "LIST_ITEM", "md_parent_section": "§FT [FT — Assumptions]", "md_verbatim": "      ii. Category of Functional Test", "score": 0.3522, "match_basis": "verbatim_token+global_search"}, {"md_atom_id": "md_varindex_a277", "md_file": "knowledge_base/VARIABLE_INDEX.md", "md_atom_type": "TABLE_ROW", "md_parent_section": "§ 二、领域专属变量（仅 1 个域，共 1499 个），按域分组", "md_verbatim": "| CPTSTPNL | Test Panel | Char | Grouping Qualifier | Perm | — |", "score": 0.3429, "match_basis": "verbatim_token+global_search"}, {"md_atom_id": "md_ch04_a232", "md_file": "knowledge_base/chapters/ch04_general_assumptions.md", "md_atom_type": "LIST_ITEM", "md_parent_section": "§4.2.6 [Grouping Variables and Categorization]", "md_verbatim": "      - Vital Signs recorded during the stress test (VS domain)", "score": 0.3353, "match_basis": "verbatim_token+global_search"}, {"md_atom_id": "md_ch04_a415", "md_file": "knowledge_base/chapters/ch04_general_assumptions.md", "md_atom_type": "LIST_ITEM", "md_parent_section": "§4.2.9 [Variable Lengths]", "md_verbatim": "    - --TESTCD and IDVAR will never be more than 8, so the length can always be set to 8.", "score": 0.3343, "match_basis": "verbatim_token+global_search"}], "candidate_count": 5, "zero_candidate": false}
{"pdf_atom_id": "sv20_p0071_a025", "pdf_atom_type": "LIST_ITEM", "pdf_source": "SDTM_v2.0", "pdf_page": 71, "pdf_parent_section": "§7 [Changes from SDTM v1.8 to SDTM v2.0]", "pdf_verbatim": "--RESSCL, Result Scale", "figure_ref": null, "candidates": [{"md_atom_id": "md_dmOE_ex_a085", "md_file": "knowledge_base/domains/OE/examples.md", "md_atom_type": "LIST_ITEM", "md_parent_section": "§OE.4 [Example 4]", "md_verbatim": "- The use of the NSV OERESCRT, to describe the numeric scale", "score": 0.3889, "match_basis": "verbatim_token+global_search"}, {"md_atom_id": "md_ch04_a821", "md_file": "knowledge_base/chapters/ch04_general_assumptions.md", "md_atom_type": "LIST_ITEM", "md_parent_section": "§4.5.1 [Original and Standardized Results]", "md_verbatim": "- --STRESN: numeric version of --STRESC (null when result is non-numeric)", "score": 0.3828, "match_basis": "verbatim_token+global_search"}, {"md_atom_id": "md_ch04_a863", "md_file": "knowledge_base/chapters/ch04_general_assumptions.md", "md_atom_type": "LIST_ITEM", "md_parent_section": "§4.5.1.3 [Examples of Original and Standard Units and Test Not Done]", "md_verbatim": "- **Rows 2-3:** Numeric results were converted to standard units.", "score": 0.3667, "match_basis": "verbatim_token+global_search"}, {"md_atom_id": "md_ch04_a165", "md_file": "knowledge_base/chapters/ch04_general_assumptions.md", "md_atom_type": "LIST_ITEM", "md_parent_section": "§4.1.9 [Assigning Natural Keys in the Metadata]", "md_verbatim": "- It results in the creation of a potentially large number of test codes.", "score": 0.3615, "match_basis": "verbatim_token+global_search"}, {"md_atom_id": "md_ch04_a839", "md_file": "knowledge_base/chapters/ch04_general_assumptions.md", "md_atom_type": "LIST_ITEM", "md_parent_section": "§4.5.1.3 [Examples of Original and Standard Units and Test Not Done]", "md_verbatim": "- **Row 5:** A character result was converted to a standardized format.", "score": 0.36, "match_basis": "verbatim_token+global_search"}], "candidate_count": 5, "zero_candidate": false}
{"pdf_atom_id": "sv20_p0071_a026", "pdf_atom_type": "LIST_ITEM", "pdf_source": "SDTM_v2.0", "pdf_page": 71, "pdf_parent_section": "§7 [Changes from SDTM v1.8 to SDTM v2.0]", "pdf_verbatim": "--RESTYP, Result Type", "figure_ref": null, "candidates": [{"md_atom_id": "md_dmMH_assn_a028", "md_file": "knowledge_base/domains/MH/assumptions.md", "md_atom_type": "LIST_ITEM", "md_parent_section": "§MH [MH — Assumptions]", "md_verbatim": "6. **MH event date type**", "score": 0.3923, "match_basis": "verbatim_token+global_search"}, {"md_atom_id": "md_ch04_a821", "md_file": "knowledge_base/chapters/ch04_general_assumptions.md", "md_atom_type": "LIST_ITEM", "md_parent_section": "§4.5.1 [Original and Standardized Results]", "md_verbatim": "- --STRESN: numeric version of --STRESC (null when result is non-numeric)", "score": 0.3889, "match_basis": "verbatim_token+global_search"}, {"md_atom_id": "md_ch04_a165", "md_file": "knowledge_base/chapters/ch04_general_assumptions.md", "md_atom_type": "LIST_ITEM", "md_parent_section": "§4.1.9 [Assigning Natural Keys in the Metadata]", "md_verbatim": "- It results in the creation of a potentially large number of test codes.", "score": 0.3833, "match_basis": "verbatim_token+global_search"}, {"md_atom_id": "md_ch04_a867", "md_file": "knowledge_base/chapters/ch04_general_assumptions.md", "md_atom_type": "LIST_ITEM", "md_parent_section": "§4.5.1.3 [Examples of Original and Standard Units and Test Not Done]", "md_verbatim": "- **Row 7:** At visit 3, there were no ECG results, as indicated by EGTESTCD = \"EGALL\" and EGSTAT = \"NOT DONE\".", "score": 0.3732, "match_basis": "verbatim_token+global_search"}, {"md_atom_id": "md_ch04_a863", "md_file": "knowledge_base/chapters/ch04_general_assumptions.md", "md_atom_type": "LIST_ITEM", "md_parent_section": "§4.5.1.3 [Examples of Original and Standard Units and Test Not Done]", "md_verbatim": "- **Rows 2-3:** Numeric results were converted to standard units.", "score": 0.3706, "match_basis": "verbatim_token+global_search"}], "candidate_count": 5, "zero_candidate": false}
{"pdf_atom_id": "sv20_p0071_a027", "pdf_atom_type": "LIST_ITEM", "pdf_source": "SDTM_v2.0", "pdf_page": 71, "pdf_parent_section": "§7 [Changes from SDTM v1.8 to SDTM v2.0]", "pdf_verbatim": "--COLSRT, Collected Summary Result Type", "figure_ref": null, "candidates": [{"md_atom_id": "md_varindex_a282", "md_file": "knowledge_base/VARIABLE_INDEX.md", "md_atom_type": "TABLE_ROW", "md_parent_section": "§ 二、领域专属变量（仅 1 个域，共 1499 个），按域分组", "md_verbatim": "| CPCOLSRT | Collected Summary Result Type | Char | Record Qualifier | Perm | C177908 |", "score": 0.443, "match_basis": "verbatim_token+global_search"}, {"md_atom_id": "md_varindex_a751", "md_file": "knowledge_base/VARIABLE_INDEX.md", "md_atom_type": "TABLE_ROW", "md_parent_section": "§ 二、领域专属变量（仅 1 个域，共 1499 个），按域分组", "md_verbatim": "| LBCOLSRT | Collected Summary Result Type | Char | Record Qualifier | Perm | C177908 |", "score": 0.443, "match_basis": "verbatim_token+global_search"}, {"md_atom_id": "md_dmMB_assn_a012", "md_file": "knowledge_base/domains/MB/assumptions.md", "md_atom_type": "LIST_ITEM", "md_parent_section": "§MB [MB — Assumptions]", "md_verbatim": "2. MBDTC represents the date the specimen was collected.", "score": 0.4171, "match_basis": "verbatim_token+global_search"}, {"md_atom_id": "md_dmMS_assn_a009", "md_file": "knowledge_base/domains/MS/assumptions.md", "md_atom_type": "LIST_ITEM", "md_parent_section": "§MS [MS — Assumptions]", "md_verbatim": "2. MSDTC represents the date the specimen was collected.", "score": 0.4171, "match_basis": "verbatim_token+global_search"}, {"md_atom_id": "md_ch02_a040", "md_file": "knowledge_base/chapters/ch02_fundamentals.md", "md_atom_type": "LIST_ITEM", "md_parent_section": "§2.2 [Datasets and Domains]", "md_verbatim": "- Data as originally collected or received", "score": 0.4135, "match_basis": "verbatim_token+global_search"}], "candidate_count": 5, "zero_candidate": false}
{"pdf_atom_id": "sv20_p0071_a028", "pdf_atom_type": "LIST_ITEM", "pdf_source": "SDTM_v2.0", "pdf_page": 71, "pdf_parent_section": "§7 [Changes from SDTM v1.8 to SDTM v2.0]", "pdf_verbatim": "--LLOD, Lower Limit of Detection", "figure_ref": null, "candidates": [{"md_atom_id": "md_dmMB_assn_a004", "md_file": "knowledge_base/domains/MB/assumptions.md", "md_atom_type": "LIST_ITEM", "md_parent_section": "§MB [MB — Assumptions]", "md_verbatim": "      i. MBTSTDTL should be \"DETECTION\".", "score": 0.468, "match_basis": "verbatim_token+global_search"}, {"md_atom_id": "md_varindex_a754", "md_file": "knowledge_base/VARIABLE_INDEX.md", "md_atom_type": "TABLE_ROW", "md_parent_section": "§ 二、领域专属变量（仅 1 个域，共 1499 个），按域分组", "md_verbatim": "| LBLLOD | Lower Limit of Detection | Char | Variable Qualifier | Perm | — |", "score": 0.4147, "match_basis": "verbatim_token+global_search"}, {"md_atom_id": "md_dmAE_assn_a019", "md_file": "knowledge_base/domains/AE/assumptions.md", "md_atom_type": "LIST_ITEM", "md_parent_section": "§AE [AE — Assumptions]", "md_verbatim": "6. **Actions taken**", "score": 0.39, "match_basis": "verbatim_token+global_search"}, {"md_atom_id": "md_ch01_a060", "md_file": "knowledge_base/chapters/ch01_introduction.md", "md_atom_type": "LIST_ITEM", "md_parent_section": "§1.4 [How to Read this Implementation Guide]", "md_verbatim": "7. Review Section 9, Study References", "score": 0.3774, "match_basis": "verbatim_token+global_search"}, {"md_atom_id": "md_ch04_a449", "md_file": "knowledge_base/chapters/ch04_general_assumptions.md", "md_atom_type": "LIST_ITEM", "md_parent_section": "§4.3.5 [Storing Controlled Terminology for Synonym Qualifier Variables (MedDRA and WHODrug)]", "md_verbatim": "- If coding to multiple classes, follow Section 4.2.8.1 (Multiple Values for an Intervention or Event Topic Variable), or omit CMCLAS", "score": 0.3712, "match_basis": "verbatim_token+global_search"}], "candidate_count": 5, "zero_candidate": false}
{"pdf_atom_id": "sv20_p0071_a029", "pdf_atom_type": "LIST_ITEM", "pdf_source": "SDTM_v2.0", "pdf_page": 71, "pdf_parent_section": "§7 [Changes from SDTM v1.8 to SDTM v2.0]", "pdf_verbatim": "--INHERT, Inheritability", "figure_ref": null, "candidates": [{"md_atom_id": "md_dmEX_assn_a009", "md_file": "knowledge_base/domains/EX/assumptions.md", "md_atom_type": "LIST_ITEM", "md_parent_section": "§EX [EX — Assumptions]", "md_verbatim": "      iv. Derived from product accountability data", "score": 0.4313, "match_basis": "verbatim_token+global_search"}, {"md_atom_id": "md_dmCP_assn_a018", "md_file": "knowledge_base/domains/CP/assumptions.md", "md_atom_type": "LIST_ITEM", "md_parent_section": "§CP [CP — Assumptions]", "md_verbatim": "7. Specifying viability:", "score": 0.4304, "match_basis": "verbatim_token+global_search"}, {"md_atom_id": "md_model05_a012", "md_file": "knowledge_base/model/05_study_level_data.md", "md_atom_type": "LIST_ITEM", "md_parent_section": "§ 5.1 Trial Design Model", "md_verbatim": "- Study eligibility criteria (Section 5.1.5, Trial Inclusion/Exclusion Criteria)", "score": 0.39, "match_basis": "verbatim_token+global_search"}, {"md_atom_id": "md_ch02_a025", "md_file": "knowledge_base/chapters/ch02_fundamentals.md", "md_atom_type": "LIST_ITEM", "md_parent_section": "§2.1 [Observations and Variables]", "md_verbatim": "- Record Qualifier: severity = \"MILD\"", "score": 0.3621, "match_basis": "verbatim_token+global_search"}, {"md_atom_id": "md_varindex_a625", "md_file": "knowledge_base/VARIABLE_INDEX.md", "md_atom_type": "TABLE_ROW", "md_parent_section": "§ 二、领域专属变量（仅 1 个域，共 1499 个），按域分组", "md_verbatim": "| GFINHERT | Inheritability | Char | Variable Qualifier | Perm | C181177 |", "score": 0.3608, "match_basis": "verbatim_token+global_search"}], "candidate_count": 5, "zero_candidate": false}
{"pdf_atom_id": "sv20_p0071_a030", "pdf_atom_type": "LIST_ITEM", "pdf_source": "SDTM_v2.0", "pdf_page": 71, "pdf_parent_section": "§7 [Changes from SDTM v1.8 to SDTM v2.0]", "pdf_verbatim": "--GENREF, Genome Reference", "figure_ref": null, "candidates": [{"md_atom_id": "md_routing_a036", "md_file": "knowledge_base/ROUTING.md", "md_atom_type": "LIST_ITEM", "md_parent_section": "§ 多文件查询策略", "md_verbatim": "3. **按需补充**: Cross References 中的链接（扩展相关信息）", "score": 0.5471, "match_basis": "verbatim_token+global_search"}, {"md_atom_id": "md_dmBE_ex_a119", "md_file": "knowledge_base/domains/BE/examples.md", "md_atom_type": "SENTENCE", "md_parent_section": "§BE.2 [Example 2]", "md_verbatim": "**References**", "score": 0.51, "match_basis": "verbatim_token+global_search"}, {"md_atom_id": "md_dmDV_ex_a013", "md_file": "knowledge_base/domains/DV/examples.md", "md_atom_type": "SENTENCE", "md_parent_section": "§DV.1 [Example 1]", "md_verbatim": "**References**", "score": 0.51, "match_basis": "verbatim_token+global_search"}, {"md_atom_id": "md_ch01_a060", "md_file": "knowledge_base/chapters/ch01_introduction.md", "md_atom_type": "LIST_ITEM", "md_parent_section": "§1.4 [How to Read this Implementation Guide]", "md_verbatim": "7. Review Section 9, Study References", "score": 0.4615, "match_basis": "verbatim_token+global_search"}, {"md_atom_id": "md_ch04_a626", "md_file": "knowledge_base/chapters/ch04_general_assumptions.md", "md_atom_type": "LIST_ITEM", "md_parent_section": "§4.4.6 [Representing Additional Study Days]", "md_verbatim": "- The reference date/time may use Subject Elements (SE) dataset element start date/time", "score": 0.4105, "match_basis": "verbatim_token+global_search"}], "candidate_count": 5, "zero_candidate": false}
{"pdf_atom_id": "sv20_p0071_a031", "pdf_atom_type": "LIST_ITEM", "pdf_source": "SDTM_v2.0", "pdf_page": 71, "pdf_parent_section": "§7 [Changes from SDTM v1.8 to SDTM v2.0]", "pdf_verbatim": "--CHROM, Chromosome Identifier", "figure_ref": null, "candidates": [{"md_atom_id": "md_ch02_a023", "md_file": "knowledge_base/chapters/ch02_fundamentals.md", "md_atom_type": "LIST_ITEM", "md_parent_section": "§2.1 [Observations and Variables]", "md_verbatim": "- Identifier variable: subject identifier \"101\"", "score": 0.4714, "match_basis": "verbatim_token+global_search"}, {"md_atom_id": "md_varindex_a627", "md_file": "knowledge_base/VARIABLE_INDEX.md", "md_atom_type": "TABLE_ROW", "md_parent_section": "§ 二、领域专属变量（仅 1 个域，共 1499 个），按域分组", "md_verbatim": "| GFCHROM | Chromosome Identifier | Char | Variable Qualifier | Perm | — |", "score": 0.45, "match_basis": "verbatim_token+global_search"}, {"md_atom_id": "md_dmCE_assn_a013", "md_file": "knowledge_base/domains/CE/assumptions.md", "md_atom_type": "LIST_ITEM", "md_parent_section": "§CE [CE — Assumptions]", "md_verbatim": "4. Any identifier variable may be added to the CE domain.", "score": 0.45, "match_basis": "verbatim_token+global_search"}, {"md_atom_id": "md_ch04_a196", "md_file": "knowledge_base/chapters/ch04_general_assumptions.md", "md_atom_type": "LIST_ITEM", "md_parent_section": "§4.2.2 [Two-character Domain Identifier]", "md_verbatim": "- Required Identifiers (STUDYID, DOMAIN, USUBJID)", "score": 0.4297, "match_basis": "verbatim_token+global_search"}, {"md_atom_id": "md_dmSV_assn_a006", "md_file": "knowledge_base/domains/SV/assumptions.md", "md_atom_type": "LIST_ITEM", "md_parent_section": "§SV [SV — Assumptions]", "md_verbatim": "   a. SVPRESP = \"Y\" identifies rows for planned visits.", "score": 0.4235, "match_basis": "verbatim_token+global_search"}], "candidate_count": 5, "zero_candidate": false}
{"pdf_atom_id": "sv20_p0071_a032", "pdf_atom_type": "LIST_ITEM", "pdf_source": "SDTM_v2.0", "pdf_page": 71, "pdf_parent_section": "§7 [Changes from SDTM v1.8 to SDTM v2.0]", "pdf_verbatim": "--SYM, Genomic Symbol", "figure_ref": null, "candidates": [{"md_atom_id": "md_dmGF_assn_a010", "md_file": "knowledge_base/domains/GF/assumptions.md", "md_atom_type": "LIST_ITEM", "md_parent_section": "§GF [GF — Assumptions]", "md_verbatim": "5. Genomic symbols are represented in GFSYM.", "score": 0.5455, "match_basis": "verbatim_token+global_search"}, {"md_atom_id": "md_dmGF_assn_a011", "md_file": "knowledge_base/domains/GF/assumptions.md", "md_atom_type": "LIST_ITEM", "md_parent_section": "§GF [GF — Assumptions]", "md_verbatim": "   a. GFTESTCD and GFTEST should not include genomic names or symbols, including but not limited to official gene symbols.", "score": 0.4174, "match_basis": "verbatim_token+global_search"}, {"md_atom_id": "md_ch01_a037", "md_file": "knowledge_base/chapters/ch01_introduction.md", "md_atom_type": "LIST_ITEM", "md_parent_section": "§1.3 [Relationship to Prior CDISC Documents]", "md_verbatim": "- Added Cell Phenotyping Findings (CP) and Genomics Findings (GF) domains", "score": 0.3882, "match_basis": "verbatim_token+global_search"}, {"md_atom_id": "md_dmGF_assn_a012", "md_file": "knowledge_base/domains/GF/assumptions.md", "md_atom_type": "LIST_ITEM", "md_parent_section": "§GF [GF — Assumptions]", "md_verbatim": "   b. For human genetic data, standard nomenclature populated in variable GFSYM must be obtained from the genomic symbol list maintained in the HUGO Gene Nomenclature Committee (HGNC) database (www.genenames.org).", "score": 0.3628, "match_basis": "verbatim_token+global_search"}, {"md_atom_id": "md_varindex_a628", "md_file": "knowledge_base/VARIABLE_INDEX.md", "md_atom_type": "TABLE_ROW", "md_parent_section": "§ 二、领域专属变量（仅 1 个域，共 1499 个），按域分组", "md_verbatim": "| GFSYM | Genomic Symbol | Char | Variable Qualifier | Perm | — |", "score": 0.3429, "match_basis": "verbatim_token+global_search"}], "candidate_count": 5, "zero_candidate": false}
{"pdf_atom_id": "sv20_p0071_a033", "pdf_atom_type": "LIST_ITEM", "pdf_source": "SDTM_v2.0", "pdf_page": 71, "pdf_parent_section": "§7 [Changes from SDTM v1.8 to SDTM v2.0]", "pdf_verbatim": "--SYMTYP, Genomic Symbol Type", "figure_ref": null, "candidates": [{"md_atom_id": "md_dmGF_assn_a010", "md_file": "knowledge_base/domains/GF/assumptions.md", "md_atom_type": "LIST_ITEM", "md_parent_section": "§GF [GF — Assumptions]", "md_verbatim": "5. Genomic symbols are represented in GFSYM.", "score": 0.5077, "match_basis": "verbatim_token+global_search"}, {"md_atom_id": "md_dmGF_assn_a011", "md_file": "knowledge_base/domains/GF/assumptions.md", "md_atom_type": "LIST_ITEM", "md_parent_section": "§GF [GF — Assumptions]", "md_verbatim": "   a. GFTESTCD and GFTEST should not include genomic names or symbols, including but not limited to official gene symbols.", "score": 0.408, "match_basis": "verbatim_token+global_search"}, {"md_atom_id": "md_ch01_a037", "md_file": "knowledge_base/chapters/ch01_introduction.md", "md_atom_type": "LIST_ITEM", "md_parent_section": "§1.3 [Relationship to Prior CDISC Documents]", "md_verbatim": "- Added Cell Phenotyping Findings (CP) and Genomics Findings (GF) domains", "score": 0.3973, "match_basis": "verbatim_token+global_search"}, {"md_atom_id": "md_dmMH_assn_a028", "md_file": "knowledge_base/domains/MH/assumptions.md", "md_atom_type": "LIST_ITEM", "md_parent_section": "§MH [MH — Assumptions]", "md_verbatim": "6. **MH event date type**", "score": 0.3667, "match_basis": "verbatim_token+global_search"}, {"md_atom_id": "md_varindex_a629", "md_file": "knowledge_base/VARIABLE_INDEX.md", "md_atom_type": "TABLE_ROW", "md_parent_section": "§ 二、领域专属变量（仅 1 个域，共 1499 个），按域分组", "md_verbatim": "| GFSYMTYP | Genomic Symbol Type | Char | Variable Qualifier | Perm | C181176 |", "score": 0.3608, "match_basis": "verbatim_token+global_search"}], "candidate_count": 5, "zero_candidate": false}
{"pdf_atom_id": "sv20_p0071_a034", "pdf_atom_type": "LIST_ITEM", "pdf_source": "SDTM_v2.0", "pdf_page": 71, "pdf_parent_section": "§7 [Changes from SDTM v1.8 to SDTM v2.0]", "pdf_verbatim": "--GENLOC, Genetic Location", "figure_ref": null, "candidates": [{"md_atom_id": "md_dmDS_assn_a003", "md_file": "knowledge_base/domains/DS/assumptions.md", "md_atom_type": "LIST_ITEM", "md_parent_section": "§DS [DS — Assumptions]", "md_verbatim": "2. **Categorization**", "score": 0.4143, "match_basis": "verbatim_token+global_search"}, {"md_atom_id": "md_routing_a037", "md_file": "knowledge_base/ROUTING.md", "md_atom_type": "LIST_ITEM", "md_parent_section": "§ 多文件查询策略", "md_verbatim": "4. **通用规则兜底**: ch04_general_assumptions.md（如果主文件未覆盖）", "score": 0.396, "match_basis": "verbatim_token+global_search"}, {"md_atom_id": "md_ch04_a161", "md_file": "knowledge_base/chapters/ch04_general_assumptions.md", "md_atom_type": "LIST_ITEM", "md_parent_section": "§4.1.9 [Assigning Natural Keys in the Metadata]", "md_verbatim": "- Rotation of the hand", "score": 0.3947, "match_basis": "verbatim_token+global_search"}, {"md_atom_id": "md_varindex_a630", "md_file": "knowledge_base/VARIABLE_INDEX.md", "md_atom_type": "TABLE_ROW", "md_parent_section": "§ 二、领域专属变量（仅 1 个域，共 1499 个），按域分组", "md_verbatim": "| GFGENLOC | Genetic Location | Char | Variable Qualifier | Perm | — |", "score": 0.3937, "match_basis": "verbatim_token+global_search"}, {"md_atom_id": "md_dmEX_assn_a017", "md_file": "knowledge_base/domains/EX/assumptions.md", "md_atom_type": "LIST_ITEM", "md_parent_section": "§EX [EX — Assumptions]", "md_verbatim": "3. Categorization and grouping", "score": 0.3857, "match_basis": "verbatim_token+global_search"}], "candidate_count": 5, "zero_candidate": false}
{"pdf_atom_id": "sv20_p0071_a035", "pdf_atom_type": "LIST_ITEM", "pdf_source": "SDTM_v2.0", "pdf_page": 71, "pdf_parent_section": "§7 [Changes from SDTM v1.8 to SDTM v2.0]", "pdf_verbatim": "--GENSR, Genetic Sub-Region", "figure_ref": null, "candidates": [{"md_atom_id": "md_varindex_a631", "md_file": "knowledge_base/VARIABLE_INDEX.md", "md_atom_type": "TABLE_ROW", "md_parent_section": "§ 二、领域专属变量（仅 1 个域，共 1499 个），按域分组", "md_verbatim": "| GFGENSR | Genetic Sub-Region | Char | Variable Qualifier | Perm | — |", "score": 0.3823, "match_basis": "verbatim_token+global_search"}, {"md_atom_id": "md_routing_a037", "md_file": "knowledge_base/ROUTING.md", "md_atom_type": "LIST_ITEM", "md_parent_section": "§ 多文件查询策略", "md_verbatim": "4. **通用规则兜底**: ch04_general_assumptions.md（如果主文件未覆盖）", "score": 0.372, "match_basis": "verbatim_token+global_search"}, {"md_atom_id": "md_dmBS_assn_a003", "md_file": "knowledge_base/domains/BS/assumptions.md", "md_atom_type": "LIST_ITEM", "md_parent_section": "§BS [BS — Assumptions]", "md_verbatim": "2. For biospecimens of genetic material, BSSPEC values are drawn from the GENSMP (C111114) codelist.", "score": 0.3692, "match_basis": "verbatim_token+global_search"}, {"md_atom_id": "md_dmBS_assn_a004", "md_file": "knowledge_base/domains/BS/assumptions.md", "md_atom_type": "LIST_ITEM", "md_parent_section": "§BS [BS — Assumptions]", "md_verbatim": "3. Non-genetic BSSPEC values are drawn from the SPEC (C77529) codelist, which is part of the SEND terminology listing. BSANTREG is used to further define BSSPEC when it is desirable to identify a specific region within an organ.", "score": 0.3551, "match_basis": "verbatim_token+global_search"}, {"md_atom_id": "md_dmGF_assn_a003", "md_file": "knowledge_base/domains/GF/assumptions.md", "md_atom_type": "LIST_ITEM", "md_parent_section": "§GF [GF — Assumptions]", "md_verbatim": "2. Regarding genetic testing on non-host organisms (including but not limited to bacteria, viruses, and parasites), the following additional assumptions apply:", "score": 0.3494, "match_basis": "verbatim_token+global_search"}], "candidate_count": 5, "zero_candidate": false}
{"pdf_atom_id": "sv20_p0071_a036", "pdf_atom_type": "LIST_ITEM", "pdf_source": "SDTM_v2.0", "pdf_page": 71, "pdf_parent_section": "§7 [Changes from SDTM v1.8 to SDTM v2.0]", "pdf_verbatim": "--SEQID, Sequence Identifier", "figure_ref": null, "candidates": [{"md_atom_id": "md_model03_a076", "md_file": "knowledge_base/model/03_special_purpose_domains.md", "md_atom_type": "TABLE_ROW", "md_parent_section": "§ Comments (CO) > Variables (15 variables)", "md_verbatim": "| 7 | COSEQ | Sequence Number | Num | Identifier |", "score": 0.5318, "match_basis": "verbatim_token+global_search"}, {"md_atom_id": "md_model03_a095", "md_file": "knowledge_base/model/03_special_purpose_domains.md", "md_atom_type": "TABLE_ROW", "md_parent_section": "§ Subject Elements (SE) > Variables (13 variables)", "md_verbatim": "| 4 | SESEQ | Sequence Number | Num | Identifier | |", "score": 0.5318, "match_basis": "verbatim_token+global_search"}, {"md_atom_id": "md_model03_a154", "md_file": "knowledge_base/model/03_special_purpose_domains.md", "md_atom_type": "TABLE_ROW", "md_parent_section": "§ Subject Disease Milestones (SM) > Variables (10 variables)", "md_verbatim": "| 4 | SMSEQ | Sequence Number | Num | Identifier | |", "score": 0.5318, "match_basis": "verbatim_token+global_search"}, {"md_atom_id": "md_model05_a052", "md_file": "knowledge_base/model/05_study_level_data.md", "md_atom_type": "TABLE_ROW", "md_parent_section": "§ Trial Sets (TX)", "md_verbatim": "| 5 | TXSEQ | Sequence Number | Num | Identifier |", "score": 0.5318, "match_basis": "verbatim_token+global_search"}, {"md_atom_id": "md_model05_a136", "md_file": "knowledge_base/model/05_study_level_data.md", "md_atom_type": "TABLE_ROW", "md_parent_section": "§ Trial Summary (TS)", "md_verbatim": "| 3 | TSSEQ | Sequence Number | Num | Identifier |", "score": 0.5318, "match_basis": "verbatim_token+global_search"}], "candidate_count": 5, "zero_candidate": false}
{"pdf_atom_id": "sv20_p0071_a037", "pdf_atom_type": "LIST_ITEM", "pdf_source": "SDTM_v2.0", "pdf_page": 71, "pdf_parent_section": "§7 [Changes from SDTM v1.8 to SDTM v2.0]", "pdf_verbatim": "--PRVID, Published Variant Identifier", "figure_ref": null, "candidates": [{"md_atom_id": "md_ch02_a023", "md_file": "knowledge_base/chapters/ch02_fundamentals.md", "md_atom_type": "LIST_ITEM", "md_parent_section": "§2.1 [Observations and Variables]", "md_verbatim": "- Identifier variable: subject identifier \"101\"", "score": 0.5062, "match_basis": "verbatim_token+global_search"}, {"md_atom_id": "md_dmCE_assn_a013", "md_file": "knowledge_base/domains/CE/assumptions.md", "md_atom_type": "LIST_ITEM", "md_parent_section": "§CE [CE — Assumptions]", "md_verbatim": "4. Any identifier variable may be added to the CE domain.", "score": 0.4833, "match_basis": "verbatim_token+global_search"}, {"md_atom_id": "md_varindex_a633", "md_file": "knowledge_base/VARIABLE_INDEX.md", "md_atom_type": "TABLE_ROW", "md_parent_section": "§ 二、领域专属变量（仅 1 个域，共 1499 个），按域分组", "md_verbatim": "| GFPVRID | Published Variant Identifier | Char | Variable Qualifier | Perm | — |", "score": 0.4577, "match_basis": "verbatim_token+global_search"}, {"md_atom_id": "md_dmAE_assn_a039", "md_file": "knowledge_base/domains/AE/assumptions.md", "md_atom_type": "LIST_ITEM", "md_parent_section": "§AE [AE — Assumptions]", "md_verbatim": "9. Any additional identifier variables may be added to the AE domain.", "score": 0.45, "match_basis": "verbatim_token+global_search"}, {"md_atom_id": "md_ch02_a087", "md_file": "knowledge_base/chapters/ch02_fundamentals.md", "md_atom_type": "LIST_ITEM", "md_parent_section": "§2.6 [Creating a New Domain]", "md_verbatim": "   - a. Select required identifier variables (STUDYID, DOMAIN, USUBJID, --SEQ)", "score": 0.4269, "match_basis": "verbatim_token+global_search"}], "candidate_count": 5, "zero_candidate": false}
{"pdf_atom_id": "sv20_p0071_a038", "pdf_atom_type": "LIST_ITEM", "pdf_source": "SDTM_v2.0", "pdf_page": 71, "pdf_parent_section": "§7 [Changes from SDTM v1.8 to SDTM v2.0]", "pdf_verbatim": "--COPYID, Copy Identifier", "figure_ref": null, "candidates": [{"md_atom_id": "md_ch02_a023", "md_file": "knowledge_base/chapters/ch02_fundamentals.md", "md_atom_type": "LIST_ITEM", "md_parent_section": "§2.1 [Observations and Variables]", "md_verbatim": "- Identifier variable: subject identifier \"101\"", "score": 0.5, "match_basis": "verbatim_token+global_search"}, {"md_atom_id": "md_dmCE_assn_a013", "md_file": "knowledge_base/domains/CE/assumptions.md", "md_atom_type": "LIST_ITEM", "md_parent_section": "§CE [CE — Assumptions]", "md_verbatim": "4. Any identifier variable may be added to the CE domain.", "score": 0.4714, "match_basis": "verbatim_token+global_search"}, {"md_atom_id": "md_ch04_a196", "md_file": "knowledge_base/chapters/ch04_general_assumptions.md", "md_atom_type": "LIST_ITEM", "md_parent_section": "§4.2.2 [Two-character Domain Identifier]", "md_verbatim": "- Required Identifiers (STUDYID, DOMAIN, USUBJID)", "score": 0.4688, "match_basis": "verbatim_token+global_search"}, {"md_atom_id": "md_model06_a019", "md_file": "knowledge_base/model/06_relationship_datasets.md", "md_atom_type": "TABLE_ROW", "md_parent_section": "§6.1 Related Records (RELREC)", "md_verbatim": "| 1 | STUDYID | Study Identifier | Char | Identifier | |", "score": 0.45, "match_basis": "verbatim_token+global_search"}, {"md_atom_id": "md_model06_a040", "md_file": "knowledge_base/model/06_relationship_datasets.md", "md_atom_type": "TABLE_ROW", "md_parent_section": "§6.2 Supplemental Qualifiers (SUPP--)", "md_verbatim": "| 1 | STUDYID | Study Identifier | Char | Identifier | |", "score": 0.45, "match_basis": "verbatim_token+global_search"}], "candidate_count": 5, "zero_candidate": false}
{"pdf_atom_id": "sv20_p0071_a039", "pdf_atom_type": "LIST_ITEM", "pdf_source": "SDTM_v2.0", "pdf_page": 71, "pdf_parent_section": "§7 [Changes from SDTM v1.8 to SDTM v2.0]", "pdf_verbatim": "--TMTHSN, Test Method Sensitivity", "figure_ref": null, "candidates": [{"md_atom_id": "md_varindex_a771", "md_file": "knowledge_base/VARIABLE_INDEX.md", "md_atom_type": "TABLE_ROW", "md_parent_section": "§ 二、领域专属变量（仅 1 个域，共 1499 个），按域分组", "md_verbatim": "| LBTMTHSN | Test Method Sensitivity | Char | Record Qualifier | Perm | C179589 |", "score": 0.428, "match_basis": "verbatim_token+global_search"}, {"md_atom_id": "md_dmLB_ex_a007", "md_file": "knowledge_base/domains/LB/examples.md", "md_atom_type": "SENTENCE", "md_parent_section": "§LB.1 [Example 1]", "md_verbatim": "**Row 6:** Shows use of LBTMTHSN to represent \"HIGH SENSITIVITY\" for the high-sensitivity C-reactive protein (hs-CRP) test.", "score": 0.4015, "match_basis": "verbatim_token+global_search"}, {"md_atom_id": "md_dmPC_ex_a063", "md_file": "knowledge_base/domains/PC/examples.md", "md_atom_type": "LIST_ITEM", "md_parent_section": "§PC.2.2 [PC-PP Relating Records]", "md_verbatim": "- **Method D** (one to one, using PCSEQ and PPSEQ)", "score": 0.3828, "match_basis": "verbatim_token+global_search"}, {"md_atom_id": "md_ch04_a162", "md_file": "knowledge_base/chapters/ch04_general_assumptions.md", "md_atom_type": "LIST_ITEM", "md_parent_section": "§4.1.9 [Assigning Natural Keys in the Metadata]", "md_verbatim": "- Method of measurement (x-ray or MRI)", "score": 0.38, "match_basis": "verbatim_token+global_search"}, {"md_atom_id": "md_ch01_a035", "md_file": "knowledge_base/chapters/ch01_introduction.md", "md_atom_type": "LIST_ITEM", "md_parent_section": "§1.3 [Relationship to Prior CDISC Documents]", "md_verbatim": "- Updated the LB domain specification to include 10 new variables (Test Condition, Binding Agent, Test Operational Objective, Result Scale, Result Type, Collected Summary Result Type, Lower Limit of Detection, Method Sensitivity, Point in Time Flag, and Planned Duration)", "score": 0.3756, "match_basis": "verbatim_token+global_search"}], "candidate_count": 5, "zero_candidate": false}
{"pdf_atom_id": "sv20_p0072_a001", "pdf_atom_type": "LIST_ITEM", "pdf_source": "SDTM_v2.0", "pdf_page": 72, "pdf_parent_section": "§7 [Changes from SDTM v1.8 to SDTM v2.0]", "pdf_verbatim": "--CLSIG, Clinically Significant, Collected", "figure_ref": null, "candidates": [{"md_atom_id": "md_varindex_a302", "md_file": "knowledge_base/VARIABLE_INDEX.md", "md_atom_type": "TABLE_ROW", "md_parent_section": "§ 二、领域专属变量（仅 1 个域，共 1499 个），按域分组", "md_verbatim": "| CPCLSIG | Clinically Significant, Collected | Char | Record Qualifier | Perm | C66742 |", "score": 0.4833, "match_basis": "verbatim_token+global_search"}, {"md_atom_id": "md_varindex_a504", "md_file": "knowledge_base/VARIABLE_INDEX.md", "md_atom_type": "TABLE_ROW", "md_parent_section": "§ 二、领域专属变量（仅 1 个域，共 1499 个），按域分组", "md_verbatim": "| EGCLSIG | Clinically Significant, Collected | Char | Record Qualifier | Perm | C66742 |", "score": 0.4833, "match_basis": "verbatim_token+global_search"}, {"md_atom_id": "md_varindex_a778", "md_file": "knowledge_base/VARIABLE_INDEX.md", "md_atom_type": "TABLE_ROW", "md_parent_section": "§ 二、领域专属变量（仅 1 个域，共 1499 个），按域分组", "md_verbatim": "| LBCLSIG | Clinically Significant, Collected | Char | Record Qualifier | Perm | C66742 |", "score": 0.4833, "match_basis": "verbatim_token+global_search"}, {"md_atom_id": "md_varindex_a1654", "md_file": "knowledge_base/VARIABLE_INDEX.md", "md_atom_type": "TABLE_ROW", "md_parent_section": "§ 二、领域专属变量（仅 1 个域，共 1499 个），按域分组", "md_verbatim": "| VSCLSIG | Clinically Significant, Collected | Char | Record Qualifier | Perm | C66742 |", "score": 0.4833, "match_basis": "verbatim_token+global_search"}, {"md_atom_id": "md_ch02_a040", "md_file": "knowledge_base/chapters/ch02_fundamentals.md", "md_atom_type": "LIST_ITEM", "md_parent_section": "§2.2 [Datasets and Domains]", "md_verbatim": "- Data as originally collected or received", "score": 0.4385, "match_basis": "verbatim_token+global_search"}], "candidate_count": 5, "zero_candidate": false}
{"pdf_atom_id": "sv20_p0072_a002", "pdf_atom_type": "LIST_ITEM", "pdf_source": "SDTM_v2.0", "pdf_page": 72, "pdf_parent_section": "§7 [Changes from SDTM v1.8 to SDTM v2.0]", "pdf_verbatim": "--REASPF, Reason Test Performed", "figure_ref": null, "candidates": [{"md_atom_id": "md_ch04_a273", "md_file": "knowledge_base/chapters/ch04_general_assumptions.md", "md_atom_type": "LIST_ITEM", "md_parent_section": "§4.2.7.1 [\"Specify\" Values for Non-Result Qualifier Variables]", "md_verbatim": "- EXADJ = \"NONMEDICAL REASON\"", "score": 0.42, "match_basis": "verbatim_token+global_search"}, {"md_atom_id": "md_ch04_a825", "md_file": "knowledge_base/chapters/ch04_general_assumptions.md", "md_atom_type": "LIST_ITEM", "md_parent_section": "§4.5.1 [Original and Standardized Results]", "md_verbatim": "- When a test is not performed: --STAT = \"NOT DONE\", --REASND = reason (if explicitly collected; --REASND is populated only if a reason was explicitly collected except for QRS logically skipped items)", "score": 0.4147, "match_basis": "verbatim_token+global_search"}, {"md_atom_id": "md_dmEC_assn_a010", "md_file": "knowledge_base/domains/EC/assumptions.md", "md_atom_type": "LIST_ITEM", "md_parent_section": "§EC [EC — Assumptions]", "md_verbatim": "      ii. \"PERFORMED\" (for collected subject-level actual dose records)", "score": 0.405, "match_basis": "verbatim_token+global_search"}, {"md_atom_id": "md_ch04_a980", "md_file": "knowledge_base/chapters/ch04_general_assumptions.md", "md_atom_type": "SENTENCE", "md_parent_section": "§4.5.6 [Supplemental Reason Variables]", "md_verbatim": "For the Findings general observation class, --REASPF is available to represent the reason a test was performed.", "score": 0.3767, "match_basis": "verbatim_token+global_search"}, {"md_atom_id": "md_dmRS_assn_a025", "md_file": "knowledge_base/domains/RS/assumptions.md", "md_atom_type": "LIST_ITEM", "md_parent_section": "§RS [RS — Assumptions]", "md_verbatim": "10. When a disease response result is based on multiple procedures/scans/images/physical exams performed on different dates, RSDTC may be derived.", "score": 0.3692, "match_basis": "verbatim_token+global_search"}], "candidate_count": 5, "zero_candidate": false}
{"pdf_atom_id": "sv20_p0072_a003", "pdf_atom_type": "LIST_ITEM", "pdf_source": "SDTM_v2.0", "pdf_page": 72, "pdf_parent_section": "§7 [Changes from SDTM v1.8 to SDTM v2.0]", "pdf_verbatim": "Section 3.1.5, Timing Variables for All Classes.", "figure_ref": null, "candidates": [{"md_atom_id": "md_model02_a008", "md_file": "knowledge_base/model/02_observation_classes.md", "md_atom_type": "CROSS_REF", "md_parent_section": "§ Overview", "md_verbatim": "Section 3.1.5, Timing Variables for All Classes", "score": 0.69, "match_basis": "verbatim_token+global_search"}, {"md_atom_id": "md_dmAE_assn_a016", "md_file": "knowledge_base/domains/AE/assumptions.md", "md_atom_type": "LIST_ITEM", "md_parent_section": "§AE [AE — Assumptions]", "md_verbatim": "5. **Timing variables**", "score": 0.587, "match_basis": "verbatim_token+global_search"}, {"md_atom_id": "md_dmBE_assn_a007", "md_file": "knowledge_base/domains/BE/assumptions.md", "md_atom_type": "LIST_ITEM", "md_parent_section": "§BE [BE — Assumptions]", "md_verbatim": "6. Timing variables:", "score": 0.587, "match_basis": "verbatim_token+global_search"}, {"md_atom_id": "md_dmCE_assn_a014", "md_file": "knowledge_base/domains/CE/assumptions.md", "md_atom_type": "LIST_ITEM", "md_parent_section": "§CE [CE — Assumptions]", "md_verbatim": "5. Timing variables", "score": 0.587, "match_basis": "verbatim_token+global_search"}, {"md_atom_id": "md_dmDS_assn_a022", "md_file": "knowledge_base/domains/DS/assumptions.md", "md_atom_type": "LIST_ITEM", "md_parent_section": "§DS [DS — Assumptions]", "md_verbatim": "4. **Timing variables**", "score": 0.587, "match_basis": "verbatim_token+global_search"}], "candidate_count": 5, "zero_candidate": false}
{"pdf_atom_id": "sv20_p0072_a004", "pdf_atom_type": "LIST_ITEM", "pdf_source": "SDTM_v2.0", "pdf_page": 72, "pdf_parent_section": "§7 [Changes from SDTM v1.8 to SDTM v2.0]", "pdf_verbatim": "--PTFL, Point in Time Flag", "figure_ref": null, "candidates": [{"md_atom_id": "md_ch10_a124", "md_file": "knowledge_base/chapters/ch10_appendices.md", "md_atom_type": "TABLE_ROW", "md_parent_section": "§10.D [CDISC Variable-naming Fragments]", "md_verbatim": "| | | | TIME POINT | TPT |", "score": 0.45, "match_basis": "verbatim_token+global_search"}, {"md_atom_id": "md_varindex_a788", "md_file": "knowledge_base/VARIABLE_INDEX.md", "md_atom_type": "TABLE_ROW", "md_parent_section": "§ 二、领域专属变量（仅 1 个域，共 1499 个），按域分组", "md_verbatim": "| LBPTFL | Point in Time Flag | Char | Timing | Perm | C66742 |", "score": 0.3955, "match_basis": "verbatim_token+global_search"}, {"md_atom_id": "md_ch04_a685", "md_file": "knowledge_base/chapters/ch04_general_assumptions.md", "md_atom_type": "LIST_ITEM", "md_parent_section": "§4.4.8 [Date and Time Reported in a Domain Based on Findings]", "md_verbatim": "- For **single-point blood collections or spot urine collections**: use **LBDTC** for the date/time of collection", "score": 0.3789, "match_basis": "verbatim_token+global_search"}, {"md_atom_id": "md_ch04_a495", "md_file": "knowledge_base/chapters/ch04_general_assumptions.md", "md_atom_type": "LIST_ITEM", "md_parent_section": "§4.4.1 [Formats for Date/Time Variables]", "md_verbatim": "- [(((+|-)hh:mm)|Z)?] = optional time zone", "score": 0.3706, "match_basis": "verbatim_token+global_search"}, {"md_atom_id": "md_ch04_a414", "md_file": "knowledge_base/chapters/ch04_general_assumptions.md", "md_atom_type": "LIST_ITEM", "md_parent_section": "§4.2.9 [Variable Lengths]", "md_verbatim": "  - The length of flags will always be 1.", "score": 0.3571, "match_basis": "verbatim_token+global_search"}], "candidate_count": 5, "zero_candidate": false}
{"pdf_atom_id": "sv20_p0072_a005", "pdf_atom_type": "LIST_ITEM", "pdf_source": "SDTM_v2.0", "pdf_page": 72, "pdf_parent_section": "§7 [Changes from SDTM v1.8 to SDTM v2.0]", "pdf_verbatim": "--PDUR, Planned Duration", "figure_ref": null, "candidates": [{"md_atom_id": "md_model05_a009", "md_file": "knowledge_base/model/05_study_level_data.md", "md_atom_type": "LIST_ITEM", "md_parent_section": "§ 5.1 Trial Design Model", "md_verbatim": "- Planned groups of subjects (Section 5.1.2, Trial Sets)", "score": 0.4448, "match_basis": "verbatim_token+global_search"}, {"md_atom_id": "md_varindex_a789", "md_file": "knowledge_base/VARIABLE_INDEX.md", "md_atom_type": "TABLE_ROW", "md_parent_section": "§ 二、领域专属变量（仅 1 个域，共 1499 个），按域分组", "md_verbatim": "| LBPDUR | Planned Duration | Char | Timing | Perm | ISO 8601 duration |", "score": 0.438, "match_basis": "verbatim_token+global_search"}, {"md_atom_id": "md_model05_a008", "md_file": "knowledge_base/model/05_study_level_data.md", "md_atom_type": "LIST_ITEM", "md_parent_section": "§ 5.1 Trial Design Model", "md_verbatim": "- Planned treatment arms (Section 5.1.1, Trial Arms and Trial Elements)", "score": 0.4313, "match_basis": "verbatim_token+global_search"}, {"md_atom_id": "md_dmSV_assn_a023", "md_file": "knowledge_base/domains/SV/assumptions.md", "md_atom_type": "LIST_ITEM", "md_parent_section": "§SV [SV — Assumptions]", "md_verbatim": "    c. --DUR could be added if the duration of a visit was collected.", "score": 0.42, "match_basis": "verbatim_token+global_search"}, {"md_atom_id": "md_model05_a027", "md_file": "knowledge_base/model/05_study_level_data.md", "md_atom_type": "TABLE_ROW", "md_parent_section": "§ Trial Elements (TE)", "md_verbatim": "| 7 | TEDUR | Planned Duration of Element | Char | Timing |", "score": 0.414, "match_basis": "verbatim_token+global_search"}], "candidate_count": 5, "zero_candidate": false}
{"pdf_atom_id": "sv20_p0072_a006", "pdf_atom_type": "LIST_ITEM", "pdf_source": "SDTM_v2.0", "pdf_page": 72, "pdf_parent_section": "§7 [Changes from SDTM v1.8 to SDTM v2.0]", "pdf_verbatim": "Section 3.2.3.2, Subject Elements", "figure_ref": null, "candidates": [{"md_atom_id": "md_model05_a008", "md_file": "knowledge_base/model/05_study_level_data.md", "md_atom_type": "LIST_ITEM", "md_parent_section": "§ 5.1 Trial Design Model", "md_verbatim": "- Planned treatment arms (Section 5.1.1, Trial Arms and Trial Elements)", "score": 0.5129, "match_basis": "verbatim_token+global_search"}, {"md_atom_id": "md_model03_a085", "md_file": "knowledge_base/model/03_special_purpose_domains.md", "md_atom_type": "HEADING", "md_parent_section": "§ Subject Elements (SE)", "md_verbatim": "## Subject Elements (SE)", "score": 0.5, "match_basis": "verbatim_token+global_search"}, {"md_atom_id": "md_ch04_a626", "md_file": "knowledge_base/chapters/ch04_general_assumptions.md", "md_atom_type": "LIST_ITEM", "md_parent_section": "§4.4.6 [Representing Additional Study Days]", "md_verbatim": "- The reference date/time may use Subject Elements (SE) dataset element start date/time", "score": 0.4833, "match_basis": "verbatim_token+global_search"}, {"md_atom_id": "md_model05_a009", "md_file": "knowledge_base/model/05_study_level_data.md", "md_atom_type": "LIST_ITEM", "md_parent_section": "§ 5.1 Trial Design Model", "md_verbatim": "- Planned groups of subjects (Section 5.1.2, Trial Sets)", "score": 0.48, "match_basis": "verbatim_token+global_search"}, {"md_atom_id": "md_dmTE_assn_a009", "md_file": "knowledge_base/domains/TE/assumptions.md", "md_atom_type": "LIST_ITEM", "md_parent_section": "§TE [TE — Assumptions]", "md_verbatim": "1. There are no gaps between elements. The instant one element ends, the next element begins. A subject spends no time \"between\" elements.", "score": 0.4535, "match_basis": "verbatim_token+global_search"}], "candidate_count": 5, "zero_candidate": false}
{"pdf_atom_id": "sv20_p0072_a007", "pdf_atom_type": "LIST_ITEM", "pdf_source": "SDTM_v2.0", "pdf_page": 72, "pdf_parent_section": "§7 [Changes from SDTM v1.8 to SDTM v2.0]", "pdf_verbatim": "SESTDY, Study Day of Start of Element", "figure_ref": null, "candidates": [{"md_atom_id": "md_model03_a102", "md_file": "knowledge_base/model/03_special_purpose_domains.md", "md_atom_type": "TABLE_ROW", "md_parent_section": "§ Subject Elements (SE) > Variables (13 variables)", "md_verbatim": "| 11 | SESTDY | Study Day of Start of Element | Num | Timing | |", "score": 0.6071, "match_basis": "verbatim_token+global_search"}, {"md_atom_id": "md_varindex_a1389", "md_file": "knowledge_base/VARIABLE_INDEX.md", "md_atom_type": "TABLE_ROW", "md_parent_section": "§ 二、领域专属变量（仅 1 个域，共 1499 个），按域分组", "md_verbatim": "| SESTDY | Study Day of Start of Element | Num | Timing | Perm | — |", "score": 0.5674, "match_basis": "verbatim_token+global_search"}, {"md_atom_id": "md_ch02_a024", "md_file": "knowledge_base/chapters/ch02_fundamentals.md", "md_atom_type": "LIST_ITEM", "md_parent_section": "§2.1 [Observations and Variables]", "md_verbatim": "- Timing variable: \"starting on study day 6\"", "score": 0.45, "match_basis": "verbatim_token+global_search"}, {"md_atom_id": "md_ch04_a676", "md_file": "knowledge_base/chapters/ch04_general_assumptions.md", "md_atom_type": "LIST_ITEM", "md_parent_section": "§4.4.7 [Use of Relative Timing Variables]", "md_verbatim": "- AESTDTC = start date (e.g., \"2006-10-01\")", "score": 0.4304, "match_basis": "verbatim_token+global_search"}, {"md_atom_id": "md_ch04_a626", "md_file": "knowledge_base/chapters/ch04_general_assumptions.md", "md_atom_type": "LIST_ITEM", "md_parent_section": "§4.4.6 [Representing Additional Study Days]", "md_verbatim": "- The reference date/time may use Subject Elements (SE) dataset element start date/time", "score": 0.42, "match_basis": "verbatim_token+global_search"}], "candidate_count": 5, "zero_candidate": false}
{"pdf_atom_id": "sv20_p0072_a008", "pdf_atom_type": "LIST_ITEM", "pdf_source": "SDTM_v2.0", "pdf_page": 72, "pdf_parent_section": "§7 [Changes from SDTM v1.8 to SDTM v2.0]", "pdf_verbatim": "SEENDY, Study Day of End of Element", "figure_ref": null, "candidates": [{"md_atom_id": "md_model03_a103", "md_file": "knowledge_base/model/03_special_purpose_domains.md", "md_atom_type": "TABLE_ROW", "md_parent_section": "§ Subject Elements (SE) > Variables (13 variables)", "md_verbatim": "| 12 | SEENDY | Study Day of End of Element | Num | Timing | |", "score": 0.5833, "match_basis": "verbatim_token+global_search"}, {"md_atom_id": "md_varindex_a1390", "md_file": "knowledge_base/VARIABLE_INDEX.md", "md_atom_type": "TABLE_ROW", "md_parent_section": "§ 二、领域专属变量（仅 1 个域，共 1499 个），按域分组", "md_verbatim": "| SEENDY | Study Day of End of Element | Num | Timing | Perm | — |", "score": 0.54, "match_basis": "verbatim_token+global_search"}, {"md_atom_id": "md_ch04_a671", "md_file": "knowledge_base/chapters/ch04_general_assumptions.md", "md_atom_type": "LIST_ITEM", "md_parent_section": "§4.4.7 [Use of Relative Timing Variables]", "md_verbatim": "- CMENTPT = final study visit date (e.g., \"2006-11-02\")", "score": 0.4154, "match_basis": "verbatim_token+global_search"}, {"md_atom_id": "md_dmTE_assn_a009", "md_file": "knowledge_base/domains/TE/assumptions.md", "md_atom_type": "LIST_ITEM", "md_parent_section": "§TE [TE — Assumptions]", "md_verbatim": "1. There are no gaps between elements. The instant one element ends, the next element begins. A subject spends no time \"between\" elements.", "score": 0.3933, "match_basis": "verbatim_token+global_search"}, {"md_atom_id": "md_dmDS_assn_a007", "md_file": "knowledge_base/domains/DS/assumptions.md", "md_atom_type": "LIST_ITEM", "md_parent_section": "§DS [DS — Assumptions]", "md_verbatim": "      ii. DSSCAT = \"STUDY TREATMENT\" is used when a study has only a single treatment.", "score": 0.3909, "match_basis": "verbatim_token+global_search"}], "candidate_count": 5, "zero_candidate": false}
{"pdf_atom_id": "sv20_p0072_a009", "pdf_atom_type": "LIST_ITEM", "pdf_source": "SDTM_v2.0", "pdf_page": 72, "pdf_parent_section": "§7 [Changes from SDTM v1.8 to SDTM v2.0]", "pdf_verbatim": "Section 3.2.3.3, Subject Visits", "figure_ref": null, "candidates": [{"md_atom_id": "md_model05_a009", "md_file": "knowledge_base/model/05_study_level_data.md", "md_atom_type": "LIST_ITEM", "md_parent_section": "§ 5.1 Trial Design Model", "md_verbatim": "- Planned groups of subjects (Section 5.1.2, Trial Sets)", "score": 0.4929, "match_basis": "verbatim_token+global_search"}, {"md_atom_id": "md_model03_a123", "md_file": "knowledge_base/model/03_special_purpose_domains.md", "md_atom_type": "HEADING", "md_parent_section": "§ Subject Visits (SV)", "md_verbatim": "## Subject Visits (SV)", "score": 0.4754, "match_basis": "verbatim_token+global_search"}, {"md_atom_id": "md_dmSV_assn_a003", "md_file": "knowledge_base/domains/SV/assumptions.md", "md_atom_type": "LIST_ITEM", "md_parent_section": "§SV [SV — Assumptions]", "md_verbatim": "2. Subjects can have 1 and only 1 record per VISITNUM.", "score": 0.4714, "match_basis": "verbatim_token+global_search"}, {"md_atom_id": "md_dmOE_ex_a018", "md_file": "knowledge_base/domains/OE/examples.md", "md_atom_type": "LIST_ITEM", "md_parent_section": "§OE.2 [Example 2]", "md_verbatim": "- Different assessments, from the front to the back of the eye, for 1 subject at 1 visit", "score": 0.4297, "match_basis": "verbatim_token+global_search"}, {"md_atom_id": "md_dmEX_assn_a008", "md_file": "knowledge_base/domains/EX/assumptions.md", "md_atom_type": "LIST_ITEM", "md_parent_section": "§EX [EX — Assumptions]", "md_verbatim": "      iii. Derived from subject recall", "score": 0.42, "match_basis": "verbatim_token+global_search"}], "candidate_count": 5, "zero_candidate": false}
{"pdf_atom_id": "sv20_p0072_a010", "pdf_atom_type": "LIST_ITEM", "pdf_source": "SDTM_v2.0", "pdf_page": 72, "pdf_parent_section": "§7 [Changes from SDTM v1.8 to SDTM v2.0]", "pdf_verbatim": "SVPRESP, Pre-Specified", "figure_ref": null, "candidates": [{"md_atom_id": "md_dmAE_assn_a011", "md_file": "knowledge_base/domains/AE/assumptions.md", "md_atom_type": "LIST_ITEM", "md_parent_section": "§AE [AE — Assumptions]", "md_verbatim": "4. **Prespecified terms; presence or absence of events**", "score": 0.54, "match_basis": "verbatim_token+global_search"}, {"md_atom_id": "md_dmMH_assn_a014", "md_file": "knowledge_base/domains/MH/assumptions.md", "md_atom_type": "LIST_ITEM", "md_parent_section": "§MH [MH — Assumptions]", "md_verbatim": "4. **Prespecified terms; presence or absence of events**", "score": 0.54, "match_basis": "verbatim_token+global_search"}, {"md_atom_id": "md_ch04_a190", "md_file": "knowledge_base/chapters/ch04_general_assumptions.md", "md_atom_type": "LIST_ITEM", "md_parent_section": "§4.2.1.3 [--TERM Conventions (Events)]", "md_verbatim": "- Contains the verbatim or prespecified name of the event", "score": 0.5, "match_basis": "verbatim_token+global_search"}, {"md_atom_id": "md_dmAG_assn_a015", "md_file": "knowledge_base/domains/AG/assumptions.md", "md_atom_type": "LIST_ITEM", "md_parent_section": "§AG [AG — Assumptions]", "md_verbatim": "   a. AGPRESP is used to indicate whether an agent was prespecified.", "score": 0.4935, "match_basis": "verbatim_token+global_search"}, {"md_atom_id": "md_dmAG_assn_a014", "md_file": "knowledge_base/domains/AG/assumptions.md", "md_atom_type": "LIST_ITEM", "md_parent_section": "§AG [AG — Assumptions]", "md_verbatim": "4. Prespecified terms; presence or absence of procedure agents", "score": 0.4875, "match_basis": "verbatim_token+global_search"}], "candidate_count": 5, "zero_candidate": false}
{"pdf_atom_id": "sv20_p0072_a011", "pdf_atom_type": "LIST_ITEM", "pdf_source": "SDTM_v2.0", "pdf_page": 72, "pdf_parent_section": "§7 [Changes from SDTM v1.8 to SDTM v2.0]", "pdf_verbatim": "SVOCCUR, Occurrence", "figure_ref": null, "candidates": [{"md_atom_id": "md_dmML_ex_a015", "md_file": "knowledge_base/domains/ML/examples.md", "md_atom_type": "TABLE_HEADER", "md_parent_section": "§ML.1 [Example 1]", "md_verbatim": "| Type | Occurrence | | If yes, Date |\n|------|------------|---|-------------|", "score": 0.44, "match_basis": "verbatim_token+global_search"}, {"md_atom_id": "md_dmSU_ex_a008", "md_file": "knowledge_base/domains/SU/examples.md", "md_atom_type": "LIST_ITEM", "md_parent_section": "§SU.1 [Example 1]", "md_verbatim": "- Current caffeine use", "score": 0.4333, "match_basis": "verbatim_token+global_search"}, {"md_atom_id": "md_dmSV_assn_a007", "md_file": "knowledge_base/domains/SV/assumptions.md", "md_atom_type": "LIST_ITEM", "md_parent_section": "§SV [SV — Assumptions]", "md_verbatim": "   b. For planned visits, SVOCCUR indicates whether the visit occurred.", "score": 0.4273, "match_basis": "verbatim_token+global_search"}, {"md_atom_id": "md_model03_a136", "md_file": "knowledge_base/model/03_special_purpose_domains.md", "md_atom_type": "TABLE_ROW", "md_parent_section": "§ Subject Visits (SV) > Variables (16 variables)", "md_verbatim": "| 7 | SVOCCUR | Occurrence | Char | Record Qualifier | |", "score": 0.4109, "match_basis": "verbatim_token+global_search"}, {"md_atom_id": "md_ch04_a231", "md_file": "knowledge_base/chapters/ch04_general_assumptions.md", "md_atom_type": "LIST_ITEM", "md_parent_section": "§4.2.6 [Grouping Variables and Categorization]", "md_verbatim": "      - Information about the occurrence, start, stop, and duration of the test (in the Procedures (PR) domain)", "score": 0.4067, "match_basis": "verbatim_token+global_search"}], "candidate_count": 5, "zero_candidate": false}
{"pdf_atom_id": "sv20_p0072_a012", "pdf_atom_type": "LIST_ITEM", "pdf_source": "SDTM_v2.0", "pdf_page": 72, "pdf_parent_section": "§7 [Changes from SDTM v1.8 to SDTM v2.0]", "pdf_verbatim": "SVREASOC, Reason for Occur Value", "figure_ref": null, "candidates": [{"md_atom_id": "md_varindex_a1493", "md_file": "knowledge_base/VARIABLE_INDEX.md", "md_atom_type": "TABLE_ROW", "md_parent_section": "§ 二、领域专属变量（仅 1 个域，共 1499 个），按域分组", "md_verbatim": "| SVREASOC | Reason for Occur Value | Char | Record Qualifier | Perm | — |", "score": 0.4397, "match_basis": "verbatim_token+global_search"}, {"md_atom_id": "md_dmEC_assn_a018", "md_file": "knowledge_base/domains/EC/assumptions.md", "md_atom_type": "LIST_ITEM", "md_parent_section": "§EC [EC — Assumptions]", "md_verbatim": "   c. If a reason why a dose was not given is collected, it is represented in ECREASOC, the reason why ECOCCUR = \"N\".", "score": 0.4143, "match_basis": "verbatim_token+global_search"}, {"md_atom_id": "md_model03_a137", "md_file": "knowledge_base/model/03_special_purpose_domains.md", "md_atom_type": "TABLE_ROW", "md_parent_section": "§ Subject Visits (SV) > Variables (16 variables)", "md_verbatim": "| 8 | SVREASOC | Reason for Occurrence Value | Char | Record Qualifier | |", "score": 0.4125, "match_basis": "verbatim_token+global_search"}, {"md_atom_id": "md_ch04_a273", "md_file": "knowledge_base/chapters/ch04_general_assumptions.md", "md_atom_type": "LIST_ITEM", "md_parent_section": "§4.2.7.1 [\"Specify\" Values for Non-Result Qualifier Variables]", "md_verbatim": "- EXADJ = \"NONMEDICAL REASON\"", "score": 0.396, "match_basis": "verbatim_token+global_search"}, {"md_atom_id": "md_dmDS_assn_a021", "md_file": "knowledge_base/domains/DS/assumptions.md", "md_atom_type": "LIST_ITEM", "md_parent_section": "§DS [DS — Assumptions]", "md_verbatim": "      ii. If no reason was collected, then DSTERM should be populated with the value in DSDECOD.", "score": 0.3933, "match_basis": "verbatim_token+global_search"}], "candidate_count": 5, "zero_candidate": false}
{"pdf_atom_id": "sv20_p0072_a013", "pdf_atom_type": "LIST_ITEM", "pdf_source": "SDTM_v2.0", "pdf_page": 72, "pdf_parent_section": "§7 [Changes from SDTM v1.8 to SDTM v2.0]", "pdf_verbatim": "SVCNTMOD, Contact Mode", "figure_ref": null, "candidates": [{"md_atom_id": "md_model03_a138", "md_file": "knowledge_base/model/03_special_purpose_domains.md", "md_atom_type": "TABLE_ROW", "md_parent_section": "§ Subject Visits (SV) > Variables (16 variables)", "md_verbatim": "| 9 | SVCNTMOD | Contact Mode | Char | Record Qualifier | |", "score": 0.438, "match_basis": "verbatim_token+global_search"}, {"md_atom_id": "md_ch04_a679", "md_file": "knowledge_base/chapters/ch04_general_assumptions.md", "md_atom_type": "LIST_ITEM", "md_parent_section": "§4.4.7 [Use of Relative Timing Variables]", "md_verbatim": "- AEENTPT = final subject contact date (e.g., \"2006-11-02\")", "score": 0.4034, "match_basis": "verbatim_token+global_search"}, {"md_atom_id": "md_varindex_a1494", "md_file": "knowledge_base/VARIABLE_INDEX.md", "md_atom_type": "TABLE_ROW", "md_parent_section": "§ 二、领域专属变量（仅 1 个域，共 1499 个），按域分组", "md_verbatim": "| SVCNTMOD | Contact Mode | Char | Record Qualifier | Perm | C171445 |", "score": 0.375, "match_basis": "verbatim_token+global_search"}, {"md_atom_id": "md_dmEX_ex_a083", "md_file": "knowledge_base/domains/EX/examples.md", "md_atom_type": "LIST_ITEM", "md_parent_section": "§EX.3 [Example 3]", "md_verbatim": "- Bottle A contained 10 mg/tablet", "score": 0.375, "match_basis": "verbatim_token+global_search"}, {"md_atom_id": "md_dmEX_ex_a084", "md_file": "knowledge_base/domains/EX/examples.md", "md_atom_type": "LIST_ITEM", "md_parent_section": "§EX.3 [Example 3]", "md_verbatim": "- Bottle B contained 10 mg/tablet", "score": 0.375, "match_basis": "verbatim_token+global_search"}], "candidate_count": 5, "zero_candidate": false}
{"pdf_atom_id": "sv20_p0072_a014", "pdf_atom_type": "LIST_ITEM", "pdf_source": "SDTM_v2.0", "pdf_page": 72, "pdf_parent_section": "§7 [Changes from SDTM v1.8 to SDTM v2.0]", "pdf_verbatim": "SVEPCHGI, Epi/Pandemic Related Change Indicator", "figure_ref": null, "candidates": [{"md_atom_id": "md_model03_a139", "md_file": "knowledge_base/model/03_special_purpose_domains.md", "md_atom_type": "TABLE_ROW", "md_parent_section": "§ Subject Visits (SV) > Variables (16 variables)", "md_verbatim": "| 10 | SVEPCHGI | Epi/Pandemic Related Change Indicator | Char | Record Qualifier | |", "score": 0.5744, "match_basis": "verbatim_token+global_search"}, {"md_atom_id": "md_model02_a089", "md_file": "knowledge_base/model/02_observation_classes.md", "md_atom_type": "TABLE_ROW", "md_parent_section": "§3.1.2 > Topic and Qualifier Variables (56 variables)", "md_verbatim": "| 24 | --EPCHGI | Epi/Pandemic Related Change Indicator | Char | Record Qualifier | |", "score": 0.5451, "match_basis": "verbatim_token+global_search"}, {"md_atom_id": "md_varindex_a1495", "md_file": "knowledge_base/VARIABLE_INDEX.md", "md_atom_type": "TABLE_ROW", "md_parent_section": "§ 二、领域专属变量（仅 1 个域，共 1499 个），按域分组", "md_verbatim": "| SVEPCHGI | Epi/Pandemic Related Change Indicator | Char | Record Qualifier | Perm | C66742 |", "score": 0.5202, "match_basis": "verbatim_token+global_search"}, {"md_atom_id": "md_model02_a028", "md_file": "knowledge_base/model/02_observation_classes.md", "md_atom_type": "TABLE_ROW", "md_parent_section": "§3.1.1 > Topic and Qualifier Variables (43 variables)", "md_verbatim": "| 13 | --EPCHGI | Epi/Pandemic Related Change Indicator | Char | Record Qualifier | Whether intervention was changed due to epidemic or pandemic |", "score": 0.4156, "match_basis": "verbatim_token+global_search"}, {"md_atom_id": "md_ch04_a489", "md_file": "knowledge_base/chapters/ch04_general_assumptions.md", "md_atom_type": "LIST_ITEM", "md_parent_section": "§4.4.1 [Formats for Date/Time Variables]", "md_verbatim": "- [T] = (time designator) indicates time information follows", "score": 0.3923, "match_basis": "verbatim_token+global_search"}], "candidate_count": 5, "zero_candidate": false}
{"pdf_atom_id": "sv20_p0072_a015", "pdf_atom_type": "SENTENCE", "pdf_source": "SDTM_v2.0", "pdf_page": 72, "pdf_parent_section": "§7 [Changes from SDTM v1.8 to SDTM v2.0]", "pdf_verbatim": "The following new section was added:", "figure_ref": null, "candidates": [{"md_atom_id": "md_ch10_a160", "md_file": "knowledge_base/chapters/ch10_appendices.md", "md_atom_type": "SENTENCE", "md_parent_section": "§10.E [Revision History]", "md_verbatim": "The following domain was removed:", "score": 0.5, "match_basis": "verbatim_token+global_search"}, {"md_atom_id": "md_ch04_a946", "md_file": "knowledge_base/chapters/ch04_general_assumptions.md", "md_atom_type": "SENTENCE", "md_parent_section": "§4.5.3.2 [Text Strings Greater than 200 Characters in Other Variables]", "md_verbatim": "The following domains have specialized conventions: CO (Section 5.1), IE (Section 6.3.4), TS (Section 7.4.2), and TI (Section 7.4.1).", "score": 0.4857, "match_basis": "verbatim_token+global_search"}, {"md_atom_id": "md_ch04_a697", "md_file": "knowledge_base/chapters/ch04_general_assumptions.md", "md_atom_type": "SENTENCE", "md_parent_section": "§4.4.9 [Use of Dates as Result Variables]", "md_verbatim": "Consider the following cases:", "score": 0.4778, "match_basis": "verbatim_token+global_search"}, {"md_atom_id": "md_dmFT_assn_a002", "md_file": "knowledge_base/domains/FT/assumptions.md", "md_atom_type": "SENTENCE", "md_parent_section": "§FT [FT — Assumptions]", "md_verbatim": "The following assumptions are unique to the FT domain:", "score": 0.4765, "match_basis": "verbatim_token+global_search"}, {"md_atom_id": "md_ch08_a243", "md_file": "knowledge_base/chapters/ch08_relationships.md", "md_atom_type": "SENTENCE", "md_parent_section": "§8.6.2 [Guidelines for Forming New Domains]", "md_verbatim": "When existing domains do not fit, follow the procedure in Section 2.6 (Creating a New Domain).", "score": 0.4674, "match_basis": "verbatim_token+global_search"}], "candidate_count": 5, "zero_candidate": false}
{"pdf_atom_id": "sv20_p0072_a016", "pdf_atom_type": "SENTENCE", "pdf_source": "SDTM_v2.0", "pdf_page": 72, "pdf_parent_section": "§7 [Changes from SDTM v1.8 to SDTM v2.0]", "pdf_verbatim": "Section 6.7, Related Specimens Dataset", "figure_ref": null, "candidates": [{"md_atom_id": "md_ch08_a317", "md_file": "knowledge_base/chapters/ch08_relationships.md", "md_atom_type": "SENTENCE", "md_parent_section": "§8.8 [Related Specimens (RELSPEC)]", "md_verbatim": "A dataset used to represent relationships between specimens.", "score": 0.5429, "match_basis": "verbatim_token+global_search"}, {"md_atom_id": "md_dmRELSPEC_assn_a003", "md_file": "knowledge_base/domains/RELSPEC/assumptions.md", "md_atom_type": "SENTENCE", "md_parent_section": "§RELSPEC [RELSPEC — Assumptions]", "md_verbatim": "A dataset used to represent relationships between specimens.", "score": 0.5429, "match_basis": "verbatim_token+global_search"}, {"md_atom_id": "md_ch08_a014", "md_file": "knowledge_base/chapters/ch08_relationships.md", "md_atom_type": "LIST_ITEM", "md_parent_section": "§8 [Representing Relationships and Data]", "md_verbatim": "- **Section 8.8**, Related Specimens — a dataset used to represent relationships between specimens", "score": 0.5243, "match_basis": "verbatim_token+global_search"}, {"md_atom_id": "md_dmRELSPEC_ex_a004", "md_file": "knowledge_base/domains/RELSPEC/examples.md", "md_atom_type": "SENTENCE", "md_parent_section": "§RELSPEC.1 [Example 1]", "md_verbatim": "**Specimen Relationship Diagram:**", "score": 0.5062, "match_basis": "verbatim_token+global_search"}, {"md_atom_id": "md_dmBE_ex_a007", "md_file": "knowledge_base/domains/BE/examples.md", "md_atom_type": "SENTENCE", "md_parent_section": "§BE.1 [Example 1]", "md_verbatim": "**Row 1:** Shows specimen collection.", "score": 0.5, "match_basis": "verbatim_token+global_search"}], "candidate_count": 5, "zero_candidate": false}
{"pdf_atom_id": "sv20_p0073_a001", "pdf_atom_type": "HEADING", "pdf_source": "SDTM_v2.0", "pdf_page": 73, "pdf_parent_section": "§8 [Proposed Future Changes to the SDTM]", "pdf_verbatim": "8 Proposed Future Changes to the SDTM", "figure_ref": null, "candidates": [{"md_atom_id": "md_ch08_a001", "md_file": "knowledge_base/chapters/ch08_relationships.md", "md_atom_type": "HEADING", "md_parent_section": "§8 [Representing Relationships and Data]", "md_verbatim": "# SDTMIG v3.4 — Chapter 8: Representing Relationships and Data", "score": 0.3375, "match_basis": "verbatim_token+chapter_route:ch08"}, {"md_atom_id": "md_ch08_a223", "md_file": "knowledge_base/chapters/ch08_relationships.md", "md_atom_type": "HEADING", "md_parent_section": "§8.6 [Where Data Belong]", "md_verbatim": "### 8.6.1 Guidelines for Determining the General Observation Class", "score": 0.3113, "match_basis": "verbatim_token+chapter_route:ch08"}, {"md_atom_id": "md_ch08_a003", "md_file": "knowledge_base/chapters/ch08_relationships.md", "md_atom_type": "HEADING", "md_parent_section": "§8 [Representing Relationships and Data]", "md_verbatim": "## Overview", "score": 0.3, "match_basis": "verbatim_token+chapter_route:ch08"}, {"md_atom_id": "md_ch08_a022", "md_file": "knowledge_base/chapters/ch08_relationships.md", "md_atom_type": "HEADING", "md_parent_section": "§8 [Representing Relationships and Data]", "md_verbatim": "## 8.1 Relating Groups of Records Within a Domain Using --GRPID", "score": 0.3, "match_basis": "verbatim_token+chapter_route:ch08"}, {"md_atom_id": "md_ch08_a029", "md_file": "knowledge_base/chapters/ch08_relationships.md", "md_atom_type": "HEADING", "md_parent_section": "§8.1 [Relating Groups of Records Within a Domain Using --GRPID]", "md_verbatim": "### 8.1.1 --GRPID Example", "score": 0.3, "match_basis": "verbatim_token+chapter_route:ch08"}], "candidate_count": 5, "zero_candidate": false}
{"pdf_atom_id": "sv20_p0073_a002", "pdf_atom_type": "SENTENCE", "pdf_source": "SDTM_v2.0", "pdf_page": 73, "pdf_parent_section": "§8 [Proposed Future Changes to the SDTM]", "pdf_verbatim": "The following changes are proposed for the next version of the SDTM:", "figure_ref": null, "candidates": [{"md_atom_id": "md_ch08_a018", "md_file": "knowledge_base/chapters/ch08_relationships.md", "md_atom_type": "SENTENCE", "md_parent_section": "§8 [Representing Relationships and Data]", "md_verbatim": "The following are examples of variables that could be used in IDVAR:", "score": 0.42, "match_basis": "verbatim_token+chapter_route:ch08"}, {"md_atom_id": "md_ch08_a200", "md_file": "knowledge_base/chapters/ch08_relationships.md", "md_atom_type": "SENTENCE", "md_parent_section": "§8.4.4 [When Not to Use Supplemental Qualifiers]", "md_verbatim": "The following are examples of data that should **not** be submitted as supplemental qualifiers:", "score": 0.3882, "match_basis": "verbatim_token+chapter_route:ch08"}, {"md_atom_id": "md_ch08_a258", "md_file": "knowledge_base/chapters/ch08_relationships.md", "md_atom_type": "SENTENCE", "md_parent_section": "§8.6.3 [Guidelines for Differentiating Between Interventions, Events, Findings, and Findings About Events or Interventions]", "md_verbatim": "The following table presents questions that may assist sponsors in deciding where data should be placed in SDTM.", "score": 0.388, "match_basis": "verbatim_token+chapter_route:ch08"}, {"md_atom_id": "md_ch08_a243", "md_file": "knowledge_base/chapters/ch08_relationships.md", "md_atom_type": "SENTENCE", "md_parent_section": "§8.6.2 [Guidelines for Forming New Domains]", "md_verbatim": "When existing domains do not fit, follow the procedure in Section 2.6 (Creating a New Domain).", "score": 0.3814, "match_basis": "verbatim_token+chapter_route:ch08"}, {"md_atom_id": "md_ch08_a135", "md_file": "knowledge_base/chapters/ch08_relationships.md", "md_atom_type": "SENTENCE", "md_parent_section": "§8.4 [Relating Non-standard Variable Values to a Parent Domain]", "md_verbatim": "The SDTM does not allow the addition of new variables.", "score": 0.3766, "match_basis": "verbatim_token+chapter_route:ch08"}], "candidate_count": 5, "zero_candidate": false}
{"pdf_atom_id": "sv20_p0073_a003", "pdf_atom_type": "LIST_ITEM", "pdf_source": "SDTM_v2.0", "pdf_page": 73, "pdf_parent_section": "§8 [Proposed Future Changes to the SDTM]", "pdf_verbatim": "The variable --BLFL will be considered for deprecation as a qualifier for findings class domains.", "figure_ref": null, "candidates": [{"md_atom_id": "md_ch08_a021", "md_file": "knowledge_base/chapters/ch08_relationships.md", "md_atom_type": "LIST_ITEM", "md_parent_section": "§8 [Representing Relationships and Data]", "md_verbatim": "- The grouping identifier (--GRPID) variable, used to link related records for a subject within a domain, is explained in Section 8.1.", "score": 0.4304, "match_basis": "verbatim_token+chapter_route:ch08"}, {"md_atom_id": "md_ch08_a007", "md_file": "knowledge_base/chapters/ch08_relationships.md", "md_atom_type": "LIST_ITEM", "md_parent_section": "§8 [Representing Relationships and Data]", "md_verbatim": "- **Section 8.1**, Relating Groups of Records Within a Domain Using the --GRPID Variable — representing a relationship between a group of records for a given subject within the same domain", "score": 0.4237, "match_basis": "verbatim_token+chapter_route:ch08"}, {"md_atom_id": "md_ch08_a020", "md_file": "knowledge_base/chapters/ch08_relationships.md", "md_atom_type": "LIST_ITEM", "md_parent_section": "§8 [Representing Relationships and Data]", "md_verbatim": "- The reference identifier (--REFID) variable can be used to capture a sponsor-defined or external identifier, such as lab-specimen identifiers and ECG identifiers. --REFID is permissible in all general observation-class domains, but is never required. Values are sponsor-defined.", "score": 0.4209, "match_basis": "verbatim_token+chapter_route:ch08"}, {"md_atom_id": "md_ch08_a010", "md_file": "knowledge_base/chapters/ch08_relationships.md", "md_atom_type": "LIST_ITEM", "md_parent_section": "§8 [Representing Relationships and Data]", "md_verbatim": "- **Section 8.4**, Relating Non-standard Variable Values to a Parent Domain — the method for representing the dependent relationship where data that cannot be represented by a standard variable within DM or a GOC domain record can be related back to that record", "score": 0.4179, "match_basis": "verbatim_token+chapter_route:ch08"}, {"md_atom_id": "md_ch08_a274", "md_file": "knowledge_base/chapters/ch08_relationships.md", "md_atom_type": "LIST_ITEM", "md_parent_section": "§8.6.3 [Guidelines for Differentiating Between Interventions, Events, Findings, and Findings About Events or Interventions]", "md_verbatim": "- If the data item contains information about the event, then the choices for representing it are a supplemental qualifier or in an FA record. The data should be represented as a supplemental qualifier unless circumstances rule out the use of a supplemental qualifier. If a supplemental qualifier is not appropriate, the data may be stored in FA. See Section 6.4.1, When to Use Findings About Events or Interventions.", "score": 0.4174, "match_basis": "verbatim_token+chapter_route:ch08"}], "candidate_count": 5, "zero_candidate": false}
{"pdf_atom_id": "sv20_p0073_a004", "pdf_atom_type": "LIST_ITEM", "pdf_source": "SDTM_v2.0", "pdf_page": 73, "pdf_parent_section": "§8 [Proposed Future Changes to the SDTM]", "pdf_verbatim": "The variable --MODIFY will be considered for deprecation as a qualifier for findings class domains. The variable --MODIFY will remain as a qualifier for the events and interventions classes.", "figure_ref": null, "candidates": [{"md_atom_id": "md_ch08_a274", "md_file": "knowledge_base/chapters/ch08_relationships.md", "md_atom_type": "LIST_ITEM", "md_parent_section": "§8.6.3 [Guidelines for Differentiating Between Interventions, Events, Findings, and Findings About Events or Interventions]", "md_verbatim": "- If the data item contains information about the event, then the choices for representing it are a supplemental qualifier or in an FA record. The data should be represented as a supplemental qualifier unless circumstances rule out the use of a supplemental qualifier. If a supplemental qualifier is not appropriate, the data may be stored in FA. See Section 6.4.1, When to Use Findings About Events or Interventions.", "score": 0.4531, "match_basis": "verbatim_token+chapter_route:ch08"}, {"md_atom_id": "md_ch08_a255", "md_file": "knowledge_base/chapters/ch08_relationships.md", "md_atom_type": "LIST_ITEM", "md_parent_section": "§8.6.3 [Guidelines for Differentiating Between Interventions, Events, Findings, and Findings About Events or Interventions]", "md_verbatim": "- Some assessments of events (e.g., severity, relationship to study treatment) have been built into the SDTM Events model as qualifiers, rather than being treated as findings about events.", "score": 0.4385, "match_basis": "verbatim_token+chapter_route:ch08"}, {"md_atom_id": "md_ch08_a020", "md_file": "knowledge_base/chapters/ch08_relationships.md", "md_atom_type": "LIST_ITEM", "md_parent_section": "§8 [Representing Relationships and Data]", "md_verbatim": "- The reference identifier (--REFID) variable can be used to capture a sponsor-defined or external identifier, such as lab-specimen identifiers and ECG identifiers. --REFID is permissible in all general observation-class domains, but is never required. Values are sponsor-defined.", "score": 0.4371, "match_basis": "verbatim_token+chapter_route:ch08"}, {"md_atom_id": "md_ch08_a019", "md_file": "knowledge_base/chapters/ch08_relationships.md", "md_atom_type": "LIST_ITEM", "md_parent_section": "§8 [Representing Relationships and Data]", "md_verbatim": "- The sequence number (--SEQ) variable uniquely identifies a record for a given USUBJID within a domain. --SEQ is required in all domains except DM. Conventions for establishing and maintaining --SEQ values are sponsor-defined. Values may or may not be sequential depending on data processes and sources.", "score": 0.4342, "match_basis": "verbatim_token+chapter_route:ch08"}, {"md_atom_id": "md_ch08_a010", "md_file": "knowledge_base/chapters/ch08_relationships.md", "md_atom_type": "LIST_ITEM", "md_parent_section": "§8 [Representing Relationships and Data]", "md_verbatim": "- **Section 8.4**, Relating Non-standard Variable Values to a Parent Domain — the method for representing the dependent relationship where data that cannot be represented by a standard variable within DM or a GOC domain record can be related back to that record", "score": 0.4248, "match_basis": "verbatim_token+chapter_route:ch08"}], "candidate_count": 5, "zero_candidate": false}
{"pdf_atom_id": "sv20_p0073_a005", "pdf_atom_type": "LIST_ITEM", "pdf_source": "SDTM_v2.0", "pdf_page": 73, "pdf_parent_section": "§8 [Proposed Future Changes to the SDTM]", "pdf_verbatim": "The findings variable --BODSYS may be restricted to use in nonclinical trials.", "figure_ref": null, "candidates": [{"md_atom_id": "md_ch08_a285", "md_file": "knowledge_base/chapters/ch08_relationships.md", "md_atom_type": "LIST_ITEM", "md_parent_section": "§8.7 [Related Subjects (RELSUB)]", "md_verbatim": "2. The variable POOLID was developed for nonclinical studies, where assessments may be made for groups of animals, and identifiers are needed for those groups (pools). It is included here because POOLID can be used for human clinical trials, if necessary. If POOLID is submitted, the POOLDEF dataset must be submitted.", "score": 0.4008, "match_basis": "verbatim_token+chapter_route:ch08"}, {"md_atom_id": "md_ch08_a021", "md_file": "knowledge_base/chapters/ch08_relationships.md", "md_atom_type": "LIST_ITEM", "md_parent_section": "§8 [Representing Relationships and Data]", "md_verbatim": "- The grouping identifier (--GRPID) variable, used to link related records for a subject within a domain, is explained in Section 8.1.", "score": 0.3742, "match_basis": "verbatim_token+chapter_route:ch08"}, {"md_atom_id": "md_ch08_a251", "md_file": "knowledge_base/chapters/ch08_relationships.md", "md_atom_type": "LIST_ITEM", "md_parent_section": "§8.6.3 [Guidelines for Differentiating Between Interventions, Events, Findings, and Findings About Events or Interventions]", "md_verbatim": "- Events of interest in a particular trial may be prespecified, rather than collected as free text.", "score": 0.3701, "match_basis": "verbatim_token+chapter_route:ch08"}, {"md_atom_id": "md_ch08_a254", "md_file": "knowledge_base/chapters/ch08_relationships.md", "md_atom_type": "LIST_ITEM", "md_parent_section": "§8.6.3 [Guidelines for Differentiating Between Interventions, Events, Findings, and Findings About Events or Interventions]", "md_verbatim": "- Properties of an event may be measured or assessed, and these are then treated as findings about events, rather than as events.", "score": 0.3692, "match_basis": "verbatim_token+chapter_route:ch08"}, {"md_atom_id": "md_ch08_a172", "md_file": "knowledge_base/chapters/ch08_relationships.md", "md_atom_type": "LIST_ITEM", "md_parent_section": "§8.4 [Relating Non-standard Variable Values to a Parent Domain]", "md_verbatim": "- See Section 4.5.3, Text Strings that Exceed the Maximum Length for General Observation-class Domain Variables, for information on representing data values greater than 200 characters in length", "score": 0.3678, "match_basis": "verbatim_token+chapter_route:ch08"}], "candidate_count": 5, "zero_candidate": false}
{"pdf_atom_id": "sv20_p0073_a006", "pdf_atom_type": "LIST_ITEM", "pdf_source": "SDTM_v2.0", "pdf_page": 73, "pdf_parent_section": "§8 [Proposed Future Changes to the SDTM]", "pdf_verbatim": "The variable TIRL will be considered for removal from the Trial Inclusion/Exclusion (TI) domain.", "figure_ref": null, "candidates": [{"md_atom_id": "md_ch08_a007", "md_file": "knowledge_base/chapters/ch08_relationships.md", "md_atom_type": "LIST_ITEM", "md_parent_section": "§8 [Representing Relationships and Data]", "md_verbatim": "- **Section 8.1**, Relating Groups of Records Within a Domain Using the --GRPID Variable — representing a relationship between a group of records for a given subject within the same domain", "score": 0.3957, "match_basis": "verbatim_token+chapter_route:ch08"}, {"md_atom_id": "md_ch08_a021", "md_file": "knowledge_base/chapters/ch08_relationships.md", "md_atom_type": "LIST_ITEM", "md_parent_section": "§8 [Representing Relationships and Data]", "md_verbatim": "- The grouping identifier (--GRPID) variable, used to link related records for a subject within a domain, is explained in Section 8.1.", "score": 0.3933, "match_basis": "verbatim_token+chapter_route:ch08"}, {"md_atom_id": "md_ch08_a218", "md_file": "knowledge_base/chapters/ch08_relationships.md", "md_atom_type": "LIST_ITEM", "md_parent_section": "§8.5 [Relating Comments to a Parent Domain]", "md_verbatim": "2. Timing variables (e.g., VISITNUM, VISIT) may be added to the CO special-purpose domain. See Section 5.1, Comments, assumption 5 for a complete list of identifier and timing variables that can be added to the CO special-purpose domain.", "score": 0.39, "match_basis": "verbatim_token+chapter_route:ch08"}, {"md_atom_id": "md_ch08_a215", "md_file": "knowledge_base/chapters/ch08_relationships.md", "md_atom_type": "LIST_ITEM", "md_parent_section": "§8.5 [Relating Comments to a Parent Domain]", "md_verbatim": "3. Comments related to specific domain record(s) for a subject would populate the RDOMAIN, IDVAR, and IDVARVAL variables with values that identify the specific parent record(s).", "score": 0.3875, "match_basis": "verbatim_token+chapter_route:ch08"}, {"md_atom_id": "md_ch08_a010", "md_file": "knowledge_base/chapters/ch08_relationships.md", "md_atom_type": "LIST_ITEM", "md_parent_section": "§8 [Representing Relationships and Data]", "md_verbatim": "- **Section 8.4**, Relating Non-standard Variable Values to a Parent Domain — the method for representing the dependent relationship where data that cannot be represented by a standard variable within DM or a GOC domain record can be related back to that record", "score": 0.3873, "match_basis": "verbatim_token+chapter_route:ch08"}], "candidate_count": 5, "zero_candidate": false}
{"pdf_atom_id": "sv20_p0073_a007", "pdf_atom_type": "LIST_ITEM", "pdf_source": "SDTM_v2.0", "pdf_page": 73, "pdf_parent_section": "§8 [Proposed Future Changes to the SDTM]", "pdf_verbatim": "The variable --TSTDTL may be made domain-specific, for use only in the Microbiology Specimen (MB), Microscopic Findings (MI), and Genetic Findings (GF) domains.", "figure_ref": null, "candidates": [{"md_atom_id": "md_ch08_a215", "md_file": "knowledge_base/chapters/ch08_relationships.md", "md_atom_type": "LIST_ITEM", "md_parent_section": "§8.5 [Relating Comments to a Parent Domain]", "md_verbatim": "3. Comments related to specific domain record(s) for a subject would populate the RDOMAIN, IDVAR, and IDVARVAL variables with values that identify the specific parent record(s).", "score": 0.4111, "match_basis": "verbatim_token+chapter_route:ch08"}, {"md_atom_id": "md_ch08_a218", "md_file": "knowledge_base/chapters/ch08_relationships.md", "md_atom_type": "LIST_ITEM", "md_parent_section": "§8.5 [Relating Comments to a Parent Domain]", "md_verbatim": "2. Timing variables (e.g., VISITNUM, VISIT) may be added to the CO special-purpose domain. See Section 5.1, Comments, assumption 5 for a complete list of identifier and timing variables that can be added to the CO special-purpose domain.", "score": 0.4062, "match_basis": "verbatim_token+chapter_route:ch08"}, {"md_atom_id": "md_ch08_a020", "md_file": "knowledge_base/chapters/ch08_relationships.md", "md_atom_type": "LIST_ITEM", "md_parent_section": "§8 [Representing Relationships and Data]", "md_verbatim": "- The reference identifier (--REFID) variable can be used to capture a sponsor-defined or external identifier, such as lab-specimen identifiers and ECG identifiers. --REFID is permissible in all general observation-class domains, but is never required. Values are sponsor-defined.", "score": 0.4021, "match_basis": "verbatim_token+chapter_route:ch08"}, {"md_atom_id": "md_ch08_a329", "md_file": "knowledge_base/chapters/ch08_relationships.md", "md_atom_type": "LIST_ITEM", "md_parent_section": "§8.8 [Related Specimens (RELSPEC)]", "md_verbatim": "2. The RELSPEC dataset is only used to maintain relationships between specimens, therefore it does not require any additional variables such as those used in RELREC.", "score": 0.3974, "match_basis": "verbatim_token+chapter_route:ch08"}, {"md_atom_id": "md_ch08_a214", "md_file": "knowledge_base/chapters/ch08_relationships.md", "md_atom_type": "LIST_ITEM", "md_parent_section": "§8.5 [Relating Comments to a Parent Domain]", "md_verbatim": "2. Comments related only to a specific domain (and not to any specific records) for a subject would populate RDOMAIN with the domain code for the domain with which they are associated. IDVAR and IDVARVAL would be null.", "score": 0.3911, "match_basis": "verbatim_token+chapter_route:ch08"}], "candidate_count": 5, "zero_candidate": false}
{"pdf_atom_id": "sv20_p0073_a008", "pdf_atom_type": "SENTENCE", "pdf_source": "SDTM_v2.0", "pdf_page": 73, "pdf_parent_section": "§8 [Proposed Future Changes to the SDTM]", "pdf_verbatim": "The findings variable --LOBXFL was introduced in SDTM v1.7.", "figure_ref": null, "candidates": [{"md_atom_id": "md_ch08_a176", "md_file": "knowledge_base/chapters/ch08_relationships.md", "md_atom_type": "SENTENCE", "md_parent_section": "§8.4.2 [Submitting Supplemental Qualifiers in Separate Datasets]", "md_verbatim": "The single SUPPQUAL dataset option that was introduced in SDTMIGv3.1 was **deprecated**.", "score": 0.43, "match_basis": "verbatim_token+chapter_route:ch08"}, {"md_atom_id": "md_ch08_a135", "md_file": "knowledge_base/chapters/ch08_relationships.md", "md_atom_type": "SENTENCE", "md_parent_section": "§8.4 [Relating Non-standard Variable Values to a Parent Domain]", "md_verbatim": "The SDTM does not allow the addition of new variables.", "score": 0.4286, "match_basis": "verbatim_token+chapter_route:ch08"}, {"md_atom_id": "md_ch08_a018", "md_file": "knowledge_base/chapters/ch08_relationships.md", "md_atom_type": "SENTENCE", "md_parent_section": "§8 [Representing Relationships and Data]", "md_verbatim": "The following are examples of variables that could be used in IDVAR:", "score": 0.396, "match_basis": "verbatim_token+chapter_route:ch08"}, {"md_atom_id": "md_ch08_a123", "md_file": "knowledge_base/chapters/ch08_relationships.md", "md_atom_type": "SENTENCE", "md_parent_section": "§8.3.1 [RELREC Dataset Relationship Example]", "md_verbatim": "The values for the --LNKID variable in the 2 datasets are sponsor-defined.", "score": 0.3923, "match_basis": "verbatim_token+chapter_route:ch08"}, {"md_atom_id": "md_ch08_a062", "md_file": "knowledge_base/chapters/ch08_relationships.md", "md_atom_type": "SENTENCE", "md_parent_section": "§8.2 [Relating Peer Records]", "md_verbatim": "IDVARVAL would contain the value of the variable described in IDVAR.", "score": 0.384, "match_basis": "verbatim_token+chapter_route:ch08"}], "candidate_count": 5, "zero_candidate": false}
{"pdf_atom_id": "sv20_p0073_a009", "pdf_atom_type": "SENTENCE", "pdf_source": "SDTM_v2.0", "pdf_page": 73, "pdf_parent_section": "§8 [Proposed Future Changes to the SDTM]", "pdf_verbatim": "In the accompanying SDTMIG v3.3, for domains where --BLFL had been included as an expected variable, --BLFL was made permissible, while --LOBXFL was added as an expected variable.", "figure_ref": null, "candidates": [{"md_atom_id": "md_ch08_a023", "md_file": "knowledge_base/chapters/ch08_relationships.md", "md_atom_type": "SENTENCE", "md_parent_section": "§8.1 [Relating Groups of Records Within a Domain Using --GRPID]", "md_verbatim": "The optional grouping identifier variable --GRPID is Permissible in all domains that are based on the general observation classes.", "score": 0.4115, "match_basis": "verbatim_token+chapter_route:ch08"}, {"md_atom_id": "md_ch08_a005", "md_file": "knowledge_base/chapters/ch08_relationships.md", "md_atom_type": "SENTENCE", "md_parent_section": "§8 [Representing Relationships and Data]", "md_verbatim": "Collected data that may not entirely fit includes relationships between records within a domain, records in separate domains, and sponsor-defined \"variables.\"", "score": 0.396, "match_basis": "verbatim_token+chapter_route:ch08"}, {"md_atom_id": "md_ch08_a294", "md_file": "knowledge_base/chapters/ch08_relationships.md", "md_atom_type": "SENTENCE", "md_parent_section": "§8.7 [Related Subjects (RELSUB)]", "md_verbatim": "Some expected and required variables not needed to illustrate the example are not shown.", "score": 0.3857, "match_basis": "verbatim_token+chapter_route:ch08"}, {"md_atom_id": "md_ch08_a216", "md_file": "knowledge_base/chapters/ch08_relationships.md", "md_atom_type": "SENTENCE", "md_parent_section": "§8.5 [Relating Comments to a Parent Domain]", "md_verbatim": "For additional information collected further describing the comment relationship to a parent record(s) that cannot be represented using the relationship variables RDOMAIN, IDVAR and IDVARVAL:", "score": 0.3844, "match_basis": "verbatim_token+chapter_route:ch08"}, {"md_atom_id": "md_ch08_a177", "md_file": "knowledge_base/chapters/ch08_relationships.md", "md_atom_type": "SENTENCE", "md_parent_section": "§8.4.2 [Submitting Supplemental Qualifiers in Separate Datasets]", "md_verbatim": "The set of supplemental qualifiers for each domain is included in a separate dataset with the name SUPP-- (where \"--\" denotes the source domain which the supplemental qualifiers relate back to).", "score": 0.3814, "match_basis": "verbatim_token+chapter_route:ch08"}], "candidate_count": 5, "zero_candidate": false}
{"pdf_atom_id": "sv20_p0073_a010", "pdf_atom_type": "SENTENCE", "pdf_source": "SDTM_v2.0", "pdf_page": 73, "pdf_parent_section": "§8 [Proposed Future Changes to the SDTM]", "pdf_verbatim": "Future deprecation was not announced in SDTM v1.7 in order to provide a sufficient transition period.", "figure_ref": null, "candidates": [{"md_atom_id": "md_ch08_a176", "md_file": "knowledge_base/chapters/ch08_relationships.md", "md_atom_type": "SENTENCE", "md_parent_section": "§8.4.2 [Submitting Supplemental Qualifiers in Separate Datasets]", "md_verbatim": "The single SUPPQUAL dataset option that was introduced in SDTMIGv3.1 was **deprecated**.", "score": 0.3867, "match_basis": "verbatim_token+chapter_route:ch08"}, {"md_atom_id": "md_ch08_a063", "md_file": "knowledge_base/chapters/ch08_relationships.md", "md_atom_type": "SENTENCE", "md_parent_section": "§8.2 [Relating Peer Records]", "md_verbatim": "Using --GRPID can be a more efficient method of representing relationships in RELREC, such as when relating an adverse event (or events) to a group of concomitant medications taken to treat the adverse event(s).", "score": 0.3678, "match_basis": "verbatim_token+chapter_route:ch08"}, {"md_atom_id": "md_ch08_a070", "md_file": "knowledge_base/chapters/ch08_relationships.md", "md_atom_type": "SENTENCE", "md_parent_section": "§8.2.1 [Related Records (RELREC)]", "md_verbatim": "**RELREC — Specification**", "score": 0.361, "match_basis": "verbatim_token+chapter_route:ch08"}, {"md_atom_id": "md_ch08_a083", "md_file": "knowledge_base/chapters/ch08_relationships.md", "md_atom_type": "SENTENCE", "md_parent_section": "§8.2.2 [RELREC Dataset Examples]", "md_verbatim": "**Rows 1-3:** Show the representation of a relationship between an AE record and 2 concomitant medication records.", "score": 0.36, "match_basis": "verbatim_token+chapter_route:ch08"}, {"md_atom_id": "md_ch08_a266", "md_file": "knowledge_base/chapters/ch08_relationships.md", "md_atom_type": "SENTENCE", "md_parent_section": "§8.6.3 [Guidelines for Differentiating Between Interventions, Events, Findings, and Findings About Events or Interventions]", "md_verbatim": "A record in the Events general observation class is intended to represent the event as a whole.", "score": 0.3578, "match_basis": "verbatim_token+chapter_route:ch08"}], "candidate_count": 5, "zero_candidate": false}
{"pdf_atom_id": "sv20_p0073_a011", "pdf_atom_type": "SENTENCE", "pdf_source": "SDTM_v2.0", "pdf_page": 73, "pdf_parent_section": "§8 [Proposed Future Changes to the SDTM]", "pdf_verbatim": "Deprecation in the next version of the SDTM with an accompanying SDTMIG is proposed as this should provide a sufficient transition period.", "figure_ref": null, "candidates": [{"md_atom_id": "md_ch08_a176", "md_file": "knowledge_base/chapters/ch08_relationships.md", "md_atom_type": "SENTENCE", "md_parent_section": "§8.4.2 [Submitting Supplemental Qualifiers in Separate Datasets]", "md_verbatim": "The single SUPPQUAL dataset option that was introduced in SDTMIGv3.1 was **deprecated**.", "score": 0.3866, "match_basis": "verbatim_token+chapter_route:ch08"}, {"md_atom_id": "md_ch08_a063", "md_file": "knowledge_base/chapters/ch08_relationships.md", "md_atom_type": "SENTENCE", "md_parent_section": "§8.2 [Relating Peer Records]", "md_verbatim": "Using --GRPID can be a more efficient method of representing relationships in RELREC, such as when relating an adverse event (or events) to a group of concomitant medications taken to treat the adverse event(s).", "score": 0.3857, "match_basis": "verbatim_token+chapter_route:ch08"}, {"md_atom_id": "md_ch08_a153", "md_file": "knowledge_base/chapters/ch08_relationships.md", "md_atom_type": "SENTENCE", "md_parent_section": "§8.4 [Relating Non-standard Variable Values to a Parent Domain]", "md_verbatim": "This is necessary to ensure that reviewers can join/merge/transpose the information back with the records in the original domain without risk of losing information.", "score": 0.3836, "match_basis": "verbatim_token+chapter_route:ch08"}, {"md_atom_id": "md_ch08_a064", "md_file": "knowledge_base/chapters/ch08_relationships.md", "md_atom_type": "SENTENCE", "md_parent_section": "§8.2 [Relating Peer Records]", "md_verbatim": "The RELREC dataset should be used to represent either:", "score": 0.3815, "match_basis": "verbatim_token+chapter_route:ch08"}, {"md_atom_id": "md_ch08_a026", "md_file": "knowledge_base/chapters/ch08_relationships.md", "md_atom_type": "SENTENCE", "md_parent_section": "§8.1 [Relating Groups of Records Within a Domain Using --GRPID]", "md_verbatim": "The values used for --GRPID can be any values the sponsor chooses; however, if the sponsor uses values with some embedded meaning (rather than arbitrary numbers), those values should be consistent across the submission to avoid confusion.", "score": 0.3777, "match_basis": "verbatim_token+chapter_route:ch08"}], "candidate_count": 5, "zero_candidate": false}
{"pdf_atom_id": "sv20_p0073_a012", "pdf_atom_type": "SENTENCE", "pdf_source": "SDTM_v2.0", "pdf_page": 73, "pdf_parent_section": "§8 [Proposed Future Changes to the SDTM]", "pdf_verbatim": "As a findings variable, --MODIFY was originally included for use in the Physical Examination (PE) domain in the SDTMIG to support coding of an abnormality recorded as a result of a physical examination.", "figure_ref": null, "candidates": [{"md_atom_id": "md_ch08_a268", "md_file": "knowledge_base/chapters/ch08_relationships.md", "md_atom_type": "SENTENCE", "md_parent_section": "§8.6.3 [Guidelines for Differentiating Between Interventions, Events, Findings, and Findings About Events or Interventions]", "md_verbatim": "Such a record typically includes what the condition was (captured in --TERM, the topic variable) and when it happened (captured in its start and/or end dates).", "score": 0.421, "match_basis": "verbatim_token+chapter_route:ch08"}, {"md_atom_id": "md_ch08_a238", "md_file": "knowledge_base/chapters/ch08_relationships.md", "md_atom_type": "SENTENCE", "md_parent_section": "§8.6.1 [Guidelines for Determining the General Observation Class]", "md_verbatim": "Findings general observation class data include measurements, tests, assessments, or examinations performed on a subject in the clinical trial.", "score": 0.4191, "match_basis": "verbatim_token+chapter_route:ch08"}, {"md_atom_id": "md_ch08_a142", "md_file": "knowledge_base/chapters/ch08_relationships.md", "md_atom_type": "SENTENCE", "md_parent_section": "§8.4 [Relating Non-standard Variable Values to a Parent Domain]", "md_verbatim": "Each SUPP-- record also includes the name of the qualifier variable being added (QNAM), the label for the variable (QLABEL), the actual value for each instance or record (QVAL), the origin (QORIG) of the value (see Section 4.1.8, Origin Metadata), and the evaluator (QEVAL) to specify the role of the individual who assigned the value (e.g., \"ADJUDICATION COMMITTEE\", \"SPONSOR\").", "score": 0.4172, "match_basis": "verbatim_token+chapter_route:ch08"}, {"md_atom_id": "md_ch08_a186", "md_file": "knowledge_base/chapters/ch08_relationships.md", "md_atom_type": "SENTENCE", "md_parent_section": "§8.4.3 [Examples]", "md_verbatim": "**Example 1:** The 2 rows of suppae.xpt add qualifying information to adverse event data (RDOMAIN = \"AE\"). IDVAR defines the key variable used to link this information to the AE data (AESEQ). IDVARVAL specifies the value of the key variable within the parent AE record to which the SUPPAE record applies. The remaining columns specify the supplemental variables' names (AESOSP and AETRTEM), labels, values, origin, and who made the evaluation.", "score": 0.4097, "match_basis": "verbatim_token+chapter_route:ch08"}, {"md_atom_id": "md_ch08_a219", "md_file": "knowledge_base/chapters/ch08_relationships.md", "md_atom_type": "SENTENCE", "md_parent_section": "§8.5 [Relating Comments to a Parent Domain]", "md_verbatim": "As with Supplemental Qualifiers (SUPP--) and Related Records (RELREC), --GRPID and other grouping variables can be used as the value in IDVAR to identify comments with relationships to multiple domain records.", "score": 0.4064, "match_basis": "verbatim_token+chapter_route:ch08"}], "candidate_count": 5, "zero_candidate": false}
{"pdf_atom_id": "sv20_p0073_a013", "pdf_atom_type": "SENTENCE", "pdf_source": "SDTM_v2.0", "pdf_page": 73, "pdf_parent_section": "§8 [Proposed Future Changes to the SDTM]", "pdf_verbatim": "However, abnormalities found during a physical examination are now more commonly recorded as events in the Medical History (MH) domain or the Adverse Events (AE) domain, where the full range of coding variables are available.", "figure_ref": null, "candidates": [{"md_atom_id": "md_ch08_a235", "md_file": "knowledge_base/chapters/ch08_relationships.md", "md_atom_type": "SENTENCE", "md_parent_section": "§8.6.1 [Guidelines for Determining the General Observation Class]", "md_verbatim": "Because many medical events must, by regulation, be treated as adverse events, a new Events domain will be created only for events that are clearly not adverse events; the existing Medical History (MH) and Clinical Events (CE) domains are the appropriate places to store most medical events that are not adverse events.", "score": 0.4303, "match_basis": "verbatim_token+chapter_route:ch08"}, {"md_atom_id": "md_ch08_a228", "md_file": "knowledge_base/chapters/ch08_relationships.md", "md_atom_type": "SENTENCE", "md_parent_section": "§8.6.1 [Guidelines for Determining the General Observation Class]", "md_verbatim": "However, medical history data (data about previous conditions or events) is events data regardless of whether dates were collected.", "score": 0.4182, "match_basis": "verbatim_token+chapter_route:ch08"}, {"md_atom_id": "md_ch08_a082", "md_file": "knowledge_base/chapters/ch08_relationships.md", "md_atom_type": "SENTENCE", "md_parent_section": "§8.2.2 [RELREC Dataset Examples]", "md_verbatim": "**Example 1:** This example illustrates the use of the RELREC dataset to relate records stored in separate domains for USUBJID = \"123456\". This example represents a situation in which a single adverse event is part of 2 collected relationships, one with 2 concomitant medications and the other with 2 laboratory findings, but there is no collected relationship between the 2 laboratory findings and the 2 concomitant medications.", "score": 0.4169, "match_basis": "verbatim_token+chapter_route:ch08"}, {"md_atom_id": "md_ch08_a186", "md_file": "knowledge_base/chapters/ch08_relationships.md", "md_atom_type": "SENTENCE", "md_parent_section": "§8.4.3 [Examples]", "md_verbatim": "**Example 1:** The 2 rows of suppae.xpt add qualifying information to adverse event data (RDOMAIN = \"AE\"). IDVAR defines the key variable used to link this information to the AE data (AESEQ). IDVARVAL specifies the value of the key variable within the parent AE record to which the SUPPAE record applies. The remaining columns specify the supplemental variables' names (AESOSP and AETRTEM), labels, values, origin, and who made the evaluation.", "score": 0.411, "match_basis": "verbatim_token+chapter_route:ch08"}, {"md_atom_id": "md_ch08_a216", "md_file": "knowledge_base/chapters/ch08_relationships.md", "md_atom_type": "SENTENCE", "md_parent_section": "§8.5 [Relating Comments to a Parent Domain]", "md_verbatim": "For additional information collected further describing the comment relationship to a parent record(s) that cannot be represented using the relationship variables RDOMAIN, IDVAR and IDVARVAL:", "score": 0.4077, "match_basis": "verbatim_token+chapter_route:ch08"}], "candidate_count": 5, "zero_candidate": false}
{"pdf_atom_id": "sv20_p0073_a014", "pdf_atom_type": "SENTENCE", "pdf_source": "SDTM_v2.0", "pdf_page": 73, "pdf_parent_section": "§8 [Proposed Future Changes to the SDTM]", "pdf_verbatim": "This is consistent with the best-practice scenario described in the Clinical Data Acquisition Standards Harmonization Implementation Guide (CDASHIG).", "figure_ref": null, "candidates": [{"md_atom_id": "md_ch08_a053", "md_file": "knowledge_base/chapters/ch08_relationships.md", "md_atom_type": "SENTENCE", "md_parent_section": "§8.2 [Relating Peer Records]", "md_verbatim": "The Related Records (RELREC) special-purpose dataset is used to describe relationships between records for a subject (as described in this section), and relationships between datasets (as described in Section 8.3, Relating Datasets).", "score": 0.3945, "match_basis": "verbatim_token+chapter_route:ch08"}, {"md_atom_id": "md_ch08_a093", "md_file": "knowledge_base/chapters/ch08_relationships.md", "md_atom_type": "SENTENCE", "md_parent_section": "§8.2.2 [RELREC Dataset Examples]", "md_verbatim": "**Example 2:** Same scenario as Example 1, but in this case the way the data were collected indicated that the concomitant medications and laboratory findings were all in a single relationship to each other and the adverse event.", "score": 0.3926, "match_basis": "verbatim_token+chapter_route:ch08"}, {"md_atom_id": "md_ch08_a101", "md_file": "knowledge_base/chapters/ch08_relationships.md", "md_atom_type": "SENTENCE", "md_parent_section": "§8.2.2 [RELREC Dataset Examples]", "md_verbatim": "**Example 3:** Same scenario as Example 2, but the sponsor grouped the 2 concomitant medications in the CM domain using CMGRPID = \"COMBO 1\", allowing the relationship among these 5 records to be represented with 4, rather than 5, records in the RELREC dataset.", "score": 0.3911, "match_basis": "verbatim_token+chapter_route:ch08"}, {"md_atom_id": "md_ch08_a069", "md_file": "knowledge_base/chapters/ch08_relationships.md", "md_atom_type": "SENTENCE", "md_parent_section": "§8.2.1 [Related Records (RELREC)]", "md_verbatim": "A dataset used to describe relationships between records for a subject within or across domains, and relationships of records across datasets.", "score": 0.39, "match_basis": "verbatim_token+chapter_route:ch08"}, {"md_atom_id": "md_ch08_a248", "md_file": "knowledge_base/chapters/ch08_relationships.md", "md_atom_type": "SENTENCE", "md_parent_section": "§8.6.3 [Guidelines for Differentiating Between Interventions, Events, Findings, and Findings About Events or Interventions]", "md_verbatim": "This section discusses events and findings generally, but it is particularly useful for understanding the distinction between the Clinical Events (CE) and FA domains.", "score": 0.3761, "match_basis": "verbatim_token+chapter_route:ch08"}], "candidate_count": 5, "zero_candidate": false}
{"pdf_atom_id": "sv20_p0073_a015", "pdf_atom_type": "SENTENCE", "pdf_source": "SDTM_v2.0", "pdf_page": 73, "pdf_parent_section": "§8 [Proposed Future Changes to the SDTM]", "pdf_verbatim": "After --MODIFY is deprecated as a findings qualifier, an implementer coding abnormalities found at a physical exam will not be able to represent the coding in PE domain, but will be able to represent coding in the appropriate events domain.", "figure_ref": null, "candidates": [{"md_atom_id": "md_ch08_a247", "md_file": "knowledge_base/chapters/ch08_relationships.md", "md_atom_type": "SENTENCE", "md_parent_section": "§8.6.3 [Guidelines for Differentiating Between Interventions, Events, Findings, and Findings About Events or Interventions]", "md_verbatim": "The Findings About (FA) domain was initially created to represent findings about events, but can also be used for findings about interventions.", "score": 0.4473, "match_basis": "verbatim_token+chapter_route:ch08"}, {"md_atom_id": "md_ch08_a180", "md_file": "knowledge_base/chapters/ch08_relationships.md", "md_atom_type": "SENTENCE", "md_parent_section": "§8.4.2 [Submitting Supplemental Qualifiers in Separate Datasets]", "md_verbatim": "In cases where data about associated persons have been collected, supplemental qualifiers for Findings About events or interventions for an associated person may need to be represented (see the SDTMIG for Associated Persons).", "score": 0.4467, "match_basis": "verbatim_token+chapter_route:ch08"}, {"md_atom_id": "md_ch08_a137", "md_file": "knowledge_base/chapters/ch08_relationships.md", "md_atom_type": "SENTENCE", "md_parent_section": "§8.4 [Relating Non-standard Variable Values to a Parent Domain]", "md_verbatim": "Supplemental qualifiers are represented as separate SUPP-- datasets for each dataset containing sponsor-defined variables (see Section 8.4.2, Submitting Supplemental Qualifiers in Separate Datasets).", "score": 0.4191, "match_basis": "verbatim_token+chapter_route:ch08"}, {"md_atom_id": "md_ch08_a225", "md_file": "knowledge_base/chapters/ch08_relationships.md", "md_atom_type": "SENTENCE", "md_parent_section": "§8.6.1 [Guidelines for Determining the General Observation Class]", "md_verbatim": "A key part of the process of creating a new domain is determining whether an observation represents an event, an intervention, or a finding.", "score": 0.416, "match_basis": "verbatim_token+chapter_route:ch08"}, {"md_atom_id": "md_ch08_a272", "md_file": "knowledge_base/chapters/ch08_relationships.md", "md_atom_type": "SENTENCE", "md_parent_section": "§8.6.3 [Guidelines for Differentiating Between Interventions, Events, Findings, and Findings About Events or Interventions]", "md_verbatim": "When data related to an event do not fit into one of the existing Event general observation class qualifiers, the first question to consider is whether the data represent information about the event itself, or about something (a finding or intervention) that is associated with the event.", "score": 0.4132, "match_basis": "verbatim_token+chapter_route:ch08"}], "candidate_count": 5, "zero_candidate": false}
{"pdf_atom_id": "sv20_p0073_a016", "pdf_atom_type": "SENTENCE", "pdf_source": "SDTM_v2.0", "pdf_page": 73, "pdf_parent_section": "§8 [Proposed Future Changes to the SDTM]", "pdf_verbatim": "No use cases other than in the PE domain have been identified for --MODIFY as a findings variable.", "figure_ref": null, "candidates": [{"md_atom_id": "md_ch08_a023", "md_file": "knowledge_base/chapters/ch08_relationships.md", "md_atom_type": "SENTENCE", "md_parent_section": "§8.1 [Relating Groups of Records Within a Domain Using --GRPID]", "md_verbatim": "The optional grouping identifier variable --GRPID is Permissible in all domains that are based on the general observation classes.", "score": 0.4517, "match_basis": "verbatim_token+chapter_route:ch08"}, {"md_atom_id": "md_ch08_a125", "md_file": "knowledge_base/chapters/ch08_relationships.md", "md_atom_type": "SENTENCE", "md_parent_section": "§8.3.1 [RELREC Dataset Relationship Example]", "md_verbatim": "The variable RELTYPE identifies the type of relationship between the datasets.", "score": 0.4455, "match_basis": "verbatim_token+chapter_route:ch08"}, {"md_atom_id": "md_ch08_a016", "md_file": "knowledge_base/chapters/ch08_relationships.md", "md_atom_type": "SENTENCE", "md_parent_section": "§8 [Representing Relationships and Data]", "md_verbatim": "In addition, the variables IDVAR and IDVARVAL are used for identifying the record-level merge/join keys.", "score": 0.4315, "match_basis": "verbatim_token+chapter_route:ch08"}, {"md_atom_id": "md_ch08_a219", "md_file": "knowledge_base/chapters/ch08_relationships.md", "md_atom_type": "SENTENCE", "md_parent_section": "§8.5 [Relating Comments to a Parent Domain]", "md_verbatim": "As with Supplemental Qualifiers (SUPP--) and Related Records (RELREC), --GRPID and other grouping variables can be used as the value in IDVAR to identify comments with relationships to multiple domain records.", "score": 0.4314, "match_basis": "verbatim_token+chapter_route:ch08"}, {"md_atom_id": "md_ch08_a060", "md_file": "knowledge_base/chapters/ch08_relationships.md", "md_atom_type": "SENTENCE", "md_parent_section": "§8.2 [Relating Peer Records]", "md_verbatim": "Single records can be related by using a unique-record-identifier variable such as --SEQ in IDVAR.", "score": 0.4254, "match_basis": "verbatim_token+chapter_route:ch08"}], "candidate_count": 5, "zero_candidate": false}
{"pdf_atom_id": "sv20_p0073_a017", "pdf_atom_type": "SENTENCE", "pdf_source": "SDTM_v2.0", "pdf_page": 73, "pdf_parent_section": "§8 [Proposed Future Changes to the SDTM]", "pdf_verbatim": "The rationale for removing --BODSYS as a qualifier for use in clinical trials is the same as the rationale for removing --MODIFY.", "figure_ref": null, "candidates": [{"md_atom_id": "md_ch08_a139", "md_file": "knowledge_base/chapters/ch08_relationships.md", "md_atom_type": "SENTENCE", "md_parent_section": "§8.4 [Relating Non-standard Variable Values to a Parent Domain]", "md_verbatim": "As the name suggests, this dataset is intended to capture additional qualifiers for an observation.", "score": 0.4139, "match_basis": "verbatim_token+chapter_route:ch08"}, {"md_atom_id": "md_ch08_a238", "md_file": "knowledge_base/chapters/ch08_relationships.md", "md_atom_type": "SENTENCE", "md_parent_section": "§8.6.1 [Guidelines for Determining the General Observation Class]", "md_verbatim": "Findings general observation class data include measurements, tests, assessments, or examinations performed on a subject in the clinical trial.", "score": 0.3923, "match_basis": "verbatim_token+chapter_route:ch08"}, {"md_atom_id": "md_ch08_a236", "md_file": "knowledge_base/chapters/ch08_relationships.md", "md_atom_type": "SENTENCE", "md_parent_section": "§8.6.1 [Guidelines for Determining the General Observation Class]", "md_verbatim": "Many aspects of medical events — including tests performed to evaluate them, interventions that may have caused them, and interventions given to treat them — may be collected in clinical trials.", "score": 0.3914, "match_basis": "verbatim_token+chapter_route:ch08"}, {"md_atom_id": "md_ch08_a156", "md_file": "knowledge_base/chapters/ch08_relationships.md", "md_atom_type": "SENTENCE", "md_parent_section": "§8.4.1 [Supplemental Qualifiers (SUPP--)]", "md_verbatim": "supp--.xpt, Supplemental Qualifiers for [domain name] — Relationship. One record per supplemental qualifier per related parent domain record(s), Tabulation.", "score": 0.3878, "match_basis": "verbatim_token+chapter_route:ch08"}, {"md_atom_id": "md_ch08_a234", "md_file": "knowledge_base/chapters/ch08_relationships.md", "md_atom_type": "SENTENCE", "md_parent_section": "§8.6.1 [Guidelines for Determining the General Observation Class]", "md_verbatim": "Most, although not all, events data captured in clinical trials is about medical events.", "score": 0.3845, "match_basis": "verbatim_token+chapter_route:ch08"}], "candidate_count": 5, "zero_candidate": false}
{"pdf_atom_id": "sv20_p0073_a018", "pdf_atom_type": "SENTENCE", "pdf_source": "SDTM_v2.0", "pdf_page": 73, "pdf_parent_section": "§8 [Proposed Future Changes to the SDTM]", "pdf_verbatim": "If deprecated, the variable will still be available for use in nonclinical trials, where it has been used to classify the body system of the organ represented as a value of --SPEC.", "figure_ref": null, "candidates": [{"md_atom_id": "md_ch08_a236", "md_file": "knowledge_base/chapters/ch08_relationships.md", "md_atom_type": "SENTENCE", "md_parent_section": "§8.6.1 [Guidelines for Determining the General Observation Class]", "md_verbatim": "Many aspects of medical events — including tests performed to evaluate them, interventions that may have caused them, and interventions given to treat them — may be collected in clinical trials.", "score": 0.4095, "match_basis": "verbatim_token+chapter_route:ch08"}, {"md_atom_id": "md_ch08_a145", "md_file": "knowledge_base/chapters/ch08_relationships.md", "md_atom_type": "SENTENCE", "md_parent_section": "§8.4 [Relating Non-standard Variable Values to a Parent Domain]", "md_verbatim": "An attribution is typically an interpretation or subjective classification of 1 or more observations by a specific evaluator, such as a flag that indicates whether an observation was considered to be clinically significant.", "score": 0.4007, "match_basis": "verbatim_token+chapter_route:ch08"}, {"md_atom_id": "md_ch08_a183", "md_file": "knowledge_base/chapters/ch08_relationships.md", "md_atom_type": "SENTENCE", "md_parent_section": "§8.4.2 [Submitting Supplemental Qualifiers in Separate Datasets]", "md_verbatim": "See Section 4.5.3, Text Strings that Exceed the Maximum Length for General Observation-class Domain Variables, for information on representing data values greater than 200 characters in length.", "score": 0.4, "match_basis": "verbatim_token+chapter_route:ch08"}, {"md_atom_id": "md_ch08_a247", "md_file": "knowledge_base/chapters/ch08_relationships.md", "md_atom_type": "SENTENCE", "md_parent_section": "§8.6.3 [Guidelines for Differentiating Between Interventions, Events, Findings, and Findings About Events or Interventions]", "md_verbatim": "The Findings About (FA) domain was initially created to represent findings about events, but can also be used for findings about interventions.", "score": 0.3953, "match_basis": "verbatim_token+chapter_route:ch08"}, {"md_atom_id": "md_ch08_a191", "md_file": "knowledge_base/chapters/ch08_relationships.md", "md_atom_type": "SENTENCE", "md_parent_section": "§8.4.3 [Examples]", "md_verbatim": "**Example 2:** This example illustrates how the language used for a questionnaire might be represented. The parent domain (RDOMAIN) is QS, and IDVAR is QSCAT. QNAM holds the name of the supplemental qualifier variable being defined (QSLANG). The language recorded in QVAL applies to all of the subject's records, where IDVAR (QSCAT) equals the value specified in IDVARVAL. In this case, IDVARVAL has values for 2 questionnaires — Brief Pain Inventory (BPI) and Alzheimer's Disease Assessment Scale-Cognitive Subscale (ADAS-Cog) — for 2 separate subjects. QVAL identifies the questionnaire language version (French or German) for each subject.", "score": 0.3923, "match_basis": "verbatim_token+chapter_route:ch08"}], "candidate_count": 5, "zero_candidate": false}
{"pdf_atom_id": "sv20_p0073_a019", "pdf_atom_type": "SENTENCE", "pdf_source": "SDTM_v2.0", "pdf_page": 73, "pdf_parent_section": "§8 [Proposed Future Changes to the SDTM]", "pdf_verbatim": "The variable TIRL was included in the Trial Inclusion/Exclusion Criteria (TI) domain in anticipation of developing a way to represent eligibility criteria in a computer-executable manner.", "figure_ref": null, "candidates": [{"md_atom_id": "md_ch08_a216", "md_file": "knowledge_base/chapters/ch08_relationships.md", "md_atom_type": "SENTENCE", "md_parent_section": "§8.5 [Relating Comments to a Parent Domain]", "md_verbatim": "For additional information collected further describing the comment relationship to a parent record(s) that cannot be represented using the relationship variables RDOMAIN, IDVAR and IDVARVAL:", "score": 0.4141, "match_basis": "verbatim_token+chapter_route:ch08"}, {"md_atom_id": "md_ch08_a183", "md_file": "knowledge_base/chapters/ch08_relationships.md", "md_atom_type": "SENTENCE", "md_parent_section": "§8.4.2 [Submitting Supplemental Qualifiers in Separate Datasets]", "md_verbatim": "See Section 4.5.3, Text Strings that Exceed the Maximum Length for General Observation-class Domain Variables, for information on representing data values greater than 200 characters in length.", "score": 0.4117, "match_basis": "verbatim_token+chapter_route:ch08"}, {"md_atom_id": "md_ch08_a004", "md_file": "knowledge_base/chapters/ch08_relationships.md", "md_atom_type": "SENTENCE", "md_parent_section": "§8 [Representing Relationships and Data]", "md_verbatim": "The defined variables of the SDTM general observation classes could restrict the ability of sponsors to represent all the data they wish to submit.", "score": 0.407, "match_basis": "verbatim_token+chapter_route:ch08"}, {"md_atom_id": "md_ch08_a247", "md_file": "knowledge_base/chapters/ch08_relationships.md", "md_atom_type": "SENTENCE", "md_parent_section": "§8.6.3 [Guidelines for Differentiating Between Interventions, Events, Findings, and Findings About Events or Interventions]", "md_verbatim": "The Findings About (FA) domain was initially created to represent findings about events, but can also be used for findings about interventions.", "score": 0.4043, "match_basis": "verbatim_token+chapter_route:ch08"}, {"md_atom_id": "md_ch08_a225", "md_file": "knowledge_base/chapters/ch08_relationships.md", "md_atom_type": "SENTENCE", "md_parent_section": "§8.6.1 [Guidelines for Determining the General Observation Class]", "md_verbatim": "A key part of the process of creating a new domain is determining whether an observation represents an event, an intervention, or a finding.", "score": 0.3942, "match_basis": "verbatim_token+chapter_route:ch08"}], "candidate_count": 5, "zero_candidate": false}
{"pdf_atom_id": "sv20_p0073_a020", "pdf_atom_type": "SENTENCE", "pdf_source": "SDTM_v2.0", "pdf_page": 73, "pdf_parent_section": "§8 [Proposed Future Changes to the SDTM]", "pdf_verbatim": "However, such a method has not been developed, and it is not clear that an SDTM dataset would be the best place to represent such a computer-executable representation.", "figure_ref": null, "candidates": [{"md_atom_id": "md_ch08_a258", "md_file": "knowledge_base/chapters/ch08_relationships.md", "md_atom_type": "SENTENCE", "md_parent_section": "§8.6.3 [Guidelines for Differentiating Between Interventions, Events, Findings, and Findings About Events or Interventions]", "md_verbatim": "The following table presents questions that may assist sponsors in deciding where data should be placed in SDTM.", "score": 0.4353, "match_basis": "verbatim_token+chapter_route:ch08"}, {"md_atom_id": "md_ch08_a064", "md_file": "knowledge_base/chapters/ch08_relationships.md", "md_atom_type": "SENTENCE", "md_parent_section": "§8.2 [Relating Peer Records]", "md_verbatim": "The RELREC dataset should be used to represent either:", "score": 0.4125, "match_basis": "verbatim_token+chapter_route:ch08"}, {"md_atom_id": "md_ch08_a138", "md_file": "knowledge_base/chapters/ch08_relationships.md", "md_atom_type": "SENTENCE", "md_parent_section": "§8.4 [Relating Non-standard Variable Values to a Parent Domain]", "md_verbatim": "SUPP-- represents the metadata and data for each NSV/value combination.", "score": 0.4103, "match_basis": "verbatim_token+chapter_route:ch08"}, {"md_atom_id": "md_ch08_a140", "md_file": "knowledge_base/chapters/ch08_relationships.md", "md_atom_type": "SENTENCE", "md_parent_section": "§8.4 [Relating Non-standard Variable Values to a Parent Domain]", "md_verbatim": "Data that represent separate observations should be treated as separate observations.", "score": 0.4091, "match_basis": "verbatim_token+chapter_route:ch08"}, {"md_atom_id": "md_ch08_a317", "md_file": "knowledge_base/chapters/ch08_relationships.md", "md_atom_type": "SENTENCE", "md_parent_section": "§8.8 [Related Specimens (RELSPEC)]", "md_verbatim": "A dataset used to represent relationships between specimens.", "score": 0.4067, "match_basis": "verbatim_token+chapter_route:ch08"}], "candidate_count": 5, "zero_candidate": false}
{"pdf_atom_id": "sv20_p0074_a001", "pdf_atom_type": "HEADING", "pdf_source": "SDTM_v2.0", "pdf_page": 74, "pdf_parent_section": "§9 [Appendices]", "pdf_verbatim": "9 Appendices", "figure_ref": null, "candidates": [{"md_atom_id": "md_ch10_a001", "md_file": "knowledge_base/chapters/ch10_appendices.md", "md_atom_type": "HEADING", "md_parent_section": "§10 [Appendices]", "md_verbatim": "# SDTMIG v3.4 — Chapter 10: Appendices", "score": 0.5824, "match_basis": "verbatim_token+global_search"}, {"md_atom_id": "md_ch10_a003", "md_file": "knowledge_base/chapters/ch10_appendices.md", "md_atom_type": "HEADING", "md_parent_section": "§10 [Appendices]", "md_verbatim": "## Appendix A: CDISC SDS Team", "score": 0.5, "match_basis": "verbatim_token+global_search"}, {"md_atom_id": "md_ch10_a136", "md_file": "knowledge_base/chapters/ch10_appendices.md", "md_atom_type": "HEADING", "md_parent_section": "§10 [Appendices]", "md_verbatim": "## Appendix E: Revision History", "score": 0.45, "match_basis": "verbatim_token+global_search"}, {"md_atom_id": "md_ch10_a053", "md_file": "knowledge_base/chapters/ch10_appendices.md", "md_atom_type": "HEADING", "md_parent_section": "§10 [Appendices]", "md_verbatim": "## Appendix C: Controlled Terminology", "score": 0.4154, "match_basis": "verbatim_token+global_search"}, {"md_atom_id": "md_ch10_a009", "md_file": "knowledge_base/chapters/ch10_appendices.md", "md_atom_type": "HEADING", "md_parent_section": "§10 [Appendices]", "md_verbatim": "## Appendix B: Glossary and Abbreviations", "score": 0.4111, "match_basis": "verbatim_token+global_search"}], "candidate_count": 5, "zero_candidate": false}
{"pdf_atom_id": "sv20_p0074_a002", "pdf_atom_type": "HEADING", "pdf_source": "SDTM_v2.0", "pdf_page": 74, "pdf_parent_section": "§9 [Appendices]", "pdf_verbatim": "Appendix A: Representations and Warranties, Limitations of Liability, and Disclaimers", "figure_ref": null, "candidates": [{"md_atom_id": "md_ch10_a245", "md_file": "knowledge_base/chapters/ch10_appendices.md", "md_atom_type": "HEADING", "md_parent_section": "§10 [Appendices]", "md_verbatim": "## Appendix F: Representations and Warranties, Limitations of Liability, and Disclaimers", "score": 0.9, "match_basis": "verbatim_token+global_search"}, {"md_atom_id": "md_ch10_a250", "md_file": "knowledge_base/chapters/ch10_appendices.md", "md_atom_type": "HEADING", "md_parent_section": "§10.F [Representations and Warranties, Limitations of Liability, and Disclaimers]", "md_verbatim": "### Representations and Warranties", "score": 0.575, "match_basis": "verbatim_token+global_search"}, {"md_atom_id": "md_ch10_a254", "md_file": "knowledge_base/chapters/ch10_appendices.md", "md_atom_type": "HEADING", "md_parent_section": "§10.F [Representations and Warranties, Limitations of Liability, and Disclaimers]", "md_verbatim": "### No Other Warranties/Disclaimers", "score": 0.5, "match_basis": "verbatim_token+global_search"}, {"md_atom_id": "md_ch10_a256", "md_file": "knowledge_base/chapters/ch10_appendices.md", "md_atom_type": "HEADING", "md_parent_section": "§10.F [Representations and Warranties, Limitations of Liability, and Disclaimers]", "md_verbatim": "### Limitation of Liability", "score": 0.4875, "match_basis": "verbatim_token+global_search"}, {"md_atom_id": "md_ch10_a246", "md_file": "knowledge_base/chapters/ch10_appendices.md", "md_atom_type": "HEADING", "md_parent_section": "§10.F [Representations and Warranties, Limitations of Liability, and Disclaimers]", "md_verbatim": "### CDISC Patent Disclaimers", "score": 0.4154, "match_basis": "verbatim_token+global_search"}], "candidate_count": 5, "zero_candidate": false}
{"pdf_atom_id": "sv20_p0074_a003", "pdf_atom_type": "HEADING", "pdf_source": "SDTM_v2.0", "pdf_page": 74, "pdf_parent_section": "Appendix A: Representations and Warranties, Limitations of Liability, and Disclaimers", "pdf_verbatim": "CDISC Patent Disclaimers", "figure_ref": null, "candidates": [{"md_atom_id": "md_ch10_a246", "md_file": "knowledge_base/chapters/ch10_appendices.md", "md_atom_type": "HEADING", "md_parent_section": "§10.F [Representations and Warranties, Limitations of Liability, and Disclaimers]", "md_verbatim": "### CDISC Patent Disclaimers", "score": 0.9, "match_basis": "verbatim_token+global_search"}, {"md_atom_id": "md_ch10_a254", "md_file": "knowledge_base/chapters/ch10_appendices.md", "md_atom_type": "HEADING", "md_parent_section": "§10.F [Representations and Warranties, Limitations of Liability, and Disclaimers]", "md_verbatim": "### No Other Warranties/Disclaimers", "score": 0.516, "match_basis": "verbatim_token+global_search"}, {"md_atom_id": "md_ch10_a245", "md_file": "knowledge_base/chapters/ch10_appendices.md", "md_atom_type": "HEADING", "md_parent_section": "§10 [Appendices]", "md_verbatim": "## Appendix F: Representations and Warranties, Limitations of Liability, and Disclaimers", "score": 0.4154, "match_basis": "verbatim_token+global_search"}, {"md_atom_id": "md_ch10_a003", "md_file": "knowledge_base/chapters/ch10_appendices.md", "md_atom_type": "HEADING", "md_parent_section": "§10 [Appendices]", "md_verbatim": "## Appendix A: CDISC SDS Team", "score": 0.3783, "match_basis": "verbatim_token+global_search"}, {"md_atom_id": "md_ch01_a022", "md_file": "knowledge_base/chapters/ch01_introduction.md", "md_atom_type": "HEADING", "md_parent_section": "§1 [Introduction]", "md_verbatim": "## 1.3 Relationship to Prior CDISC Documents", "score": 0.3727, "match_basis": "verbatim_token+global_search"}], "candidate_count": 5, "zero_candidate": false}
{"pdf_atom_id": "sv20_p0074_a004", "pdf_atom_type": "SENTENCE", "pdf_source": "SDTM_v2.0", "pdf_page": 74, "pdf_parent_section": "CDISC Patent Disclaimers", "pdf_verbatim": "It is possible that implementation of and compliance with this standard may require use of subject matter covered by patent rights.", "figure_ref": null, "candidates": [{"md_atom_id": "md_ch10_a247", "md_file": "knowledge_base/chapters/ch10_appendices.md", "md_atom_type": "SENTENCE", "md_parent_section": "§10.F [Representations and Warranties, Limitations of Liability, and Disclaimers]", "md_verbatim": "It is possible that implementation of and compliance with this standard may require use of subject matter covered by patent rights.", "score": 0.9, "match_basis": "verbatim_token+global_search"}, {"md_atom_id": "md_ch04_a507", "md_file": "knowledge_base/chapters/ch04_general_assumptions.md", "md_atom_type": "SENTENCE", "md_parent_section": "§4.4.1 [Formats for Date/Time Variables]", "md_verbatim": "Implementation of the ISO 8601 standard means that date/time variables are character/text data types.", "score": 0.4468, "match_basis": "verbatim_token+global_search"}, {"md_atom_id": "md_ch10_a248", "md_file": "knowledge_base/chapters/ch10_appendices.md", "md_atom_type": "SENTENCE", "md_parent_section": "§10.F [Representations and Warranties, Limitations of Liability, and Disclaimers]", "md_verbatim": "By publication of this standard, no position is taken with respect to the existence or validity of any claim or of any patent rights in connection therewith.", "score": 0.4429, "match_basis": "verbatim_token+global_search"}, {"md_atom_id": "md_ch10_a249", "md_file": "knowledge_base/chapters/ch10_appendices.md", "md_atom_type": "SENTENCE", "md_parent_section": "§10.F [Representations and Warranties, Limitations of Liability, and Disclaimers]", "md_verbatim": "CDISC, including the CDISC Board of Directors, shall not be responsible for identifying patents for which a license may be required in order to implement this standard or for conducting inquiries into the legal validity or scope of those patents or patent claims that are brought to its attention.", "score": 0.4421, "match_basis": "verbatim_token+global_search"}, {"md_atom_id": "md_ch01_a026", "md_file": "knowledge_base/chapters/ch01_introduction.md", "md_atom_type": "SENTENCE", "md_parent_section": "§1.3 [Relationship to Prior CDISC Documents]", "md_verbatim": "Version 3.1 was the first fully implementation-ready version of the CDISC submission data standards that was directly referenced by the US FDA for use in human clinical studies involving drug products.", "score": 0.4292, "match_basis": "verbatim_token+global_search"}], "candidate_count": 5, "zero_candidate": false}
{"pdf_atom_id": "sv20_p0074_a005", "pdf_atom_type": "SENTENCE", "pdf_source": "SDTM_v2.0", "pdf_page": 74, "pdf_parent_section": "CDISC Patent Disclaimers", "pdf_verbatim": "By publication of this standard, no position is taken with respect to the existence or validity of any claim or of any patent rights in connection therewith.", "figure_ref": null, "candidates": [{"md_atom_id": "md_ch10_a248", "md_file": "knowledge_base/chapters/ch10_appendices.md", "md_atom_type": "SENTENCE", "md_parent_section": "§10.F [Representations and Warranties, Limitations of Liability, and Disclaimers]", "md_verbatim": "By publication of this standard, no position is taken with respect to the existence or validity of any claim or of any patent rights in connection therewith.", "score": 0.9, "match_basis": "verbatim_token+global_search"}, {"md_atom_id": "md_ch10_a247", "md_file": "knowledge_base/chapters/ch10_appendices.md", "md_atom_type": "SENTENCE", "md_parent_section": "§10.F [Representations and Warranties, Limitations of Liability, and Disclaimers]", "md_verbatim": "It is possible that implementation of and compliance with this standard may require use of subject matter covered by patent rights.", "score": 0.4429, "match_basis": "verbatim_token+global_search"}, {"md_atom_id": "md_dmEX_ex_a253", "md_file": "knowledge_base/domains/EX/examples.md", "md_atom_type": "SENTENCE", "md_parent_section": "§EX.8 [Example 8]", "md_verbatim": "In this example, a 100 mg tablet is scheduled to be taken daily. Start and end of dosing were collected, along with deviations from the planned daily dosing. Note: This method of data collection design is not consistent with current CDASH standards.", "score": 0.4209, "match_basis": "verbatim_token+global_search"}, {"md_atom_id": "md_ch10_a249", "md_file": "knowledge_base/chapters/ch10_appendices.md", "md_atom_type": "SENTENCE", "md_parent_section": "§10.F [Representations and Warranties, Limitations of Liability, and Disclaimers]", "md_verbatim": "CDISC, including the CDISC Board of Directors, shall not be responsible for identifying patents for which a license may be required in order to implement this standard or for conducting inquiries into the legal validity or scope of those patents or patent claims that are brought to its attention.", "score": 0.4185, "match_basis": "verbatim_token+global_search"}, {"md_atom_id": "md_dmDS_assn_a030", "md_file": "knowledge_base/domains/DS/assumptions.md", "md_atom_type": "SENTENCE", "md_parent_section": "§DS [DS — Assumptions]", "md_verbatim": "   SUPPDS QNAM = \"DSDECOD1\", SUPPDS QLABEL = \"Standardized Disposition Term 1\", and SUPPDS QVAL = \"WITHDREW CONSENT\"", "score": 0.4113, "match_basis": "verbatim_token+global_search"}], "candidate_count": 5, "zero_candidate": false}
{"pdf_atom_id": "sv20_p0074_a006", "pdf_atom_type": "SENTENCE", "pdf_source": "SDTM_v2.0", "pdf_page": 74, "pdf_parent_section": "CDISC Patent Disclaimers", "pdf_verbatim": "CDISC, including the CDISC Board of Directors, shall not be responsible for identifying patent claims for which a license may be required in order to implement this standard or for conducting inquiries into the legal validity or scope of those patents or patent claims that are brought to its attention.", "figure_ref": null, "candidates": [{"md_atom_id": "md_ch10_a249", "md_file": "knowledge_base/chapters/ch10_appendices.md", "md_atom_type": "SENTENCE", "md_parent_section": "§10.F [Representations and Warranties, Limitations of Liability, and Disclaimers]", "md_verbatim": "CDISC, including the CDISC Board of Directors, shall not be responsible for identifying patents for which a license may be required in order to implement this standard or for conducting inquiries into the legal validity or scope of those patents or patent claims that are brought to its attention.", "score": 0.9, "match_basis": "verbatim_token+global_search"}, {"md_atom_id": "md_ch10_a247", "md_file": "knowledge_base/chapters/ch10_appendices.md", "md_atom_type": "SENTENCE", "md_parent_section": "§10.F [Representations and Warranties, Limitations of Liability, and Disclaimers]", "md_verbatim": "It is possible that implementation of and compliance with this standard may require use of subject matter covered by patent rights.", "score": 0.4421, "match_basis": "verbatim_token+global_search"}, {"md_atom_id": "md_ch10_a253", "md_file": "knowledge_base/chapters/ch10_appendices.md", "md_atom_type": "SENTENCE", "md_parent_section": "§10.F [Representations and Warranties, Limitations of Liability, and Disclaimers]", "md_verbatim": "If a Participant has knowledge that a Contribution made by any Participant or any other party may subject any Contribution, Draft Standard, Final Standard, or implementation, in whole or in part, to one or more of the licensing obligations listed in Section 9.3, such Participant shall give prompt notice of the same to the CDISC President who shall promptly notify all Participants.", "score": 0.4266, "match_basis": "verbatim_token+global_search"}, {"md_atom_id": "md_ch10_a252", "md_file": "knowledge_base/chapters/ch10_appendices.md", "md_atom_type": "SENTENCE", "md_parent_section": "§10.F [Representations and Warranties, Limitations of Liability, and Disclaimers]", "md_verbatim": "Each Participant in the development of this standard shall be deemed to represent, warrant, and covenant, at the time of a Contribution by such Participant (or by its Representative), that to the best of its knowledge and ability: (a) it holds or has the right to grant all relevant licenses to any of its Contributions in all jurisdictions or territories in which it holds relevant intellectual property rights; (b) there are no limits to the Participant's ability to make the grants, acknowledgments, and agreements herein; and (c) the Contribution does not subject any Contribution, Draft Standard, Final Standard, or implementations thereof, in whole or in part, to licensing obligations with additional restrictions or requirements inconsistent with those set forth in the CDISC Intellectual Property Policy (\"the Policy\"), or that would require any such Contribution, Final Standard, or implementation, in whole or in part, to be either: (i) disclosed or distributed in source code form; (ii) licensed for the purpose of making derivative works (other than as set forth in Section 4.2 of the CDISC Intellectual Property Policy); or (iii) distributed at no charge, except as set forth in Sections 3, 5.1, and 4.2 of the Policy.", "score": 0.4193, "match_basis": "verbatim_token+global_search"}, {"md_atom_id": "md_ch10_a248", "md_file": "knowledge_base/chapters/ch10_appendices.md", "md_atom_type": "SENTENCE", "md_parent_section": "§10.F [Representations and Warranties, Limitations of Liability, and Disclaimers]", "md_verbatim": "By publication of this standard, no position is taken with respect to the existence or validity of any claim or of any patent rights in connection therewith.", "score": 0.4185, "match_basis": "verbatim_token+global_search"}], "candidate_count": 5, "zero_candidate": false}
{"pdf_atom_id": "sv20_p0074_a007", "pdf_atom_type": "HEADING", "pdf_source": "SDTM_v2.0", "pdf_page": 74, "pdf_parent_section": "Appendix A: Representations and Warranties, Limitations of Liability, and Disclaimers", "pdf_verbatim": "Representations and Warranties", "figure_ref": null, "candidates": [{"md_atom_id": "md_ch10_a250", "md_file": "knowledge_base/chapters/ch10_appendices.md", "md_atom_type": "HEADING", "md_parent_section": "§10.F [Representations and Warranties, Limitations of Liability, and Disclaimers]", "md_verbatim": "### Representations and Warranties", "score": 0.9, "match_basis": "verbatim_token+global_search"}, {"md_atom_id": "md_ch10_a245", "md_file": "knowledge_base/chapters/ch10_appendices.md", "md_atom_type": "HEADING", "md_parent_section": "§10 [Appendices]", "md_verbatim": "## Appendix F: Representations and Warranties, Limitations of Liability, and Disclaimers", "score": 0.575, "match_basis": "verbatim_token+global_search"}, {"md_atom_id": "md_ch08_a001", "md_file": "knowledge_base/chapters/ch08_relationships.md", "md_atom_type": "HEADING", "md_parent_section": "§8 [Representing Relationships and Data]", "md_verbatim": "# SDTMIG v3.4 — Chapter 8: Representing Relationships and Data", "score": 0.4857, "match_basis": "verbatim_token+global_search"}, {"md_atom_id": "md_ch04_a624", "md_file": "knowledge_base/chapters/ch04_general_assumptions.md", "md_atom_type": "HEADING", "md_parent_section": "§4.4 [Actual and Relative Time Assumptions]", "md_verbatim": "### 4.4.6 Representing Additional Study Days", "score": 0.4714, "match_basis": "verbatim_token+global_search"}, {"md_atom_id": "md_model06_a001", "md_file": "knowledge_base/model/06_relationship_datasets.md", "md_atom_type": "HEADING", "md_parent_section": "§ SDTM v2.0 — Chapter 6: Datasets for Representing Relationships", "md_verbatim": "# SDTM v2.0 — Chapter 6: Datasets for Representing Relationships", "score": 0.46, "match_basis": "verbatim_token+global_search"}], "candidate_count": 5, "zero_candidate": false}
{"pdf_atom_id": "sv20_p0074_a008", "pdf_atom_type": "SENTENCE", "pdf_source": "SDTM_v2.0", "pdf_page": 74, "pdf_parent_section": "Representations and Warranties", "pdf_verbatim": "\"CDISC grants open public use of this User Guide (or Final Standards) under CDISC's copyright.\"", "figure_ref": null, "candidates": [{"md_atom_id": "md_ch10_a251", "md_file": "knowledge_base/chapters/ch10_appendices.md", "md_atom_type": "SENTENCE", "md_parent_section": "§10.F [Representations and Warranties, Limitations of Liability, and Disclaimers]", "md_verbatim": "\"CDISC grants open public use of this User Guide (or Final Standards) under CDISC's copyright.\"", "score": 0.9, "match_basis": "verbatim_token+global_search"}, {"md_atom_id": "md_dmDM_ex_a068", "md_file": "knowledge_base/domains/DM/examples.md", "md_atom_type": "SENTENCE", "md_parent_section": "§DM.4 [Example 4]", "md_verbatim": "See the CDASH Model and Implementation Guide for additional information: https://www.cdisc.org/standards/foundational/cdash.", "score": 0.4139, "match_basis": "verbatim_token+global_search"}, {"md_atom_id": "md_dmDM_ex_a137", "md_file": "knowledge_base/domains/DM/examples.md", "md_atom_type": "SENTENCE", "md_parent_section": "§DM.6 [Example 6]", "md_verbatim": "See the CDASH Model and Implementation Guide for additional information: https://www.cdisc.org/standards/foundational/cdash.", "score": 0.4139, "match_basis": "verbatim_token+global_search"}, {"md_atom_id": "md_ch03_a108", "md_file": "knowledge_base/chapters/ch03_submitting_data.md", "md_atom_type": "SENTENCE", "md_parent_section": "§3.2.1.2 [CDISC Submission Value-level Metadata]", "md_verbatim": "For details on the CDISC Define-XML standard, see https://www.cdisc.org/standards/data-exchange/define-xml.", "score": 0.4015, "match_basis": "verbatim_token+global_search"}, {"md_atom_id": "md_ch10_a248", "md_file": "knowledge_base/chapters/ch10_appendices.md", "md_atom_type": "SENTENCE", "md_parent_section": "§10.F [Representations and Warranties, Limitations of Liability, and Disclaimers]", "md_verbatim": "By publication of this standard, no position is taken with respect to the existence or validity of any claim or of any patent rights in connection therewith.", "score": 0.4, "match_basis": "verbatim_token+global_search"}], "candidate_count": 5, "zero_candidate": false}
{"pdf_atom_id": "sv20_p0074_a009", "pdf_atom_type": "SENTENCE", "pdf_source": "SDTM_v2.0", "pdf_page": 74, "pdf_parent_section": "Representations and Warranties", "pdf_verbatim": "Each Participant in the development of this standard shall be deemed to represent, warrant, and covenant, at the time of a Contribution by such Participant (or by its Representative), that to the best of its knowledge and ability: (a) it holds or has the right to grant all relevant licenses to any of its Contributions in all jurisdictions or territories in which it holds relevant intellectual property rights; (b) there are no limits to the Participant's ability to make the grants, acknowledgments, and agreements herein; and (c) the Contribution does not subject any Contribution, Draft Standard, Final Standard, or implementations thereof, in whole or in part, to licensing obligations with additional restrictions or requirements inconsistent with those set forth in this Policy, or that would require any such Contribution, Final Standard, or implementation, in whole or in part, to be either: (i) disclosed or distributed in source code form; (ii) licensed for the purpose of making derivative works (other than as set forth in Section 4.2 of the CDISC Intellectual Property Policy (\"the Policy\")); or (iii) distributed at no charge, except as set forth in Sections 3, 5.1, and 4.2 of the Policy.", "figure_ref": null, "candidates": [{"md_atom_id": "md_ch10_a252", "md_file": "knowledge_base/chapters/ch10_appendices.md", "md_atom_type": "SENTENCE", "md_parent_section": "§10.F [Representations and Warranties, Limitations of Liability, and Disclaimers]", "md_verbatim": "Each Participant in the development of this standard shall be deemed to represent, warrant, and covenant, at the time of a Contribution by such Participant (or by its Representative), that to the best of its knowledge and ability: (a) it holds or has the right to grant all relevant licenses to any of its Contributions in all jurisdictions or territories in which it holds relevant intellectual property rights; (b) there are no limits to the Participant's ability to make the grants, acknowledgments, and agreements herein; and (c) the Contribution does not subject any Contribution, Draft Standard, Final Standard, or implementations thereof, in whole or in part, to licensing obligations with additional restrictions or requirements inconsistent with those set forth in the CDISC Intellectual Property Policy (\"the Policy\"), or that would require any such Contribution, Final Standard, or implementation, in whole or in part, to be either: (i) disclosed or distributed in source code form; (ii) licensed for the purpose of making derivative works (other than as set forth in Section 4.2 of the CDISC Intellectual Property Policy); or (iii) distributed at no charge, except as set forth in Sections 3, 5.1, and 4.2 of the Policy.", "score": 0.9, "match_basis": "verbatim_token+global_search"}, {"md_atom_id": "md_ch10_a255", "md_file": "knowledge_base/chapters/ch10_appendices.md", "md_atom_type": "SENTENCE", "md_parent_section": "§10.F [Representations and Warranties, Limitations of Liability, and Disclaimers]", "md_verbatim": "ALL PARTICIPANTS ACKNOWLEDGE THAT, EXCEPT AS PROVIDED UNDER SECTION 9.3 OF THE CDISC INTELLECTUAL PROPERTY POLICY, ALL DRAFT STANDARDS AND FINAL STANDARDS, AND ALL CONTRIBUTIONS TO FINAL STANDARDS AND DRAFT STANDARDS, ARE PROVIDED \"AS IS\" WITH NO WARRANTIES WHATSOEVER, WHETHER EXPRESS, IMPLIED, STATUTORY, OR OTHERWISE, AND THE PARTICIPANTS, REPRESENTATIVES, THE CDISC PRESIDENT, THE CDISC BOARD OF DIRECTORS, AND CDISC EXPRESSLY DISCLAIM ANY WARRANTY OF MERCHANTABILITY, NONINFRINGEMENT, FITNESS FOR ANY PARTICULAR OR INTENDED PURPOSE, OR ANY OTHER WARRANTY OTHERWISE ARISING OUT OF ANY PROPOSAL, FINAL STANDARDS OR DRAFT STANDARDS, OR CONTRIBUTION.", "score": 0.515, "match_basis": "verbatim_token+global_search"}, {"md_atom_id": "md_ch10_a253", "md_file": "knowledge_base/chapters/ch10_appendices.md", "md_atom_type": "SENTENCE", "md_parent_section": "§10.F [Representations and Warranties, Limitations of Liability, and Disclaimers]", "md_verbatim": "If a Participant has knowledge that a Contribution made by any Participant or any other party may subject any Contribution, Draft Standard, Final Standard, or implementation, in whole or in part, to one or more of the licensing obligations listed in Section 9.3, such Participant shall give prompt notice of the same to the CDISC President who shall promptly notify all Participants.", "score": 0.4979, "match_basis": "verbatim_token+global_search"}, {"md_atom_id": "md_ch10_a257", "md_file": "knowledge_base/chapters/ch10_appendices.md", "md_atom_type": "SENTENCE", "md_parent_section": "§10.F [Representations and Warranties, Limitations of Liability, and Disclaimers]", "md_verbatim": "IN NO EVENT WILL CDISC OR ANY OF ITS CONSTITUENT PARTS (INCLUDING, BUT NOT LIMITED TO, THE CDISC BOARD OF DIRECTORS, THE CDISC PRESIDENT, CDISC STAFF, AND CDISC MEMBERS) BE LIABLE TO ANY OTHER PERSON OR ENTITY FOR ANY LOSS OF PROFITS, LOSS OF USE, DIRECT, INDIRECT, INCIDENTAL, CONSEQUENTIAL, OR SPECIAL DAMAGES, WHETHER ARISING UNDER CONTRACT, TORT, WARRANTY, OR OTHERWISE, ARISING IN ANY WAY OUT OF THIS POLICY OR ANY RELATED AGREEMENT, WHETHER OR NOT SUCH PARTY HAD ADVANCE NOTICE OF THE POSSIBILITY OF SUCH DAMAGES.", "score": 0.4217, "match_basis": "verbatim_token+global_search"}, {"md_atom_id": "md_ch10_a249", "md_file": "knowledge_base/chapters/ch10_appendices.md", "md_atom_type": "SENTENCE", "md_parent_section": "§10.F [Representations and Warranties, Limitations of Liability, and Disclaimers]", "md_verbatim": "CDISC, including the CDISC Board of Directors, shall not be responsible for identifying patents for which a license may be required in order to implement this standard or for conducting inquiries into the legal validity or scope of those patents or patent claims that are brought to its attention.", "score": 0.4193, "match_basis": "verbatim_token+global_search"}], "candidate_count": 5, "zero_candidate": false}
{"pdf_atom_id": "sv20_p0074_a010", "pdf_atom_type": "SENTENCE", "pdf_source": "SDTM_v2.0", "pdf_page": 74, "pdf_parent_section": "Representations and Warranties", "pdf_verbatim": "If a Participant has knowledge that a Contribution made by any Participant or any other party may subject any Contribution, Draft Standard, Final Standard, or implementation, in whole or in part, to one or more of the licensing obligations listed in Section 9.3, such Participant shall give prompt notice of the same to the CDISC President who shall promptly notify all Participants.", "figure_ref": null, "candidates": [{"md_atom_id": "md_ch10_a253", "md_file": "knowledge_base/chapters/ch10_appendices.md", "md_atom_type": "SENTENCE", "md_parent_section": "§10.F [Representations and Warranties, Limitations of Liability, and Disclaimers]", "md_verbatim": "If a Participant has knowledge that a Contribution made by any Participant or any other party may subject any Contribution, Draft Standard, Final Standard, or implementation, in whole or in part, to one or more of the licensing obligations listed in Section 9.3, such Participant shall give prompt notice of the same to the CDISC President who shall promptly notify all Participants.", "score": 0.9, "match_basis": "verbatim_token+global_search"}, {"md_atom_id": "md_ch10_a252", "md_file": "knowledge_base/chapters/ch10_appendices.md", "md_atom_type": "SENTENCE", "md_parent_section": "§10.F [Representations and Warranties, Limitations of Liability, and Disclaimers]", "md_verbatim": "Each Participant in the development of this standard shall be deemed to represent, warrant, and covenant, at the time of a Contribution by such Participant (or by its Representative), that to the best of its knowledge and ability: (a) it holds or has the right to grant all relevant licenses to any of its Contributions in all jurisdictions or territories in which it holds relevant intellectual property rights; (b) there are no limits to the Participant's ability to make the grants, acknowledgments, and agreements herein; and (c) the Contribution does not subject any Contribution, Draft Standard, Final Standard, or implementations thereof, in whole or in part, to licensing obligations with additional restrictions or requirements inconsistent with those set forth in the CDISC Intellectual Property Policy (\"the Policy\"), or that would require any such Contribution, Final Standard, or implementation, in whole or in part, to be either: (i) disclosed or distributed in source code form; (ii) licensed for the purpose of making derivative works (other than as set forth in Section 4.2 of the CDISC Intellectual Property Policy); or (iii) distributed at no charge, except as set forth in Sections 3, 5.1, and 4.2 of the Policy.", "score": 0.4979, "match_basis": "verbatim_token+global_search"}, {"md_atom_id": "md_ch10_a255", "md_file": "knowledge_base/chapters/ch10_appendices.md", "md_atom_type": "SENTENCE", "md_parent_section": "§10.F [Representations and Warranties, Limitations of Liability, and Disclaimers]", "md_verbatim": "ALL PARTICIPANTS ACKNOWLEDGE THAT, EXCEPT AS PROVIDED UNDER SECTION 9.3 OF THE CDISC INTELLECTUAL PROPERTY POLICY, ALL DRAFT STANDARDS AND FINAL STANDARDS, AND ALL CONTRIBUTIONS TO FINAL STANDARDS AND DRAFT STANDARDS, ARE PROVIDED \"AS IS\" WITH NO WARRANTIES WHATSOEVER, WHETHER EXPRESS, IMPLIED, STATUTORY, OR OTHERWISE, AND THE PARTICIPANTS, REPRESENTATIVES, THE CDISC PRESIDENT, THE CDISC BOARD OF DIRECTORS, AND CDISC EXPRESSLY DISCLAIM ANY WARRANTY OF MERCHANTABILITY, NONINFRINGEMENT, FITNESS FOR ANY PARTICULAR OR INTENDED PURPOSE, OR ANY OTHER WARRANTY OTHERWISE ARISING OUT OF ANY PROPOSAL, FINAL STANDARDS OR DRAFT STANDARDS, OR CONTRIBUTION.", "score": 0.478, "match_basis": "verbatim_token+global_search"}, {"md_atom_id": "md_ch10_a249", "md_file": "knowledge_base/chapters/ch10_appendices.md", "md_atom_type": "SENTENCE", "md_parent_section": "§10.F [Representations and Warranties, Limitations of Liability, and Disclaimers]", "md_verbatim": "CDISC, including the CDISC Board of Directors, shall not be responsible for identifying patents for which a license may be required in order to implement this standard or for conducting inquiries into the legal validity or scope of those patents or patent claims that are brought to its attention.", "score": 0.4266, "match_basis": "verbatim_token+global_search"}, {"md_atom_id": "md_ch04_a253", "md_file": "knowledge_base/chapters/ch04_general_assumptions.md", "md_atom_type": "SENTENCE", "md_parent_section": "§4.2.6 [Grouping Variables and Categorization]", "md_verbatim": "For example, a concomitant medication administered as part of a known combination therapy for all subjects (e.g., \"Mayo Clinic Regimen\") would more appropriately use --CAT/--SCAT to identify the medication as part of that regimen.", "score": 0.4207, "match_basis": "verbatim_token+global_search"}], "candidate_count": 5, "zero_candidate": false}
{"pdf_atom_id": "sv20_p0074_a011", "pdf_atom_type": "SENTENCE", "pdf_source": "SDTM_v2.0", "pdf_page": 74, "pdf_parent_section": "Representations and Warranties", "pdf_verbatim": "No Other Warranties/Disclaimers. ALL PARTICIPANTS ACKNOWLEDGE THAT, EXCEPT AS PROVIDED UNDER SECTION 9.3 OF THE CDISC INTELLECTUAL PROPERTY POLICY, ALL DRAFT STANDARDS AND FINAL STANDARDS, AND ALL CONTRIBUTIONS TO FINAL STANDARDS AND DRAFT STANDARDS, ARE PROVIDED \"AS IS\" WITH NO WARRANTIES WHATSOEVER, WHETHER EXPRESS, IMPLIED, STATUTORY, OR OTHERWISE, AND THE PARTICIPANTS, REPRESENTATIVES, THE CDISC PRESIDENT, THE CDISC BOARD OF DIRECTORS, AND CDISC EXPRESSLY DISCLAIM ANY WARRANTY OF MERCHANTABILITY, NONINFRINGEMENT, FITNESS FOR ANY PARTICULAR OR INTENDED PURPOSE, OR ANY OTHER WARRANTY OTHERWISE ARISING OUT OF ANY PROPOSAL, FINAL STANDARDS OR DRAFT STANDARDS, OR CONTRIBUTION.", "figure_ref": null, "candidates": [{"md_atom_id": "md_ch10_a255", "md_file": "knowledge_base/chapters/ch10_appendices.md", "md_atom_type": "SENTENCE", "md_parent_section": "§10.F [Representations and Warranties, Limitations of Liability, and Disclaimers]", "md_verbatim": "ALL PARTICIPANTS ACKNOWLEDGE THAT, EXCEPT AS PROVIDED UNDER SECTION 9.3 OF THE CDISC INTELLECTUAL PROPERTY POLICY, ALL DRAFT STANDARDS AND FINAL STANDARDS, AND ALL CONTRIBUTIONS TO FINAL STANDARDS AND DRAFT STANDARDS, ARE PROVIDED \"AS IS\" WITH NO WARRANTIES WHATSOEVER, WHETHER EXPRESS, IMPLIED, STATUTORY, OR OTHERWISE, AND THE PARTICIPANTS, REPRESENTATIVES, THE CDISC PRESIDENT, THE CDISC BOARD OF DIRECTORS, AND CDISC EXPRESSLY DISCLAIM ANY WARRANTY OF MERCHANTABILITY, NONINFRINGEMENT, FITNESS FOR ANY PARTICULAR OR INTENDED PURPOSE, OR ANY OTHER WARRANTY OTHERWISE ARISING OUT OF ANY PROPOSAL, FINAL STANDARDS OR DRAFT STANDARDS, OR CONTRIBUTION.", "score": 0.8941, "match_basis": "verbatim_token+global_search"}, {"md_atom_id": "md_ch10_a252", "md_file": "knowledge_base/chapters/ch10_appendices.md", "md_atom_type": "SENTENCE", "md_parent_section": "§10.F [Representations and Warranties, Limitations of Liability, and Disclaimers]", "md_verbatim": "Each Participant in the development of this standard shall be deemed to represent, warrant, and covenant, at the time of a Contribution by such Participant (or by its Representative), that to the best of its knowledge and ability: (a) it holds or has the right to grant all relevant licenses to any of its Contributions in all jurisdictions or territories in which it holds relevant intellectual property rights; (b) there are no limits to the Participant's ability to make the grants, acknowledgments, and agreements herein; and (c) the Contribution does not subject any Contribution, Draft Standard, Final Standard, or implementations thereof, in whole or in part, to licensing obligations with additional restrictions or requirements inconsistent with those set forth in the CDISC Intellectual Property Policy (\"the Policy\"), or that would require any such Contribution, Final Standard, or implementation, in whole or in part, to be either: (i) disclosed or distributed in source code form; (ii) licensed for the purpose of making derivative works (other than as set forth in Section 4.2 of the CDISC Intellectual Property Policy); or (iii) distributed at no charge, except as set forth in Sections 3, 5.1, and 4.2 of the Policy.", "score": 0.5161, "match_basis": "verbatim_token+global_search"}, {"md_atom_id": "md_ch10_a253", "md_file": "knowledge_base/chapters/ch10_appendices.md", "md_atom_type": "SENTENCE", "md_parent_section": "§10.F [Representations and Warranties, Limitations of Liability, and Disclaimers]", "md_verbatim": "If a Participant has knowledge that a Contribution made by any Participant or any other party may subject any Contribution, Draft Standard, Final Standard, or implementation, in whole or in part, to one or more of the licensing obligations listed in Section 9.3, such Participant shall give prompt notice of the same to the CDISC President who shall promptly notify all Participants.", "score": 0.4766, "match_basis": "verbatim_token+global_search"}, {"md_atom_id": "md_ch10_a257", "md_file": "knowledge_base/chapters/ch10_appendices.md", "md_atom_type": "SENTENCE", "md_parent_section": "§10.F [Representations and Warranties, Limitations of Liability, and Disclaimers]", "md_verbatim": "IN NO EVENT WILL CDISC OR ANY OF ITS CONSTITUENT PARTS (INCLUDING, BUT NOT LIMITED TO, THE CDISC BOARD OF DIRECTORS, THE CDISC PRESIDENT, CDISC STAFF, AND CDISC MEMBERS) BE LIABLE TO ANY OTHER PERSON OR ENTITY FOR ANY LOSS OF PROFITS, LOSS OF USE, DIRECT, INDIRECT, INCIDENTAL, CONSEQUENTIAL, OR SPECIAL DAMAGES, WHETHER ARISING UNDER CONTRACT, TORT, WARRANTY, OR OTHERWISE, ARISING IN ANY WAY OUT OF THIS POLICY OR ANY RELATED AGREEMENT, WHETHER OR NOT SUCH PARTY HAD ADVANCE NOTICE OF THE POSSIBILITY OF SUCH DAMAGES.", "score": 0.4567, "match_basis": "verbatim_token+global_search"}, {"md_atom_id": "md_ch10_a249", "md_file": "knowledge_base/chapters/ch10_appendices.md", "md_atom_type": "SENTENCE", "md_parent_section": "§10.F [Representations and Warranties, Limitations of Liability, and Disclaimers]", "md_verbatim": "CDISC, including the CDISC Board of Directors, shall not be responsible for identifying patents for which a license may be required in order to implement this standard or for conducting inquiries into the legal validity or scope of those patents or patent claims that are brought to its attention.", "score": 0.4113, "match_basis": "verbatim_token+global_search"}], "candidate_count": 5, "zero_candidate": false}
{"pdf_atom_id": "sv20_p0074_a012", "pdf_atom_type": "HEADING", "pdf_source": "SDTM_v2.0", "pdf_page": 74, "pdf_parent_section": "Appendix A: Representations and Warranties, Limitations of Liability, and Disclaimers", "pdf_verbatim": "Limitation of Liability", "figure_ref": null, "candidates": [{"md_atom_id": "md_ch10_a256", "md_file": "knowledge_base/chapters/ch10_appendices.md", "md_atom_type": "HEADING", "md_parent_section": "§10.F [Representations and Warranties, Limitations of Liability, and Disclaimers]", "md_verbatim": "### Limitation of Liability", "score": 0.9, "match_basis": "verbatim_token+global_search"}, {"md_atom_id": "md_ch10_a245", "md_file": "knowledge_base/chapters/ch10_appendices.md", "md_atom_type": "HEADING", "md_parent_section": "§10 [Appendices]", "md_verbatim": "## Appendix F: Representations and Warranties, Limitations of Liability, and Disclaimers", "score": 0.4875, "match_basis": "verbatim_token+global_search"}, {"md_atom_id": "md_varindex_a346", "md_file": "knowledge_base/VARIABLE_INDEX.md", "md_atom_type": "HEADING", "md_parent_section": "§ 二、领域专属变量（仅 1 个域，共 1499 个），按域分组", "md_verbatim": "### DA — Product Accountability (Findings)", "score": 0.3909, "match_basis": "verbatim_token+global_search"}, {"md_atom_id": "md_ch02_a003", "md_file": "knowledge_base/chapters/ch02_fundamentals.md", "md_atom_type": "HEADING", "md_parent_section": "§2 [Fundamentals of the SDTM]", "md_verbatim": "## 2.1 Observations and Variables", "score": 0.3828, "match_basis": "verbatim_token+global_search"}, {"md_atom_id": "md_ch04_a012", "md_file": "knowledge_base/chapters/ch04_general_assumptions.md", "md_atom_type": "HEADING", "md_parent_section": "§4.1 [General Domain Assumptions]", "md_verbatim": "### 4.1.3 Additional Timing Variables", "score": 0.38, "match_basis": "verbatim_token+global_search"}], "candidate_count": 5, "zero_candidate": false}
{"pdf_atom_id": "sv20_p0074_a013", "pdf_atom_type": "SENTENCE", "pdf_source": "SDTM_v2.0", "pdf_page": 74, "pdf_parent_section": "Limitation of Liability", "pdf_verbatim": "IN NO EVENT WILL CDISC OR ANY OF ITS CONSTITUENT PARTS (INCLUDING, BUT NOT LIMITED TO, THE CDISC BOARD OF DIRECTORS, THE CDISC PRESIDENT, CDISC STAFF, AND CDISC MEMBERS) BE LIABLE TO ANY OTHER PERSON OR ENTITY FOR ANY LOSS OF PROFITS, LOSS OF USE, DIRECT, INDIRECT, INCIDENTAL, CONSEQUENTIAL, OR SPECIAL DAMAGES, WHETHER UNDER CONTRACT, TORT, WARRANTY, OR OTHERWISE, ARISING IN ANY WAY OUT OF THIS POLICY OR ANY RELATED AGREEMENT, WHETHER OR NOT SUCH PARTY HAD ADVANCE NOTICE OF THE POSSIBILITY OF SUCH DAMAGES.", "figure_ref": null, "candidates": [{"md_atom_id": "md_ch10_a257", "md_file": "knowledge_base/chapters/ch10_appendices.md", "md_atom_type": "SENTENCE", "md_parent_section": "§10.F [Representations and Warranties, Limitations of Liability, and Disclaimers]", "md_verbatim": "IN NO EVENT WILL CDISC OR ANY OF ITS CONSTITUENT PARTS (INCLUDING, BUT NOT LIMITED TO, THE CDISC BOARD OF DIRECTORS, THE CDISC PRESIDENT, CDISC STAFF, AND CDISC MEMBERS) BE LIABLE TO ANY OTHER PERSON OR ENTITY FOR ANY LOSS OF PROFITS, LOSS OF USE, DIRECT, INDIRECT, INCIDENTAL, CONSEQUENTIAL, OR SPECIAL DAMAGES, WHETHER ARISING UNDER CONTRACT, TORT, WARRANTY, OR OTHERWISE, ARISING IN ANY WAY OUT OF THIS POLICY OR ANY RELATED AGREEMENT, WHETHER OR NOT SUCH PARTY HAD ADVANCE NOTICE OF THE POSSIBILITY OF SUCH DAMAGES.", "score": 0.9, "match_basis": "verbatim_token+global_search"}, {"md_atom_id": "md_ch10_a255", "md_file": "knowledge_base/chapters/ch10_appendices.md", "md_atom_type": "SENTENCE", "md_parent_section": "§10.F [Representations and Warranties, Limitations of Liability, and Disclaimers]", "md_verbatim": "ALL PARTICIPANTS ACKNOWLEDGE THAT, EXCEPT AS PROVIDED UNDER SECTION 9.3 OF THE CDISC INTELLECTUAL PROPERTY POLICY, ALL DRAFT STANDARDS AND FINAL STANDARDS, AND ALL CONTRIBUTIONS TO FINAL STANDARDS AND DRAFT STANDARDS, ARE PROVIDED \"AS IS\" WITH NO WARRANTIES WHATSOEVER, WHETHER EXPRESS, IMPLIED, STATUTORY, OR OTHERWISE, AND THE PARTICIPANTS, REPRESENTATIVES, THE CDISC PRESIDENT, THE CDISC BOARD OF DIRECTORS, AND CDISC EXPRESSLY DISCLAIM ANY WARRANTY OF MERCHANTABILITY, NONINFRINGEMENT, FITNESS FOR ANY PARTICULAR OR INTENDED PURPOSE, OR ANY OTHER WARRANTY OTHERWISE ARISING OUT OF ANY PROPOSAL, FINAL STANDARDS OR DRAFT STANDARDS, OR CONTRIBUTION.", "score": 0.4552, "match_basis": "verbatim_token+global_search"}, {"md_atom_id": "md_ch10_a252", "md_file": "knowledge_base/chapters/ch10_appendices.md", "md_atom_type": "SENTENCE", "md_parent_section": "§10.F [Representations and Warranties, Limitations of Liability, and Disclaimers]", "md_verbatim": "Each Participant in the development of this standard shall be deemed to represent, warrant, and covenant, at the time of a Contribution by such Participant (or by its Representative), that to the best of its knowledge and ability: (a) it holds or has the right to grant all relevant licenses to any of its Contributions in all jurisdictions or territories in which it holds relevant intellectual property rights; (b) there are no limits to the Participant's ability to make the grants, acknowledgments, and agreements herein; and (c) the Contribution does not subject any Contribution, Draft Standard, Final Standard, or implementations thereof, in whole or in part, to licensing obligations with additional restrictions or requirements inconsistent with those set forth in the CDISC Intellectual Property Policy (\"the Policy\"), or that would require any such Contribution, Final Standard, or implementation, in whole or in part, to be either: (i) disclosed or distributed in source code form; (ii) licensed for the purpose of making derivative works (other than as set forth in Section 4.2 of the CDISC Intellectual Property Policy); or (iii) distributed at no charge, except as set forth in Sections 3, 5.1, and 4.2 of the Policy.", "score": 0.4217, "match_basis": "verbatim_token+global_search"}, {"md_atom_id": "md_ch10_a249", "md_file": "knowledge_base/chapters/ch10_appendices.md", "md_atom_type": "SENTENCE", "md_parent_section": "§10.F [Representations and Warranties, Limitations of Liability, and Disclaimers]", "md_verbatim": "CDISC, including the CDISC Board of Directors, shall not be responsible for identifying patents for which a license may be required in order to implement this standard or for conducting inquiries into the legal validity or scope of those patents or patent claims that are brought to its attention.", "score": 0.4145, "match_basis": "verbatim_token+global_search"}, {"md_atom_id": "md_ch04_a175", "md_file": "knowledge_base/chapters/ch04_general_assumptions.md", "md_atom_type": "SENTENCE", "md_parent_section": "§4.2.1 [Variable-Naming Conventions]", "md_verbatim": "Values of --TESTCD must be limited to 8 characters and cannot start with a number, nor can they contain characters other than letters, numbers, or underscores. This is to avoid possible incompatibility with SAS v5 transport files. This limitation will be in effect until the use of other formats (e.g., Dataset-XML) becomes acceptable to regulatory authorities.", "score": 0.4118, "match_basis": "verbatim_token+global_search"}], "candidate_count": 5, "zero_candidate": false}
{"pdf_atom_id": "sv20_p0074_a014", "pdf_atom_type": "NOTE", "pdf_source": "SDTM_v2.0", "pdf_page": 74, "pdf_parent_section": "Limitation of Liability", "pdf_verbatim": "Note: The CDISC Intellectual Property Policy can be found at http://www.cdisc.org/system/files/all/article/application/pdf/cdisc_20ip_20policy_final.pdf", "figure_ref": null, "candidates": [{"md_atom_id": "md_ch10_a258", "md_file": "knowledge_base/chapters/ch10_appendices.md", "md_atom_type": "SENTENCE", "md_parent_section": "§10.F [Representations and Warranties, Limitations of Liability, and Disclaimers]", "md_verbatim": "Note: The CDISC Intellectual Property Policy can be found at http://www.cdisc.org/system/files/all/article/application/pdf/cdisc_20ip_20policy_final.pdf", "score": 0.81, "match_basis": "verbatim_token+global_search"}, {"md_atom_id": "md_ch04_a473", "md_file": "knowledge_base/chapters/ch04_general_assumptions.md", "md_atom_type": "NOTE", "md_parent_section": "§4.3.7 [Use of \"Yes\" and \"No\" Values]", "md_verbatim": "> **Note:** Permissible values for variables with controlled terms of \"Y\" or \"N\" may be extended to include \"U\" or \"NA\" if it is the sponsor's practice to explicitly collect or derive values indicating \"Unknown\" or \"Not Applicable\" for that variable.", "score": 0.3696, "match_basis": "verbatim_token+global_search"}, {"md_atom_id": "md_dmVS_ex_a008", "md_file": "knowledge_base/domains/VS/examples.md", "md_atom_type": "NOTE", "md_parent_section": "§VS.1 [Example 1]", "md_verbatim": "**Row 13:** Shows the proper use of the --STAT variable to indicate \"NOT DONE\" where a reason was collected when a test was not done.", "score": 0.368, "match_basis": "verbatim_token+global_search"}, {"md_atom_id": "md_ch04_a726", "md_file": "knowledge_base/chapters/ch04_general_assumptions.md", "md_atom_type": "NOTE", "md_parent_section": "§4.4.10 [Representing Time Points]", "md_verbatim": "> Note that the value in LBELTM represents the end of the specimen collection interval.", "score": 0.3645, "match_basis": "verbatim_token+global_search"}, {"md_atom_id": "md_dmTS_ex_a072", "md_file": "knowledge_base/domains/TS/examples.md", "md_atom_type": "NOTE", "md_parent_section": "§TS.3 [Example 3]", "md_verbatim": "**Row 2:** Shows that trial phase classification is not applicable, as indicated by TSVALNF=\"NA\".", "score": 0.3632, "match_basis": "verbatim_token+global_search"}], "candidate_count": 5, "zero_candidate": false}
{"pdf_atom_id": "sv20_p0050_a001", "pdf_atom_type": "HEADING", "pdf_source": "SDTM_v2.0", "pdf_page": 50, "pdf_parent_section": "§4 [ASSOCIATED PERSONS DATA]", "pdf_verbatim": "4 Associated Persons Data", "figure_ref": null, "candidates": [{"md_atom_id": "md_ch04_a213", "md_file": "knowledge_base/chapters/ch04_general_assumptions.md", "md_atom_type": "HEADING", "md_parent_section": "§4.2 [General Variable Assumptions]", "md_verbatim": "### 4.2.4 Text Case in Submitted Data", "score": 0.372, "match_basis": "verbatim_token+chapter_route:ch04"}, {"md_atom_id": "md_ch04_a135", "md_file": "knowledge_base/chapters/ch04_general_assumptions.md", "md_atom_type": "HEADING", "md_parent_section": "§4.1.9 [Assigning Natural Keys in the Metadata]", "md_verbatim": "### 4.1.9 Assigning Natural Keys in the Metadata", "score": 0.3545, "match_basis": "verbatim_token+chapter_route:ch04"}, {"md_atom_id": "md_ch04_a010", "md_file": "knowledge_base/chapters/ch04_general_assumptions.md", "md_atom_type": "HEADING", "md_parent_section": "§4.1 [General Domain Assumptions]", "md_verbatim": "### 4.1.2 Relationship to Analysis Datasets", "score": 0.3529, "match_basis": "verbatim_token+chapter_route:ch04"}, {"md_atom_id": "md_ch04_a123", "md_file": "knowledge_base/chapters/ch04_general_assumptions.md", "md_atom_type": "HEADING", "md_parent_section": "§4.1.8 [Origin Metadata]", "md_verbatim": "### 4.1.8 Origin Metadata", "score": 0.3522, "match_basis": "verbatim_token+chapter_route:ch04"}, {"md_atom_id": "md_ch04_a509", "md_file": "knowledge_base/chapters/ch04_general_assumptions.md", "md_atom_type": "HEADING", "md_parent_section": "§4.4 [Actual and Relative Time Assumptions]", "md_verbatim": "### 4.4.2 Date/Time Precision", "score": 0.35, "match_basis": "verbatim_token+chapter_route:ch04"}], "candidate_count": 5, "zero_candidate": false}
{"pdf_atom_id": "sv20_p0050_a002", "pdf_atom_type": "SENTENCE", "pdf_source": "SDTM_v2.0", "pdf_page": 50, "pdf_parent_section": "§4 [ASSOCIATED PERSONS DATA]", "pdf_verbatim": "Associated persons are individuals other than study subjects who can be associated with a study, a particular study subject, or a device used in the study.", "figure_ref": null, "candidates": [{"md_atom_id": "md_ch04_a024", "md_file": "knowledge_base/chapters/ch04_general_assumptions.md", "md_atom_type": "SENTENCE", "md_parent_section": "§4.1.3.1 [EPOCH Variable Guidance]", "md_verbatim": "Because EPOCH is a study-design construct, it is not applicable to interventions or events that started before the subject's participation in a study, nor to findings performed before participation in a study.", "score": 0.4034, "match_basis": "verbatim_token+chapter_route:ch04"}, {"md_atom_id": "md_ch04_a1020", "md_file": "knowledge_base/chapters/ch04_general_assumptions.md", "md_atom_type": "SENTENCE", "md_parent_section": "§4.5.8 [Accounting for Long-term Follow-up]", "md_verbatim": "For example, if the subject's survival status is \"dead\", then this indicates that the subject has ceased participation in the study, so a study discontinuation record would need to be created.", "score": 0.4, "match_basis": "verbatim_token+chapter_route:ch04"}, {"md_atom_id": "md_ch04_a778", "md_file": "knowledge_base/chapters/ch04_general_assumptions.md", "md_atom_type": "SENTENCE", "md_parent_section": "§4.4.11 [Disease Milestones and Disease Milestone Timing Variables]", "md_verbatim": "The types of disease milestones for a study are defined in the study-level Trial Disease Milestones (TM) dataset; the times at which disease milestones occurred for a particular subject are summarized in the special-purpose Subject Disease Milestones (SM) domain.", "score": 0.3958, "match_basis": "verbatim_token+chapter_route:ch04"}, {"md_atom_id": "md_ch04_a070", "md_file": "knowledge_base/chapters/ch04_general_assumptions.md", "md_atom_type": "SENTENCE", "md_parent_section": "§4.1.7.1 [Example of Splitting Questionnaires]", "md_verbatim": "QRS datasets are routinely created and reviewed for the individual QRS instrument.", "score": 0.3897, "match_basis": "verbatim_token+chapter_route:ch04"}, {"md_atom_id": "md_ch04_a810", "md_file": "knowledge_base/chapters/ch04_general_assumptions.md", "md_atom_type": "SENTENCE", "md_parent_section": "§4.4.11 [Disease Milestones and Disease Milestone Timing Variables]", "md_verbatim": "When disease milestones have been defined for a study, the MIDS variable serves to link observations associated with a disease milestone in a way similar to how VISITNUM links observations collected at a visit.", "score": 0.3864, "match_basis": "verbatim_token+chapter_route:ch04"}], "candidate_count": 5, "zero_candidate": false}
{"pdf_atom_id": "sv20_p0050_a003", "pdf_atom_type": "SENTENCE", "pdf_source": "SDTM_v2.0", "pdf_page": 50, "pdf_parent_section": "§4 [ASSOCIATED PERSONS DATA]", "pdf_verbatim": "The structures of SDTM datasets that represent data about associated persons are based on the structures for data about study subjects, either general observation class structures or special-purpose domain structures.", "figure_ref": null, "candidates": [{"md_atom_id": "md_ch04_a044", "md_file": "knowledge_base/chapters/ch04_general_assumptions.md", "md_atom_type": "SENTENCE", "md_parent_section": "§4.1.6 [Additional Guidance on Dataset Naming]", "md_verbatim": "Exceptions to this rule are described in Section 4.1.7, Splitting Domains, for general observation class datasets and in Section 8, Representing Relationships and Data, for RELREC and SUPP-- datasets.", "score": 0.481, "match_basis": "verbatim_token+chapter_route:ch04"}, {"md_atom_id": "md_ch04_a009", "md_file": "knowledge_base/chapters/ch04_general_assumptions.md", "md_atom_type": "SENTENCE", "md_parent_section": "§4.1.1 [Review Study Data Tabulation Model and Implementation Guide]", "md_verbatim": "The SDTM describes the general conceptual framework, including the general observation classes (Interventions, Events, Findings), special-purpose domains, trial design model datasets, relationship datasets, and study references.", "score": 0.4776, "match_basis": "verbatim_token+chapter_route:ch04"}, {"md_atom_id": "md_ch04_a682", "md_file": "knowledge_base/chapters/ch04_general_assumptions.md", "md_atom_type": "SENTENCE", "md_parent_section": "§4.4.8 [Date and Time Reported in a Domain Based on Findings]", "md_verbatim": "For any domain based on the Findings general observation class (e.g., lab tests based on a specimen), the collection date is likely to be tied to when the source of the finding was captured, not necessarily when the data were recorded.", "score": 0.45, "match_basis": "verbatim_token+chapter_route:ch04"}, {"md_atom_id": "md_ch04_a980", "md_file": "knowledge_base/chapters/ch04_general_assumptions.md", "md_atom_type": "SENTENCE", "md_parent_section": "§4.5.6 [Supplemental Reason Variables]", "md_verbatim": "For the Findings general observation class, --REASPF is available to represent the reason a test was performed.", "score": 0.45, "match_basis": "verbatim_token+chapter_route:ch04"}, {"md_atom_id": "md_ch04_a475", "md_file": "knowledge_base/chapters/ch04_general_assumptions.md", "md_atom_type": "SENTENCE", "md_parent_section": "§4.4 [Actual and Relative Time Assumptions]", "md_verbatim": "Timing variables (SDTM Section 3.1.5, Timing Variables for All Classes) are an essential component of all SDTM subject-level domain datasets.", "score": 0.4421, "match_basis": "verbatim_token+chapter_route:ch04"}], "candidate_count": 5, "zero_candidate": false}
{"pdf_atom_id": "sv20_p0050_a004", "pdf_atom_type": "SENTENCE", "pdf_source": "SDTM_v2.0", "pdf_page": 50, "pdf_parent_section": "§4 [ASSOCIATED PERSONS DATA]", "pdf_verbatim": "AP domains are created using SDTM variables, with the application of specific AP rules, including:", "figure_ref": null, "candidates": [{"md_atom_id": "md_ch04_a029", "md_file": "knowledge_base/chapters/ch04_general_assumptions.md", "md_atom_type": "SENTENCE", "md_parent_section": "§4.1.4 [Order of the Variables]", "md_verbatim": "The order of variables in CDISC domain models has been chosen to facilitate the review of the models and application of the models.", "score": 0.4692, "match_basis": "verbatim_token+chapter_route:ch04"}, {"md_atom_id": "md_ch04_a014", "md_file": "knowledge_base/chapters/ch04_general_assumptions.md", "md_atom_type": "SENTENCE", "md_parent_section": "§4.1.3 [Additional Timing Variables]", "md_verbatim": "Timing variables can be added to special-purpose domains only where specified in the SDTMIG domain model assumptions.", "score": 0.4683, "match_basis": "verbatim_token+chapter_route:ch04"}, {"md_atom_id": "md_ch04_a684", "md_file": "knowledge_base/chapters/ch04_general_assumptions.md", "md_atom_type": "SENTENCE", "md_parent_section": "§4.4.8 [Date and Time Reported in a Domain Based on Findings]", "md_verbatim": "**LB domain specific rules:**", "score": 0.4592, "match_basis": "verbatim_token+chapter_route:ch04"}, {"md_atom_id": "md_ch04_a990", "md_file": "knowledge_base/chapters/ch04_general_assumptions.md", "md_atom_type": "SENTENCE", "md_parent_section": "§4.5.7 [Presence or Absence of Prespecified Interventions and Events]", "md_verbatim": "The --PRESP variable is used to indicate whether a specific intervention (--TRT) or event (--TERM) was solicited.", "score": 0.4538, "match_basis": "verbatim_token+chapter_route:ch04"}, {"md_atom_id": "md_ch04_a017", "md_file": "knowledge_base/chapters/ch04_general_assumptions.md", "md_atom_type": "SENTENCE", "md_parent_section": "§4.1.3.1 [EPOCH Variable Guidance]", "md_verbatim": "When EPOCH is included in a Findings class domain, it should be based on the --DTC variable, since this is the date/time of the test or, for tests performed on specimens, the date/time of specimen collection.", "score": 0.45, "match_basis": "verbatim_token+chapter_route:ch04"}], "candidate_count": 5, "zero_candidate": false}
{"pdf_atom_id": "sv20_p0050_a005", "pdf_atom_type": "LIST_ITEM", "pdf_source": "SDTM_v2.0", "pdf_page": 50, "pdf_parent_section": "§4 [ASSOCIATED PERSONS DATA]", "pdf_verbatim": "Implementers creating AP domains will follow the AP assumptions for the Identifier variables.", "figure_ref": null, "candidates": [{"md_atom_id": "md_ch04_a038", "md_file": "knowledge_base/chapters/ch04_general_assumptions.md", "md_atom_type": "LIST_ITEM", "md_parent_section": "§4.1.5 [SDTM Core Designations]", "md_verbatim": "- Domain assumptions that say a Permissible variable is \"generally not used\" do not prohibit use of the variable.", "score": 0.4519, "match_basis": "verbatim_token+chapter_route:ch04"}, {"md_atom_id": "md_ch04_a449", "md_file": "knowledge_base/chapters/ch04_general_assumptions.md", "md_atom_type": "LIST_ITEM", "md_parent_section": "§4.3.5 [Storing Controlled Terminology for Synonym Qualifier Variables (MedDRA and WHODrug)]", "md_verbatim": "- If coding to multiple classes, follow Section 4.2.8.1 (Multiple Values for an Intervention or Event Topic Variable), or omit CMCLAS", "score": 0.4446, "match_basis": "verbatim_token+chapter_route:ch04"}, {"md_atom_id": "md_ch04_a450", "md_file": "knowledge_base/chapters/ch04_general_assumptions.md", "md_atom_type": "LIST_ITEM", "md_parent_section": "§4.3.5 [Storing Controlled Terminology for Synonym Qualifier Variables (MedDRA and WHODrug)]", "md_verbatim": "- For concomitant medications, supplemental qualifiers may be used to represent additional coding dictionary information (e.g., a drug's ATC codes from the WHO Drug Dictionary); see Section 8.4, Relating Non-standard Variable Values to a Parent Domain", "score": 0.4256, "match_basis": "verbatim_token+chapter_route:ch04"}, {"md_atom_id": "md_ch04_a242", "md_file": "knowledge_base/chapters/ch04_general_assumptions.md", "md_atom_type": "LIST_ITEM", "md_parent_section": "§4.2.6 [Grouping Variables and Categorization]", "md_verbatim": "- --LNKID is a grouping identifier used to identify a record in one domain that is related to records in another domain, often forming a one-to-many relationship.", "score": 0.4253, "match_basis": "verbatim_token+chapter_route:ch04"}, {"md_atom_id": "md_ch04_a195", "md_file": "knowledge_base/chapters/ch04_general_assumptions.md", "md_atom_type": "SENTENCE", "md_parent_section": "§4.2.2 [Two-character Domain Identifier]", "md_verbatim": "The following variables are exceptions to the philosophy that all variable names are prefixed with the domain identifier:", "score": 0.4248, "match_basis": "verbatim_token+chapter_route:ch04"}], "candidate_count": 5, "zero_candidate": false}
{"pdf_atom_id": "sv20_p0050_a006", "pdf_atom_type": "LIST_ITEM", "pdf_source": "SDTM_v2.0", "pdf_page": 50, "pdf_parent_section": "§4 [ASSOCIATED PERSONS DATA]", "pdf_verbatim": "AP will be the prefix for the domain and dataset name, and will identify the dataset as AP data.", "figure_ref": null, "candidates": [{"md_atom_id": "md_ch04_a196", "md_file": "knowledge_base/chapters/ch04_general_assumptions.md", "md_atom_type": "LIST_ITEM", "md_parent_section": "§4.2.2 [Two-character Domain Identifier]", "md_verbatim": "- Required Identifiers (STUDYID, DOMAIN, USUBJID)", "score": 0.4174, "match_basis": "verbatim_token+chapter_route:ch04"}, {"md_atom_id": "md_ch04_a246", "md_file": "knowledge_base/chapters/ch04_general_assumptions.md", "md_atom_type": "LIST_ITEM", "md_parent_section": "§4.2.6 [Grouping Variables and Categorization]", "md_verbatim": "1. --CAT/--SCAT are known (identified) about the data before it is collected.", "score": 0.4125, "match_basis": "verbatim_token+chapter_route:ch04"}, {"md_atom_id": "md_ch04_a054", "md_file": "knowledge_base/chapters/ch04_general_assumptions.md", "md_atom_type": "LIST_ITEM", "md_parent_section": "§4.1.7 [Splitting Domains]", "md_verbatim": "1. The value of DOMAIN must be consistent across the separate datasets as it would have been if they had not been split (e.g., QS, FA).", "score": 0.4065, "match_basis": "verbatim_token+chapter_route:ch04"}, {"md_atom_id": "md_ch04_a060", "md_file": "knowledge_base/chapters/ch04_general_assumptions.md", "md_atom_type": "LIST_ITEM", "md_parent_section": "§4.1.7 [Splitting Domains]", "md_verbatim": "7. Supplemental Qualifier datasets for split domains would also be split. The nomenclature would include the additional 1 to 2 characters used to identify the split dataset (e.g., SUPPQS36, SUPPFACM). The value of RDOMAIN in the SUPP-- datasets would be the 2-character domain code (e.g., QS, FA).", "score": 0.4052, "match_basis": "verbatim_token+chapter_route:ch04"}, {"md_atom_id": "md_ch04_a055", "md_file": "knowledge_base/chapters/ch04_general_assumptions.md", "md_atom_type": "LIST_ITEM", "md_parent_section": "§4.1.7 [Splitting Domains]", "md_verbatim": "2. All variables that require a domain prefix (e.g., --TESTCD, --LOC) must use the value of DOMAIN as the prefix value (e.g., QS, FA).", "score": 0.4038, "match_basis": "verbatim_token+chapter_route:ch04"}], "candidate_count": 5, "zero_candidate": false}
{"pdf_atom_id": "sv20_p0050_a007", "pdf_atom_type": "LIST_ITEM", "pdf_source": "SDTM_v2.0", "pdf_page": 50, "pdf_parent_section": "§4 [ASSOCIATED PERSONS DATA]", "pdf_verbatim": "The Associated Persons Identifier (APID) will be required in all AP datasets, and will identify records as AP data.", "figure_ref": null, "candidates": [{"md_atom_id": "md_ch04_a066", "md_file": "knowledge_base/chapters/ch04_general_assumptions.md", "md_atom_type": "LIST_ITEM", "md_parent_section": "§4.1.7 [Splitting Domains]", "md_verbatim": "9. See the SDTM Implementation Guide: Associated Persons (https://www.cdisc.org/standards/foundational/sdtmig/) for the naming of split AP datasets.", "score": 0.46, "match_basis": "verbatim_token+chapter_route:ch04"}, {"md_atom_id": "md_ch04_a196", "md_file": "knowledge_base/chapters/ch04_general_assumptions.md", "md_atom_type": "LIST_ITEM", "md_parent_section": "§4.2.2 [Two-character Domain Identifier]", "md_verbatim": "- Required Identifiers (STUDYID, DOMAIN, USUBJID)", "score": 0.45, "match_basis": "verbatim_token+chapter_route:ch04"}, {"md_atom_id": "md_ch04_a242", "md_file": "knowledge_base/chapters/ch04_general_assumptions.md", "md_atom_type": "LIST_ITEM", "md_parent_section": "§4.2.6 [Grouping Variables and Categorization]", "md_verbatim": "- --LNKID is a grouping identifier used to identify a record in one domain that is related to records in another domain, often forming a one-to-many relationship.", "score": 0.4256, "match_basis": "verbatim_token+chapter_route:ch04"}, {"md_atom_id": "md_ch04_a243", "md_file": "knowledge_base/chapters/ch04_general_assumptions.md", "md_atom_type": "LIST_ITEM", "md_parent_section": "§4.2.6 [Grouping Variables and Categorization]", "md_verbatim": "- --LNKGRP is a grouping identifier used to identify a group of records in one domain that is related to a record in another domain, often forming a many-to-one relationship.", "score": 0.4241, "match_basis": "verbatim_token+chapter_route:ch04"}, {"md_atom_id": "md_ch04_a230", "md_file": "knowledge_base/chapters/ch04_general_assumptions.md", "md_atom_type": "LIST_ITEM", "md_parent_section": "§4.2.6 [Grouping Variables and Categorization]", "md_verbatim": "   c. Cases where multiple domains are necessary to capture data that were collected together and have an implicit relationship, perhaps identified in the Related Records (RELREC) special-purpose dataset. Stress-test data collection may capture the following:", "score": 0.4075, "match_basis": "verbatim_token+chapter_route:ch04"}], "candidate_count": 5, "zero_candidate": false}
{"pdf_atom_id": "sv20_p0050_a008", "pdf_atom_type": "SENTENCE", "pdf_source": "SDTM_v2.0", "pdf_page": 50, "pdf_parent_section": "§4 [ASSOCIATED PERSONS DATA]", "pdf_verbatim": "The SDTM Implementation Guide: Associated Persons (SDTMIG-AP; available at https://www.cdisc.org/standards/foundational/sdtmig/sdtmig-ap) provides implementation rules, advice, and examples.", "figure_ref": null, "candidates": [{"md_atom_id": "md_ch04_a066", "md_file": "knowledge_base/chapters/ch04_general_assumptions.md", "md_atom_type": "LIST_ITEM", "md_parent_section": "§4.1.7 [Splitting Domains]", "md_verbatim": "9. See the SDTM Implementation Guide: Associated Persons (https://www.cdisc.org/standards/foundational/sdtmig/) for the naming of split AP datasets.", "score": 0.57, "match_basis": "verbatim_token+chapter_route:ch04"}, {"md_atom_id": "md_ch04_a011", "md_file": "knowledge_base/chapters/ch04_general_assumptions.md", "md_atom_type": "SENTENCE", "md_parent_section": "§4.1.2 [Relationship to Analysis Datasets]", "md_verbatim": "Specific guidance on preparing analysis datasets can be found in the CDISC Analysis Data Model (ADaM) Implementation Guide and other ADaM documents, available at https://www.cdisc.org/standards/foundational/adam.", "score": 0.5276, "match_basis": "verbatim_token+chapter_route:ch04"}, {"md_atom_id": "md_ch04_a516", "md_file": "knowledge_base/chapters/ch04_general_assumptions.md", "md_atom_type": "SENTENCE", "md_parent_section": "§4.4.2 [Date/Time Precision]", "md_verbatim": "The following table provides examples of ISO 8601 representations of complete and truncated date/time values.", "score": 0.4444, "match_basis": "verbatim_token+chapter_route:ch04"}, {"md_atom_id": "md_ch04_a507", "md_file": "knowledge_base/chapters/ch04_general_assumptions.md", "md_atom_type": "SENTENCE", "md_parent_section": "§4.4.1 [Formats for Date/Time Variables]", "md_verbatim": "Implementation of the ISO 8601 standard means that date/time variables are character/text data types.", "score": 0.4385, "match_basis": "verbatim_token+chapter_route:ch04"}, {"md_atom_id": "md_ch04_a578", "md_file": "knowledge_base/chapters/ch04_general_assumptions.md", "md_atom_type": "SENTENCE", "md_parent_section": "§4.4.3.1 [Intervals of Time and Use of Duration]", "md_verbatim": "The following table provides some examples of ISO 8601-compliant representations of durations.", "score": 0.4269, "match_basis": "verbatim_token+chapter_route:ch04"}], "candidate_count": 5, "zero_candidate": false}
{"pdf_atom_id": "sv20_p0050_a009", "pdf_atom_type": "SENTENCE", "pdf_source": "SDTM_v2.0", "pdf_page": 50, "pdf_parent_section": "§4 [ASSOCIATED PERSONS DATA]", "pdf_verbatim": "Unless an exception is described in the SDTMIG-AP, all other general assumptions about SDTM and SDTMIG variables and domains apply to AP data.", "figure_ref": null, "candidates": [{"md_atom_id": "md_ch04_a014", "md_file": "knowledge_base/chapters/ch04_general_assumptions.md", "md_atom_type": "SENTENCE", "md_parent_section": "§4.1.3 [Additional Timing Variables]", "md_verbatim": "Timing variables can be added to special-purpose domains only where specified in the SDTMIG domain model assumptions.", "score": 0.4884, "match_basis": "verbatim_token+chapter_route:ch04"}, {"md_atom_id": "md_ch04_a005", "md_file": "knowledge_base/chapters/ch04_general_assumptions.md", "md_atom_type": "SENTENCE", "md_parent_section": "§4.0 [Overview]", "md_verbatim": "It covers general domain assumptions, general variable assumptions, coding and controlled terminology assumptions, actual and relative time assumptions, and other assumptions.", "score": 0.4787, "match_basis": "verbatim_token+chapter_route:ch04"}, {"md_atom_id": "md_ch04_a004", "md_file": "knowledge_base/chapters/ch04_general_assumptions.md", "md_atom_type": "SENTENCE", "md_parent_section": "§4.0 [Overview]", "md_verbatim": "This section describes basic concepts, business rules, and assumptions that should be taken into consideration before applying the domain models.", "score": 0.4657, "match_basis": "verbatim_token+chapter_route:ch04"}, {"md_atom_id": "md_ch04_a044", "md_file": "knowledge_base/chapters/ch04_general_assumptions.md", "md_atom_type": "SENTENCE", "md_parent_section": "§4.1.6 [Additional Guidance on Dataset Naming]", "md_verbatim": "Exceptions to this rule are described in Section 4.1.7, Splitting Domains, for general observation class datasets and in Section 8, Representing Relationships and Data, for RELREC and SUPP-- datasets.", "score": 0.4642, "match_basis": "verbatim_token+chapter_route:ch04"}, {"md_atom_id": "md_ch04_a013", "md_file": "knowledge_base/chapters/ch04_general_assumptions.md", "md_atom_type": "SENTENCE", "md_parent_section": "§4.1.3 [Additional Timing Variables]", "md_verbatim": "Additional Timing variables can be added as needed to a standard domain model based on the 3 general observation classes, except for the cases specified in Assumption 4.4.8, Date and Time Reported in a Domain Based on Findings.", "score": 0.459, "match_basis": "verbatim_token+chapter_route:ch04"}], "candidate_count": 5, "zero_candidate": false}
{"pdf_atom_id": "sv20_p0050_a010", "pdf_atom_type": "SENTENCE", "pdf_source": "SDTM_v2.0", "pdf_page": 50, "pdf_parent_section": "§4 [ASSOCIATED PERSONS DATA]", "pdf_verbatim": "The variables in the following table are used in AP domains.", "figure_ref": null, "candidates": [{"md_atom_id": "md_ch04_a832", "md_file": "knowledge_base/chapters/ch04_general_assumptions.md", "md_atom_type": "SENTENCE", "md_parent_section": "§4.5.1.3 [Examples of Original and Standard Units and Test Not Done]", "md_verbatim": "The following examples illustrate the use of Findings results variables and are not meant as comprehensive domain examples.", "score": 0.5, "match_basis": "verbatim_token+chapter_route:ch04"}, {"md_atom_id": "md_ch04_a1033", "md_file": "knowledge_base/chapters/ch04_general_assumptions.md", "md_atom_type": "SENTENCE", "md_parent_section": "§4.5.9 [Baseline Values]", "md_verbatim": "The following table shows a set of similar flag variables and their usage across the SDTM and ADaM.", "score": 0.4959, "match_basis": "verbatim_token+chapter_route:ch04"}, {"md_atom_id": "md_ch04_a454", "md_file": "knowledge_base/chapters/ch04_general_assumptions.md", "md_atom_type": "SENTENCE", "md_parent_section": "§4.3.6 [Storing Topic Variables for General Domain Models]", "md_verbatim": "For an Events domain, the topic variable is --TERM.", "score": 0.4941, "match_basis": "verbatim_token+chapter_route:ch04"}, {"md_atom_id": "md_ch04_a195", "md_file": "knowledge_base/chapters/ch04_general_assumptions.md", "md_atom_type": "SENTENCE", "md_parent_section": "§4.2.2 [Two-character Domain Identifier]", "md_verbatim": "The following variables are exceptions to the philosophy that all variable names are prefixed with the domain identifier:", "score": 0.4935, "match_basis": "verbatim_token+chapter_route:ch04"}, {"md_atom_id": "md_ch04_a140", "md_file": "knowledge_base/chapters/ch04_general_assumptions.md", "md_atom_type": "SENTENCE", "md_parent_section": "§4.1.9 [Assigning Natural Keys in the Metadata]", "md_verbatim": "Sponsor A chooses the following natural key for the MK domain:", "score": 0.4756, "match_basis": "verbatim_token+chapter_route:ch04"}], "candidate_count": 5, "zero_candidate": false}
{"pdf_atom_id": "sv20_p0050_a011", "pdf_atom_type": "SENTENCE", "pdf_source": "SDTM_v2.0", "pdf_page": 50, "pdf_parent_section": "§4 [ASSOCIATED PERSONS DATA]", "pdf_verbatim": "APID is always included in each record in an AP domain.", "figure_ref": null, "candidates": [{"md_atom_id": "md_ch04_a237", "md_file": "knowledge_base/chapters/ch04_general_assumptions.md", "md_atom_type": "SENTENCE", "md_parent_section": "§4.2.6 [Grouping Variables and Categorization]", "md_verbatim": "All records in the same domain with the same --GRPID value are a group of records within USUBJID.", "score": 0.42, "match_basis": "verbatim_token+chapter_route:ch04"}, {"md_atom_id": "md_ch04_a102", "md_file": "knowledge_base/chapters/ch04_general_assumptions.md", "md_atom_type": "SENTENCE", "md_parent_section": "§4.1.7.1 [Example of Splitting Questionnaires]", "md_verbatim": "**SUPP-- Domains**", "score": 0.396, "match_basis": "verbatim_token+chapter_route:ch04"}, {"md_atom_id": "md_ch04_a780", "md_file": "knowledge_base/chapters/ch04_general_assumptions.md", "md_atom_type": "SENTENCE", "md_parent_section": "§4.4.11 [Disease Milestones and Disease Milestone Timing Variables]", "md_verbatim": "If a study does not have disease milestones, the TM and SM domains will not be present and the disease milestone timing variables may not be included in other domains.", "score": 0.3909, "match_basis": "verbatim_token+chapter_route:ch04"}, {"md_atom_id": "md_ch04_a972", "md_file": "knowledge_base/chapters/ch04_general_assumptions.md", "md_atom_type": "SENTENCE", "md_parent_section": "§4.5.5 [Clinical Significance for Findings Observation Class Data]", "md_verbatim": "Examples of the latter include:", "score": 0.3909, "match_basis": "verbatim_token+chapter_route:ch04"}, {"md_atom_id": "md_ch04_a240", "md_file": "knowledge_base/chapters/ch04_general_assumptions.md", "md_atom_type": "SENTENCE", "md_parent_section": "§4.2.6 [Grouping Variables and Categorization]", "md_verbatim": "--LNKID and --LNKGRP express values that are used to link records in separate domains.", "score": 0.3906, "match_basis": "verbatim_token+chapter_route:ch04"}], "candidate_count": 5, "zero_candidate": false}
{"pdf_atom_id": "sv20_p0050_a012", "pdf_atom_type": "SENTENCE", "pdf_source": "SDTM_v2.0", "pdf_page": 50, "pdf_parent_section": "§4 [ASSOCIATED PERSONS DATA]", "pdf_verbatim": "If the associated person is related to a study subject, RSUBJID identifies that subject; if the individual is related to a study device, RDEVID identifies the device.", "figure_ref": null, "candidates": [{"md_atom_id": "md_ch04_a802", "md_file": "knowledge_base/chapters/ch04_general_assumptions.md", "md_atom_type": "SENTENCE", "md_parent_section": "§4.4.11 [Disease Milestones and Disease Milestone Timing Variables]", "md_verbatim": "The disease milestone timing variables provide timing relative to an activity or event that has been identified, for the particular study, as a disease milestone.", "score": 0.4113, "match_basis": "verbatim_token+chapter_route:ch04"}, {"md_atom_id": "md_ch04_a147", "md_file": "knowledge_base/chapters/ch04_general_assumptions.md", "md_atom_type": "SENTENCE", "md_parent_section": "§4.1.9 [Assigning Natural Keys in the Metadata]", "md_verbatim": "A domain may comprise more than 1 physical dataset (e.g., the main domain dataset and its associated Supplemental Qualifiers dataset).", "score": 0.4, "match_basis": "verbatim_token+chapter_route:ch04"}, {"md_atom_id": "md_ch04_a203", "md_file": "knowledge_base/chapters/ch04_general_assumptions.md", "md_atom_type": "SENTENCE", "md_parent_section": "§4.2.3 [Use of \"Subject\" and USUBJID]", "md_verbatim": "To identify a subject uniquely across all studies for all applications or submissions involving the product, a unique identifier (USUBJID) should be assigned and included in all datasets.", "score": 0.3983, "match_basis": "verbatim_token+chapter_route:ch04"}, {"md_atom_id": "md_ch04_a635", "md_file": "knowledge_base/chapters/ch04_general_assumptions.md", "md_atom_type": "SENTENCE", "md_parent_section": "§4.4.7 [Use of Relative Timing Variables]", "md_verbatim": "As an example, a CRF checkbox that identifies concomitant medication use that began prior to the study reference period would translate into CMSTRF = \"BEFORE\", if selected.", "score": 0.3974, "match_basis": "verbatim_token+chapter_route:ch04"}, {"md_atom_id": "md_ch04_a070", "md_file": "knowledge_base/chapters/ch04_general_assumptions.md", "md_atom_type": "SENTENCE", "md_parent_section": "§4.1.7.1 [Example of Splitting Questionnaires]", "md_verbatim": "QRS datasets are routinely created and reviewed for the individual QRS instrument.", "score": 0.3951, "match_basis": "verbatim_token+chapter_route:ch04"}], "candidate_count": 5, "zero_candidate": false}
{"pdf_atom_id": "sv20_p0050_a013", "pdf_atom_type": "SENTENCE", "pdf_source": "SDTM_v2.0", "pdf_page": 50, "pdf_parent_section": "§4 [ASSOCIATED PERSONS DATA]", "pdf_verbatim": "SREL describes the relationship of the associated person to a study subject, a study device, or the study.", "figure_ref": null, "candidates": [{"md_atom_id": "md_ch04_a795", "md_file": "knowledge_base/chapters/ch04_general_assumptions.md", "md_atom_type": "SENTENCE", "md_parent_section": "§4.4.11 [Disease Milestones and Disease Milestone Timing Variables]", "md_verbatim": "In such cases, RELMIDS should be used to describe the temporal relationship between the disease milestone and the subject of the question being asked in the finding, rather than as describing when the question was asked:", "score": 0.4269, "match_basis": "verbatim_token+chapter_route:ch04"}, {"md_atom_id": "md_ch04_a015", "md_file": "knowledge_base/chapters/ch04_general_assumptions.md", "md_atom_type": "SENTENCE", "md_parent_section": "§4.1.3 [Additional Timing Variables]", "md_verbatim": "Timing variables cannot be added to SUPPQUAL datasets or to RELREC (described in Section 8, Representing Relationships and Data).", "score": 0.4133, "match_basis": "verbatim_token+chapter_route:ch04"}, {"md_atom_id": "md_ch04_a223", "md_file": "knowledge_base/chapters/ch04_general_assumptions.md", "md_atom_type": "SENTENCE", "md_parent_section": "§4.2.6 [Grouping Variables and Categorization]", "md_verbatim": "All records with the same USUBJID value are a group of records that describe that subject.", "score": 0.4108, "match_basis": "verbatim_token+chapter_route:ch04"}, {"md_atom_id": "md_ch04_a009", "md_file": "knowledge_base/chapters/ch04_general_assumptions.md", "md_atom_type": "SENTENCE", "md_parent_section": "§4.1.1 [Review Study Data Tabulation Model and Implementation Guide]", "md_verbatim": "The SDTM describes the general conceptual framework, including the general observation classes (Interventions, Events, Findings), special-purpose domains, trial design model datasets, relationship datasets, and study references.", "score": 0.4053, "match_basis": "verbatim_token+chapter_route:ch04"}, {"md_atom_id": "md_ch04_a044", "md_file": "knowledge_base/chapters/ch04_general_assumptions.md", "md_atom_type": "SENTENCE", "md_parent_section": "§4.1.6 [Additional Guidance on Dataset Naming]", "md_verbatim": "Exceptions to this rule are described in Section 4.1.7, Splitting Domains, for general observation class datasets and in Section 8, Representing Relationships and Data, for RELREC and SUPP-- datasets.", "score": 0.4049, "match_basis": "verbatim_token+chapter_route:ch04"}], "candidate_count": 5, "zero_candidate": false}
{"pdf_atom_id": "sv20_p0050_a014", "pdf_atom_type": "HEADING", "pdf_source": "SDTM_v2.0", "pdf_page": 50, "pdf_parent_section": "§4 [ASSOCIATED PERSONS DATA]", "pdf_verbatim": "Associated Persons—Additional Identifier Variables", "figure_ref": null, "candidates": [{"md_atom_id": "md_ch04_a012", "md_file": "knowledge_base/chapters/ch04_general_assumptions.md", "md_atom_type": "HEADING", "md_parent_section": "§4.1 [General Domain Assumptions]", "md_verbatim": "### 4.1.3 Additional Timing Variables", "score": 0.525, "match_basis": "verbatim_token+chapter_route:ch04"}, {"md_atom_id": "md_ch04_a173", "md_file": "knowledge_base/chapters/ch04_general_assumptions.md", "md_atom_type": "HEADING", "md_parent_section": "§4.2 [General Variable Assumptions]", "md_verbatim": "### 4.2.1 Variable-Naming Conventions", "score": 0.45, "match_basis": "verbatim_token+chapter_route:ch04"}, {"md_atom_id": "md_ch04_a172", "md_file": "knowledge_base/chapters/ch04_general_assumptions.md", "md_atom_type": "HEADING", "md_parent_section": "§4 [Assumptions for Domain Models]", "md_verbatim": "## 4.2 General Variable Assumptions", "score": 0.4304, "match_basis": "verbatim_token+chapter_route:ch04"}, {"md_atom_id": "md_ch04_a624", "md_file": "knowledge_base/chapters/ch04_general_assumptions.md", "md_atom_type": "HEADING", "md_parent_section": "§4.4 [Actual and Relative Time Assumptions]", "md_verbatim": "### 4.4.6 Representing Additional Study Days", "score": 0.4224, "match_basis": "verbatim_token+chapter_route:ch04"}, {"md_atom_id": "md_ch04_a217", "md_file": "knowledge_base/chapters/ch04_general_assumptions.md", "md_atom_type": "HEADING", "md_parent_section": "§4.2 [General Variable Assumptions]", "md_verbatim": "### 4.2.6 Grouping Variables and Categorization", "score": 0.4154, "match_basis": "verbatim_token+chapter_route:ch04"}], "candidate_count": 5, "zero_candidate": false}
{"pdf_atom_id": "sv20_p0050_a015", "pdf_atom_type": "TABLE_HEADER", "pdf_source": "SDTM_v2.0", "pdf_page": 50, "pdf_parent_section": "§4 [ASSOCIATED PERSONS DATA]", "pdf_verbatim": "# | Variable Name | Variable Label | Type | Format | Role | Variable(s) Qualified | Usage Restrictions | Variable C-code | Definition | Notes | Examples", "figure_ref": null, "candidates": [{"md_atom_id": "md_ch04_a947", "md_file": "knowledge_base/chapters/ch04_general_assumptions.md", "md_atom_type": "TABLE_HEADER", "md_parent_section": "§4.5.3.2 [Text Strings Greater than 200 Characters in Other Variables]", "md_verbatim": "| Convention | General Observation Class and Supplemental Qualifier Variables | CO.COVAL | TS.TSVAL | TI.IETEST and IE.IETEST |\n|------------|---------------------------------------------------------------|----------|----------|------------------------|", "score": 0.4149, "match_basis": "verbatim_token+chapter_route:ch04"}, {"md_atom_id": "md_ch04_a1034", "md_file": "knowledge_base/chapters/ch04_general_assumptions.md", "md_atom_type": "TABLE_HEADER", "md_parent_section": "§4.5.9 [Baseline Values]", "md_verbatim": "| Variable | Structure Where It Is Defined | Requirement in That Structure | Definition | Intended Use |\n|----------|-------------------------------|-------------------------------|------------|--------------|", "score": 0.4059, "match_basis": "verbatim_token+chapter_route:ch04"}, {"md_atom_id": "md_ch04_a707", "md_file": "knowledge_base/chapters/ch04_general_assumptions.md", "md_atom_type": "TABLE_HEADER", "md_parent_section": "§4.4.10 [Representing Time Points]", "md_verbatim": "| Variable | Purpose |\n|----------|---------|", "score": 0.359, "match_basis": "verbatim_token+chapter_route:ch04"}, {"md_atom_id": "md_ch04_a790", "md_file": "knowledge_base/chapters/ch04_general_assumptions.md", "md_atom_type": "TABLE_HEADER", "md_parent_section": "§4.4.11 [Disease Milestones and Disease Milestone Timing Variables]", "md_verbatim": "| Variable | Purpose |\n|----------|---------|", "score": 0.359, "match_basis": "verbatim_token+chapter_route:ch04"}, {"md_atom_id": "md_ch04_a631", "md_file": "knowledge_base/chapters/ch04_general_assumptions.md", "md_atom_type": "TABLE_HEADER", "md_parent_section": "§4.4.7 [Use of Relative Timing Variables]", "md_verbatim": "| Variable | Allowable Values | Purpose |\n|----------|-----------------|---------|", "score": 0.3514, "match_basis": "verbatim_token+chapter_route:ch04"}], "candidate_count": 5, "zero_candidate": false}
