{"pdf_atom_id": "ig34_p0290_a022", "pdf_atom_type": "TABLE_ROW", "pdf_source": "SDTMIG_v3.4", "pdf_page": 290, "pdf_parent_section": "§6.3.7.3 Musculoskeletal System Findings (MK)", "pdf_verbatim": "| MKORRES | Result or Finding in Original Units | Char | | Result Qualifier | Result of the measurement or finding as originally received or collected. | Exp |", "figure_ref": null, "candidates": [{"md_atom_id": "md_dmMK_ex_a057", "md_file": "knowledge_base/domains/MK/examples.md", "md_atom_type": "TABLE_ROW", "md_parent_section": "§MK.2 [Example 2]", "md_verbatim": "| 9 | XYZ | MK | XYZ-002 | 9 | SGJSNSCR | Sharp/Genant JSN Score | | | | NOT DONE | INADEQUATE IMAGE QUALITY | METACARPOPHALANGEAL JOINT 2 | RIGHT | X-RAY | INDEPENDENT ASSESSOR | READER 1 | 4 | WEEK 12 | 2013-08-12 |", "score": 0.4372, "match_basis": "verbatim_token+domain_route:MK"}, {"md_atom_id": "md_dmMK_ex_a018", "md_file": "knowledge_base/domains/MK/examples.md", "md_atom_type": "TABLE_ROW", "md_parent_section": "§MK.1 [Example 1]", "md_verbatim": "| 2 | DEF | MK | DEF-138 | 2 | SWLLIND | Swollen Indicator | Y | Y | | | | TEMPOROMANDIBULAR JOINT | RIGHT | PHYSICAL EXAMINATION | 2 | WEEK 4 | 2012-09-30 |", "score": 0.4336, "match_basis": "verbatim_token+domain_route:MK"}, {"md_atom_id": "md_dmMK_ex_a022", "md_file": "knowledge_base/domains/MK/examples.md", "md_atom_type": "TABLE_ROW", "md_parent_section": "§MK.1 [Example 1]", "md_verbatim": "| 6 | DEF | MK | DEF-138 | 6 | SWLLIND | Swollen Indicator | N | N | | | | STERNOCLAVICULAR JOINT | RIGHT | PHYSICAL EXAMINATION | 2 | WEEK 4 | 2012-09-30 |", "score": 0.4336, "match_basis": "verbatim_token+domain_route:MK"}, {"md_atom_id": "md_dmMK_ex_a030", "md_file": "knowledge_base/domains/MK/examples.md", "md_atom_type": "TABLE_ROW", "md_parent_section": "§MK.1 [Example 1]", "md_verbatim": "| 14 | DEF | MK | DEF-138 | 14 | SWLLIND | Swollen Indicator | | | | NOT DONE | JOINT NOT EVALUABLE | SHOULDER JOINT | RIGHT | PHYSICAL EXAMINATION | 2 | WEEK 4 | 2012-09-30 |", "score": 0.433, "match_basis": "verbatim_token+domain_route:MK"}, {"md_atom_id": "md_dmMK_ex_a026", "md_file": "knowledge_base/domains/MK/examples.md", "md_atom_type": "TABLE_ROW", "md_parent_section": "§MK.1 [Example 1]", "md_verbatim": "| 10 | DEF | MK | DEF-138 | 10 | SWLLIND | Swollen Indicator | | | | NOT DONE | | ACROMIOCLAVICULAR JOINT | RIGHT | PHYSICAL EXAMINATION | 2 | WEEK 4 | 2012-09-30 |", "score": 0.4324, "match_basis": "verbatim_token+domain_route:MK"}], "candidate_count": 5, "zero_candidate": false}
{"pdf_atom_id": "ig34_p0290_a023", "pdf_atom_type": "TABLE_ROW", "pdf_source": "SDTMIG_v3.4", "pdf_page": 290, "pdf_parent_section": "§6.3.7.3 Musculoskeletal System Findings (MK)", "pdf_verbatim": "| MKORRESU | Original Units | Char | (UNIT) | Variable Qualifier | Unit for MKORRES. | Perm |", "figure_ref": null, "candidates": [{"md_atom_id": "md_dmMK_ex_a057", "md_file": "knowledge_base/domains/MK/examples.md", "md_atom_type": "TABLE_ROW", "md_parent_section": "§MK.2 [Example 2]", "md_verbatim": "| 9 | XYZ | MK | XYZ-002 | 9 | SGJSNSCR | Sharp/Genant JSN Score | | | | NOT DONE | INADEQUATE IMAGE QUALITY | METACARPOPHALANGEAL JOINT 2 | RIGHT | X-RAY | INDEPENDENT ASSESSOR | READER 1 | 4 | WEEK 12 | 2013-08-12 |", "score": 0.4336, "match_basis": "verbatim_token+domain_route:MK"}, {"md_atom_id": "md_dmMK_ex_a054", "md_file": "knowledge_base/domains/MK/examples.md", "md_atom_type": "TABLE_ROW", "md_parent_section": "§MK.2 [Example 2]", "md_verbatim": "| 6 | XYZ | MK | XYZ-002 | 6 | SGJSNSCR | Sharp/Genant JSN Score | | | | NOT DONE | INADEQUATE IMAGE QUALITY | PROXIMAL INTERPHALANGEAL JOINT 3 | LEFT | X-RAY | INDEPENDENT ASSESSOR | READER 1 | 4 | WEEK 12 | 2013-08-12 |", "score": 0.4278, "match_basis": "verbatim_token+domain_route:MK"}, {"md_atom_id": "md_dmMK_ex_a030", "md_file": "knowledge_base/domains/MK/examples.md", "md_atom_type": "TABLE_ROW", "md_parent_section": "§MK.1 [Example 1]", "md_verbatim": "| 14 | DEF | MK | DEF-138 | 14 | SWLLIND | Swollen Indicator | | | | NOT DONE | JOINT NOT EVALUABLE | SHOULDER JOINT | RIGHT | PHYSICAL EXAMINATION | 2 | WEEK 4 | 2012-09-30 |", "score": 0.4276, "match_basis": "verbatim_token+domain_route:MK"}, {"md_atom_id": "md_dmMK_ex_a029", "md_file": "knowledge_base/domains/MK/examples.md", "md_atom_type": "TABLE_ROW", "md_parent_section": "§MK.1 [Example 1]", "md_verbatim": "| 13 | DEF | MK | DEF-138 | 13 | TNDRIND | Tenderness Indicator | | | | NOT DONE | JOINT NOT EVALUABLE | SHOULDER JOINT | RIGHT | PHYSICAL EXAMINATION | 2 | WEEK 4 | 2012-09-30 |", "score": 0.427, "match_basis": "verbatim_token+domain_route:MK"}, {"md_atom_id": "md_dmMK_ex_a063", "md_file": "knowledge_base/domains/MK/examples.md", "md_atom_type": "TABLE_ROW", "md_parent_section": "§MK.2 [Example 2]", "md_verbatim": "| 15 | XYZ | MK | XYZ-002 | 15 | SGJSNSCR | Sharp/Genant JSN Score | QUESTIONABLE | 0.5 | 0.5 | | | METACARPOPHALANGEAL JOINT 5 | RIGHT | X-RAY | INDEPENDENT ASSESSOR | READER 1 | 4 | WEEK 12 | 2013-08-12 |", "score": 0.4235, "match_basis": "verbatim_token+domain_route:MK"}], "candidate_count": 5, "zero_candidate": false}
{"pdf_atom_id": "ig34_p0290_a024", "pdf_atom_type": "TABLE_ROW", "pdf_source": "SDTMIG_v3.4", "pdf_page": 290, "pdf_parent_section": "§6.3.7.3 Musculoskeletal System Findings (MK)", "pdf_verbatim": "| MKSTRESC | Character Result/Finding in Std Format | Char | | Result Qualifier | Contains the result value for all findings, copied or derived from MKORRES in a standard format or in standard units. MKSTRESC should store all results or findings in character format; if results are numeric, they should also be stored in numeric format in MKSTRESN. For example, if various tests have results \"NONE\", \"NEG\", and \"NEGATIVE\" in MKORRES and these results effectively have the same meaning, they could be represented in standard format in MKSTRESC as \"NEGATIVE\". | Exp |", "figure_ref": null, "candidates": [{"md_atom_id": "md_dmMK_ex_a030", "md_file": "knowledge_base/domains/MK/examples.md", "md_atom_type": "TABLE_ROW", "md_parent_section": "§MK.1 [Example 1]", "md_verbatim": "| 14 | DEF | MK | DEF-138 | 14 | SWLLIND | Swollen Indicator | | | | NOT DONE | JOINT NOT EVALUABLE | SHOULDER JOINT | RIGHT | PHYSICAL EXAMINATION | 2 | WEEK 4 | 2012-09-30 |", "score": 0.4475, "match_basis": "verbatim_token+domain_route:MK"}, {"md_atom_id": "md_dmMK_ex_a029", "md_file": "knowledge_base/domains/MK/examples.md", "md_atom_type": "TABLE_ROW", "md_parent_section": "§MK.1 [Example 1]", "md_verbatim": "| 13 | DEF | MK | DEF-138 | 13 | TNDRIND | Tenderness Indicator | | | | NOT DONE | JOINT NOT EVALUABLE | SHOULDER JOINT | RIGHT | PHYSICAL EXAMINATION | 2 | WEEK 4 | 2012-09-30 |", "score": 0.4469, "match_basis": "verbatim_token+domain_route:MK"}, {"md_atom_id": "md_dmMK_ex_a032", "md_file": "knowledge_base/domains/MK/examples.md", "md_atom_type": "TABLE_ROW", "md_parent_section": "§MK.1 [Example 1]", "md_verbatim": "| 16 | DEF | MK | DEF-138 | 16 | SWLLIND | Swollen Indicator | Y | Y | | | | SHOULDER JOINT | LEFT | PHYSICAL EXAMINATION | 2 | WEEK 4 | 2012-09-30 |", "score": 0.4391, "match_basis": "verbatim_token+domain_route:MK"}, {"md_atom_id": "md_dmMK_ex_a031", "md_file": "knowledge_base/domains/MK/examples.md", "md_atom_type": "TABLE_ROW", "md_parent_section": "§MK.1 [Example 1]", "md_verbatim": "| 15 | DEF | MK | DEF-138 | 15 | TNDRIND | Tenderness Indicator | N | N | | | | SHOULDER JOINT | LEFT | PHYSICAL EXAMINATION | 2 | WEEK 4 | 2012-09-30 |", "score": 0.4386, "match_basis": "verbatim_token+domain_route:MK"}, {"md_atom_id": "md_dmMK_ex_a054", "md_file": "knowledge_base/domains/MK/examples.md", "md_atom_type": "TABLE_ROW", "md_parent_section": "§MK.2 [Example 2]", "md_verbatim": "| 6 | XYZ | MK | XYZ-002 | 6 | SGJSNSCR | Sharp/Genant JSN Score | | | | NOT DONE | INADEQUATE IMAGE QUALITY | PROXIMAL INTERPHALANGEAL JOINT 3 | LEFT | X-RAY | INDEPENDENT ASSESSOR | READER 1 | 4 | WEEK 12 | 2013-08-12 |", "score": 0.4327, "match_basis": "verbatim_token+domain_route:MK"}], "candidate_count": 5, "zero_candidate": false}
{"pdf_atom_id": "ig34_p0290_a025", "pdf_atom_type": "TABLE_ROW", "pdf_source": "SDTMIG_v3.4", "pdf_page": 290, "pdf_parent_section": "§6.3.7.3 Musculoskeletal System Findings (MK)", "pdf_verbatim": "| MKSTRESN | Numeric Result/Finding in Standard Units | Num | | Result Qualifier | Used for continuous or numeric results or findings in standard format; copied in numeric format from MKSTRESC. MKSTRESN should store all numeric test results or findings. | Perm |", "figure_ref": null, "candidates": [{"md_atom_id": "md_dmMK_ex_a032", "md_file": "knowledge_base/domains/MK/examples.md", "md_atom_type": "TABLE_ROW", "md_parent_section": "§MK.1 [Example 1]", "md_verbatim": "| 16 | DEF | MK | DEF-138 | 16 | SWLLIND | Swollen Indicator | Y | Y | | | | SHOULDER JOINT | LEFT | PHYSICAL EXAMINATION | 2 | WEEK 4 | 2012-09-30 |", "score": 0.4382, "match_basis": "verbatim_token+domain_route:MK"}, {"md_atom_id": "md_dmMK_ex_a031", "md_file": "knowledge_base/domains/MK/examples.md", "md_atom_type": "TABLE_ROW", "md_parent_section": "§MK.1 [Example 1]", "md_verbatim": "| 15 | DEF | MK | DEF-138 | 15 | TNDRIND | Tenderness Indicator | N | N | | | | SHOULDER JOINT | LEFT | PHYSICAL EXAMINATION | 2 | WEEK 4 | 2012-09-30 |", "score": 0.4375, "match_basis": "verbatim_token+domain_route:MK"}, {"md_atom_id": "md_dmMK_ex_a030", "md_file": "knowledge_base/domains/MK/examples.md", "md_atom_type": "TABLE_ROW", "md_parent_section": "§MK.1 [Example 1]", "md_verbatim": "| 14 | DEF | MK | DEF-138 | 14 | SWLLIND | Swollen Indicator | | | | NOT DONE | JOINT NOT EVALUABLE | SHOULDER JOINT | RIGHT | PHYSICAL EXAMINATION | 2 | WEEK 4 | 2012-09-30 |", "score": 0.4347, "match_basis": "verbatim_token+domain_route:MK"}, {"md_atom_id": "md_dmMK_ex_a029", "md_file": "knowledge_base/domains/MK/examples.md", "md_atom_type": "TABLE_ROW", "md_parent_section": "§MK.1 [Example 1]", "md_verbatim": "| 13 | DEF | MK | DEF-138 | 13 | TNDRIND | Tenderness Indicator | | | | NOT DONE | JOINT NOT EVALUABLE | SHOULDER JOINT | RIGHT | PHYSICAL EXAMINATION | 2 | WEEK 4 | 2012-09-30 |", "score": 0.4341, "match_basis": "verbatim_token+domain_route:MK"}, {"md_atom_id": "md_dmMK_ex_a020", "md_file": "knowledge_base/domains/MK/examples.md", "md_atom_type": "TABLE_ROW", "md_parent_section": "§MK.1 [Example 1]", "md_verbatim": "| 4 | DEF | MK | DEF-138 | 4 | SWLLIND | Swollen Indicator | N | N | | | | TEMPOROMANDIBULAR JOINT | LEFT | PHYSICAL EXAMINATION | 2 | WEEK 4 | 2012-09-30 |", "score": 0.425, "match_basis": "verbatim_token+domain_route:MK"}], "candidate_count": 5, "zero_candidate": false}
{"pdf_atom_id": "ig34_p0291_a001", "pdf_atom_type": "TABLE_ROW", "pdf_source": "SDTMIG_v3.4", "pdf_page": 291, "pdf_parent_section": "§6.3.7.3 Musculoskeletal System Findings (MK)", "pdf_verbatim": "| MKSTRESU | Standard Units | Char | (UNIT) | Variable Qualifier | Standardized units used for MKSTRESC and MKSTRESN. | Perm |", "figure_ref": null, "candidates": [{"md_atom_id": "md_dmMK_ex_a054", "md_file": "knowledge_base/domains/MK/examples.md", "md_atom_type": "TABLE_ROW", "md_parent_section": "§MK.2 [Example 2]", "md_verbatim": "| 6 | XYZ | MK | XYZ-002 | 6 | SGJSNSCR | Sharp/Genant JSN Score | | | | NOT DONE | INADEQUATE IMAGE QUALITY | PROXIMAL INTERPHALANGEAL JOINT 3 | LEFT | X-RAY | INDEPENDENT ASSESSOR | READER 1 | 4 | WEEK 12 | 2013-08-12 |", "score": 0.4205, "match_basis": "verbatim_token+domain_route:MK"}, {"md_atom_id": "md_dmMK_ex_a057", "md_file": "knowledge_base/domains/MK/examples.md", "md_atom_type": "TABLE_ROW", "md_parent_section": "§MK.2 [Example 2]", "md_verbatim": "| 9 | XYZ | MK | XYZ-002 | 9 | SGJSNSCR | Sharp/Genant JSN Score | | | | NOT DONE | INADEQUATE IMAGE QUALITY | METACARPOPHALANGEAL JOINT 2 | RIGHT | X-RAY | INDEPENDENT ASSESSOR | READER 1 | 4 | WEEK 12 | 2013-08-12 |", "score": 0.4205, "match_basis": "verbatim_token+domain_route:MK"}, {"md_atom_id": "md_dmMK_ex_a063", "md_file": "knowledge_base/domains/MK/examples.md", "md_atom_type": "TABLE_ROW", "md_parent_section": "§MK.2 [Example 2]", "md_verbatim": "| 15 | XYZ | MK | XYZ-002 | 15 | SGJSNSCR | Sharp/Genant JSN Score | QUESTIONABLE | 0.5 | 0.5 | | | METACARPOPHALANGEAL JOINT 5 | RIGHT | X-RAY | INDEPENDENT ASSESSOR | READER 1 | 4 | WEEK 12 | 2013-08-12 |", "score": 0.4162, "match_basis": "verbatim_token+domain_route:MK"}, {"md_atom_id": "md_dmMK_ex_a030", "md_file": "knowledge_base/domains/MK/examples.md", "md_atom_type": "TABLE_ROW", "md_parent_section": "§MK.1 [Example 1]", "md_verbatim": "| 14 | DEF | MK | DEF-138 | 14 | SWLLIND | Swollen Indicator | | | | NOT DONE | JOINT NOT EVALUABLE | SHOULDER JOINT | RIGHT | PHYSICAL EXAMINATION | 2 | WEEK 4 | 2012-09-30 |", "score": 0.4124, "match_basis": "verbatim_token+domain_route:MK"}, {"md_atom_id": "md_dmMK_ex_a029", "md_file": "knowledge_base/domains/MK/examples.md", "md_atom_type": "TABLE_ROW", "md_parent_section": "§MK.1 [Example 1]", "md_verbatim": "| 13 | DEF | MK | DEF-138 | 13 | TNDRIND | Tenderness Indicator | | | | NOT DONE | JOINT NOT EVALUABLE | SHOULDER JOINT | RIGHT | PHYSICAL EXAMINATION | 2 | WEEK 4 | 2012-09-30 |", "score": 0.4121, "match_basis": "verbatim_token+domain_route:MK"}], "candidate_count": 5, "zero_candidate": false}
{"pdf_atom_id": "ig34_p0291_a002", "pdf_atom_type": "TABLE_ROW", "pdf_source": "SDTMIG_v3.4", "pdf_page": 291, "pdf_parent_section": "§6.3.7.3 Musculoskeletal System Findings (MK)", "pdf_verbatim": "| MKSTAT | Completion Status | Char | (ND) | Record Qualifier | Used to indicate that a question was not asked or a test was not done, or that a test was attempted but did not generate a result. Should be null if a result exists in MKORRES. | Perm |", "figure_ref": null, "candidates": [{"md_atom_id": "md_dmMK_ex_a030", "md_file": "knowledge_base/domains/MK/examples.md", "md_atom_type": "TABLE_ROW", "md_parent_section": "§MK.1 [Example 1]", "md_verbatim": "| 14 | DEF | MK | DEF-138 | 14 | SWLLIND | Swollen Indicator | | | | NOT DONE | JOINT NOT EVALUABLE | SHOULDER JOINT | RIGHT | PHYSICAL EXAMINATION | 2 | WEEK 4 | 2012-09-30 |", "score": 0.4661, "match_basis": "verbatim_token+domain_route:MK"}, {"md_atom_id": "md_dmMK_ex_a029", "md_file": "knowledge_base/domains/MK/examples.md", "md_atom_type": "TABLE_ROW", "md_parent_section": "§MK.1 [Example 1]", "md_verbatim": "| 13 | DEF | MK | DEF-138 | 13 | TNDRIND | Tenderness Indicator | | | | NOT DONE | JOINT NOT EVALUABLE | SHOULDER JOINT | RIGHT | PHYSICAL EXAMINATION | 2 | WEEK 4 | 2012-09-30 |", "score": 0.4651, "match_basis": "verbatim_token+domain_route:MK"}, {"md_atom_id": "md_dmMK_ex_a032", "md_file": "knowledge_base/domains/MK/examples.md", "md_atom_type": "TABLE_ROW", "md_parent_section": "§MK.1 [Example 1]", "md_verbatim": "| 16 | DEF | MK | DEF-138 | 16 | SWLLIND | Swollen Indicator | Y | Y | | | | SHOULDER JOINT | LEFT | PHYSICAL EXAMINATION | 2 | WEEK 4 | 2012-09-30 |", "score": 0.4555, "match_basis": "verbatim_token+domain_route:MK"}, {"md_atom_id": "md_dmMK_ex_a031", "md_file": "knowledge_base/domains/MK/examples.md", "md_atom_type": "TABLE_ROW", "md_parent_section": "§MK.1 [Example 1]", "md_verbatim": "| 15 | DEF | MK | DEF-138 | 15 | TNDRIND | Tenderness Indicator | N | N | | | | SHOULDER JOINT | LEFT | PHYSICAL EXAMINATION | 2 | WEEK 4 | 2012-09-30 |", "score": 0.4545, "match_basis": "verbatim_token+domain_route:MK"}, {"md_atom_id": "md_dmMK_ex_a060", "md_file": "knowledge_base/domains/MK/examples.md", "md_atom_type": "TABLE_ROW", "md_parent_section": "§MK.2 [Example 2]", "md_verbatim": "| 12 | XYZ | MK | XYZ-002 | 12 | SGJSNSCR | Sharp/Genant JSN Score | | | | NOT DONE | AMPUTATION/MISSING ANATOMY/JOINT REPLACEMENT/SURGICAL ALTERATION | METACARPOPHALANGEAL JOINT 3 | LEFT | X-RAY | INDEPENDENT ASSESSOR | READER 1 | 4 | WEEK 12 | 2013-08-12 |", "score": 0.4453, "match_basis": "verbatim_token+domain_route:MK"}], "candidate_count": 5, "zero_candidate": false}
{"pdf_atom_id": "ig34_p0291_a003", "pdf_atom_type": "TABLE_ROW", "pdf_source": "SDTMIG_v3.4", "pdf_page": 291, "pdf_parent_section": "§6.3.7.3 Musculoskeletal System Findings (MK)", "pdf_verbatim": "| MKREASND | Reason Not Done | Char | | Record Qualifier | Reason not done. Used in conjunction with MKSTAT when value is \"NOT DONE\". | Perm |", "figure_ref": null, "candidates": [{"md_atom_id": "md_dmMK_ex_a054", "md_file": "knowledge_base/domains/MK/examples.md", "md_atom_type": "TABLE_ROW", "md_parent_section": "§MK.2 [Example 2]", "md_verbatim": "| 6 | XYZ | MK | XYZ-002 | 6 | SGJSNSCR | Sharp/Genant JSN Score | | | | NOT DONE | INADEQUATE IMAGE QUALITY | PROXIMAL INTERPHALANGEAL JOINT 3 | LEFT | X-RAY | INDEPENDENT ASSESSOR | READER 1 | 4 | WEEK 12 | 2013-08-12 |", "score": 0.4454, "match_basis": "verbatim_token+domain_route:MK"}, {"md_atom_id": "md_dmMK_ex_a057", "md_file": "knowledge_base/domains/MK/examples.md", "md_atom_type": "TABLE_ROW", "md_parent_section": "§MK.2 [Example 2]", "md_verbatim": "| 9 | XYZ | MK | XYZ-002 | 9 | SGJSNSCR | Sharp/Genant JSN Score | | | | NOT DONE | INADEQUATE IMAGE QUALITY | METACARPOPHALANGEAL JOINT 2 | RIGHT | X-RAY | INDEPENDENT ASSESSOR | READER 1 | 4 | WEEK 12 | 2013-08-12 |", "score": 0.4454, "match_basis": "verbatim_token+domain_route:MK"}, {"md_atom_id": "md_dmMK_ex_a030", "md_file": "knowledge_base/domains/MK/examples.md", "md_atom_type": "TABLE_ROW", "md_parent_section": "§MK.1 [Example 1]", "md_verbatim": "| 14 | DEF | MK | DEF-138 | 14 | SWLLIND | Swollen Indicator | | | | NOT DONE | JOINT NOT EVALUABLE | SHOULDER JOINT | RIGHT | PHYSICAL EXAMINATION | 2 | WEEK 4 | 2012-09-30 |", "score": 0.4424, "match_basis": "verbatim_token+domain_route:MK"}, {"md_atom_id": "md_dmMK_ex_a029", "md_file": "knowledge_base/domains/MK/examples.md", "md_atom_type": "TABLE_ROW", "md_parent_section": "§MK.1 [Example 1]", "md_verbatim": "| 13 | DEF | MK | DEF-138 | 13 | TNDRIND | Tenderness Indicator | | | | NOT DONE | JOINT NOT EVALUABLE | SHOULDER JOINT | RIGHT | PHYSICAL EXAMINATION | 2 | WEEK 4 | 2012-09-30 |", "score": 0.4416, "match_basis": "verbatim_token+domain_route:MK"}, {"md_atom_id": "md_dmMK_ex_a060", "md_file": "knowledge_base/domains/MK/examples.md", "md_atom_type": "TABLE_ROW", "md_parent_section": "§MK.2 [Example 2]", "md_verbatim": "| 12 | XYZ | MK | XYZ-002 | 12 | SGJSNSCR | Sharp/Genant JSN Score | | | | NOT DONE | AMPUTATION/MISSING ANATOMY/JOINT REPLACEMENT/SURGICAL ALTERATION | METACARPOPHALANGEAL JOINT 3 | LEFT | X-RAY | INDEPENDENT ASSESSOR | READER 1 | 4 | WEEK 12 | 2013-08-12 |", "score": 0.4383, "match_basis": "verbatim_token+domain_route:MK"}], "candidate_count": 5, "zero_candidate": false}
{"pdf_atom_id": "ig34_p0291_a004", "pdf_atom_type": "TABLE_ROW", "pdf_source": "SDTMIG_v3.4", "pdf_page": 291, "pdf_parent_section": "§6.3.7.3 Musculoskeletal System Findings (MK)", "pdf_verbatim": "| MKLOC | Location Used for the Measurement | Char | (LOC) | Record Qualifier | Anatomical location of the subject relevant to the collection of the measurement. Examples: \"INTERPHALANGEAL JOINT 1\", \"SHOULDER JOINT\". | Exp |", "figure_ref": null, "candidates": [{"md_atom_id": "md_dmMK_ex_a051", "md_file": "knowledge_base/domains/MK/examples.md", "md_atom_type": "TABLE_ROW", "md_parent_section": "§MK.2 [Example 2]", "md_verbatim": "| 3 | XYZ | MK | XYZ-002 | 3 | SGJSNSCR | Sharp/Genant JSN Score | | | | NOT DONE | AMPUTATION/MISSING ANATOMY/JOINT REPLACEMENT/ SURGICAL ALTERATION | PROXIMAL INTERPHALANGEAL JOINT 2 | RIGHT | X-RAY | INDEPENDENT ASSESSOR | READER 1 | 4 | WEEK 12 | 2013-08-12 |", "score": 0.5261, "match_basis": "verbatim_token+domain_route:MK"}, {"md_atom_id": "md_dmMK_ex_a060", "md_file": "knowledge_base/domains/MK/examples.md", "md_atom_type": "TABLE_ROW", "md_parent_section": "§MK.2 [Example 2]", "md_verbatim": "| 12 | XYZ | MK | XYZ-002 | 12 | SGJSNSCR | Sharp/Genant JSN Score | | | | NOT DONE | AMPUTATION/MISSING ANATOMY/JOINT REPLACEMENT/SURGICAL ALTERATION | METACARPOPHALANGEAL JOINT 3 | LEFT | X-RAY | INDEPENDENT ASSESSOR | READER 1 | 4 | WEEK 12 | 2013-08-12 |", "score": 0.5139, "match_basis": "verbatim_token+domain_route:MK"}, {"md_atom_id": "md_dmMK_ex_a032", "md_file": "knowledge_base/domains/MK/examples.md", "md_atom_type": "TABLE_ROW", "md_parent_section": "§MK.1 [Example 1]", "md_verbatim": "| 16 | DEF | MK | DEF-138 | 16 | SWLLIND | Swollen Indicator | Y | Y | | | | SHOULDER JOINT | LEFT | PHYSICAL EXAMINATION | 2 | WEEK 4 | 2012-09-30 |", "score": 0.5125, "match_basis": "verbatim_token+domain_route:MK"}, {"md_atom_id": "md_dmMK_ex_a030", "md_file": "knowledge_base/domains/MK/examples.md", "md_atom_type": "TABLE_ROW", "md_parent_section": "§MK.1 [Example 1]", "md_verbatim": "| 14 | DEF | MK | DEF-138 | 14 | SWLLIND | Swollen Indicator | | | | NOT DONE | JOINT NOT EVALUABLE | SHOULDER JOINT | RIGHT | PHYSICAL EXAMINATION | 2 | WEEK 4 | 2012-09-30 |", "score": 0.5082, "match_basis": "verbatim_token+domain_route:MK"}, {"md_atom_id": "md_dmMK_ex_a031", "md_file": "knowledge_base/domains/MK/examples.md", "md_atom_type": "TABLE_ROW", "md_parent_section": "§MK.1 [Example 1]", "md_verbatim": "| 15 | DEF | MK | DEF-138 | 15 | TNDRIND | Tenderness Indicator | N | N | | | | SHOULDER JOINT | LEFT | PHYSICAL EXAMINATION | 2 | WEEK 4 | 2012-09-30 |", "score": 0.4983, "match_basis": "verbatim_token+domain_route:MK"}], "candidate_count": 5, "zero_candidate": false}
{"pdf_atom_id": "ig34_p0291_a005", "pdf_atom_type": "TABLE_ROW", "pdf_source": "SDTMIG_v3.4", "pdf_page": 291, "pdf_parent_section": "§6.3.7.3 Musculoskeletal System Findings (MK)", "pdf_verbatim": "| MKLAT | Laterality | Char | (LAT) | Variable Qualifier | Qualifier for anatomical location or specimen further detailing laterality. Examples: \"RIGHT\", \"LEFT\", \"BILATERAL\". | Perm |", "figure_ref": null, "candidates": [{"md_atom_id": "md_dmMK_ex_a030", "md_file": "knowledge_base/domains/MK/examples.md", "md_atom_type": "TABLE_ROW", "md_parent_section": "§MK.1 [Example 1]", "md_verbatim": "| 14 | DEF | MK | DEF-138 | 14 | SWLLIND | Swollen Indicator | | | | NOT DONE | JOINT NOT EVALUABLE | SHOULDER JOINT | RIGHT | PHYSICAL EXAMINATION | 2 | WEEK 4 | 2012-09-30 |", "score": 0.4842, "match_basis": "verbatim_token+domain_route:MK"}, {"md_atom_id": "md_dmMK_ex_a022", "md_file": "knowledge_base/domains/MK/examples.md", "md_atom_type": "TABLE_ROW", "md_parent_section": "§MK.1 [Example 1]", "md_verbatim": "| 6 | DEF | MK | DEF-138 | 6 | SWLLIND | Swollen Indicator | N | N | | | | STERNOCLAVICULAR JOINT | RIGHT | PHYSICAL EXAMINATION | 2 | WEEK 4 | 2012-09-30 |", "score": 0.4796, "match_basis": "verbatim_token+domain_route:MK"}, {"md_atom_id": "md_dmMK_ex_a026", "md_file": "knowledge_base/domains/MK/examples.md", "md_atom_type": "TABLE_ROW", "md_parent_section": "§MK.1 [Example 1]", "md_verbatim": "| 10 | DEF | MK | DEF-138 | 10 | SWLLIND | Swollen Indicator | | | | NOT DONE | | ACROMIOCLAVICULAR JOINT | RIGHT | PHYSICAL EXAMINATION | 2 | WEEK 4 | 2012-09-30 |", "score": 0.4769, "match_basis": "verbatim_token+domain_route:MK"}, {"md_atom_id": "md_dmMK_ex_a029", "md_file": "knowledge_base/domains/MK/examples.md", "md_atom_type": "TABLE_ROW", "md_parent_section": "§MK.1 [Example 1]", "md_verbatim": "| 13 | DEF | MK | DEF-138 | 13 | TNDRIND | Tenderness Indicator | | | | NOT DONE | JOINT NOT EVALUABLE | SHOULDER JOINT | RIGHT | PHYSICAL EXAMINATION | 2 | WEEK 4 | 2012-09-30 |", "score": 0.4769, "match_basis": "verbatim_token+domain_route:MK"}, {"md_atom_id": "md_dmMK_ex_a024", "md_file": "knowledge_base/domains/MK/examples.md", "md_atom_type": "TABLE_ROW", "md_parent_section": "§MK.1 [Example 1]", "md_verbatim": "| 8 | DEF | MK | DEF-138 | 8 | SWLLIND | Swollen Indicator | Y | Y | | | | STERNOCLAVICULAR JOINT | LEFT | PHYSICAL EXAMINATION | 2 | WEEK 4 | 2012-09-30 |", "score": 0.4743, "match_basis": "verbatim_token+domain_route:MK"}], "candidate_count": 5, "zero_candidate": false}
{"pdf_atom_id": "ig34_p0291_a006", "pdf_atom_type": "TABLE_ROW", "pdf_source": "SDTMIG_v3.4", "pdf_page": 291, "pdf_parent_section": "§6.3.7.3 Musculoskeletal System Findings (MK)", "pdf_verbatim": "| MKDIR | Directionality | Char | (DIR) | Variable Qualifier | Qualifier for anatomical location further detailing directionality. Examples: \"ANTERIOR\", \"LOWER\", \"PROXIMAL\". | Perm |", "figure_ref": null, "candidates": [{"md_atom_id": "md_dmMK_ex_a051", "md_file": "knowledge_base/domains/MK/examples.md", "md_atom_type": "TABLE_ROW", "md_parent_section": "§MK.2 [Example 2]", "md_verbatim": "| 3 | XYZ | MK | XYZ-002 | 3 | SGJSNSCR | Sharp/Genant JSN Score | | | | NOT DONE | AMPUTATION/MISSING ANATOMY/JOINT REPLACEMENT/ SURGICAL ALTERATION | PROXIMAL INTERPHALANGEAL JOINT 2 | RIGHT | X-RAY | INDEPENDENT ASSESSOR | READER 1 | 4 | WEEK 12 | 2013-08-12 |", "score": 0.4792, "match_basis": "verbatim_token+domain_route:MK"}, {"md_atom_id": "md_dmMK_ex_a030", "md_file": "knowledge_base/domains/MK/examples.md", "md_atom_type": "TABLE_ROW", "md_parent_section": "§MK.1 [Example 1]", "md_verbatim": "| 14 | DEF | MK | DEF-138 | 14 | SWLLIND | Swollen Indicator | | | | NOT DONE | JOINT NOT EVALUABLE | SHOULDER JOINT | RIGHT | PHYSICAL EXAMINATION | 2 | WEEK 4 | 2012-09-30 |", "score": 0.4645, "match_basis": "verbatim_token+domain_route:MK"}, {"md_atom_id": "md_dmMK_ex_a054", "md_file": "knowledge_base/domains/MK/examples.md", "md_atom_type": "TABLE_ROW", "md_parent_section": "§MK.2 [Example 2]", "md_verbatim": "| 6 | XYZ | MK | XYZ-002 | 6 | SGJSNSCR | Sharp/Genant JSN Score | | | | NOT DONE | INADEQUATE IMAGE QUALITY | PROXIMAL INTERPHALANGEAL JOINT 3 | LEFT | X-RAY | INDEPENDENT ASSESSOR | READER 1 | 4 | WEEK 12 | 2013-08-12 |", "score": 0.4638, "match_basis": "verbatim_token+domain_route:MK"}, {"md_atom_id": "md_dmMK_ex_a024", "md_file": "knowledge_base/domains/MK/examples.md", "md_atom_type": "TABLE_ROW", "md_parent_section": "§MK.1 [Example 1]", "md_verbatim": "| 8 | DEF | MK | DEF-138 | 8 | SWLLIND | Swollen Indicator | Y | Y | | | | STERNOCLAVICULAR JOINT | LEFT | PHYSICAL EXAMINATION | 2 | WEEK 4 | 2012-09-30 |", "score": 0.4605, "match_basis": "verbatim_token+domain_route:MK"}, {"md_atom_id": "md_dmMK_ex_a022", "md_file": "knowledge_base/domains/MK/examples.md", "md_atom_type": "TABLE_ROW", "md_parent_section": "§MK.1 [Example 1]", "md_verbatim": "| 6 | DEF | MK | DEF-138 | 6 | SWLLIND | Swollen Indicator | N | N | | | | STERNOCLAVICULAR JOINT | RIGHT | PHYSICAL EXAMINATION | 2 | WEEK 4 | 2012-09-30 |", "score": 0.46, "match_basis": "verbatim_token+domain_route:MK"}], "candidate_count": 5, "zero_candidate": false}
{"pdf_atom_id": "ig34_p0291_a007", "pdf_atom_type": "TABLE_ROW", "pdf_source": "SDTMIG_v3.4", "pdf_page": 291, "pdf_parent_section": "§6.3.7.3 Musculoskeletal System Findings (MK)", "pdf_verbatim": "| MKMETHOD | Method of Test or Examination | Char | (METHOD) | Record Qualifier | Method of the test or examination. Examples: \"X-RAY\", \"MRI\", \"CT SCAN\". | Perm |", "figure_ref": null, "candidates": [{"md_atom_id": "md_dmMK_ex_a032", "md_file": "knowledge_base/domains/MK/examples.md", "md_atom_type": "TABLE_ROW", "md_parent_section": "§MK.1 [Example 1]", "md_verbatim": "| 16 | DEF | MK | DEF-138 | 16 | SWLLIND | Swollen Indicator | Y | Y | | | | SHOULDER JOINT | LEFT | PHYSICAL EXAMINATION | 2 | WEEK 4 | 2012-09-30 |", "score": 0.4684, "match_basis": "verbatim_token+domain_route:MK"}, {"md_atom_id": "md_dmMK_ex_a031", "md_file": "knowledge_base/domains/MK/examples.md", "md_atom_type": "TABLE_ROW", "md_parent_section": "§MK.1 [Example 1]", "md_verbatim": "| 15 | DEF | MK | DEF-138 | 15 | TNDRIND | Tenderness Indicator | N | N | | | | SHOULDER JOINT | LEFT | PHYSICAL EXAMINATION | 2 | WEEK 4 | 2012-09-30 |", "score": 0.4667, "match_basis": "verbatim_token+domain_route:MK"}, {"md_atom_id": "md_dmMK_ex_a020", "md_file": "knowledge_base/domains/MK/examples.md", "md_atom_type": "TABLE_ROW", "md_parent_section": "§MK.1 [Example 1]", "md_verbatim": "| 4 | DEF | MK | DEF-138 | 4 | SWLLIND | Swollen Indicator | N | N | | | | TEMPOROMANDIBULAR JOINT | LEFT | PHYSICAL EXAMINATION | 2 | WEEK 4 | 2012-09-30 |", "score": 0.4621, "match_basis": "verbatim_token+domain_route:MK"}, {"md_atom_id": "md_dmMK_ex_a024", "md_file": "knowledge_base/domains/MK/examples.md", "md_atom_type": "TABLE_ROW", "md_parent_section": "§MK.1 [Example 1]", "md_verbatim": "| 8 | DEF | MK | DEF-138 | 8 | SWLLIND | Swollen Indicator | Y | Y | | | | STERNOCLAVICULAR JOINT | LEFT | PHYSICAL EXAMINATION | 2 | WEEK 4 | 2012-09-30 |", "score": 0.4621, "match_basis": "verbatim_token+domain_route:MK"}, {"md_atom_id": "md_dmMK_ex_a018", "md_file": "knowledge_base/domains/MK/examples.md", "md_atom_type": "TABLE_ROW", "md_parent_section": "§MK.1 [Example 1]", "md_verbatim": "| 2 | DEF | MK | DEF-138 | 2 | SWLLIND | Swollen Indicator | Y | Y | | | | TEMPOROMANDIBULAR JOINT | RIGHT | PHYSICAL EXAMINATION | 2 | WEEK 4 | 2012-09-30 |", "score": 0.4614, "match_basis": "verbatim_token+domain_route:MK"}], "candidate_count": 5, "zero_candidate": false}
{"pdf_atom_id": "ig34_p0291_a008", "pdf_atom_type": "TABLE_ROW", "pdf_source": "SDTMIG_v3.4", "pdf_page": 291, "pdf_parent_section": "§6.3.7.3 Musculoskeletal System Findings (MK)", "pdf_verbatim": "| MKLOBXFL | Last Observation Before Exposure Flag | Char | (NY) | Record Qualifier | Operationally derived indicator used to identify the last non-missing value prior to RFXSTDTC. The value should be \"Y\" or null. | Exp |", "figure_ref": null, "candidates": [{"md_atom_id": "md_dmMK_ex_a030", "md_file": "knowledge_base/domains/MK/examples.md", "md_atom_type": "TABLE_ROW", "md_parent_section": "§MK.1 [Example 1]", "md_verbatim": "| 14 | DEF | MK | DEF-138 | 14 | SWLLIND | Swollen Indicator | | | | NOT DONE | JOINT NOT EVALUABLE | SHOULDER JOINT | RIGHT | PHYSICAL EXAMINATION | 2 | WEEK 4 | 2012-09-30 |", "score": 0.475, "match_basis": "verbatim_token+domain_route:MK"}, {"md_atom_id": "md_dmMK_ex_a029", "md_file": "knowledge_base/domains/MK/examples.md", "md_atom_type": "TABLE_ROW", "md_parent_section": "§MK.1 [Example 1]", "md_verbatim": "| 13 | DEF | MK | DEF-138 | 13 | TNDRIND | Tenderness Indicator | | | | NOT DONE | JOINT NOT EVALUABLE | SHOULDER JOINT | RIGHT | PHYSICAL EXAMINATION | 2 | WEEK 4 | 2012-09-30 |", "score": 0.4739, "match_basis": "verbatim_token+domain_route:MK"}, {"md_atom_id": "md_dmMK_ex_a032", "md_file": "knowledge_base/domains/MK/examples.md", "md_atom_type": "TABLE_ROW", "md_parent_section": "§MK.1 [Example 1]", "md_verbatim": "| 16 | DEF | MK | DEF-138 | 16 | SWLLIND | Swollen Indicator | Y | Y | | | | SHOULDER JOINT | LEFT | PHYSICAL EXAMINATION | 2 | WEEK 4 | 2012-09-30 |", "score": 0.4709, "match_basis": "verbatim_token+domain_route:MK"}, {"md_atom_id": "md_dmMK_ex_a031", "md_file": "knowledge_base/domains/MK/examples.md", "md_atom_type": "TABLE_ROW", "md_parent_section": "§MK.1 [Example 1]", "md_verbatim": "| 15 | DEF | MK | DEF-138 | 15 | TNDRIND | Tenderness Indicator | N | N | | | | SHOULDER JOINT | LEFT | PHYSICAL EXAMINATION | 2 | WEEK 4 | 2012-09-30 |", "score": 0.4698, "match_basis": "verbatim_token+domain_route:MK"}, {"md_atom_id": "md_dmMK_ex_a060", "md_file": "knowledge_base/domains/MK/examples.md", "md_atom_type": "TABLE_ROW", "md_parent_section": "§MK.2 [Example 2]", "md_verbatim": "| 12 | XYZ | MK | XYZ-002 | 12 | SGJSNSCR | Sharp/Genant JSN Score | | | | NOT DONE | AMPUTATION/MISSING ANATOMY/JOINT REPLACEMENT/SURGICAL ALTERATION | METACARPOPHALANGEAL JOINT 3 | LEFT | X-RAY | INDEPENDENT ASSESSOR | READER 1 | 4 | WEEK 12 | 2013-08-12 |", "score": 0.4678, "match_basis": "verbatim_token+domain_route:MK"}], "candidate_count": 5, "zero_candidate": false}
{"pdf_atom_id": "ig34_p0291_a009", "pdf_atom_type": "TABLE_ROW", "pdf_source": "SDTMIG_v3.4", "pdf_page": 291, "pdf_parent_section": "§6.3.7.3 Musculoskeletal System Findings (MK)", "pdf_verbatim": "| MKBLFL | Baseline Flag | Char | (NY) | Record Qualifier | Indicator used to identify a baseline value. Should be \"Y\" or null. Note that MKBLFL is retained for backward compatibility. The authoritative baseline for statistical analysis is in an ADaM dataset. | Perm |", "figure_ref": null, "candidates": [{"md_atom_id": "md_dmMK_ex_a030", "md_file": "knowledge_base/domains/MK/examples.md", "md_atom_type": "TABLE_ROW", "md_parent_section": "§MK.1 [Example 1]", "md_verbatim": "| 14 | DEF | MK | DEF-138 | 14 | SWLLIND | Swollen Indicator | | | | NOT DONE | JOINT NOT EVALUABLE | SHOULDER JOINT | RIGHT | PHYSICAL EXAMINATION | 2 | WEEK 4 | 2012-09-30 |", "score": 0.4735, "match_basis": "verbatim_token+domain_route:MK"}, {"md_atom_id": "md_dmMK_ex_a029", "md_file": "knowledge_base/domains/MK/examples.md", "md_atom_type": "TABLE_ROW", "md_parent_section": "§MK.1 [Example 1]", "md_verbatim": "| 13 | DEF | MK | DEF-138 | 13 | TNDRIND | Tenderness Indicator | | | | NOT DONE | JOINT NOT EVALUABLE | SHOULDER JOINT | RIGHT | PHYSICAL EXAMINATION | 2 | WEEK 4 | 2012-09-30 |", "score": 0.468, "match_basis": "verbatim_token+domain_route:MK"}, {"md_atom_id": "md_dmMK_ex_a032", "md_file": "knowledge_base/domains/MK/examples.md", "md_atom_type": "TABLE_ROW", "md_parent_section": "§MK.1 [Example 1]", "md_verbatim": "| 16 | DEF | MK | DEF-138 | 16 | SWLLIND | Swollen Indicator | Y | Y | | | | SHOULDER JOINT | LEFT | PHYSICAL EXAMINATION | 2 | WEEK 4 | 2012-09-30 |", "score": 0.4647, "match_basis": "verbatim_token+domain_route:MK"}, {"md_atom_id": "md_dmMK_ex_a031", "md_file": "knowledge_base/domains/MK/examples.md", "md_atom_type": "TABLE_ROW", "md_parent_section": "§MK.1 [Example 1]", "md_verbatim": "| 15 | DEF | MK | DEF-138 | 15 | TNDRIND | Tenderness Indicator | N | N | | | | SHOULDER JOINT | LEFT | PHYSICAL EXAMINATION | 2 | WEEK 4 | 2012-09-30 |", "score": 0.4592, "match_basis": "verbatim_token+domain_route:MK"}, {"md_atom_id": "md_dmMK_ex_a026", "md_file": "knowledge_base/domains/MK/examples.md", "md_atom_type": "TABLE_ROW", "md_parent_section": "§MK.1 [Example 1]", "md_verbatim": "| 10 | DEF | MK | DEF-138 | 10 | SWLLIND | Swollen Indicator | | | | NOT DONE | | ACROMIOCLAVICULAR JOINT | RIGHT | PHYSICAL EXAMINATION | 2 | WEEK 4 | 2012-09-30 |", "score": 0.4465, "match_basis": "verbatim_token+domain_route:MK"}], "candidate_count": 5, "zero_candidate": false}
{"pdf_atom_id": "ig34_p0291_a010", "pdf_atom_type": "TABLE_ROW", "pdf_source": "SDTMIG_v3.4", "pdf_page": 291, "pdf_parent_section": "§6.3.7.3 Musculoskeletal System Findings (MK)", "pdf_verbatim": "| MKDRVFL | Derived Flag | Char | (NY) | Record Qualifier | Used to indicate a derived record (e.g., a record that represents the average of other records such as a computed baseline). Should be \"Y\" or null. | Perm |", "figure_ref": null, "candidates": [{"md_atom_id": "md_dmMK_ex_a032", "md_file": "knowledge_base/domains/MK/examples.md", "md_atom_type": "TABLE_ROW", "md_parent_section": "§MK.1 [Example 1]", "md_verbatim": "| 16 | DEF | MK | DEF-138 | 16 | SWLLIND | Swollen Indicator | Y | Y | | | | SHOULDER JOINT | LEFT | PHYSICAL EXAMINATION | 2 | WEEK 4 | 2012-09-30 |", "score": 0.46, "match_basis": "verbatim_token+domain_route:MK"}, {"md_atom_id": "md_dmMK_ex_a030", "md_file": "knowledge_base/domains/MK/examples.md", "md_atom_type": "TABLE_ROW", "md_parent_section": "§MK.1 [Example 1]", "md_verbatim": "| 14 | DEF | MK | DEF-138 | 14 | SWLLIND | Swollen Indicator | | | | NOT DONE | JOINT NOT EVALUABLE | SHOULDER JOINT | RIGHT | PHYSICAL EXAMINATION | 2 | WEEK 4 | 2012-09-30 |", "score": 0.4545, "match_basis": "verbatim_token+domain_route:MK"}, {"md_atom_id": "md_dmMK_ex_a031", "md_file": "knowledge_base/domains/MK/examples.md", "md_atom_type": "TABLE_ROW", "md_parent_section": "§MK.1 [Example 1]", "md_verbatim": "| 15 | DEF | MK | DEF-138 | 15 | TNDRIND | Tenderness Indicator | N | N | | | | SHOULDER JOINT | LEFT | PHYSICAL EXAMINATION | 2 | WEEK 4 | 2012-09-30 |", "score": 0.4531, "match_basis": "verbatim_token+domain_route:MK"}, {"md_atom_id": "md_dmMK_ex_a029", "md_file": "knowledge_base/domains/MK/examples.md", "md_atom_type": "TABLE_ROW", "md_parent_section": "§MK.1 [Example 1]", "md_verbatim": "| 13 | DEF | MK | DEF-138 | 13 | TNDRIND | Tenderness Indicator | | | | NOT DONE | JOINT NOT EVALUABLE | SHOULDER JOINT | RIGHT | PHYSICAL EXAMINATION | 2 | WEEK 4 | 2012-09-30 |", "score": 0.4484, "match_basis": "verbatim_token+domain_route:MK"}, {"md_atom_id": "md_dmMK_ex_a054", "md_file": "knowledge_base/domains/MK/examples.md", "md_atom_type": "TABLE_ROW", "md_parent_section": "§MK.2 [Example 2]", "md_verbatim": "| 6 | XYZ | MK | XYZ-002 | 6 | SGJSNSCR | Sharp/Genant JSN Score | | | | NOT DONE | INADEQUATE IMAGE QUALITY | PROXIMAL INTERPHALANGEAL JOINT 3 | LEFT | X-RAY | INDEPENDENT ASSESSOR | READER 1 | 4 | WEEK 12 | 2013-08-12 |", "score": 0.4417, "match_basis": "verbatim_token+domain_route:MK"}], "candidate_count": 5, "zero_candidate": false}
{"pdf_atom_id": "ig34_p0291_a011", "pdf_atom_type": "TABLE_ROW", "pdf_source": "SDTMIG_v3.4", "pdf_page": 291, "pdf_parent_section": "§6.3.7.3 Musculoskeletal System Findings (MK)", "pdf_verbatim": "| MKEVAL | Evaluator | Char | (EVAL) | Record Qualifier | Role of the person who provided the evaluation. Used only for results that are subjective (e.g., assigned by a person or a group). Examples: \"ADJUDICATION COMMITTEE\", \"INDEPENDENT ASSESSOR\", \"RADIOLOGIST\". | Perm |", "figure_ref": null, "candidates": [{"md_atom_id": "md_dmMK_ex_a051", "md_file": "knowledge_base/domains/MK/examples.md", "md_atom_type": "TABLE_ROW", "md_parent_section": "§MK.2 [Example 2]", "md_verbatim": "| 3 | XYZ | MK | XYZ-002 | 3 | SGJSNSCR | Sharp/Genant JSN Score | | | | NOT DONE | AMPUTATION/MISSING ANATOMY/JOINT REPLACEMENT/ SURGICAL ALTERATION | PROXIMAL INTERPHALANGEAL JOINT 2 | RIGHT | X-RAY | INDEPENDENT ASSESSOR | READER 1 | 4 | WEEK 12 | 2013-08-12 |", "score": 0.475, "match_basis": "verbatim_token+domain_route:MK"}, {"md_atom_id": "md_dmMK_ex_a054", "md_file": "knowledge_base/domains/MK/examples.md", "md_atom_type": "TABLE_ROW", "md_parent_section": "§MK.2 [Example 2]", "md_verbatim": "| 6 | XYZ | MK | XYZ-002 | 6 | SGJSNSCR | Sharp/Genant JSN Score | | | | NOT DONE | INADEQUATE IMAGE QUALITY | PROXIMAL INTERPHALANGEAL JOINT 3 | LEFT | X-RAY | INDEPENDENT ASSESSOR | READER 1 | 4 | WEEK 12 | 2013-08-12 |", "score": 0.4737, "match_basis": "verbatim_token+domain_route:MK"}, {"md_atom_id": "md_dmMK_ex_a060", "md_file": "knowledge_base/domains/MK/examples.md", "md_atom_type": "TABLE_ROW", "md_parent_section": "§MK.2 [Example 2]", "md_verbatim": "| 12 | XYZ | MK | XYZ-002 | 12 | SGJSNSCR | Sharp/Genant JSN Score | | | | NOT DONE | AMPUTATION/MISSING ANATOMY/JOINT REPLACEMENT/SURGICAL ALTERATION | METACARPOPHALANGEAL JOINT 3 | LEFT | X-RAY | INDEPENDENT ASSESSOR | READER 1 | 4 | WEEK 12 | 2013-08-12 |", "score": 0.4723, "match_basis": "verbatim_token+domain_route:MK"}, {"md_atom_id": "md_dmMK_ex_a029", "md_file": "knowledge_base/domains/MK/examples.md", "md_atom_type": "TABLE_ROW", "md_parent_section": "§MK.1 [Example 1]", "md_verbatim": "| 13 | DEF | MK | DEF-138 | 13 | TNDRIND | Tenderness Indicator | | | | NOT DONE | JOINT NOT EVALUABLE | SHOULDER JOINT | RIGHT | PHYSICAL EXAMINATION | 2 | WEEK 4 | 2012-09-30 |", "score": 0.4701, "match_basis": "verbatim_token+domain_route:MK"}, {"md_atom_id": "md_dmMK_ex_a057", "md_file": "knowledge_base/domains/MK/examples.md", "md_atom_type": "TABLE_ROW", "md_parent_section": "§MK.2 [Example 2]", "md_verbatim": "| 9 | XYZ | MK | XYZ-002 | 9 | SGJSNSCR | Sharp/Genant JSN Score | | | | NOT DONE | INADEQUATE IMAGE QUALITY | METACARPOPHALANGEAL JOINT 2 | RIGHT | X-RAY | INDEPENDENT ASSESSOR | READER 1 | 4 | WEEK 12 | 2013-08-12 |", "score": 0.4698, "match_basis": "verbatim_token+domain_route:MK"}], "candidate_count": 5, "zero_candidate": false}
{"pdf_atom_id": "ig34_p0291_a012", "pdf_atom_type": "TABLE_ROW", "pdf_source": "SDTMIG_v3.4", "pdf_page": 291, "pdf_parent_section": "§6.3.7.3 Musculoskeletal System Findings (MK)", "pdf_verbatim": "| MKEVALID | Evaluator Identifier | Char | (MEDEVAL) | Variable Qualifier | Used to distinguish multiple evaluators with the same role recorded in MKEVAL. Examples: \"RADIOLOGIST1\" or \"RADIOLOGIST2\". | Perm |", "figure_ref": null, "candidates": [{"md_atom_id": "md_dmMK_ex_a030", "md_file": "knowledge_base/domains/MK/examples.md", "md_atom_type": "TABLE_ROW", "md_parent_section": "§MK.1 [Example 1]", "md_verbatim": "| 14 | DEF | MK | DEF-138 | 14 | SWLLIND | Swollen Indicator | | | | NOT DONE | JOINT NOT EVALUABLE | SHOULDER JOINT | RIGHT | PHYSICAL EXAMINATION | 2 | WEEK 4 | 2012-09-30 |", "score": 0.4465, "match_basis": "verbatim_token+domain_route:MK"}, {"md_atom_id": "md_dmMK_ex_a029", "md_file": "knowledge_base/domains/MK/examples.md", "md_atom_type": "TABLE_ROW", "md_parent_section": "§MK.1 [Example 1]", "md_verbatim": "| 13 | DEF | MK | DEF-138 | 13 | TNDRIND | Tenderness Indicator | | | | NOT DONE | JOINT NOT EVALUABLE | SHOULDER JOINT | RIGHT | PHYSICAL EXAMINATION | 2 | WEEK 4 | 2012-09-30 |", "score": 0.4458, "match_basis": "verbatim_token+domain_route:MK"}, {"md_atom_id": "md_dmMK_ex_a054", "md_file": "knowledge_base/domains/MK/examples.md", "md_atom_type": "TABLE_ROW", "md_parent_section": "§MK.2 [Example 2]", "md_verbatim": "| 6 | XYZ | MK | XYZ-002 | 6 | SGJSNSCR | Sharp/Genant JSN Score | | | | NOT DONE | INADEQUATE IMAGE QUALITY | PROXIMAL INTERPHALANGEAL JOINT 3 | LEFT | X-RAY | INDEPENDENT ASSESSOR | READER 1 | 4 | WEEK 12 | 2013-08-12 |", "score": 0.4314, "match_basis": "verbatim_token+domain_route:MK"}, {"md_atom_id": "md_dmMK_ex_a057", "md_file": "knowledge_base/domains/MK/examples.md", "md_atom_type": "TABLE_ROW", "md_parent_section": "§MK.2 [Example 2]", "md_verbatim": "| 9 | XYZ | MK | XYZ-002 | 9 | SGJSNSCR | Sharp/Genant JSN Score | | | | NOT DONE | INADEQUATE IMAGE QUALITY | METACARPOPHALANGEAL JOINT 2 | RIGHT | X-RAY | INDEPENDENT ASSESSOR | READER 1 | 4 | WEEK 12 | 2013-08-12 |", "score": 0.4314, "match_basis": "verbatim_token+domain_route:MK"}, {"md_atom_id": "md_dmMK_ex_a063", "md_file": "knowledge_base/domains/MK/examples.md", "md_atom_type": "TABLE_ROW", "md_parent_section": "§MK.2 [Example 2]", "md_verbatim": "| 15 | XYZ | MK | XYZ-002 | 15 | SGJSNSCR | Sharp/Genant JSN Score | QUESTIONABLE | 0.5 | 0.5 | | | METACARPOPHALANGEAL JOINT 5 | RIGHT | X-RAY | INDEPENDENT ASSESSOR | READER 1 | 4 | WEEK 12 | 2013-08-12 |", "score": 0.4286, "match_basis": "verbatim_token+domain_route:MK"}], "candidate_count": 5, "zero_candidate": false}
{"pdf_atom_id": "ig34_p0291_a013", "pdf_atom_type": "TABLE_ROW", "pdf_source": "SDTMIG_v3.4", "pdf_page": 291, "pdf_parent_section": "§6.3.7.3 Musculoskeletal System Findings (MK)", "pdf_verbatim": "| VISITNUM | Visit Number | Num | | Timing | Clinical encounter number. Numeric version of VISIT, used for sorting. | Exp |", "figure_ref": null, "candidates": [{"md_atom_id": "md_dmMK_ex_a024", "md_file": "knowledge_base/domains/MK/examples.md", "md_atom_type": "TABLE_ROW", "md_parent_section": "§MK.1 [Example 1]", "md_verbatim": "| 8 | DEF | MK | DEF-138 | 8 | SWLLIND | Swollen Indicator | Y | Y | | | | STERNOCLAVICULAR JOINT | LEFT | PHYSICAL EXAMINATION | 2 | WEEK 4 | 2012-09-30 |", "score": 0.4391, "match_basis": "verbatim_token+domain_route:MK"}, {"md_atom_id": "md_dmMK_ex_a022", "md_file": "knowledge_base/domains/MK/examples.md", "md_atom_type": "TABLE_ROW", "md_parent_section": "§MK.1 [Example 1]", "md_verbatim": "| 6 | DEF | MK | DEF-138 | 6 | SWLLIND | Swollen Indicator | N | N | | | | STERNOCLAVICULAR JOINT | RIGHT | PHYSICAL EXAMINATION | 2 | WEEK 4 | 2012-09-30 |", "score": 0.4387, "match_basis": "verbatim_token+domain_route:MK"}, {"md_atom_id": "md_dmMK_ex_a032", "md_file": "knowledge_base/domains/MK/examples.md", "md_atom_type": "TABLE_ROW", "md_parent_section": "§MK.1 [Example 1]", "md_verbatim": "| 16 | DEF | MK | DEF-138 | 16 | SWLLIND | Swollen Indicator | Y | Y | | | | SHOULDER JOINT | LEFT | PHYSICAL EXAMINATION | 2 | WEEK 4 | 2012-09-30 |", "score": 0.4353, "match_basis": "verbatim_token+domain_route:MK"}, {"md_atom_id": "md_dmMK_ex_a020", "md_file": "knowledge_base/domains/MK/examples.md", "md_atom_type": "TABLE_ROW", "md_parent_section": "§MK.1 [Example 1]", "md_verbatim": "| 4 | DEF | MK | DEF-138 | 4 | SWLLIND | Swollen Indicator | N | N | | | | TEMPOROMANDIBULAR JOINT | LEFT | PHYSICAL EXAMINATION | 2 | WEEK 4 | 2012-09-30 |", "score": 0.4323, "match_basis": "verbatim_token+domain_route:MK"}, {"md_atom_id": "md_dmMK_ex_a018", "md_file": "knowledge_base/domains/MK/examples.md", "md_atom_type": "TABLE_ROW", "md_parent_section": "§MK.1 [Example 1]", "md_verbatim": "| 2 | DEF | MK | DEF-138 | 2 | SWLLIND | Swollen Indicator | Y | Y | | | | TEMPOROMANDIBULAR JOINT | RIGHT | PHYSICAL EXAMINATION | 2 | WEEK 4 | 2012-09-30 |", "score": 0.4319, "match_basis": "verbatim_token+domain_route:MK"}], "candidate_count": 5, "zero_candidate": false}
{"pdf_atom_id": "ig34_p0291_a014", "pdf_atom_type": "TABLE_ROW", "pdf_source": "SDTMIG_v3.4", "pdf_page": 291, "pdf_parent_section": "§6.3.7.3 Musculoskeletal System Findings (MK)", "pdf_verbatim": "| VISIT | Visit Name | Char | | Timing | Protocol-defined description of a clinical encounter. | Perm |", "figure_ref": null, "candidates": [{"md_atom_id": "md_dmMK_ex_a024", "md_file": "knowledge_base/domains/MK/examples.md", "md_atom_type": "TABLE_ROW", "md_parent_section": "§MK.1 [Example 1]", "md_verbatim": "| 8 | DEF | MK | DEF-138 | 8 | SWLLIND | Swollen Indicator | Y | Y | | | | STERNOCLAVICULAR JOINT | LEFT | PHYSICAL EXAMINATION | 2 | WEEK 4 | 2012-09-30 |", "score": 0.4516, "match_basis": "verbatim_token+domain_route:MK"}, {"md_atom_id": "md_dmMK_ex_a022", "md_file": "knowledge_base/domains/MK/examples.md", "md_atom_type": "TABLE_ROW", "md_parent_section": "§MK.1 [Example 1]", "md_verbatim": "| 6 | DEF | MK | DEF-138 | 6 | SWLLIND | Swollen Indicator | N | N | | | | STERNOCLAVICULAR JOINT | RIGHT | PHYSICAL EXAMINATION | 2 | WEEK 4 | 2012-09-30 |", "score": 0.4511, "match_basis": "verbatim_token+domain_route:MK"}, {"md_atom_id": "md_dmMK_ex_a032", "md_file": "knowledge_base/domains/MK/examples.md", "md_atom_type": "TABLE_ROW", "md_parent_section": "§MK.1 [Example 1]", "md_verbatim": "| 16 | DEF | MK | DEF-138 | 16 | SWLLIND | Swollen Indicator | Y | Y | | | | SHOULDER JOINT | LEFT | PHYSICAL EXAMINATION | 2 | WEEK 4 | 2012-09-30 |", "score": 0.4488, "match_basis": "verbatim_token+domain_route:MK"}, {"md_atom_id": "md_dmMK_ex_a020", "md_file": "knowledge_base/domains/MK/examples.md", "md_atom_type": "TABLE_ROW", "md_parent_section": "§MK.1 [Example 1]", "md_verbatim": "| 4 | DEF | MK | DEF-138 | 4 | SWLLIND | Swollen Indicator | N | N | | | | TEMPOROMANDIBULAR JOINT | LEFT | PHYSICAL EXAMINATION | 2 | WEEK 4 | 2012-09-30 |", "score": 0.4447, "match_basis": "verbatim_token+domain_route:MK"}, {"md_atom_id": "md_dmMK_ex_a018", "md_file": "knowledge_base/domains/MK/examples.md", "md_atom_type": "TABLE_ROW", "md_parent_section": "§MK.1 [Example 1]", "md_verbatim": "| 2 | DEF | MK | DEF-138 | 2 | SWLLIND | Swollen Indicator | Y | Y | | | | TEMPOROMANDIBULAR JOINT | RIGHT | PHYSICAL EXAMINATION | 2 | WEEK 4 | 2012-09-30 |", "score": 0.4442, "match_basis": "verbatim_token+domain_route:MK"}], "candidate_count": 5, "zero_candidate": false}
{"pdf_atom_id": "ig34_p0291_a015", "pdf_atom_type": "TABLE_ROW", "pdf_source": "SDTMIG_v3.4", "pdf_page": 291, "pdf_parent_section": "§6.3.7.3 Musculoskeletal System Findings (MK)", "pdf_verbatim": "| VISITDY | Planned Study Day of Visit | Num | | Timing | Planned study day of VISIT. Should be an integer. | Perm |", "figure_ref": null, "candidates": [{"md_atom_id": "md_dmMK_ex_a032", "md_file": "knowledge_base/domains/MK/examples.md", "md_atom_type": "TABLE_ROW", "md_parent_section": "§MK.1 [Example 1]", "md_verbatim": "| 16 | DEF | MK | DEF-138 | 16 | SWLLIND | Swollen Indicator | Y | Y | | | | SHOULDER JOINT | LEFT | PHYSICAL EXAMINATION | 2 | WEEK 4 | 2012-09-30 |", "score": 0.4507, "match_basis": "verbatim_token+domain_route:MK"}, {"md_atom_id": "md_dmMK_ex_a031", "md_file": "knowledge_base/domains/MK/examples.md", "md_atom_type": "TABLE_ROW", "md_parent_section": "§MK.1 [Example 1]", "md_verbatim": "| 15 | DEF | MK | DEF-138 | 15 | TNDRIND | Tenderness Indicator | N | N | | | | SHOULDER JOINT | LEFT | PHYSICAL EXAMINATION | 2 | WEEK 4 | 2012-09-30 |", "score": 0.4493, "match_basis": "verbatim_token+domain_route:MK"}, {"md_atom_id": "md_dmMK_ex_a030", "md_file": "knowledge_base/domains/MK/examples.md", "md_atom_type": "TABLE_ROW", "md_parent_section": "§MK.1 [Example 1]", "md_verbatim": "| 14 | DEF | MK | DEF-138 | 14 | SWLLIND | Swollen Indicator | | | | NOT DONE | JOINT NOT EVALUABLE | SHOULDER JOINT | RIGHT | PHYSICAL EXAMINATION | 2 | WEEK 4 | 2012-09-30 |", "score": 0.4439, "match_basis": "verbatim_token+domain_route:MK"}, {"md_atom_id": "md_dmMK_ex_a029", "md_file": "knowledge_base/domains/MK/examples.md", "md_atom_type": "TABLE_ROW", "md_parent_section": "§MK.1 [Example 1]", "md_verbatim": "| 13 | DEF | MK | DEF-138 | 13 | TNDRIND | Tenderness Indicator | | | | NOT DONE | JOINT NOT EVALUABLE | SHOULDER JOINT | RIGHT | PHYSICAL EXAMINATION | 2 | WEEK 4 | 2012-09-30 |", "score": 0.4429, "match_basis": "verbatim_token+domain_route:MK"}, {"md_atom_id": "md_dmMK_ex_a051", "md_file": "knowledge_base/domains/MK/examples.md", "md_atom_type": "TABLE_ROW", "md_parent_section": "§MK.2 [Example 2]", "md_verbatim": "| 3 | XYZ | MK | XYZ-002 | 3 | SGJSNSCR | Sharp/Genant JSN Score | | | | NOT DONE | AMPUTATION/MISSING ANATOMY/JOINT REPLACEMENT/ SURGICAL ALTERATION | PROXIMAL INTERPHALANGEAL JOINT 2 | RIGHT | X-RAY | INDEPENDENT ASSESSOR | READER 1 | 4 | WEEK 12 | 2013-08-12 |", "score": 0.4233, "match_basis": "verbatim_token+domain_route:MK"}], "candidate_count": 5, "zero_candidate": false}
{"pdf_atom_id": "ig34_p0291_a016", "pdf_atom_type": "TABLE_ROW", "pdf_source": "SDTMIG_v3.4", "pdf_page": 291, "pdf_parent_section": "§6.3.7.3 Musculoskeletal System Findings (MK)", "pdf_verbatim": "| TAETORD | Planned Order of Element within Arm | Num | | Timing | Number that gives the planned order of the element within the arm for the element in which the assessment was made. | Perm |", "figure_ref": null, "candidates": [{"md_atom_id": "md_dmMK_ex_a060", "md_file": "knowledge_base/domains/MK/examples.md", "md_atom_type": "TABLE_ROW", "md_parent_section": "§MK.2 [Example 2]", "md_verbatim": "| 12 | XYZ | MK | XYZ-002 | 12 | SGJSNSCR | Sharp/Genant JSN Score | | | | NOT DONE | AMPUTATION/MISSING ANATOMY/JOINT REPLACEMENT/SURGICAL ALTERATION | METACARPOPHALANGEAL JOINT 3 | LEFT | X-RAY | INDEPENDENT ASSESSOR | READER 1 | 4 | WEEK 12 | 2013-08-12 |", "score": 0.4511, "match_basis": "verbatim_token+domain_route:MK"}, {"md_atom_id": "md_dmMK_ex_a051", "md_file": "knowledge_base/domains/MK/examples.md", "md_atom_type": "TABLE_ROW", "md_parent_section": "§MK.2 [Example 2]", "md_verbatim": "| 3 | XYZ | MK | XYZ-002 | 3 | SGJSNSCR | Sharp/Genant JSN Score | | | | NOT DONE | AMPUTATION/MISSING ANATOMY/JOINT REPLACEMENT/ SURGICAL ALTERATION | PROXIMAL INTERPHALANGEAL JOINT 2 | RIGHT | X-RAY | INDEPENDENT ASSESSOR | READER 1 | 4 | WEEK 12 | 2013-08-12 |", "score": 0.4503, "match_basis": "verbatim_token+domain_route:MK"}, {"md_atom_id": "md_dmMK_ex_a064", "md_file": "knowledge_base/domains/MK/examples.md", "md_atom_type": "TABLE_ROW", "md_parent_section": "§MK.2 [Example 2]", "md_verbatim": "| 16 | XYZ | MK | XYZ-002 | 16 | SGJSNSCR | Sharp/Genant JSN Score | NORMAL | 0 | 0 | | | METACARPOPHALANGEAL JOINT 5 | LEFT | X-RAY | INDEPENDENT ASSESSOR | READER 1 | 4 | WEEK 12 | 2013-08-12 |", "score": 0.444, "match_basis": "verbatim_token+domain_route:MK"}, {"md_atom_id": "md_dmMK_ex_a059", "md_file": "knowledge_base/domains/MK/examples.md", "md_atom_type": "TABLE_ROW", "md_parent_section": "§MK.2 [Example 2]", "md_verbatim": "| 11 | XYZ | MK | XYZ-002 | 11 | SGJSNSCR | Sharp/Genant JSN Score | NORMAL | 0 | 0 | | | METACARPOPHALANGEAL JOINT 3 | RIGHT | X-RAY | INDEPENDENT ASSESSOR | READER 1 | 4 | WEEK 12 | 2013-08-12 |", "score": 0.4436, "match_basis": "verbatim_token+domain_route:MK"}, {"md_atom_id": "md_dmMK_ex_a049", "md_file": "knowledge_base/domains/MK/examples.md", "md_atom_type": "TABLE_ROW", "md_parent_section": "§MK.2 [Example 2]", "md_verbatim": "| 1 | XYZ | MK | XYZ-002 | 1 | SGJSNSCR | Sharp/Genant JSN Score | MODERATE; 51-75% LOSS OF JOINT SPACE | 2 | 2 | | | INTERPHALANGEAL JOINT 1 | RIGHT | X-RAY | INDEPENDENT ASSESSOR | READER 1 | 4 | WEEK 12 | 2013-08-12 |", "score": 0.4429, "match_basis": "verbatim_token+domain_route:MK"}], "candidate_count": 5, "zero_candidate": false}
{"pdf_atom_id": "ig34_p0291_a017", "pdf_atom_type": "TABLE_ROW", "pdf_source": "SDTMIG_v3.4", "pdf_page": 291, "pdf_parent_section": "§6.3.7.3 Musculoskeletal System Findings (MK)", "pdf_verbatim": "| EPOCH | Epoch | Char | (EPOCH) | Timing | Epoch associated with the date/time at which the assessment was made. | Perm |", "figure_ref": null, "candidates": [{"md_atom_id": "md_dmMK_ex_a049", "md_file": "knowledge_base/domains/MK/examples.md", "md_atom_type": "TABLE_ROW", "md_parent_section": "§MK.2 [Example 2]", "md_verbatim": "| 1 | XYZ | MK | XYZ-002 | 1 | SGJSNSCR | Sharp/Genant JSN Score | MODERATE; 51-75% LOSS OF JOINT SPACE | 2 | 2 | | | INTERPHALANGEAL JOINT 1 | RIGHT | X-RAY | INDEPENDENT ASSESSOR | READER 1 | 4 | WEEK 12 | 2013-08-12 |", "score": 0.4557, "match_basis": "verbatim_token+domain_route:MK"}, {"md_atom_id": "md_dmMK_ex_a050", "md_file": "knowledge_base/domains/MK/examples.md", "md_atom_type": "TABLE_ROW", "md_parent_section": "§MK.2 [Example 2]", "md_verbatim": "| 2 | XYZ | MK | XYZ-002 | 2 | SGJSNSCR | Sharp/Genant JSN Score | MODERATE-SEVERE; 51-75% LOSS OF JOINT SPACE | 2.5 | 2.5 | | | INTERPHALANGEAL JOINT 1 | LEFT | X-RAY | INDEPENDENT ASSESSOR | READER 1 | 4 | WEEK 12 | 2013-08-12 |", "score": 0.454, "match_basis": "verbatim_token+domain_route:MK"}, {"md_atom_id": "md_dmMK_ex_a058", "md_file": "knowledge_base/domains/MK/examples.md", "md_atom_type": "TABLE_ROW", "md_parent_section": "§MK.2 [Example 2]", "md_verbatim": "| 10 | XYZ | MK | XYZ-002 | 10 | SGJSNSCR | Sharp/Genant JSN Score | MILD-MODERATE; 26-50% LOSS OF JOINT SPACE | 1.5 | 1.5 | | | METACARPOPHALANGEAL JOINT 2 | LEFT | X-RAY | INDEPENDENT ASSESSOR | READER 1 | 4 | WEEK 12 | 2013-08-12 |", "score": 0.4529, "match_basis": "verbatim_token+domain_route:MK"}, {"md_atom_id": "md_dmMK_ex_a053", "md_file": "knowledge_base/domains/MK/examples.md", "md_atom_type": "TABLE_ROW", "md_parent_section": "§MK.2 [Example 2]", "md_verbatim": "| 5 | XYZ | MK | XYZ-002 | 5 | SGJSNSCR | Sharp/Genant JSN Score | MODERATE; 51-75% LOSS OF JOINT SPACE | 2 | 2 | | | PROXIMAL INTERPHALANGEAL JOINT 3 | RIGHT | X-RAY | INDEPENDENT ASSESSOR | READER 1 | 4 | WEEK 12 | 2013-08-12 |", "score": 0.4524, "match_basis": "verbatim_token+domain_route:MK"}, {"md_atom_id": "md_dmMK_ex_a055", "md_file": "knowledge_base/domains/MK/examples.md", "md_atom_type": "TABLE_ROW", "md_parent_section": "§MK.2 [Example 2]", "md_verbatim": "| 7 | XYZ | MK | XYZ-002 | 7 | SGJSNSCR | Sharp/Genant JSN Score | MODERATE-SEVERE; 76-95% LOSS OF JOINT SPACE | 2.5 | 2.5 | | | METACARPOPHALANGEAL JOINT 1 | RIGHT | X-RAY | INDEPENDENT ASSESSOR | READER 1 | 4 | WEEK 12 | 2013-08-12 |", "score": 0.4514, "match_basis": "verbatim_token+domain_route:MK"}], "candidate_count": 5, "zero_candidate": false}
{"pdf_atom_id": "ig34_p0291_a018", "pdf_atom_type": "TABLE_ROW", "pdf_source": "SDTMIG_v3.4", "pdf_page": 291, "pdf_parent_section": "§6.3.7.3 Musculoskeletal System Findings (MK)", "pdf_verbatim": "| MKDTC | Date/Time of Collection | Char | ISO 8601 datetime or interval | Timing | Collection date and time of an observation. | Exp |", "figure_ref": null, "candidates": [{"md_atom_id": "md_dmMK_ex_a020", "md_file": "knowledge_base/domains/MK/examples.md", "md_atom_type": "TABLE_ROW", "md_parent_section": "§MK.1 [Example 1]", "md_verbatim": "| 4 | DEF | MK | DEF-138 | 4 | SWLLIND | Swollen Indicator | N | N | | | | TEMPOROMANDIBULAR JOINT | LEFT | PHYSICAL EXAMINATION | 2 | WEEK 4 | 2012-09-30 |", "score": 0.4565, "match_basis": "verbatim_token+domain_route:MK"}, {"md_atom_id": "md_dmMK_ex_a024", "md_file": "knowledge_base/domains/MK/examples.md", "md_atom_type": "TABLE_ROW", "md_parent_section": "§MK.1 [Example 1]", "md_verbatim": "| 8 | DEF | MK | DEF-138 | 8 | SWLLIND | Swollen Indicator | Y | Y | | | | STERNOCLAVICULAR JOINT | LEFT | PHYSICAL EXAMINATION | 2 | WEEK 4 | 2012-09-30 |", "score": 0.4565, "match_basis": "verbatim_token+domain_route:MK"}, {"md_atom_id": "md_dmMK_ex_a018", "md_file": "knowledge_base/domains/MK/examples.md", "md_atom_type": "TABLE_ROW", "md_parent_section": "§MK.1 [Example 1]", "md_verbatim": "| 2 | DEF | MK | DEF-138 | 2 | SWLLIND | Swollen Indicator | Y | Y | | | | TEMPOROMANDIBULAR JOINT | RIGHT | PHYSICAL EXAMINATION | 2 | WEEK 4 | 2012-09-30 |", "score": 0.4558, "match_basis": "verbatim_token+domain_route:MK"}, {"md_atom_id": "md_dmMK_ex_a022", "md_file": "knowledge_base/domains/MK/examples.md", "md_atom_type": "TABLE_ROW", "md_parent_section": "§MK.1 [Example 1]", "md_verbatim": "| 6 | DEF | MK | DEF-138 | 6 | SWLLIND | Swollen Indicator | N | N | | | | STERNOCLAVICULAR JOINT | RIGHT | PHYSICAL EXAMINATION | 2 | WEEK 4 | 2012-09-30 |", "score": 0.4558, "match_basis": "verbatim_token+domain_route:MK"}, {"md_atom_id": "md_dmMK_ex_a030", "md_file": "knowledge_base/domains/MK/examples.md", "md_atom_type": "TABLE_ROW", "md_parent_section": "§MK.1 [Example 1]", "md_verbatim": "| 14 | DEF | MK | DEF-138 | 14 | SWLLIND | Swollen Indicator | | | | NOT DONE | JOINT NOT EVALUABLE | SHOULDER JOINT | RIGHT | PHYSICAL EXAMINATION | 2 | WEEK 4 | 2012-09-30 |", "score": 0.4545, "match_basis": "verbatim_token+domain_route:MK"}], "candidate_count": 5, "zero_candidate": false}
{"pdf_atom_id": "ig34_p0291_a019", "pdf_atom_type": "TABLE_ROW", "pdf_source": "SDTMIG_v3.4", "pdf_page": 291, "pdf_parent_section": "§6.3.7.3 Musculoskeletal System Findings (MK)", "pdf_verbatim": "| MKDY | Study Day of Visit/Collection/Exam | Num | | Timing | Actual study day of visit/collection/exam expressed in integer days relative to the sponsor-defined RFSTDTC in Demographics. | Perm |", "figure_ref": null, "candidates": [{"md_atom_id": "md_dmMK_ex_a032", "md_file": "knowledge_base/domains/MK/examples.md", "md_atom_type": "TABLE_ROW", "md_parent_section": "§MK.1 [Example 1]", "md_verbatim": "| 16 | DEF | MK | DEF-138 | 16 | SWLLIND | Swollen Indicator | Y | Y | | | | SHOULDER JOINT | LEFT | PHYSICAL EXAMINATION | 2 | WEEK 4 | 2012-09-30 |", "score": 0.4536, "match_basis": "verbatim_token+domain_route:MK"}, {"md_atom_id": "md_dmMK_ex_a020", "md_file": "knowledge_base/domains/MK/examples.md", "md_atom_type": "TABLE_ROW", "md_parent_section": "§MK.1 [Example 1]", "md_verbatim": "| 4 | DEF | MK | DEF-138 | 4 | SWLLIND | Swollen Indicator | N | N | | | | TEMPOROMANDIBULAR JOINT | LEFT | PHYSICAL EXAMINATION | 2 | WEEK 4 | 2012-09-30 |", "score": 0.45, "match_basis": "verbatim_token+domain_route:MK"}, {"md_atom_id": "md_dmMK_ex_a024", "md_file": "knowledge_base/domains/MK/examples.md", "md_atom_type": "TABLE_ROW", "md_parent_section": "§MK.1 [Example 1]", "md_verbatim": "| 8 | DEF | MK | DEF-138 | 8 | SWLLIND | Swollen Indicator | Y | Y | | | | STERNOCLAVICULAR JOINT | LEFT | PHYSICAL EXAMINATION | 2 | WEEK 4 | 2012-09-30 |", "score": 0.45, "match_basis": "verbatim_token+domain_route:MK"}, {"md_atom_id": "md_dmMK_ex_a018", "md_file": "knowledge_base/domains/MK/examples.md", "md_atom_type": "TABLE_ROW", "md_parent_section": "§MK.1 [Example 1]", "md_verbatim": "| 2 | DEF | MK | DEF-138 | 2 | SWLLIND | Swollen Indicator | Y | Y | | | | TEMPOROMANDIBULAR JOINT | RIGHT | PHYSICAL EXAMINATION | 2 | WEEK 4 | 2012-09-30 |", "score": 0.4496, "match_basis": "verbatim_token+domain_route:MK"}, {"md_atom_id": "md_dmMK_ex_a022", "md_file": "knowledge_base/domains/MK/examples.md", "md_atom_type": "TABLE_ROW", "md_parent_section": "§MK.1 [Example 1]", "md_verbatim": "| 6 | DEF | MK | DEF-138 | 6 | SWLLIND | Swollen Indicator | N | N | | | | STERNOCLAVICULAR JOINT | RIGHT | PHYSICAL EXAMINATION | 2 | WEEK 4 | 2012-09-30 |", "score": 0.4496, "match_basis": "verbatim_token+domain_route:MK"}], "candidate_count": 5, "zero_candidate": false}
{"pdf_atom_id": "ig34_p0291_a020", "pdf_atom_type": "TABLE_ROW", "pdf_source": "SDTMIG_v3.4", "pdf_page": 291, "pdf_parent_section": "§6.3.7.3 Musculoskeletal System Findings (MK)", "pdf_verbatim": "| MKTPT | Planned Time Point Name | Char | | Timing | Text description of time when a measurement or observation should be taken as defined in the protocol. This may be represented as an elapsed time relative to a fixed reference point, such as time of last dose. See MKTPTNUM and MKTPTREF. | Perm |", "figure_ref": null, "candidates": [{"md_atom_id": "md_dmMK_ex_a051", "md_file": "knowledge_base/domains/MK/examples.md", "md_atom_type": "TABLE_ROW", "md_parent_section": "§MK.2 [Example 2]", "md_verbatim": "| 3 | XYZ | MK | XYZ-002 | 3 | SGJSNSCR | Sharp/Genant JSN Score | | | | NOT DONE | AMPUTATION/MISSING ANATOMY/JOINT REPLACEMENT/ SURGICAL ALTERATION | PROXIMAL INTERPHALANGEAL JOINT 2 | RIGHT | X-RAY | INDEPENDENT ASSESSOR | READER 1 | 4 | WEEK 12 | 2013-08-12 |", "score": 0.4513, "match_basis": "verbatim_token+domain_route:MK"}, {"md_atom_id": "md_dmMK_ex_a060", "md_file": "knowledge_base/domains/MK/examples.md", "md_atom_type": "TABLE_ROW", "md_parent_section": "§MK.2 [Example 2]", "md_verbatim": "| 12 | XYZ | MK | XYZ-002 | 12 | SGJSNSCR | Sharp/Genant JSN Score | | | | NOT DONE | AMPUTATION/MISSING ANATOMY/JOINT REPLACEMENT/SURGICAL ALTERATION | METACARPOPHALANGEAL JOINT 3 | LEFT | X-RAY | INDEPENDENT ASSESSOR | READER 1 | 4 | WEEK 12 | 2013-08-12 |", "score": 0.4452, "match_basis": "verbatim_token+domain_route:MK"}, {"md_atom_id": "md_dmMK_ex_a032", "md_file": "knowledge_base/domains/MK/examples.md", "md_atom_type": "TABLE_ROW", "md_parent_section": "§MK.1 [Example 1]", "md_verbatim": "| 16 | DEF | MK | DEF-138 | 16 | SWLLIND | Swollen Indicator | Y | Y | | | | SHOULDER JOINT | LEFT | PHYSICAL EXAMINATION | 2 | WEEK 4 | 2012-09-30 |", "score": 0.4446, "match_basis": "verbatim_token+domain_route:MK"}, {"md_atom_id": "md_dmMK_ex_a031", "md_file": "knowledge_base/domains/MK/examples.md", "md_atom_type": "TABLE_ROW", "md_parent_section": "§MK.1 [Example 1]", "md_verbatim": "| 15 | DEF | MK | DEF-138 | 15 | TNDRIND | Tenderness Indicator | N | N | | | | SHOULDER JOINT | LEFT | PHYSICAL EXAMINATION | 2 | WEEK 4 | 2012-09-30 |", "score": 0.444, "match_basis": "verbatim_token+domain_route:MK"}, {"md_atom_id": "md_dmMK_ex_a030", "md_file": "knowledge_base/domains/MK/examples.md", "md_atom_type": "TABLE_ROW", "md_parent_section": "§MK.1 [Example 1]", "md_verbatim": "| 14 | DEF | MK | DEF-138 | 14 | SWLLIND | Swollen Indicator | | | | NOT DONE | JOINT NOT EVALUABLE | SHOULDER JOINT | RIGHT | PHYSICAL EXAMINATION | 2 | WEEK 4 | 2012-09-30 |", "score": 0.4415, "match_basis": "verbatim_token+domain_route:MK"}], "candidate_count": 5, "zero_candidate": false}
{"pdf_atom_id": "ig34_p0291_a021", "pdf_atom_type": "TABLE_ROW", "pdf_source": "SDTMIG_v3.4", "pdf_page": 291, "pdf_parent_section": "§6.3.7.3 Musculoskeletal System Findings (MK)", "pdf_verbatim": "| MKTPTNUM | Planned Time Point Number | Num | | Timing | Numeric version of planned time point used in sorting. | Perm |", "figure_ref": null, "candidates": [{"md_atom_id": "md_dmMK_ex_a061", "md_file": "knowledge_base/domains/MK/examples.md", "md_atom_type": "TABLE_ROW", "md_parent_section": "§MK.2 [Example 2]", "md_verbatim": "| 13 | XYZ | MK | XYZ-002 | 13 | SGJSNSCR | Sharp/Genant JSN Score | SEVERE; LOSS OF JOINT SPACE, DISLOCATION, EROSION | 3 | 3 | | | METACARPOPHALANGEAL JOINT 4 | RIGHT | X-RAY | INDEPENDENT ASSESSOR | READER 1 | 4 | WEEK 12 | 2013-08-12 |", "score": 0.4359, "match_basis": "verbatim_token+domain_route:MK"}, {"md_atom_id": "md_dmMK_ex_a060", "md_file": "knowledge_base/domains/MK/examples.md", "md_atom_type": "TABLE_ROW", "md_parent_section": "§MK.2 [Example 2]", "md_verbatim": "| 12 | XYZ | MK | XYZ-002 | 12 | SGJSNSCR | Sharp/Genant JSN Score | | | | NOT DONE | AMPUTATION/MISSING ANATOMY/JOINT REPLACEMENT/SURGICAL ALTERATION | METACARPOPHALANGEAL JOINT 3 | LEFT | X-RAY | INDEPENDENT ASSESSOR | READER 1 | 4 | WEEK 12 | 2013-08-12 |", "score": 0.4313, "match_basis": "verbatim_token+domain_route:MK"}, {"md_atom_id": "md_dmMK_ex_a051", "md_file": "knowledge_base/domains/MK/examples.md", "md_atom_type": "TABLE_ROW", "md_parent_section": "§MK.2 [Example 2]", "md_verbatim": "| 3 | XYZ | MK | XYZ-002 | 3 | SGJSNSCR | Sharp/Genant JSN Score | | | | NOT DONE | AMPUTATION/MISSING ANATOMY/JOINT REPLACEMENT/ SURGICAL ALTERATION | PROXIMAL INTERPHALANGEAL JOINT 2 | RIGHT | X-RAY | INDEPENDENT ASSESSOR | READER 1 | 4 | WEEK 12 | 2013-08-12 |", "score": 0.4309, "match_basis": "verbatim_token+domain_route:MK"}, {"md_atom_id": "md_dmMK_ex_a052", "md_file": "knowledge_base/domains/MK/examples.md", "md_atom_type": "TABLE_ROW", "md_parent_section": "§MK.2 [Example 2]", "md_verbatim": "| 4 | XYZ | MK | XYZ-002 | 4 | SGJSNSCR | Sharp/Genant JSN Score | SEVERE; PARTIAL OR EQUIVOCAL ANKYLOSIS | 3.5 | 3.5 | | | INTERPHALANGEAL JOINT 2 OF THE HAND | LEFT | X-RAY | INDEPENDENT ASSESSOR | READER 1 | 4 | WEEK 12 | 2013-08-12 |", "score": 0.4308, "match_basis": "verbatim_token+domain_route:MK"}, {"md_atom_id": "md_dmMK_ex_a056", "md_file": "knowledge_base/domains/MK/examples.md", "md_atom_type": "TABLE_ROW", "md_parent_section": "§MK.2 [Example 2]", "md_verbatim": "| 8 | XYZ | MK | XYZ-002 | 8 | SGJSNSCR | Sharp/Genant JSN Score | SEVERE; PARTIAL OR EQUIVOCAL ANKYLOSIS | 3.5 | 3.5 | | | METACARPOPHALANGEAL JOINT 1 | LEFT | X-RAY | INDEPENDENT ASSESSOR | READER 1 | 4 | WEEK 12 | 2013-08-12 |", "score": 0.4305, "match_basis": "verbatim_token+domain_route:MK"}], "candidate_count": 5, "zero_candidate": false}
{"pdf_atom_id": "ig34_p0291_a022", "pdf_atom_type": "TABLE_ROW", "pdf_source": "SDTMIG_v3.4", "pdf_page": 291, "pdf_parent_section": "§6.3.7.3 Musculoskeletal System Findings (MK)", "pdf_verbatim": "| MKELTM | Planned Elapsed Time from Time Point Ref | Char | ISO 8601 duration | Timing | Planned Elapsed time relative to a planned fixed reference (MKTPTREF; e.g., \"PREVIOUS DOSE\", \"PREVIOUS MEAL\"). This variable is useful where there are repetitive measures. Not a clock time or a date/time variable, but an interval, represented as ISO duration. | Perm |", "figure_ref": null, "candidates": [{"md_atom_id": "md_dmMK_ex_a051", "md_file": "knowledge_base/domains/MK/examples.md", "md_atom_type": "TABLE_ROW", "md_parent_section": "§MK.2 [Example 2]", "md_verbatim": "| 3 | XYZ | MK | XYZ-002 | 3 | SGJSNSCR | Sharp/Genant JSN Score | | | | NOT DONE | AMPUTATION/MISSING ANATOMY/JOINT REPLACEMENT/ SURGICAL ALTERATION | PROXIMAL INTERPHALANGEAL JOINT 2 | RIGHT | X-RAY | INDEPENDENT ASSESSOR | READER 1 | 4 | WEEK 12 | 2013-08-12 |", "score": 0.4551, "match_basis": "verbatim_token+domain_route:MK"}, {"md_atom_id": "md_dmMK_ex_a060", "md_file": "knowledge_base/domains/MK/examples.md", "md_atom_type": "TABLE_ROW", "md_parent_section": "§MK.2 [Example 2]", "md_verbatim": "| 12 | XYZ | MK | XYZ-002 | 12 | SGJSNSCR | Sharp/Genant JSN Score | | | | NOT DONE | AMPUTATION/MISSING ANATOMY/JOINT REPLACEMENT/SURGICAL ALTERATION | METACARPOPHALANGEAL JOINT 3 | LEFT | X-RAY | INDEPENDENT ASSESSOR | READER 1 | 4 | WEEK 12 | 2013-08-12 |", "score": 0.4523, "match_basis": "verbatim_token+domain_route:MK"}, {"md_atom_id": "md_dmMK_ex_a050", "md_file": "knowledge_base/domains/MK/examples.md", "md_atom_type": "TABLE_ROW", "md_parent_section": "§MK.2 [Example 2]", "md_verbatim": "| 2 | XYZ | MK | XYZ-002 | 2 | SGJSNSCR | Sharp/Genant JSN Score | MODERATE-SEVERE; 51-75% LOSS OF JOINT SPACE | 2.5 | 2.5 | | | INTERPHALANGEAL JOINT 1 | LEFT | X-RAY | INDEPENDENT ASSESSOR | READER 1 | 4 | WEEK 12 | 2013-08-12 |", "score": 0.4424, "match_basis": "verbatim_token+domain_route:MK"}, {"md_atom_id": "md_dmMK_ex_a061", "md_file": "knowledge_base/domains/MK/examples.md", "md_atom_type": "TABLE_ROW", "md_parent_section": "§MK.2 [Example 2]", "md_verbatim": "| 13 | XYZ | MK | XYZ-002 | 13 | SGJSNSCR | Sharp/Genant JSN Score | SEVERE; LOSS OF JOINT SPACE, DISLOCATION, EROSION | 3 | 3 | | | METACARPOPHALANGEAL JOINT 4 | RIGHT | X-RAY | INDEPENDENT ASSESSOR | READER 1 | 4 | WEEK 12 | 2013-08-12 |", "score": 0.4393, "match_basis": "verbatim_token+domain_route:MK"}, {"md_atom_id": "md_dmMK_ex_a049", "md_file": "knowledge_base/domains/MK/examples.md", "md_atom_type": "TABLE_ROW", "md_parent_section": "§MK.2 [Example 2]", "md_verbatim": "| 1 | XYZ | MK | XYZ-002 | 1 | SGJSNSCR | Sharp/Genant JSN Score | MODERATE; 51-75% LOSS OF JOINT SPACE | 2 | 2 | | | INTERPHALANGEAL JOINT 1 | RIGHT | X-RAY | INDEPENDENT ASSESSOR | READER 1 | 4 | WEEK 12 | 2013-08-12 |", "score": 0.4393, "match_basis": "verbatim_token+domain_route:MK"}], "candidate_count": 5, "zero_candidate": false}
{"pdf_atom_id": "ig34_p0291_a023", "pdf_atom_type": "TABLE_ROW", "pdf_source": "SDTMIG_v3.4", "pdf_page": 291, "pdf_parent_section": "§6.3.7.3 Musculoskeletal System Findings (MK)", "pdf_verbatim": "| MKTPTREF | Time Point Reference | Char | | Timing | Description of the fixed reference point referred to by MKELTM, MKTPTNUM, and MKTPT. Examples: \"PREVIOUS DOSE\", \"PREVIOUS MEAL\". | Perm |", "figure_ref": null, "candidates": [{"md_atom_id": "md_dmMK_ex_a020", "md_file": "knowledge_base/domains/MK/examples.md", "md_atom_type": "TABLE_ROW", "md_parent_section": "§MK.1 [Example 1]", "md_verbatim": "| 4 | DEF | MK | DEF-138 | 4 | SWLLIND | Swollen Indicator | N | N | | | | TEMPOROMANDIBULAR JOINT | LEFT | PHYSICAL EXAMINATION | 2 | WEEK 4 | 2012-09-30 |", "score": 0.4432, "match_basis": "verbatim_token+domain_route:MK"}, {"md_atom_id": "md_dmMK_ex_a018", "md_file": "knowledge_base/domains/MK/examples.md", "md_atom_type": "TABLE_ROW", "md_parent_section": "§MK.1 [Example 1]", "md_verbatim": "| 2 | DEF | MK | DEF-138 | 2 | SWLLIND | Swollen Indicator | Y | Y | | | | TEMPOROMANDIBULAR JOINT | RIGHT | PHYSICAL EXAMINATION | 2 | WEEK 4 | 2012-09-30 |", "score": 0.4429, "match_basis": "verbatim_token+domain_route:MK"}, {"md_atom_id": "md_dmMK_ex_a019", "md_file": "knowledge_base/domains/MK/examples.md", "md_atom_type": "TABLE_ROW", "md_parent_section": "§MK.1 [Example 1]", "md_verbatim": "| 3 | DEF | MK | DEF-138 | 3 | TNDRIND | Tenderness Indicator | N | N | | | | TEMPOROMANDIBULAR JOINT | LEFT | PHYSICAL EXAMINATION | 2 | WEEK 4 | 2012-09-30 |", "score": 0.4421, "match_basis": "verbatim_token+domain_route:MK"}, {"md_atom_id": "md_dmMK_ex_a017", "md_file": "knowledge_base/domains/MK/examples.md", "md_atom_type": "TABLE_ROW", "md_parent_section": "§MK.1 [Example 1]", "md_verbatim": "| 1 | DEF | MK | DEF-138 | 1 | TNDRIND | Tenderness Indicator | Y | Y | | | | TEMPOROMANDIBULAR JOINT | RIGHT | PHYSICAL EXAMINATION | 2 | WEEK 4 | 2012-09-30 |", "score": 0.4417, "match_basis": "verbatim_token+domain_route:MK"}, {"md_atom_id": "md_dmMK_ex_a032", "md_file": "knowledge_base/domains/MK/examples.md", "md_atom_type": "TABLE_ROW", "md_parent_section": "§MK.1 [Example 1]", "md_verbatim": "| 16 | DEF | MK | DEF-138 | 16 | SWLLIND | Swollen Indicator | Y | Y | | | | SHOULDER JOINT | LEFT | PHYSICAL EXAMINATION | 2 | WEEK 4 | 2012-09-30 |", "score": 0.4404, "match_basis": "verbatim_token+domain_route:MK"}], "candidate_count": 5, "zero_candidate": false}
{"pdf_atom_id": "ig34_p0291_a024", "pdf_atom_type": "TABLE_ROW", "pdf_source": "SDTMIG_v3.4", "pdf_page": 291, "pdf_parent_section": "§6.3.7.3 Musculoskeletal System Findings (MK)", "pdf_verbatim": "| MKRFTDTC | Date/Time of Reference Time Point | Char | ISO 8601 datetime or interval | Timing | Date/time for a fixed reference time point defined by MKTPTREF. | Perm |", "figure_ref": null, "candidates": [{"md_atom_id": "md_dmMK_ex_a050", "md_file": "knowledge_base/domains/MK/examples.md", "md_atom_type": "TABLE_ROW", "md_parent_section": "§MK.2 [Example 2]", "md_verbatim": "| 2 | XYZ | MK | XYZ-002 | 2 | SGJSNSCR | Sharp/Genant JSN Score | MODERATE-SEVERE; 51-75% LOSS OF JOINT SPACE | 2.5 | 2.5 | | | INTERPHALANGEAL JOINT 1 | LEFT | X-RAY | INDEPENDENT ASSESSOR | READER 1 | 4 | WEEK 12 | 2013-08-12 |", "score": 0.4362, "match_basis": "verbatim_token+domain_route:MK"}, {"md_atom_id": "md_dmMK_ex_a049", "md_file": "knowledge_base/domains/MK/examples.md", "md_atom_type": "TABLE_ROW", "md_parent_section": "§MK.2 [Example 2]", "md_verbatim": "| 1 | XYZ | MK | XYZ-002 | 1 | SGJSNSCR | Sharp/Genant JSN Score | MODERATE; 51-75% LOSS OF JOINT SPACE | 2 | 2 | | | INTERPHALANGEAL JOINT 1 | RIGHT | X-RAY | INDEPENDENT ASSESSOR | READER 1 | 4 | WEEK 12 | 2013-08-12 |", "score": 0.4316, "match_basis": "verbatim_token+domain_route:MK"}, {"md_atom_id": "md_dmMK_ex_a053", "md_file": "knowledge_base/domains/MK/examples.md", "md_atom_type": "TABLE_ROW", "md_parent_section": "§MK.2 [Example 2]", "md_verbatim": "| 5 | XYZ | MK | XYZ-002 | 5 | SGJSNSCR | Sharp/Genant JSN Score | MODERATE; 51-75% LOSS OF JOINT SPACE | 2 | 2 | | | PROXIMAL INTERPHALANGEAL JOINT 3 | RIGHT | X-RAY | INDEPENDENT ASSESSOR | READER 1 | 4 | WEEK 12 | 2013-08-12 |", "score": 0.43, "match_basis": "verbatim_token+domain_route:MK"}, {"md_atom_id": "md_dmMK_ex_a024", "md_file": "knowledge_base/domains/MK/examples.md", "md_atom_type": "TABLE_ROW", "md_parent_section": "§MK.1 [Example 1]", "md_verbatim": "| 8 | DEF | MK | DEF-138 | 8 | SWLLIND | Swollen Indicator | Y | Y | | | | STERNOCLAVICULAR JOINT | LEFT | PHYSICAL EXAMINATION | 2 | WEEK 4 | 2012-09-30 |", "score": 0.4297, "match_basis": "verbatim_token+domain_route:MK"}, {"md_atom_id": "md_dmMK_ex_a022", "md_file": "knowledge_base/domains/MK/examples.md", "md_atom_type": "TABLE_ROW", "md_parent_section": "§MK.1 [Example 1]", "md_verbatim": "| 6 | DEF | MK | DEF-138 | 6 | SWLLIND | Swollen Indicator | N | N | | | | STERNOCLAVICULAR JOINT | RIGHT | PHYSICAL EXAMINATION | 2 | WEEK 4 | 2012-09-30 |", "score": 0.4294, "match_basis": "verbatim_token+domain_route:MK"}], "candidate_count": 5, "zero_candidate": false}
{"pdf_atom_id": "ig34_p0291_a025", "pdf_atom_type": "NOTE", "pdf_source": "SDTMIG_v3.4", "pdf_page": 291, "pdf_parent_section": "§6.3.7.3 Musculoskeletal System Findings (MK)", "pdf_verbatim": "1In this column, an asterisk (*) indicates that the variable may be subject to controlled terminology. CDISC/NCI codelist values are enclosed in parentheses.", "figure_ref": null, "candidates": [{"md_atom_id": "md_dmMK_ex_a006", "md_file": "knowledge_base/domains/MK/examples.md", "md_atom_type": "SENTENCE", "md_parent_section": "§MK.1 [Example 1]", "md_verbatim": "Data collection included a field for marking a joint not evaluable when that joint met a condition (e.g., infection of the overlying tissue or skin, grossly edematous, fused), which precluded joint assessment, as specified by the protocol and the protocol-related joint assessor training.", "score": 0.3717, "match_basis": "verbatim_token+domain_route:MK"}, {"md_atom_id": "md_dmMK_ex_a044", "md_file": "knowledge_base/domains/MK/examples.md", "md_atom_type": "SENTENCE", "md_parent_section": "§MK.2 [Example 2]", "md_verbatim": "The total score for the assessment was not collected, so is not represented in this dataset; it was to be derived in an ADaM dataset.", "score": 0.3679, "match_basis": "verbatim_token+domain_route:MK"}, {"md_atom_id": "md_dmMK_ex_a003", "md_file": "knowledge_base/domains/MK/examples.md", "md_atom_type": "SENTENCE", "md_parent_section": "§MK.1 [Example 1]", "md_verbatim": "This example illustrates data collected for the swollen/tender joint count assessment, specifically the 68-joint count.", "score": 0.3676, "match_basis": "verbatim_token+domain_route:MK"}, {"md_atom_id": "md_dmMK_ex_a034", "md_file": "knowledge_base/domains/MK/examples.md", "md_atom_type": "SENTENCE", "md_parent_section": "§MK.2 [Example 2]", "md_verbatim": "This example illustrates the collection of scores for the joint space-narrowing assessment.", "score": 0.3655, "match_basis": "verbatim_token+domain_route:MK"}, {"md_atom_id": "md_dmMK_ex_a046", "md_file": "knowledge_base/domains/MK/examples.md", "md_atom_type": "SENTENCE", "md_parent_section": "§MK.2 [Example 2]", "md_verbatim": "**Rows 3, 6, 9, 12:** Show data collected for joints that were not assessed (MKSTAT=\"NOT DONE\"), with the reason collected on the CRF represented in MKREASND.", "score": 0.3641, "match_basis": "verbatim_token+domain_route:MK"}], "candidate_count": 5, "zero_candidate": false}
{"pdf_atom_id": "ig34_p0292_a001", "pdf_atom_type": "HEADING", "pdf_source": "SDTMIG_v3.4", "pdf_page": 292, "pdf_parent_section": "§6.3.7.3 Musculoskeletal System Findings (MK)", "pdf_verbatim": "MK – Assumptions", "figure_ref": null, "candidates": [{"md_atom_id": "md_dmMK_assn_a001", "md_file": "knowledge_base/domains/MK/assumptions.md", "md_atom_type": "HEADING", "md_parent_section": "§MK [MK — Assumptions]", "md_verbatim": "# MK — Assumptions", "score": 1.0, "match_basis": "verbatim_token+domain_route:MK"}, {"md_atom_id": "md_dmMK_ex_a001", "md_file": "knowledge_base/domains/MK/examples.md", "md_atom_type": "HEADING", "md_parent_section": "§MK [MK — Examples]", "md_verbatim": "# MK — Examples", "score": 0.4, "match_basis": "verbatim_token+domain_route:MK"}, {"md_atom_id": "md_dmMK_ex_a002", "md_file": "knowledge_base/domains/MK/examples.md", "md_atom_type": "HEADING", "md_parent_section": "§MK [MK — Examples]", "md_verbatim": "## Example 1", "score": 0.4, "match_basis": "verbatim_token+domain_route:MK"}, {"md_atom_id": "md_dmMK_ex_a033", "md_file": "knowledge_base/domains/MK/examples.md", "md_atom_type": "HEADING", "md_parent_section": "§MK [MK — Examples]", "md_verbatim": "## Example 2", "score": 0.4, "match_basis": "verbatim_token+domain_route:MK"}], "candidate_count": 4, "zero_candidate": false}
{"pdf_atom_id": "ig34_p0292_a002", "pdf_atom_type": "LIST_ITEM", "pdf_source": "SDTMIG_v3.4", "pdf_page": 292, "pdf_parent_section": "§6.3.7.3 Musculoskeletal System Findings (MK)", "pdf_verbatim": "1. The Musculoskeletal System Findings domain should not be used for oncology data related to the musculoskeletal system (e.g., bone lesions). Such data should be placed in the appropriate oncology domains: Tumor/Lesion Identification (TU), Tumor/Lesion Results (TR), and/or Disease Response and Clinical Classification (RS).", "figure_ref": null, "candidates": [{"md_atom_id": "md_dmMK_assn_a002", "md_file": "knowledge_base/domains/MK/assumptions.md", "md_atom_type": "LIST_ITEM", "md_parent_section": "§MK [MK — Assumptions]", "md_verbatim": "1. The Musculoskeletal System Findings domain should not be used for oncology data related to the musculoskeletal system (e.g., bone lesions). Such data should be placed in the appropriate oncology domains: Tumor/Lesion Identification (TU), Tumor/Lesion Results (TR), and/or Disease Response and Clinical Classification (RS).", "score": 1.0, "match_basis": "verbatim_token+domain_route:MK"}, {"md_atom_id": "md_dmMK_assn_a003", "md_file": "knowledge_base/domains/MK/assumptions.md", "md_atom_type": "LIST_ITEM", "md_parent_section": "§MK [MK — Assumptions]", "md_verbatim": "2. Musculoskeletal assessment examples that may have results represented in the MK domain include the following: morphology/physiology observations (e.g., swollen/tender joint count, limb movement, strength/grip measurements).", "score": 0.5194, "match_basis": "verbatim_token+domain_route:MK"}, {"md_atom_id": "md_dmMK_assn_a004", "md_file": "knowledge_base/domains/MK/assumptions.md", "md_atom_type": "LIST_ITEM", "md_parent_section": "§MK [MK — Assumptions]", "md_verbatim": "3. Any Identifiers, Timing variables, or Findings general observation class qualifiers may be added to the MK domain, but the following qualifiers would generally not be used: --MODIFY, --BODSYS, --LOINC, --TOX, --TOXGR, --FAST, --ORNRLO, --ORNRHI, --STNRLO, --STNRHI, --ORREF, --STREFC, --STREFN.", "score": 0.5028, "match_basis": "verbatim_token+domain_route:MK"}, {"md_atom_id": "md_dmMK_ex_a006", "md_file": "knowledge_base/domains/MK/examples.md", "md_atom_type": "SENTENCE", "md_parent_section": "§MK.1 [Example 1]", "md_verbatim": "Data collection included a field for marking a joint not evaluable when that joint met a condition (e.g., infection of the overlying tissue or skin, grossly edematous, fused), which precluded joint assessment, as specified by the protocol and the protocol-related joint assessor training.", "score": 0.382, "match_basis": "verbatim_token+domain_route:MK"}, {"md_atom_id": "md_dmMK_ex_a012", "md_file": "knowledge_base/domains/MK/examples.md", "md_atom_type": "SENTENCE", "md_parent_section": "§MK.1 [Example 1]", "md_verbatim": "**Rows 1-8, 11-12, 15-16:** Show the occurrence of tenderness or swelling (MKORRES/MKSTRESC=\"Y\", \"N\") at specific joint locations, represented in MKLOC, on the right and left sides (MKLAT) of the body.", "score": 0.3707, "match_basis": "verbatim_token+domain_route:MK"}], "candidate_count": 5, "zero_candidate": false}
{"pdf_atom_id": "ig34_p0292_a003", "pdf_atom_type": "LIST_ITEM", "pdf_source": "SDTMIG_v3.4", "pdf_page": 292, "pdf_parent_section": "§6.3.7.3 Musculoskeletal System Findings (MK)", "pdf_verbatim": "2. Musculoskeletal assessment examples that may have results represented in the MK domain include the following: morphology/physiology observations (e.g., swollen/tender joint count, limb movement, strength/grip measurements).", "figure_ref": null, "candidates": [{"md_atom_id": "md_dmMK_assn_a003", "md_file": "knowledge_base/domains/MK/assumptions.md", "md_atom_type": "LIST_ITEM", "md_parent_section": "§MK [MK — Assumptions]", "md_verbatim": "2. Musculoskeletal assessment examples that may have results represented in the MK domain include the following: morphology/physiology observations (e.g., swollen/tender joint count, limb movement, strength/grip measurements).", "score": 1.0, "match_basis": "verbatim_token+domain_route:MK"}, {"md_atom_id": "md_dmMK_assn_a002", "md_file": "knowledge_base/domains/MK/assumptions.md", "md_atom_type": "LIST_ITEM", "md_parent_section": "§MK [MK — Assumptions]", "md_verbatim": "1. The Musculoskeletal System Findings domain should not be used for oncology data related to the musculoskeletal system (e.g., bone lesions). Such data should be placed in the appropriate oncology domains: Tumor/Lesion Identification (TU), Tumor/Lesion Results (TR), and/or Disease Response and Clinical Classification (RS).", "score": 0.5194, "match_basis": "verbatim_token+domain_route:MK"}, {"md_atom_id": "md_dmMK_assn_a004", "md_file": "knowledge_base/domains/MK/assumptions.md", "md_atom_type": "LIST_ITEM", "md_parent_section": "§MK [MK — Assumptions]", "md_verbatim": "3. Any Identifiers, Timing variables, or Findings general observation class qualifiers may be added to the MK domain, but the following qualifiers would generally not be used: --MODIFY, --BODSYS, --LOINC, --TOX, --TOXGR, --FAST, --ORNRLO, --ORNRHI, --STNRLO, --STNRHI, --ORREF, --STREFC, --STREFN.", "score": 0.4906, "match_basis": "verbatim_token+domain_route:MK"}, {"md_atom_id": "md_dmMK_ex_a003", "md_file": "knowledge_base/domains/MK/examples.md", "md_atom_type": "SENTENCE", "md_parent_section": "§MK.1 [Example 1]", "md_verbatim": "This example illustrates data collected for the swollen/tender joint count assessment, specifically the 68-joint count.", "score": 0.4374, "match_basis": "verbatim_token+domain_route:MK"}, {"md_atom_id": "md_dmMK_ex_a034", "md_file": "knowledge_base/domains/MK/examples.md", "md_atom_type": "SENTENCE", "md_parent_section": "§MK.2 [Example 2]", "md_verbatim": "This example illustrates the collection of scores for the joint space-narrowing assessment.", "score": 0.4183, "match_basis": "verbatim_token+domain_route:MK"}], "candidate_count": 5, "zero_candidate": false}
{"pdf_atom_id": "ig34_p0292_a004", "pdf_atom_type": "LIST_ITEM", "pdf_source": "SDTMIG_v3.4", "pdf_page": 292, "pdf_parent_section": "§6.3.7.3 Musculoskeletal System Findings (MK)", "pdf_verbatim": "3. Any Identifiers, Timing variables, or Findings general observation class qualifiers may be added to the MK domain, but the following qualifiers would generally not be used: --MODIFY, --BODSYS, --LOINC, --TOX, --TOXGR, --FAST, --ORNRLO, --ORNRHI, --STNRLO, --STNRHI, --ORREF, --STREFC, --STREFN.", "figure_ref": null, "candidates": [{"md_atom_id": "md_dmMK_assn_a004", "md_file": "knowledge_base/domains/MK/assumptions.md", "md_atom_type": "LIST_ITEM", "md_parent_section": "§MK [MK — Assumptions]", "md_verbatim": "3. Any Identifiers, Timing variables, or Findings general observation class qualifiers may be added to the MK domain, but the following qualifiers would generally not be used: --MODIFY, --BODSYS, --LOINC, --TOX, --TOXGR, --FAST, --ORNRLO, --ORNRHI, --STNRLO, --STNRHI, --ORREF, --STREFC, --STREFN.", "score": 1.0, "match_basis": "verbatim_token+domain_route:MK"}, {"md_atom_id": "md_dmMK_assn_a002", "md_file": "knowledge_base/domains/MK/assumptions.md", "md_atom_type": "LIST_ITEM", "md_parent_section": "§MK [MK — Assumptions]", "md_verbatim": "1. The Musculoskeletal System Findings domain should not be used for oncology data related to the musculoskeletal system (e.g., bone lesions). Such data should be placed in the appropriate oncology domains: Tumor/Lesion Identification (TU), Tumor/Lesion Results (TR), and/or Disease Response and Clinical Classification (RS).", "score": 0.5028, "match_basis": "verbatim_token+domain_route:MK"}, {"md_atom_id": "md_dmMK_assn_a003", "md_file": "knowledge_base/domains/MK/assumptions.md", "md_atom_type": "LIST_ITEM", "md_parent_section": "§MK [MK — Assumptions]", "md_verbatim": "2. Musculoskeletal assessment examples that may have results represented in the MK domain include the following: morphology/physiology observations (e.g., swollen/tender joint count, limb movement, strength/grip measurements).", "score": 0.4906, "match_basis": "verbatim_token+domain_route:MK"}, {"md_atom_id": "md_dmMK_ex_a006", "md_file": "knowledge_base/domains/MK/examples.md", "md_atom_type": "SENTENCE", "md_parent_section": "§MK.1 [Example 1]", "md_verbatim": "Data collection included a field for marking a joint not evaluable when that joint met a condition (e.g., infection of the overlying tissue or skin, grossly edematous, fused), which precluded joint assessment, as specified by the protocol and the protocol-related joint assessor training.", "score": 0.3679, "match_basis": "verbatim_token+domain_route:MK"}, {"md_atom_id": "md_dmMK_ex_a045", "md_file": "knowledge_base/domains/MK/examples.md", "md_atom_type": "SENTENCE", "md_parent_section": "§MK.2 [Example 2]", "md_verbatim": "**Rows 1-2, 4-5, 7-8, 10-11, 13-16:** Show the text description of each joint space-narrowing score in MKORRES and the corresponding numeric score in MKSTRESC/MKSTRESN.", "score": 0.3642, "match_basis": "verbatim_token+domain_route:MK"}], "candidate_count": 5, "zero_candidate": false}
{"pdf_atom_id": "ig34_p0292_a005", "pdf_atom_type": "HEADING", "pdf_source": "SDTMIG_v3.4", "pdf_page": 292, "pdf_parent_section": "§6.3.7.3 Musculoskeletal System Findings (MK)", "pdf_verbatim": "MK – Examples", "figure_ref": null, "candidates": [{"md_atom_id": "md_dmMK_ex_a001", "md_file": "knowledge_base/domains/MK/examples.md", "md_atom_type": "HEADING", "md_parent_section": "§MK [MK — Examples]", "md_verbatim": "# MK — Examples", "score": 1.0, "match_basis": "verbatim_token+domain_route:MK"}, {"md_atom_id": "md_dmMK_ex_a002", "md_file": "knowledge_base/domains/MK/examples.md", "md_atom_type": "HEADING", "md_parent_section": "§MK [MK — Examples]", "md_verbatim": "## Example 1", "score": 0.9, "match_basis": "verbatim_token+domain_route:MK"}, {"md_atom_id": "md_dmMK_ex_a033", "md_file": "knowledge_base/domains/MK/examples.md", "md_atom_type": "HEADING", "md_parent_section": "§MK [MK — Examples]", "md_verbatim": "## Example 2", "score": 0.9, "match_basis": "verbatim_token+domain_route:MK"}, {"md_atom_id": "md_dmMK_assn_a001", "md_file": "knowledge_base/domains/MK/assumptions.md", "md_atom_type": "HEADING", "md_parent_section": "§MK [MK — Assumptions]", "md_verbatim": "# MK — Assumptions", "score": 0.4, "match_basis": "verbatim_token+domain_route:MK"}], "candidate_count": 4, "zero_candidate": false}
{"pdf_atom_id": "ig34_p0292_a006", "pdf_atom_type": "HEADING", "pdf_source": "SDTMIG_v3.4", "pdf_page": 292, "pdf_parent_section": "§6.3.7.3 Musculoskeletal System Findings (MK)", "pdf_verbatim": "Example 1", "figure_ref": null, "candidates": [{"md_atom_id": "md_dmMK_ex_a002", "md_file": "knowledge_base/domains/MK/examples.md", "md_atom_type": "HEADING", "md_parent_section": "§MK [MK — Examples]", "md_verbatim": "## Example 1", "score": 1.0, "match_basis": "verbatim_token+domain_route:MK"}, {"md_atom_id": "md_dmMK_ex_a033", "md_file": "knowledge_base/domains/MK/examples.md", "md_atom_type": "HEADING", "md_parent_section": "§MK [MK — Examples]", "md_verbatim": "## Example 2", "score": 1.0, "match_basis": "verbatim_token+domain_route:MK"}, {"md_atom_id": "md_dmMK_ex_a001", "md_file": "knowledge_base/domains/MK/examples.md", "md_atom_type": "HEADING", "md_parent_section": "§MK [MK — Examples]", "md_verbatim": "# MK — Examples", "score": 0.9, "match_basis": "verbatim_token+domain_route:MK"}, {"md_atom_id": "md_dmMK_assn_a001", "md_file": "knowledge_base/domains/MK/assumptions.md", "md_atom_type": "HEADING", "md_parent_section": "§MK [MK — Assumptions]", "md_verbatim": "# MK — Assumptions", "score": 0.4, "match_basis": "verbatim_token+domain_route:MK"}], "candidate_count": 4, "zero_candidate": false}
{"pdf_atom_id": "ig34_p0292_a007", "pdf_atom_type": "SENTENCE", "pdf_source": "SDTMIG_v3.4", "pdf_page": 292, "pdf_parent_section": "§6.3.7.3 Musculoskeletal System Findings (MK)", "pdf_verbatim": "This example illustrates data collected for the swollen/tender joint count assessment, specifically the 68-joint count.", "figure_ref": null, "candidates": [{"md_atom_id": "md_dmMK_ex_a003", "md_file": "knowledge_base/domains/MK/examples.md", "md_atom_type": "SENTENCE", "md_parent_section": "§MK.1 [Example 1]", "md_verbatim": "This example illustrates data collected for the swollen/tender joint count assessment, specifically the 68-joint count.", "score": 1.0, "match_basis": "verbatim_token+domain_route:MK"}, {"md_atom_id": "md_dmMK_ex_a034", "md_file": "knowledge_base/domains/MK/examples.md", "md_atom_type": "SENTENCE", "md_parent_section": "§MK.2 [Example 2]", "md_verbatim": "This example illustrates the collection of scores for the joint space-narrowing assessment.", "score": 0.672, "match_basis": "verbatim_token+domain_route:MK"}, {"md_atom_id": "md_dmMK_ex_a044", "md_file": "knowledge_base/domains/MK/examples.md", "md_atom_type": "SENTENCE", "md_parent_section": "§MK.2 [Example 2]", "md_verbatim": "The total score for the assessment was not collected, so is not represented in this dataset; it was to be derived in an ADaM dataset.", "score": 0.561, "match_basis": "verbatim_token+domain_route:MK"}, {"md_atom_id": "md_dmMK_ex_a013", "md_file": "knowledge_base/domains/MK/examples.md", "md_atom_type": "SENTENCE", "md_parent_section": "§MK.1 [Example 1]", "md_verbatim": "**Rows 9-10:** Show that the assessments for tenderness and swelling of the acromioclavicular joint (see MKLOC) on the right side of the body was not performed (MKSTAT=\"NOT DONE\"), but a specific reason was not collected on the CRF.", "score": 0.5488, "match_basis": "verbatim_token+domain_route:MK"}, {"md_atom_id": "md_dmMK_ex_a004", "md_file": "knowledge_base/domains/MK/examples.md", "md_atom_type": "SENTENCE", "md_parent_section": "§MK.1 [Example 1]", "md_verbatim": "After determining whether each joint is swollen or tender, the assessor will add up the number of \"Yes\" responses for swollen joints and tender joints to obtain a total count for each.", "score": 0.5333, "match_basis": "verbatim_token+domain_route:MK"}], "candidate_count": 5, "zero_candidate": false}
{"pdf_atom_id": "ig34_p0292_a008", "pdf_atom_type": "SENTENCE", "pdf_source": "SDTMIG_v3.4", "pdf_page": 292, "pdf_parent_section": "§6.3.7.3 Musculoskeletal System Findings (MK)", "pdf_verbatim": "After determining whether each joint is swollen or tender, the assessor will add up the number of \"Yes\" responses for swollen joints and tender joints to obtain a total count for each.", "figure_ref": null, "candidates": [{"md_atom_id": "md_dmMK_ex_a004", "md_file": "knowledge_base/domains/MK/examples.md", "md_atom_type": "SENTENCE", "md_parent_section": "§MK.1 [Example 1]", "md_verbatim": "After determining whether each joint is swollen or tender, the assessor will add up the number of \"Yes\" responses for swollen joints and tender joints to obtain a total count for each.", "score": 1.0, "match_basis": "verbatim_token+domain_route:MK"}, {"md_atom_id": "md_dmMK_ex_a003", "md_file": "knowledge_base/domains/MK/examples.md", "md_atom_type": "SENTENCE", "md_parent_section": "§MK.1 [Example 1]", "md_verbatim": "This example illustrates data collected for the swollen/tender joint count assessment, specifically the 68-joint count.", "score": 0.5333, "match_basis": "verbatim_token+domain_route:MK"}, {"md_atom_id": "md_dmMK_ex_a008", "md_file": "knowledge_base/domains/MK/examples.md", "md_atom_type": "SENTENCE", "md_parent_section": "§MK.1 [Example 1]", "md_verbatim": "Note that there was a field for marking a joint assessment as not done; this was to be used if the joint assessor overlooked or missed a joint while performing the joint assessment.", "score": 0.4874, "match_basis": "verbatim_token+domain_route:MK"}, {"md_atom_id": "md_dmMK_ex_a034", "md_file": "knowledge_base/domains/MK/examples.md", "md_atom_type": "SENTENCE", "md_parent_section": "§MK.2 [Example 2]", "md_verbatim": "This example illustrates the collection of scores for the joint space-narrowing assessment.", "score": 0.484, "match_basis": "verbatim_token+domain_route:MK"}, {"md_atom_id": "md_dmMK_ex_a044", "md_file": "knowledge_base/domains/MK/examples.md", "md_atom_type": "SENTENCE", "md_parent_section": "§MK.2 [Example 2]", "md_verbatim": "The total score for the assessment was not collected, so is not represented in this dataset; it was to be derived in an ADaM dataset.", "score": 0.4812, "match_basis": "verbatim_token+domain_route:MK"}], "candidate_count": 5, "zero_candidate": false}
{"pdf_atom_id": "ig34_p0292_a009", "pdf_atom_type": "SENTENCE", "pdf_source": "SDTMIG_v3.4", "pdf_page": 292, "pdf_parent_section": "§6.3.7.3 Musculoskeletal System Findings (MK)", "pdf_verbatim": "Total counts were not collected on the CRF since they were to be derived in ADaM datasets.", "figure_ref": null, "candidates": [{"md_atom_id": "md_dmMK_ex_a005", "md_file": "knowledge_base/domains/MK/examples.md", "md_atom_type": "SENTENCE", "md_parent_section": "§MK.1 [Example 1]", "md_verbatim": "Total counts were not collected on the CRF since they were to be derived in ADaM datasets.", "score": 1.0, "match_basis": "verbatim_token+domain_route:MK"}, {"md_atom_id": "md_dmMK_ex_a044", "md_file": "knowledge_base/domains/MK/examples.md", "md_atom_type": "SENTENCE", "md_parent_section": "§MK.2 [Example 2]", "md_verbatim": "The total score for the assessment was not collected, so is not represented in this dataset; it was to be derived in an ADaM dataset.", "score": 0.6483, "match_basis": "verbatim_token+domain_route:MK"}, {"md_atom_id": "md_dmMK_ex_a009", "md_file": "knowledge_base/domains/MK/examples.md", "md_atom_type": "SENTENCE", "md_parent_section": "§MK.1 [Example 1]", "md_verbatim": "The data collected are represented in the MK domain.", "score": 0.5224, "match_basis": "verbatim_token+domain_route:MK"}, {"md_atom_id": "md_dmMK_ex_a038", "md_file": "knowledge_base/domains/MK/examples.md", "md_atom_type": "SENTENCE", "md_parent_section": "§MK.2 [Example 2]", "md_verbatim": "The data collected are represented in the MK domain.", "score": 0.5224, "match_basis": "verbatim_token+domain_route:MK"}, {"md_atom_id": "md_dmMK_ex_a046", "md_file": "knowledge_base/domains/MK/examples.md", "md_atom_type": "SENTENCE", "md_parent_section": "§MK.2 [Example 2]", "md_verbatim": "**Rows 3, 6, 9, 12:** Show data collected for joints that were not assessed (MKSTAT=\"NOT DONE\"), with the reason collected on the CRF represented in MKREASND.", "score": 0.52, "match_basis": "verbatim_token+domain_route:MK"}], "candidate_count": 5, "zero_candidate": false}
{"pdf_atom_id": "ig34_p0292_a010", "pdf_atom_type": "SENTENCE", "pdf_source": "SDTMIG_v3.4", "pdf_page": 292, "pdf_parent_section": "§6.3.7.3 Musculoskeletal System Findings (MK)", "pdf_verbatim": "Data collection included a field for marking a joint not evaluable when that joint met a condition (e.g., infection of the overlying tissue or skin, grossly edematous, fused), which precluded joint assessment, as specified by the protocol and the protocol-related joint assessor training.", "figure_ref": null, "candidates": [{"md_atom_id": "md_dmMK_ex_a006", "md_file": "knowledge_base/domains/MK/examples.md", "md_atom_type": "SENTENCE", "md_parent_section": "§MK.1 [Example 1]", "md_verbatim": "Data collection included a field for marking a joint not evaluable when that joint met a condition (e.g., infection of the overlying tissue or skin, grossly edematous, fused), which precluded joint assessment, as specified by the protocol and the protocol-related joint assessor training.", "score": 1.0, "match_basis": "verbatim_token+domain_route:MK"}, {"md_atom_id": "md_dmMK_ex_a008", "md_file": "knowledge_base/domains/MK/examples.md", "md_atom_type": "SENTENCE", "md_parent_section": "§MK.1 [Example 1]", "md_verbatim": "Note that there was a field for marking a joint assessment as not done; this was to be used if the joint assessor overlooked or missed a joint while performing the joint assessment.", "score": 0.5456, "match_basis": "verbatim_token+domain_route:MK"}, {"md_atom_id": "md_dmMK_ex_a003", "md_file": "knowledge_base/domains/MK/examples.md", "md_atom_type": "SENTENCE", "md_parent_section": "§MK.1 [Example 1]", "md_verbatim": "This example illustrates data collected for the swollen/tender joint count assessment, specifically the 68-joint count.", "score": 0.5167, "match_basis": "verbatim_token+domain_route:MK"}, {"md_atom_id": "md_dmMK_ex_a043", "md_file": "knowledge_base/domains/MK/examples.md", "md_atom_type": "SENTENCE", "md_parent_section": "§MK.2 [Example 2]", "md_verbatim": "Because the evaluation includes a large number of joints that would result in many records, only a subset of the data collected is shown here.", "score": 0.5052, "match_basis": "verbatim_token+domain_route:MK"}, {"md_atom_id": "md_dmMK_ex_a011", "md_file": "knowledge_base/domains/MK/examples.md", "md_atom_type": "SENTENCE", "md_parent_section": "§MK.1 [Example 1]", "md_verbatim": "Because the evaluation includes a large number of joints that would result in many records, only a subset of the data collected is shown below.", "score": 0.5045, "match_basis": "verbatim_token+domain_route:MK"}], "candidate_count": 5, "zero_candidate": false}
{"pdf_atom_id": "ig34_p0292_a011", "pdf_atom_type": "SENTENCE", "pdf_source": "SDTMIG_v3.4", "pdf_page": 292, "pdf_parent_section": "§6.3.7.3 Musculoskeletal System Findings (MK)", "pdf_verbatim": "A field for the reason that a joint was not evaluable was not needed.", "figure_ref": null, "candidates": [{"md_atom_id": "md_dmMK_ex_a007", "md_file": "knowledge_base/domains/MK/examples.md", "md_atom_type": "SENTENCE", "md_parent_section": "§MK.1 [Example 1]", "md_verbatim": "A field for the reason that a joint was not evaluable was not needed.", "score": 1.0, "match_basis": "verbatim_token+domain_route:MK"}, {"md_atom_id": "md_dmMK_ex_a037", "md_file": "knowledge_base/domains/MK/examples.md", "md_atom_type": "SENTENCE", "md_parent_section": "§MK.2 [Example 2]", "md_verbatim": "If the joint was not assessed, a reason why it was not assessed was provided.", "score": 0.5737, "match_basis": "verbatim_token+domain_route:MK"}, {"md_atom_id": "md_dmMK_ex_a014", "md_file": "knowledge_base/domains/MK/examples.md", "md_atom_type": "SENTENCE", "md_parent_section": "§MK.1 [Example 1]", "md_verbatim": "**Rows 13-14:** Show that the assessments for tenderness and swelling of the shoulder joint (see MKLOC) on the right side of the body was not performed (MKSTAT=\"NOT DONE\") because it was not evaluable (MKREASND=\"JOINT NOT EVALUABLE\").", "score": 0.52, "match_basis": "verbatim_token+domain_route:MK"}, {"md_atom_id": "md_dmMK_ex_a036", "md_file": "knowledge_base/domains/MK/examples.md", "md_atom_type": "SENTENCE", "md_parent_section": "§MK.2 [Example 2]", "md_verbatim": "In this evaluation of radiographs for joint narrowing, each joint was graded.", "score": 0.5154, "match_basis": "verbatim_token+domain_route:MK"}, {"md_atom_id": "md_dmMK_ex_a046", "md_file": "knowledge_base/domains/MK/examples.md", "md_atom_type": "SENTENCE", "md_parent_section": "§MK.2 [Example 2]", "md_verbatim": "**Rows 3, 6, 9, 12:** Show data collected for joints that were not assessed (MKSTAT=\"NOT DONE\"), with the reason collected on the CRF represented in MKREASND.", "score": 0.5043, "match_basis": "verbatim_token+domain_route:MK"}], "candidate_count": 5, "zero_candidate": false}
{"pdf_atom_id": "ig34_p0292_a012", "pdf_atom_type": "SENTENCE", "pdf_source": "SDTMIG_v3.4", "pdf_page": 292, "pdf_parent_section": "§6.3.7.3 Musculoskeletal System Findings (MK)", "pdf_verbatim": "Note that there was a field for marking a joint assessment as not done; this was to be used if the joint assessor overlooked or missed a joint while performing the joint assessment.", "figure_ref": null, "candidates": [{"md_atom_id": "md_dmMK_ex_a008", "md_file": "knowledge_base/domains/MK/examples.md", "md_atom_type": "SENTENCE", "md_parent_section": "§MK.1 [Example 1]", "md_verbatim": "Note that there was a field for marking a joint assessment as not done; this was to be used if the joint assessor overlooked or missed a joint while performing the joint assessment.", "score": 1.0, "match_basis": "verbatim_token+domain_route:MK"}, {"md_atom_id": "md_dmMK_ex_a006", "md_file": "knowledge_base/domains/MK/examples.md", "md_atom_type": "SENTENCE", "md_parent_section": "§MK.1 [Example 1]", "md_verbatim": "Data collection included a field for marking a joint not evaluable when that joint met a condition (e.g., infection of the overlying tissue or skin, grossly edematous, fused), which precluded joint assessment, as specified by the protocol and the protocol-related joint assessor training.", "score": 0.5456, "match_basis": "verbatim_token+domain_route:MK"}, {"md_atom_id": "md_dmMK_ex_a014", "md_file": "knowledge_base/domains/MK/examples.md", "md_atom_type": "SENTENCE", "md_parent_section": "§MK.1 [Example 1]", "md_verbatim": "**Rows 13-14:** Show that the assessments for tenderness and swelling of the shoulder joint (see MKLOC) on the right side of the body was not performed (MKSTAT=\"NOT DONE\") because it was not evaluable (MKREASND=\"JOINT NOT EVALUABLE\").", "score": 0.5351, "match_basis": "verbatim_token+domain_route:MK"}, {"md_atom_id": "md_dmMK_ex_a040", "md_file": "knowledge_base/domains/MK/examples.md", "md_atom_type": "SENTENCE", "md_parent_section": "§MK.2 [Example 2]", "md_verbatim": "Each image was assessed by 2 readers of the same role; in this example, MKEVALID is populated with \"READER 1\" because these assessments were performed by the first reader.", "score": 0.5176, "match_basis": "verbatim_token+domain_route:MK"}, {"md_atom_id": "md_dmMK_ex_a013", "md_file": "knowledge_base/domains/MK/examples.md", "md_atom_type": "SENTENCE", "md_parent_section": "§MK.1 [Example 1]", "md_verbatim": "**Rows 9-10:** Show that the assessments for tenderness and swelling of the acromioclavicular joint (see MKLOC) on the right side of the body was not performed (MKSTAT=\"NOT DONE\"), but a specific reason was not collected on the CRF.", "score": 0.5161, "match_basis": "verbatim_token+domain_route:MK"}], "candidate_count": 5, "zero_candidate": false}
{"pdf_atom_id": "ig34_p0292_a013", "pdf_atom_type": "SENTENCE", "pdf_source": "SDTMIG_v3.4", "pdf_page": 292, "pdf_parent_section": "§6.3.7.3 Musculoskeletal System Findings (MK)", "pdf_verbatim": "The data collected are represented in the MK domain.", "figure_ref": null, "candidates": [{"md_atom_id": "md_dmMK_ex_a009", "md_file": "knowledge_base/domains/MK/examples.md", "md_atom_type": "SENTENCE", "md_parent_section": "§MK.1 [Example 1]", "md_verbatim": "The data collected are represented in the MK domain.", "score": 1.0, "match_basis": "verbatim_token+domain_route:MK"}, {"md_atom_id": "md_dmMK_ex_a038", "md_file": "knowledge_base/domains/MK/examples.md", "md_atom_type": "SENTENCE", "md_parent_section": "§MK.2 [Example 2]", "md_verbatim": "The data collected are represented in the MK domain.", "score": 1.0, "match_basis": "verbatim_token+domain_route:MK"}, {"md_atom_id": "md_dmMK_ex_a044", "md_file": "knowledge_base/domains/MK/examples.md", "md_atom_type": "SENTENCE", "md_parent_section": "§MK.2 [Example 2]", "md_verbatim": "The total score for the assessment was not collected, so is not represented in this dataset; it was to be derived in an ADaM dataset.", "score": 0.6118, "match_basis": "verbatim_token+domain_route:MK"}, {"md_atom_id": "md_dmMK_ex_a046", "md_file": "knowledge_base/domains/MK/examples.md", "md_atom_type": "SENTENCE", "md_parent_section": "§MK.2 [Example 2]", "md_verbatim": "**Rows 3, 6, 9, 12:** Show data collected for joints that were not assessed (MKSTAT=\"NOT DONE\"), with the reason collected on the CRF represented in MKREASND.", "score": 0.5831, "match_basis": "verbatim_token+domain_route:MK"}, {"md_atom_id": "md_dmMK_ex_a005", "md_file": "knowledge_base/domains/MK/examples.md", "md_atom_type": "SENTENCE", "md_parent_section": "§MK.1 [Example 1]", "md_verbatim": "Total counts were not collected on the CRF since they were to be derived in ADaM datasets.", "score": 0.5224, "match_basis": "verbatim_token+domain_route:MK"}], "candidate_count": 5, "zero_candidate": false}
{"pdf_atom_id": "ig34_p0292_a014", "pdf_atom_type": "SENTENCE", "pdf_source": "SDTMIG_v3.4", "pdf_page": 292, "pdf_parent_section": "§6.3.7.3 Musculoskeletal System Findings (MK)", "pdf_verbatim": "Each joint location is specified in MKLOC with laterality (\"RIGHT\" or \"LEFT\") in MKLAT.", "figure_ref": null, "candidates": [{"md_atom_id": "md_dmMK_ex_a010", "md_file": "knowledge_base/domains/MK/examples.md", "md_atom_type": "SENTENCE", "md_parent_section": "§MK.1 [Example 1]", "md_verbatim": "Each joint location is specified in MKLOC with laterality (\"RIGHT\" or \"LEFT\") in MKLAT.", "score": 1.0, "match_basis": "verbatim_token+domain_route:MK"}, {"md_atom_id": "md_dmMK_ex_a042", "md_file": "knowledge_base/domains/MK/examples.md", "md_atom_type": "SENTENCE", "md_parent_section": "§MK.2 [Example 2]", "md_verbatim": "Each joint location is specified in MKLOC with laterality (\"RIGHT\" or \"LEFT\") in MKLAT.", "score": 1.0, "match_basis": "verbatim_token+domain_route:MK"}, {"md_atom_id": "md_dmMK_ex_a012", "md_file": "knowledge_base/domains/MK/examples.md", "md_atom_type": "SENTENCE", "md_parent_section": "§MK.1 [Example 1]", "md_verbatim": "**Rows 1-8, 11-12, 15-16:** Show the occurrence of tenderness or swelling (MKORRES/MKSTRESC=\"Y\", \"N\") at specific joint locations, represented in MKLOC, on the right and left sides (MKLAT) of the body.", "score": 0.5568, "match_basis": "verbatim_token+domain_route:MK"}, {"md_atom_id": "md_dmMK_ex_a036", "md_file": "knowledge_base/domains/MK/examples.md", "md_atom_type": "SENTENCE", "md_parent_section": "§MK.2 [Example 2]", "md_verbatim": "In this evaluation of radiographs for joint narrowing, each joint was graded.", "score": 0.4762, "match_basis": "verbatim_token+domain_route:MK"}, {"md_atom_id": "md_dmMK_ex_a013", "md_file": "knowledge_base/domains/MK/examples.md", "md_atom_type": "SENTENCE", "md_parent_section": "§MK.1 [Example 1]", "md_verbatim": "**Rows 9-10:** Show that the assessments for tenderness and swelling of the acromioclavicular joint (see MKLOC) on the right side of the body was not performed (MKSTAT=\"NOT DONE\"), but a specific reason was not collected on the CRF.", "score": 0.473, "match_basis": "verbatim_token+domain_route:MK"}], "candidate_count": 5, "zero_candidate": false}
{"pdf_atom_id": "ig34_p0292_a015", "pdf_atom_type": "SENTENCE", "pdf_source": "SDTMIG_v3.4", "pdf_page": 292, "pdf_parent_section": "§6.3.7.3 Musculoskeletal System Findings (MK)", "pdf_verbatim": "Because the evaluation includes a large number of joints that would result in many records, only a subset of the data collected is shown below.", "figure_ref": null, "candidates": [{"md_atom_id": "md_dmMK_ex_a011", "md_file": "knowledge_base/domains/MK/examples.md", "md_atom_type": "SENTENCE", "md_parent_section": "§MK.1 [Example 1]", "md_verbatim": "Because the evaluation includes a large number of joints that would result in many records, only a subset of the data collected is shown below.", "score": 1.0, "match_basis": "verbatim_token+domain_route:MK"}, {"md_atom_id": "md_dmMK_ex_a043", "md_file": "knowledge_base/domains/MK/examples.md", "md_atom_type": "SENTENCE", "md_parent_section": "§MK.2 [Example 2]", "md_verbatim": "Because the evaluation includes a large number of joints that would result in many records, only a subset of the data collected is shown here.", "score": 0.9571, "match_basis": "verbatim_token+domain_route:MK"}, {"md_atom_id": "md_dmMK_ex_a046", "md_file": "knowledge_base/domains/MK/examples.md", "md_atom_type": "SENTENCE", "md_parent_section": "§MK.2 [Example 2]", "md_verbatim": "**Rows 3, 6, 9, 12:** Show data collected for joints that were not assessed (MKSTAT=\"NOT DONE\"), with the reason collected on the CRF represented in MKREASND.", "score": 0.5107, "match_basis": "verbatim_token+domain_route:MK"}, {"md_atom_id": "md_dmMK_ex_a006", "md_file": "knowledge_base/domains/MK/examples.md", "md_atom_type": "SENTENCE", "md_parent_section": "§MK.1 [Example 1]", "md_verbatim": "Data collection included a field for marking a joint not evaluable when that joint met a condition (e.g., infection of the overlying tissue or skin, grossly edematous, fused), which precluded joint assessment, as specified by the protocol and the protocol-related joint assessor training.", "score": 0.5045, "match_basis": "verbatim_token+domain_route:MK"}, {"md_atom_id": "md_dmMK_ex_a014", "md_file": "knowledge_base/domains/MK/examples.md", "md_atom_type": "SENTENCE", "md_parent_section": "§MK.1 [Example 1]", "md_verbatim": "**Rows 13-14:** Show that the assessments for tenderness and swelling of the shoulder joint (see MKLOC) on the right side of the body was not performed (MKSTAT=\"NOT DONE\") because it was not evaluable (MKREASND=\"JOINT NOT EVALUABLE\").", "score": 0.493, "match_basis": "verbatim_token+domain_route:MK"}], "candidate_count": 5, "zero_candidate": false}
{"pdf_atom_id": "ig34_p0292_a016", "pdf_atom_type": "LIST_ITEM", "pdf_source": "SDTMIG_v3.4", "pdf_page": 292, "pdf_parent_section": "§6.3.7.3 Musculoskeletal System Findings (MK)", "pdf_verbatim": "Rows 1-8, 11-12, 15-16: Show the occurrence of tenderness or swelling (MKORRES/MKSTRESC=\"Y\", \"N\") at specific joint locations, represented in MKLOC, on the right and left sides (MKLAT) of the body.", "figure_ref": null, "candidates": [{"md_atom_id": "md_dmMK_ex_a012", "md_file": "knowledge_base/domains/MK/examples.md", "md_atom_type": "SENTENCE", "md_parent_section": "§MK.1 [Example 1]", "md_verbatim": "**Rows 1-8, 11-12, 15-16:** Show the occurrence of tenderness or swelling (MKORRES/MKSTRESC=\"Y\", \"N\") at specific joint locations, represented in MKLOC, on the right and left sides (MKLAT) of the body.", "score": 0.91, "match_basis": "verbatim_token+domain_route:MK"}, {"md_atom_id": "md_dmMK_ex_a013", "md_file": "knowledge_base/domains/MK/examples.md", "md_atom_type": "SENTENCE", "md_parent_section": "§MK.1 [Example 1]", "md_verbatim": "**Rows 9-10:** Show that the assessments for tenderness and swelling of the acromioclavicular joint (see MKLOC) on the right side of the body was not performed (MKSTAT=\"NOT DONE\"), but a specific reason was not collected on the CRF.", "score": 0.5164, "match_basis": "verbatim_token+domain_route:MK"}, {"md_atom_id": "md_dmMK_assn_a003", "md_file": "knowledge_base/domains/MK/assumptions.md", "md_atom_type": "LIST_ITEM", "md_parent_section": "§MK [MK — Assumptions]", "md_verbatim": "2. Musculoskeletal assessment examples that may have results represented in the MK domain include the following: morphology/physiology observations (e.g., swollen/tender joint count, limb movement, strength/grip measurements).", "score": 0.4929, "match_basis": "verbatim_token+domain_route:MK"}, {"md_atom_id": "md_dmMK_ex_a014", "md_file": "knowledge_base/domains/MK/examples.md", "md_atom_type": "SENTENCE", "md_parent_section": "§MK.1 [Example 1]", "md_verbatim": "**Rows 13-14:** Show that the assessments for tenderness and swelling of the shoulder joint (see MKLOC) on the right side of the body was not performed (MKSTAT=\"NOT DONE\") because it was not evaluable (MKREASND=\"JOINT NOT EVALUABLE\").", "score": 0.49, "match_basis": "verbatim_token+domain_route:MK"}, {"md_atom_id": "md_dmMK_ex_a010", "md_file": "knowledge_base/domains/MK/examples.md", "md_atom_type": "SENTENCE", "md_parent_section": "§MK.1 [Example 1]", "md_verbatim": "Each joint location is specified in MKLOC with laterality (\"RIGHT\" or \"LEFT\") in MKLAT.", "score": 0.4668, "match_basis": "verbatim_token+domain_route:MK"}], "candidate_count": 5, "zero_candidate": false}
{"pdf_atom_id": "ig34_p0292_a017", "pdf_atom_type": "LIST_ITEM", "pdf_source": "SDTMIG_v3.4", "pdf_page": 292, "pdf_parent_section": "§6.3.7.3 Musculoskeletal System Findings (MK)", "pdf_verbatim": "Rows 9-10: Show that the assessments for tenderness and swelling of the acromioclavicular joint (see MKLOC) on the right side of the body was not performed (MKSTAT=\"NOT DONE\"), but a specific reason was not collected on the CRF.", "figure_ref": null, "candidates": [{"md_atom_id": "md_dmMK_ex_a013", "md_file": "knowledge_base/domains/MK/examples.md", "md_atom_type": "SENTENCE", "md_parent_section": "§MK.1 [Example 1]", "md_verbatim": "**Rows 9-10:** Show that the assessments for tenderness and swelling of the acromioclavicular joint (see MKLOC) on the right side of the body was not performed (MKSTAT=\"NOT DONE\"), but a specific reason was not collected on the CRF.", "score": 0.91, "match_basis": "verbatim_token+domain_route:MK"}, {"md_atom_id": "md_dmMK_ex_a014", "md_file": "knowledge_base/domains/MK/examples.md", "md_atom_type": "SENTENCE", "md_parent_section": "§MK.1 [Example 1]", "md_verbatim": "**Rows 13-14:** Show that the assessments for tenderness and swelling of the shoulder joint (see MKLOC) on the right side of the body was not performed (MKSTAT=\"NOT DONE\") because it was not evaluable (MKREASND=\"JOINT NOT EVALUABLE\").", "score": 0.6339, "match_basis": "verbatim_token+domain_route:MK"}, {"md_atom_id": "md_dmMK_ex_a012", "md_file": "knowledge_base/domains/MK/examples.md", "md_atom_type": "SENTENCE", "md_parent_section": "§MK.1 [Example 1]", "md_verbatim": "**Rows 1-8, 11-12, 15-16:** Show the occurrence of tenderness or swelling (MKORRES/MKSTRESC=\"Y\", \"N\") at specific joint locations, represented in MKLOC, on the right and left sides (MKLAT) of the body.", "score": 0.5164, "match_basis": "verbatim_token+domain_route:MK"}, {"md_atom_id": "md_dmMK_ex_a046", "md_file": "knowledge_base/domains/MK/examples.md", "md_atom_type": "SENTENCE", "md_parent_section": "§MK.2 [Example 2]", "md_verbatim": "**Rows 3, 6, 9, 12:** Show data collected for joints that were not assessed (MKSTAT=\"NOT DONE\"), with the reason collected on the CRF represented in MKREASND.", "score": 0.5046, "match_basis": "verbatim_token+domain_route:MK"}, {"md_atom_id": "md_dmMK_assn_a003", "md_file": "knowledge_base/domains/MK/assumptions.md", "md_atom_type": "LIST_ITEM", "md_parent_section": "§MK [MK — Assumptions]", "md_verbatim": "2. Musculoskeletal assessment examples that may have results represented in the MK domain include the following: morphology/physiology observations (e.g., swollen/tender joint count, limb movement, strength/grip measurements).", "score": 0.4802, "match_basis": "verbatim_token+domain_route:MK"}], "candidate_count": 5, "zero_candidate": false}
{"pdf_atom_id": "ig34_p0292_a018", "pdf_atom_type": "LIST_ITEM", "pdf_source": "SDTMIG_v3.4", "pdf_page": 292, "pdf_parent_section": "§6.3.7.3 Musculoskeletal System Findings (MK)", "pdf_verbatim": "Rows 13-14: Show that the assessments for tenderness and swelling of the shoulder joint (see MKLOC) on the right side of the body was not performed (MKSTAT=\"NOT DONE\") because it was not evaluable (MKREASND=\"JOINT NOT EVALUABLE\").", "figure_ref": null, "candidates": [{"md_atom_id": "md_dmMK_ex_a014", "md_file": "knowledge_base/domains/MK/examples.md", "md_atom_type": "SENTENCE", "md_parent_section": "§MK.1 [Example 1]", "md_verbatim": "**Rows 13-14:** Show that the assessments for tenderness and swelling of the shoulder joint (see MKLOC) on the right side of the body was not performed (MKSTAT=\"NOT DONE\") because it was not evaluable (MKREASND=\"JOINT NOT EVALUABLE\").", "score": 0.91, "match_basis": "verbatim_token+domain_route:MK"}, {"md_atom_id": "md_dmMK_ex_a013", "md_file": "knowledge_base/domains/MK/examples.md", "md_atom_type": "SENTENCE", "md_parent_section": "§MK.1 [Example 1]", "md_verbatim": "**Rows 9-10:** Show that the assessments for tenderness and swelling of the acromioclavicular joint (see MKLOC) on the right side of the body was not performed (MKSTAT=\"NOT DONE\"), but a specific reason was not collected on the CRF.", "score": 0.6339, "match_basis": "verbatim_token+domain_route:MK"}, {"md_atom_id": "md_dmMK_ex_a012", "md_file": "knowledge_base/domains/MK/examples.md", "md_atom_type": "SENTENCE", "md_parent_section": "§MK.1 [Example 1]", "md_verbatim": "**Rows 1-8, 11-12, 15-16:** Show the occurrence of tenderness or swelling (MKORRES/MKSTRESC=\"Y\", \"N\") at specific joint locations, represented in MKLOC, on the right and left sides (MKLAT) of the body.", "score": 0.49, "match_basis": "verbatim_token+domain_route:MK"}, {"md_atom_id": "md_dmMK_ex_a046", "md_file": "knowledge_base/domains/MK/examples.md", "md_atom_type": "SENTENCE", "md_parent_section": "§MK.2 [Example 2]", "md_verbatim": "**Rows 3, 6, 9, 12:** Show data collected for joints that were not assessed (MKSTAT=\"NOT DONE\"), with the reason collected on the CRF represented in MKREASND.", "score": 0.4814, "match_basis": "verbatim_token+domain_route:MK"}, {"md_atom_id": "md_dmMK_assn_a003", "md_file": "knowledge_base/domains/MK/assumptions.md", "md_atom_type": "LIST_ITEM", "md_parent_section": "§MK [MK — Assumptions]", "md_verbatim": "2. Musculoskeletal assessment examples that may have results represented in the MK domain include the following: morphology/physiology observations (e.g., swollen/tender joint count, limb movement, strength/grip measurements).", "score": 0.4704, "match_basis": "verbatim_token+domain_route:MK"}], "candidate_count": 5, "zero_candidate": false}
{"pdf_atom_id": "ig34_p0293_a001", "pdf_atom_type": "CODE_LITERAL", "pdf_source": "SDTMIG_v3.4", "pdf_page": 293, "pdf_parent_section": "§6.3.7.3 Musculoskeletal System Findings (MK)", "pdf_verbatim": "mk.xpt", "figure_ref": null, "candidates": [{"md_atom_id": "md_dmMK_ex_a015", "md_file": "knowledge_base/domains/MK/examples.md", "md_atom_type": "SENTENCE", "md_parent_section": "§MK.1 [Example 1]", "md_verbatim": "**mk.xpt**", "score": 0.79, "match_basis": "verbatim_token+domain_route:MK"}, {"md_atom_id": "md_dmMK_ex_a047", "md_file": "knowledge_base/domains/MK/examples.md", "md_atom_type": "SENTENCE", "md_parent_section": "§MK.2 [Example 2]", "md_verbatim": "**mk.xpt**", "score": 0.79, "match_basis": "verbatim_token+domain_route:MK"}, {"md_atom_id": "md_dmMK_assn_a001", "md_file": "knowledge_base/domains/MK/assumptions.md", "md_atom_type": "HEADING", "md_parent_section": "§MK [MK — Assumptions]", "md_verbatim": "# MK — Assumptions", "score": 0.19, "match_basis": "verbatim_token+domain_route:MK"}, {"md_atom_id": "md_dmMK_assn_a002", "md_file": "knowledge_base/domains/MK/assumptions.md", "md_atom_type": "LIST_ITEM", "md_parent_section": "§MK [MK — Assumptions]", "md_verbatim": "1. The Musculoskeletal System Findings domain should not be used for oncology data related to the musculoskeletal system (e.g., bone lesions). Such data should be placed in the appropriate oncology domains: Tumor/Lesion Identification (TU), Tumor/Lesion Results (TR), and/or Disease Response and Clinical Classification (RS).", "score": 0.19, "match_basis": "verbatim_token+domain_route:MK"}, {"md_atom_id": "md_dmMK_assn_a003", "md_file": "knowledge_base/domains/MK/assumptions.md", "md_atom_type": "LIST_ITEM", "md_parent_section": "§MK [MK — Assumptions]", "md_verbatim": "2. Musculoskeletal assessment examples that may have results represented in the MK domain include the following: morphology/physiology observations (e.g., swollen/tender joint count, limb movement, strength/grip measurements).", "score": 0.19, "match_basis": "verbatim_token+domain_route:MK"}, {"md_atom_id": "md_dmMK_assn_a004", "md_file": "knowledge_base/domains/MK/assumptions.md", "md_atom_type": "LIST_ITEM", "md_parent_section": "§MK [MK — Assumptions]", "md_verbatim": "3. Any Identifiers, Timing variables, or Findings general observation class qualifiers may be added to the MK domain, but the following qualifiers would generally not be used: --MODIFY, --BODSYS, --LOINC, --TOX, --TOXGR, --FAST, --ORNRLO, --ORNRHI, --STNRLO, --STNRHI, --ORREF, --STREFC, --STREFN.", "score": 0.19, "match_basis": "verbatim_token+domain_route:MK"}, {"md_atom_id": "md_dmMK_ex_a001", "md_file": "knowledge_base/domains/MK/examples.md", "md_atom_type": "HEADING", "md_parent_section": "§MK [MK — Examples]", "md_verbatim": "# MK — Examples", "score": 0.19, "match_basis": "verbatim_token+domain_route:MK"}, {"md_atom_id": "md_dmMK_ex_a002", "md_file": "knowledge_base/domains/MK/examples.md", "md_atom_type": "HEADING", "md_parent_section": "§MK [MK — Examples]", "md_verbatim": "## Example 1", "score": 0.19, "match_basis": "verbatim_token+domain_route:MK"}, {"md_atom_id": "md_dmMK_ex_a003", "md_file": "knowledge_base/domains/MK/examples.md", "md_atom_type": "SENTENCE", "md_parent_section": "§MK.1 [Example 1]", "md_verbatim": "This example illustrates data collected for the swollen/tender joint count assessment, specifically the 68-joint count.", "score": 0.19, "match_basis": "verbatim_token+domain_route:MK"}, {"md_atom_id": "md_dmMK_ex_a004", "md_file": "knowledge_base/domains/MK/examples.md", "md_atom_type": "SENTENCE", "md_parent_section": "§MK.1 [Example 1]", "md_verbatim": "After determining whether each joint is swollen or tender, the assessor will add up the number of \"Yes\" responses for swollen joints and tender joints to obtain a total count for each.", "score": 0.19, "match_basis": "verbatim_token+domain_route:MK"}], "candidate_count": 10, "zero_candidate": false}
{"pdf_atom_id": "ig34_p0293_a002", "pdf_atom_type": "TABLE_HEADER", "pdf_source": "SDTMIG_v3.4", "pdf_page": 293, "pdf_parent_section": "§6.3.7.3 Musculoskeletal System Findings (MK)", "pdf_verbatim": "| Row | STUDYID | DOMAIN | USUBJID | MKSEQ | MKTESTCD | MKTEST | MKORRES | MKSTRESC | MKSTRESN | MKSTAT | MKREASND | MKLOC | MKLAT | MKMETHOD | VISITNUM | VISIT | MKDTC |", "figure_ref": null, "candidates": [{"md_atom_id": "md_dmMK_ex_a016", "md_file": "knowledge_base/domains/MK/examples.md", "md_atom_type": "TABLE_HEADER", "md_parent_section": "§MK.1 [Example 1]", "md_verbatim": "| Row | STUDYID | DOMAIN | USUBJID | MKSEQ | MKTESTCD | MKTEST | MKORRES | MKSTRESC | MKSTRESN | MKSTAT | MKREASND | MKLOC | MKLAT | MKMETHOD | VISITNUM | VISIT | MKDTC |\n|-----|---------|--------|---------|-------|----------|--------|---------|----------|----------|--------|----------|-------|-------|----------|----------|-------|-------|", "score": 1.0, "match_basis": "verbatim_token+domain_route:MK"}, {"md_atom_id": "md_dmMK_ex_a048", "md_file": "knowledge_base/domains/MK/examples.md", "md_atom_type": "TABLE_HEADER", "md_parent_section": "§MK.2 [Example 2]", "md_verbatim": "| Row | STUDYID | DOMAIN | USUBJID | MKSEQ | MKTESTCD | MKTEST | MKORRES | MKSTRESC | MKSTRESN | MKSTAT | MKREASND | MKLOC | MKLAT | MKMETHOD | MKEVAL | MKEVALID | VISITNUM | VISIT | MKDTC |\n|-----|---------|--------|---------|-------|----------|--------|---------|----------|----------|--------|----------|-------|-------|----------|--------|----------|----------|-------|-------|", "score": 0.9471, "match_basis": "verbatim_token+domain_route:MK"}, {"md_atom_id": "md_dmMK_ex_a063", "md_file": "knowledge_base/domains/MK/examples.md", "md_atom_type": "TABLE_ROW", "md_parent_section": "§MK.2 [Example 2]", "md_verbatim": "| 15 | XYZ | MK | XYZ-002 | 15 | SGJSNSCR | Sharp/Genant JSN Score | QUESTIONABLE | 0.5 | 0.5 | | | METACARPOPHALANGEAL JOINT 5 | RIGHT | X-RAY | INDEPENDENT ASSESSOR | READER 1 | 4 | WEEK 12 | 2013-08-12 |", "score": 0.3536, "match_basis": "verbatim_token+domain_route:MK"}, {"md_atom_id": "md_dmMK_ex_a061", "md_file": "knowledge_base/domains/MK/examples.md", "md_atom_type": "TABLE_ROW", "md_parent_section": "§MK.2 [Example 2]", "md_verbatim": "| 13 | XYZ | MK | XYZ-002 | 13 | SGJSNSCR | Sharp/Genant JSN Score | SEVERE; LOSS OF JOINT SPACE, DISLOCATION, EROSION | 3 | 3 | | | METACARPOPHALANGEAL JOINT 4 | RIGHT | X-RAY | INDEPENDENT ASSESSOR | READER 1 | 4 | WEEK 12 | 2013-08-12 |", "score": 0.3525, "match_basis": "verbatim_token+domain_route:MK"}, {"md_atom_id": "md_dmMK_ex_a060", "md_file": "knowledge_base/domains/MK/examples.md", "md_atom_type": "TABLE_ROW", "md_parent_section": "§MK.2 [Example 2]", "md_verbatim": "| 12 | XYZ | MK | XYZ-002 | 12 | SGJSNSCR | Sharp/Genant JSN Score | | | | NOT DONE | AMPUTATION/MISSING ANATOMY/JOINT REPLACEMENT/SURGICAL ALTERATION | METACARPOPHALANGEAL JOINT 3 | LEFT | X-RAY | INDEPENDENT ASSESSOR | READER 1 | 4 | WEEK 12 | 2013-08-12 |", "score": 0.3512, "match_basis": "verbatim_token+domain_route:MK"}], "candidate_count": 5, "zero_candidate": false}
{"pdf_atom_id": "ig34_p0293_a003", "pdf_atom_type": "TABLE_ROW", "pdf_source": "SDTMIG_v3.4", "pdf_page": 293, "pdf_parent_section": "§6.3.7.3 Musculoskeletal System Findings (MK)", "pdf_verbatim": "| 1 | DEF | MK | DEF-138 | 1 | TNDRIND | Tenderness Indicator | Y | Y | | | | TEMPOROMANDIBULAR JOINT | RIGHT | PHYSICAL EXAMINATION | 2 | WEEK 4 | 2012-09-30 |", "figure_ref": null, "candidates": [{"md_atom_id": "md_dmMK_ex_a017", "md_file": "knowledge_base/domains/MK/examples.md", "md_atom_type": "TABLE_ROW", "md_parent_section": "§MK.1 [Example 1]", "md_verbatim": "| 1 | DEF | MK | DEF-138 | 1 | TNDRIND | Tenderness Indicator | Y | Y | | | | TEMPOROMANDIBULAR JOINT | RIGHT | PHYSICAL EXAMINATION | 2 | WEEK 4 | 2012-09-30 |", "score": 1.0, "match_basis": "verbatim_token+domain_route:MK"}, {"md_atom_id": "md_dmMK_ex_a019", "md_file": "knowledge_base/domains/MK/examples.md", "md_atom_type": "TABLE_ROW", "md_parent_section": "§MK.1 [Example 1]", "md_verbatim": "| 3 | DEF | MK | DEF-138 | 3 | TNDRIND | Tenderness Indicator | N | N | | | | TEMPOROMANDIBULAR JOINT | LEFT | PHYSICAL EXAMINATION | 2 | WEEK 4 | 2012-09-30 |", "score": 0.9508, "match_basis": "verbatim_token+domain_route:MK"}, {"md_atom_id": "md_dmMK_ex_a018", "md_file": "knowledge_base/domains/MK/examples.md", "md_atom_type": "TABLE_ROW", "md_parent_section": "§MK.1 [Example 1]", "md_verbatim": "| 2 | DEF | MK | DEF-138 | 2 | SWLLIND | Swollen Indicator | Y | Y | | | | TEMPOROMANDIBULAR JOINT | RIGHT | PHYSICAL EXAMINATION | 2 | WEEK 4 | 2012-09-30 |", "score": 0.8147, "match_basis": "verbatim_token+domain_route:MK"}, {"md_atom_id": "md_dmMK_ex_a021", "md_file": "knowledge_base/domains/MK/examples.md", "md_atom_type": "TABLE_ROW", "md_parent_section": "§MK.1 [Example 1]", "md_verbatim": "| 5 | DEF | MK | DEF-138 | 5 | TNDRIND | Tenderness Indicator | Y | Y | | | | STERNOCLAVICULAR JOINT | RIGHT | PHYSICAL EXAMINATION | 2 | WEEK 4 | 2012-09-30 |", "score": 0.8029, "match_basis": "verbatim_token+domain_route:MK"}, {"md_atom_id": "md_dmMK_ex_a025", "md_file": "knowledge_base/domains/MK/examples.md", "md_atom_type": "TABLE_ROW", "md_parent_section": "§MK.1 [Example 1]", "md_verbatim": "| 9 | DEF | MK | DEF-138 | 9 | TNDRIND | Tenderness Indicator | | | | NOT DONE | | ACROMIOCLAVICULAR JOINT | RIGHT | PHYSICAL EXAMINATION | 2 | WEEK 4 | 2012-09-30 |", "score": 0.7892, "match_basis": "verbatim_token+domain_route:MK"}], "candidate_count": 5, "zero_candidate": false}
{"pdf_atom_id": "ig34_p0293_a004", "pdf_atom_type": "TABLE_ROW", "pdf_source": "SDTMIG_v3.4", "pdf_page": 293, "pdf_parent_section": "§6.3.7.3 Musculoskeletal System Findings (MK)", "pdf_verbatim": "| 2 | DEF | MK | DEF-138 | 2 | SWLLIND | Swollen Indicator | Y | Y | | | | TEMPOROMANDIBULAR JOINT | RIGHT | PHYSICAL EXAMINATION | 2 | WEEK 4 | 2012-09-30 |", "figure_ref": null, "candidates": [{"md_atom_id": "md_dmMK_ex_a018", "md_file": "knowledge_base/domains/MK/examples.md", "md_atom_type": "TABLE_ROW", "md_parent_section": "§MK.1 [Example 1]", "md_verbatim": "| 2 | DEF | MK | DEF-138 | 2 | SWLLIND | Swollen Indicator | Y | Y | | | | TEMPOROMANDIBULAR JOINT | RIGHT | PHYSICAL EXAMINATION | 2 | WEEK 4 | 2012-09-30 |", "score": 1.0, "match_basis": "verbatim_token+domain_route:MK"}, {"md_atom_id": "md_dmMK_ex_a020", "md_file": "knowledge_base/domains/MK/examples.md", "md_atom_type": "TABLE_ROW", "md_parent_section": "§MK.1 [Example 1]", "md_verbatim": "| 4 | DEF | MK | DEF-138 | 4 | SWLLIND | Swollen Indicator | N | N | | | | TEMPOROMANDIBULAR JOINT | LEFT | PHYSICAL EXAMINATION | 2 | WEEK 4 | 2012-09-30 |", "score": 0.9483, "match_basis": "verbatim_token+domain_route:MK"}, {"md_atom_id": "md_dmMK_ex_a017", "md_file": "knowledge_base/domains/MK/examples.md", "md_atom_type": "TABLE_ROW", "md_parent_section": "§MK.1 [Example 1]", "md_verbatim": "| 1 | DEF | MK | DEF-138 | 1 | TNDRIND | Tenderness Indicator | Y | Y | | | | TEMPOROMANDIBULAR JOINT | RIGHT | PHYSICAL EXAMINATION | 2 | WEEK 4 | 2012-09-30 |", "score": 0.8147, "match_basis": "verbatim_token+domain_route:MK"}, {"md_atom_id": "md_dmMK_ex_a022", "md_file": "knowledge_base/domains/MK/examples.md", "md_atom_type": "TABLE_ROW", "md_parent_section": "§MK.1 [Example 1]", "md_verbatim": "| 6 | DEF | MK | DEF-138 | 6 | SWLLIND | Swollen Indicator | N | N | | | | STERNOCLAVICULAR JOINT | RIGHT | PHYSICAL EXAMINATION | 2 | WEEK 4 | 2012-09-30 |", "score": 0.7882, "match_basis": "verbatim_token+domain_route:MK"}, {"md_atom_id": "md_dmMK_ex_a026", "md_file": "knowledge_base/domains/MK/examples.md", "md_atom_type": "TABLE_ROW", "md_parent_section": "§MK.1 [Example 1]", "md_verbatim": "| 10 | DEF | MK | DEF-138 | 10 | SWLLIND | Swollen Indicator | | | | NOT DONE | | ACROMIOCLAVICULAR JOINT | RIGHT | PHYSICAL EXAMINATION | 2 | WEEK 4 | 2012-09-30 |", "score": 0.7803, "match_basis": "verbatim_token+domain_route:MK"}], "candidate_count": 5, "zero_candidate": false}
{"pdf_atom_id": "ig34_p0293_a005", "pdf_atom_type": "TABLE_ROW", "pdf_source": "SDTMIG_v3.4", "pdf_page": 293, "pdf_parent_section": "§6.3.7.3 Musculoskeletal System Findings (MK)", "pdf_verbatim": "| 3 | DEF | MK | DEF-138 | 3 | TNDRIND | Tenderness Indicator | N | N | | | | TEMPOROMANDIBULAR JOINT | LEFT | PHYSICAL EXAMINATION | 2 | WEEK 4 | 2012-09-30 |", "figure_ref": null, "candidates": [{"md_atom_id": "md_dmMK_ex_a019", "md_file": "knowledge_base/domains/MK/examples.md", "md_atom_type": "TABLE_ROW", "md_parent_section": "§MK.1 [Example 1]", "md_verbatim": "| 3 | DEF | MK | DEF-138 | 3 | TNDRIND | Tenderness Indicator | N | N | | | | TEMPOROMANDIBULAR JOINT | LEFT | PHYSICAL EXAMINATION | 2 | WEEK 4 | 2012-09-30 |", "score": 1.0, "match_basis": "verbatim_token+domain_route:MK"}, {"md_atom_id": "md_dmMK_ex_a017", "md_file": "knowledge_base/domains/MK/examples.md", "md_atom_type": "TABLE_ROW", "md_parent_section": "§MK.1 [Example 1]", "md_verbatim": "| 1 | DEF | MK | DEF-138 | 1 | TNDRIND | Tenderness Indicator | Y | Y | | | | TEMPOROMANDIBULAR JOINT | RIGHT | PHYSICAL EXAMINATION | 2 | WEEK 4 | 2012-09-30 |", "score": 0.9508, "match_basis": "verbatim_token+domain_route:MK"}, {"md_atom_id": "md_dmMK_ex_a031", "md_file": "knowledge_base/domains/MK/examples.md", "md_atom_type": "TABLE_ROW", "md_parent_section": "§MK.1 [Example 1]", "md_verbatim": "| 15 | DEF | MK | DEF-138 | 15 | TNDRIND | Tenderness Indicator | N | N | | | | SHOULDER JOINT | LEFT | PHYSICAL EXAMINATION | 2 | WEEK 4 | 2012-09-30 |", "score": 0.819, "match_basis": "verbatim_token+domain_route:MK"}, {"md_atom_id": "md_dmMK_ex_a020", "md_file": "knowledge_base/domains/MK/examples.md", "md_atom_type": "TABLE_ROW", "md_parent_section": "§MK.1 [Example 1]", "md_verbatim": "| 4 | DEF | MK | DEF-138 | 4 | SWLLIND | Swollen Indicator | N | N | | | | TEMPOROMANDIBULAR JOINT | LEFT | PHYSICAL EXAMINATION | 2 | WEEK 4 | 2012-09-30 |", "score": 0.8119, "match_basis": "verbatim_token+domain_route:MK"}, {"md_atom_id": "md_dmMK_ex_a027", "md_file": "knowledge_base/domains/MK/examples.md", "md_atom_type": "TABLE_ROW", "md_parent_section": "§MK.1 [Example 1]", "md_verbatim": "| 11 | DEF | MK | DEF-138 | 11 | TNDRIND | Tenderness Indicator | Y | Y | | | | ACROMIOCLAVICULAR JOINT | LEFT | PHYSICAL EXAMINATION | 2 | WEEK 4 | 2012-09-30 |", "score": 0.8029, "match_basis": "verbatim_token+domain_route:MK"}], "candidate_count": 5, "zero_candidate": false}
{"pdf_atom_id": "ig34_p0293_a006", "pdf_atom_type": "TABLE_ROW", "pdf_source": "SDTMIG_v3.4", "pdf_page": 293, "pdf_parent_section": "§6.3.7.3 Musculoskeletal System Findings (MK)", "pdf_verbatim": "| 4 | DEF | MK | DEF-138 | 4 | SWLLIND | Swollen Indicator | N | N | | | | TEMPOROMANDIBULAR JOINT | LEFT | PHYSICAL EXAMINATION | 2 | WEEK 4 | 2012-09-30 |", "figure_ref": null, "candidates": [{"md_atom_id": "md_dmMK_ex_a020", "md_file": "knowledge_base/domains/MK/examples.md", "md_atom_type": "TABLE_ROW", "md_parent_section": "§MK.1 [Example 1]", "md_verbatim": "| 4 | DEF | MK | DEF-138 | 4 | SWLLIND | Swollen Indicator | N | N | | | | TEMPOROMANDIBULAR JOINT | LEFT | PHYSICAL EXAMINATION | 2 | WEEK 4 | 2012-09-30 |", "score": 1.0, "match_basis": "verbatim_token+domain_route:MK"}, {"md_atom_id": "md_dmMK_ex_a018", "md_file": "knowledge_base/domains/MK/examples.md", "md_atom_type": "TABLE_ROW", "md_parent_section": "§MK.1 [Example 1]", "md_verbatim": "| 2 | DEF | MK | DEF-138 | 2 | SWLLIND | Swollen Indicator | Y | Y | | | | TEMPOROMANDIBULAR JOINT | RIGHT | PHYSICAL EXAMINATION | 2 | WEEK 4 | 2012-09-30 |", "score": 0.9483, "match_basis": "verbatim_token+domain_route:MK"}, {"md_atom_id": "md_dmMK_ex_a019", "md_file": "knowledge_base/domains/MK/examples.md", "md_atom_type": "TABLE_ROW", "md_parent_section": "§MK.1 [Example 1]", "md_verbatim": "| 3 | DEF | MK | DEF-138 | 3 | TNDRIND | Tenderness Indicator | N | N | | | | TEMPOROMANDIBULAR JOINT | LEFT | PHYSICAL EXAMINATION | 2 | WEEK 4 | 2012-09-30 |", "score": 0.8119, "match_basis": "verbatim_token+domain_route:MK"}, {"md_atom_id": "md_dmMK_ex_a032", "md_file": "knowledge_base/domains/MK/examples.md", "md_atom_type": "TABLE_ROW", "md_parent_section": "§MK.1 [Example 1]", "md_verbatim": "| 16 | DEF | MK | DEF-138 | 16 | SWLLIND | Swollen Indicator | Y | Y | | | | SHOULDER JOINT | LEFT | PHYSICAL EXAMINATION | 2 | WEEK 4 | 2012-09-30 |", "score": 0.8033, "match_basis": "verbatim_token+domain_route:MK"}, {"md_atom_id": "md_dmMK_ex_a028", "md_file": "knowledge_base/domains/MK/examples.md", "md_atom_type": "TABLE_ROW", "md_parent_section": "§MK.1 [Example 1]", "md_verbatim": "| 12 | DEF | MK | DEF-138 | 12 | SWLLIND | Swollen Indicator | Y | Y | | | | ACROMIOCLAVICULAR JOINT | LEFT | PHYSICAL EXAMINATION | 2 | WEEK 4 | 2012-09-30 |", "score": 0.794, "match_basis": "verbatim_token+domain_route:MK"}], "candidate_count": 5, "zero_candidate": false}
{"pdf_atom_id": "ig34_p0293_a007", "pdf_atom_type": "TABLE_ROW", "pdf_source": "SDTMIG_v3.4", "pdf_page": 293, "pdf_parent_section": "§6.3.7.3 Musculoskeletal System Findings (MK)", "pdf_verbatim": "| 5 | DEF | MK | DEF-138 | 5 | TNDRIND | Tenderness Indicator | Y | Y | | | | STERNOCLAVICULAR JOINT | RIGHT | PHYSICAL EXAMINATION | 2 | WEEK 4 | 2012-09-30 |", "figure_ref": null, "candidates": [{"md_atom_id": "md_dmMK_ex_a021", "md_file": "knowledge_base/domains/MK/examples.md", "md_atom_type": "TABLE_ROW", "md_parent_section": "§MK.1 [Example 1]", "md_verbatim": "| 5 | DEF | MK | DEF-138 | 5 | TNDRIND | Tenderness Indicator | Y | Y | | | | STERNOCLAVICULAR JOINT | RIGHT | PHYSICAL EXAMINATION | 2 | WEEK 4 | 2012-09-30 |", "score": 1.0, "match_basis": "verbatim_token+domain_route:MK"}, {"md_atom_id": "md_dmMK_ex_a023", "md_file": "knowledge_base/domains/MK/examples.md", "md_atom_type": "TABLE_ROW", "md_parent_section": "§MK.1 [Example 1]", "md_verbatim": "| 7 | DEF | MK | DEF-138 | 7 | TNDRIND | Tenderness Indicator | Y | Y | | | | STERNOCLAVICULAR JOINT | LEFT | PHYSICAL EXAMINATION | 2 | WEEK 4 | 2012-09-30 |", "score": 0.95, "match_basis": "verbatim_token+domain_route:MK"}, {"md_atom_id": "md_dmMK_ex_a025", "md_file": "knowledge_base/domains/MK/examples.md", "md_atom_type": "TABLE_ROW", "md_parent_section": "§MK.1 [Example 1]", "md_verbatim": "| 9 | DEF | MK | DEF-138 | 9 | TNDRIND | Tenderness Indicator | | | | NOT DONE | | ACROMIOCLAVICULAR JOINT | RIGHT | PHYSICAL EXAMINATION | 2 | WEEK 4 | 2012-09-30 |", "score": 0.8836, "match_basis": "verbatim_token+domain_route:MK"}, {"md_atom_id": "md_dmMK_ex_a027", "md_file": "knowledge_base/domains/MK/examples.md", "md_atom_type": "TABLE_ROW", "md_parent_section": "§MK.1 [Example 1]", "md_verbatim": "| 11 | DEF | MK | DEF-138 | 11 | TNDRIND | Tenderness Indicator | Y | Y | | | | ACROMIOCLAVICULAR JOINT | LEFT | PHYSICAL EXAMINATION | 2 | WEEK 4 | 2012-09-30 |", "score": 0.8636, "match_basis": "verbatim_token+domain_route:MK"}, {"md_atom_id": "md_dmMK_ex_a022", "md_file": "knowledge_base/domains/MK/examples.md", "md_atom_type": "TABLE_ROW", "md_parent_section": "§MK.1 [Example 1]", "md_verbatim": "| 6 | DEF | MK | DEF-138 | 6 | SWLLIND | Swollen Indicator | N | N | | | | STERNOCLAVICULAR JOINT | RIGHT | PHYSICAL EXAMINATION | 2 | WEEK 4 | 2012-09-30 |", "score": 0.8209, "match_basis": "verbatim_token+domain_route:MK"}], "candidate_count": 5, "zero_candidate": false}
{"pdf_atom_id": "ig34_p0293_a008", "pdf_atom_type": "TABLE_ROW", "pdf_source": "SDTMIG_v3.4", "pdf_page": 293, "pdf_parent_section": "§6.3.7.3 Musculoskeletal System Findings (MK)", "pdf_verbatim": "| 6 | DEF | MK | DEF-138 | 6 | SWLLIND | Swollen Indicator | N | N | | | | STERNOCLAVICULAR JOINT | RIGHT | PHYSICAL EXAMINATION | 2 | WEEK 4 | 2012-09-30 |", "figure_ref": null, "candidates": [{"md_atom_id": "md_dmMK_ex_a022", "md_file": "knowledge_base/domains/MK/examples.md", "md_atom_type": "TABLE_ROW", "md_parent_section": "§MK.1 [Example 1]", "md_verbatim": "| 6 | DEF | MK | DEF-138 | 6 | SWLLIND | Swollen Indicator | N | N | | | | STERNOCLAVICULAR JOINT | RIGHT | PHYSICAL EXAMINATION | 2 | WEEK 4 | 2012-09-30 |", "score": 1.0, "match_basis": "verbatim_token+domain_route:MK"}, {"md_atom_id": "md_dmMK_ex_a024", "md_file": "knowledge_base/domains/MK/examples.md", "md_atom_type": "TABLE_ROW", "md_parent_section": "§MK.1 [Example 1]", "md_verbatim": "| 8 | DEF | MK | DEF-138 | 8 | SWLLIND | Swollen Indicator | Y | Y | | | | STERNOCLAVICULAR JOINT | LEFT | PHYSICAL EXAMINATION | 2 | WEEK 4 | 2012-09-30 |", "score": 0.9483, "match_basis": "verbatim_token+domain_route:MK"}, {"md_atom_id": "md_dmMK_ex_a026", "md_file": "knowledge_base/domains/MK/examples.md", "md_atom_type": "TABLE_ROW", "md_parent_section": "§MK.1 [Example 1]", "md_verbatim": "| 10 | DEF | MK | DEF-138 | 10 | SWLLIND | Swollen Indicator | | | | NOT DONE | | ACROMIOCLAVICULAR JOINT | RIGHT | PHYSICAL EXAMINATION | 2 | WEEK 4 | 2012-09-30 |", "score": 0.8708, "match_basis": "verbatim_token+domain_route:MK"}, {"md_atom_id": "md_dmMK_ex_a028", "md_file": "knowledge_base/domains/MK/examples.md", "md_atom_type": "TABLE_ROW", "md_parent_section": "§MK.1 [Example 1]", "md_verbatim": "| 12 | DEF | MK | DEF-138 | 12 | SWLLIND | Swollen Indicator | Y | Y | | | | ACROMIOCLAVICULAR JOINT | LEFT | PHYSICAL EXAMINATION | 2 | WEEK 4 | 2012-09-30 |", "score": 0.85, "match_basis": "verbatim_token+domain_route:MK"}, {"md_atom_id": "md_dmMK_ex_a021", "md_file": "knowledge_base/domains/MK/examples.md", "md_atom_type": "TABLE_ROW", "md_parent_section": "§MK.1 [Example 1]", "md_verbatim": "| 5 | DEF | MK | DEF-138 | 5 | TNDRIND | Tenderness Indicator | Y | Y | | | | STERNOCLAVICULAR JOINT | RIGHT | PHYSICAL EXAMINATION | 2 | WEEK 4 | 2012-09-30 |", "score": 0.8209, "match_basis": "verbatim_token+domain_route:MK"}], "candidate_count": 5, "zero_candidate": false}
{"pdf_atom_id": "ig34_p0293_a009", "pdf_atom_type": "TABLE_ROW", "pdf_source": "SDTMIG_v3.4", "pdf_page": 293, "pdf_parent_section": "§6.3.7.3 Musculoskeletal System Findings (MK)", "pdf_verbatim": "| 7 | DEF | MK | DEF-138 | 7 | TNDRIND | Tenderness Indicator | Y | Y | | | | STERNOCLAVICULAR JOINT | LEFT | PHYSICAL EXAMINATION | 2 | WEEK 4 | 2012-09-30 |", "figure_ref": null, "candidates": [{"md_atom_id": "md_dmMK_ex_a023", "md_file": "knowledge_base/domains/MK/examples.md", "md_atom_type": "TABLE_ROW", "md_parent_section": "§MK.1 [Example 1]", "md_verbatim": "| 7 | DEF | MK | DEF-138 | 7 | TNDRIND | Tenderness Indicator | Y | Y | | | | STERNOCLAVICULAR JOINT | LEFT | PHYSICAL EXAMINATION | 2 | WEEK 4 | 2012-09-30 |", "score": 1.0, "match_basis": "verbatim_token+domain_route:MK"}, {"md_atom_id": "md_dmMK_ex_a021", "md_file": "knowledge_base/domains/MK/examples.md", "md_atom_type": "TABLE_ROW", "md_parent_section": "§MK.1 [Example 1]", "md_verbatim": "| 5 | DEF | MK | DEF-138 | 5 | TNDRIND | Tenderness Indicator | Y | Y | | | | STERNOCLAVICULAR JOINT | RIGHT | PHYSICAL EXAMINATION | 2 | WEEK 4 | 2012-09-30 |", "score": 0.95, "match_basis": "verbatim_token+domain_route:MK"}, {"md_atom_id": "md_dmMK_ex_a027", "md_file": "knowledge_base/domains/MK/examples.md", "md_atom_type": "TABLE_ROW", "md_parent_section": "§MK.1 [Example 1]", "md_verbatim": "| 11 | DEF | MK | DEF-138 | 11 | TNDRIND | Tenderness Indicator | Y | Y | | | | ACROMIOCLAVICULAR JOINT | LEFT | PHYSICAL EXAMINATION | 2 | WEEK 4 | 2012-09-30 |", "score": 0.9048, "match_basis": "verbatim_token+domain_route:MK"}, {"md_atom_id": "md_dmMK_ex_a025", "md_file": "knowledge_base/domains/MK/examples.md", "md_atom_type": "TABLE_ROW", "md_parent_section": "§MK.1 [Example 1]", "md_verbatim": "| 9 | DEF | MK | DEF-138 | 9 | TNDRIND | Tenderness Indicator | | | | NOT DONE | | ACROMIOCLAVICULAR JOINT | RIGHT | PHYSICAL EXAMINATION | 2 | WEEK 4 | 2012-09-30 |", "score": 0.8435, "match_basis": "verbatim_token+domain_route:MK"}, {"md_atom_id": "md_dmMK_ex_a031", "md_file": "knowledge_base/domains/MK/examples.md", "md_atom_type": "TABLE_ROW", "md_parent_section": "§MK.1 [Example 1]", "md_verbatim": "| 15 | DEF | MK | DEF-138 | 15 | TNDRIND | Tenderness Indicator | N | N | | | | SHOULDER JOINT | LEFT | PHYSICAL EXAMINATION | 2 | WEEK 4 | 2012-09-30 |", "score": 0.8258, "match_basis": "verbatim_token+domain_route:MK"}], "candidate_count": 5, "zero_candidate": false}
{"pdf_atom_id": "ig34_p0293_a010", "pdf_atom_type": "TABLE_ROW", "pdf_source": "SDTMIG_v3.4", "pdf_page": 293, "pdf_parent_section": "§6.3.7.3 Musculoskeletal System Findings (MK)", "pdf_verbatim": "| 8 | DEF | MK | DEF-138 | 8 | SWLLIND | Swollen Indicator | Y | Y | | | | STERNOCLAVICULAR JOINT | LEFT | PHYSICAL EXAMINATION | 2 | WEEK 4 | 2012-09-30 |", "figure_ref": null, "candidates": [{"md_atom_id": "md_dmMK_ex_a024", "md_file": "knowledge_base/domains/MK/examples.md", "md_atom_type": "TABLE_ROW", "md_parent_section": "§MK.1 [Example 1]", "md_verbatim": "| 8 | DEF | MK | DEF-138 | 8 | SWLLIND | Swollen Indicator | Y | Y | | | | STERNOCLAVICULAR JOINT | LEFT | PHYSICAL EXAMINATION | 2 | WEEK 4 | 2012-09-30 |", "score": 1.0, "match_basis": "verbatim_token+domain_route:MK"}, {"md_atom_id": "md_dmMK_ex_a022", "md_file": "knowledge_base/domains/MK/examples.md", "md_atom_type": "TABLE_ROW", "md_parent_section": "§MK.1 [Example 1]", "md_verbatim": "| 6 | DEF | MK | DEF-138 | 6 | SWLLIND | Swollen Indicator | N | N | | | | STERNOCLAVICULAR JOINT | RIGHT | PHYSICAL EXAMINATION | 2 | WEEK 4 | 2012-09-30 |", "score": 0.9483, "match_basis": "verbatim_token+domain_route:MK"}, {"md_atom_id": "md_dmMK_ex_a028", "md_file": "knowledge_base/domains/MK/examples.md", "md_atom_type": "TABLE_ROW", "md_parent_section": "§MK.1 [Example 1]", "md_verbatim": "| 12 | DEF | MK | DEF-138 | 12 | SWLLIND | Swollen Indicator | Y | Y | | | | ACROMIOCLAVICULAR JOINT | LEFT | PHYSICAL EXAMINATION | 2 | WEEK 4 | 2012-09-30 |", "score": 0.8918, "match_basis": "verbatim_token+domain_route:MK"}, {"md_atom_id": "md_dmMK_ex_a026", "md_file": "knowledge_base/domains/MK/examples.md", "md_atom_type": "TABLE_ROW", "md_parent_section": "§MK.1 [Example 1]", "md_verbatim": "| 10 | DEF | MK | DEF-138 | 10 | SWLLIND | Swollen Indicator | | | | NOT DONE | | ACROMIOCLAVICULAR JOINT | RIGHT | PHYSICAL EXAMINATION | 2 | WEEK 4 | 2012-09-30 |", "score": 0.8299, "match_basis": "verbatim_token+domain_route:MK"}, {"md_atom_id": "md_dmMK_ex_a023", "md_file": "knowledge_base/domains/MK/examples.md", "md_atom_type": "TABLE_ROW", "md_parent_section": "§MK.1 [Example 1]", "md_verbatim": "| 7 | DEF | MK | DEF-138 | 7 | TNDRIND | Tenderness Indicator | Y | Y | | | | STERNOCLAVICULAR JOINT | LEFT | PHYSICAL EXAMINATION | 2 | WEEK 4 | 2012-09-30 |", "score": 0.8182, "match_basis": "verbatim_token+domain_route:MK"}], "candidate_count": 5, "zero_candidate": false}
{"pdf_atom_id": "ig34_p0293_a011", "pdf_atom_type": "TABLE_ROW", "pdf_source": "SDTMIG_v3.4", "pdf_page": 293, "pdf_parent_section": "§6.3.7.3 Musculoskeletal System Findings (MK)", "pdf_verbatim": "| 9 | DEF | MK | DEF-138 | 9 | TNDRIND | Tenderness Indicator | | | NOT DONE | | ACROMIOCLAVICULAR JOINT | RIGHT | PHYSICAL EXAMINATION | 2 | WEEK 4 | 2012-09-30 |", "figure_ref": null, "candidates": [{"md_atom_id": "md_dmMK_ex_a025", "md_file": "knowledge_base/domains/MK/examples.md", "md_atom_type": "TABLE_ROW", "md_parent_section": "§MK.1 [Example 1]", "md_verbatim": "| 9 | DEF | MK | DEF-138 | 9 | TNDRIND | Tenderness Indicator | | | | NOT DONE | | ACROMIOCLAVICULAR JOINT | RIGHT | PHYSICAL EXAMINATION | 2 | WEEK 4 | 2012-09-30 |", "score": 1.0, "match_basis": "verbatim_token+domain_route:MK"}, {"md_atom_id": "md_dmMK_ex_a027", "md_file": "knowledge_base/domains/MK/examples.md", "md_atom_type": "TABLE_ROW", "md_parent_section": "§MK.1 [Example 1]", "md_verbatim": "| 11 | DEF | MK | DEF-138 | 11 | TNDRIND | Tenderness Indicator | Y | Y | | | | ACROMIOCLAVICULAR JOINT | LEFT | PHYSICAL EXAMINATION | 2 | WEEK 4 | 2012-09-30 |", "score": 0.9262, "match_basis": "verbatim_token+domain_route:MK"}, {"md_atom_id": "md_dmMK_ex_a021", "md_file": "knowledge_base/domains/MK/examples.md", "md_atom_type": "TABLE_ROW", "md_parent_section": "§MK.1 [Example 1]", "md_verbatim": "| 5 | DEF | MK | DEF-138 | 5 | TNDRIND | Tenderness Indicator | Y | Y | | | | STERNOCLAVICULAR JOINT | RIGHT | PHYSICAL EXAMINATION | 2 | WEEK 4 | 2012-09-30 |", "score": 0.8836, "match_basis": "verbatim_token+domain_route:MK"}, {"md_atom_id": "md_dmMK_ex_a023", "md_file": "knowledge_base/domains/MK/examples.md", "md_atom_type": "TABLE_ROW", "md_parent_section": "§MK.1 [Example 1]", "md_verbatim": "| 7 | DEF | MK | DEF-138 | 7 | TNDRIND | Tenderness Indicator | Y | Y | | | | STERNOCLAVICULAR JOINT | LEFT | PHYSICAL EXAMINATION | 2 | WEEK 4 | 2012-09-30 |", "score": 0.8435, "match_basis": "verbatim_token+domain_route:MK"}, {"md_atom_id": "md_dmMK_ex_a026", "md_file": "knowledge_base/domains/MK/examples.md", "md_atom_type": "TABLE_ROW", "md_parent_section": "§MK.1 [Example 1]", "md_verbatim": "| 10 | DEF | MK | DEF-138 | 10 | SWLLIND | Swollen Indicator | | | | NOT DONE | | ACROMIOCLAVICULAR JOINT | RIGHT | PHYSICAL EXAMINATION | 2 | WEEK 4 | 2012-09-30 |", "score": 0.825, "match_basis": "verbatim_token+domain_route:MK"}], "candidate_count": 5, "zero_candidate": false}
{"pdf_atom_id": "ig34_p0293_a012", "pdf_atom_type": "TABLE_ROW", "pdf_source": "SDTMIG_v3.4", "pdf_page": 293, "pdf_parent_section": "§6.3.7.3 Musculoskeletal System Findings (MK)", "pdf_verbatim": "| 10 | DEF | MK | DEF-138 | 10 | SWLLIND | Swollen Indicator | | | NOT DONE | | ACROMIOCLAVICULAR JOINT | RIGHT | PHYSICAL EXAMINATION | 2 | WEEK 4 | 2012-09-30 |", "figure_ref": null, "candidates": [{"md_atom_id": "md_dmMK_ex_a026", "md_file": "knowledge_base/domains/MK/examples.md", "md_atom_type": "TABLE_ROW", "md_parent_section": "§MK.1 [Example 1]", "md_verbatim": "| 10 | DEF | MK | DEF-138 | 10 | SWLLIND | Swollen Indicator | | | | NOT DONE | | ACROMIOCLAVICULAR JOINT | RIGHT | PHYSICAL EXAMINATION | 2 | WEEK 4 | 2012-09-30 |", "score": 1.0, "match_basis": "verbatim_token+domain_route:MK"}, {"md_atom_id": "md_dmMK_ex_a028", "md_file": "knowledge_base/domains/MK/examples.md", "md_atom_type": "TABLE_ROW", "md_parent_section": "§MK.1 [Example 1]", "md_verbatim": "| 12 | DEF | MK | DEF-138 | 12 | SWLLIND | Swollen Indicator | Y | Y | | | | ACROMIOCLAVICULAR JOINT | LEFT | PHYSICAL EXAMINATION | 2 | WEEK 4 | 2012-09-30 |", "score": 0.9226, "match_basis": "verbatim_token+domain_route:MK"}, {"md_atom_id": "md_dmMK_ex_a022", "md_file": "knowledge_base/domains/MK/examples.md", "md_atom_type": "TABLE_ROW", "md_parent_section": "§MK.1 [Example 1]", "md_verbatim": "| 6 | DEF | MK | DEF-138 | 6 | SWLLIND | Swollen Indicator | N | N | | | | STERNOCLAVICULAR JOINT | RIGHT | PHYSICAL EXAMINATION | 2 | WEEK 4 | 2012-09-30 |", "score": 0.8708, "match_basis": "verbatim_token+domain_route:MK"}, {"md_atom_id": "md_dmMK_ex_a024", "md_file": "knowledge_base/domains/MK/examples.md", "md_atom_type": "TABLE_ROW", "md_parent_section": "§MK.1 [Example 1]", "md_verbatim": "| 8 | DEF | MK | DEF-138 | 8 | SWLLIND | Swollen Indicator | Y | Y | | | | STERNOCLAVICULAR JOINT | LEFT | PHYSICAL EXAMINATION | 2 | WEEK 4 | 2012-09-30 |", "score": 0.8299, "match_basis": "verbatim_token+domain_route:MK"}, {"md_atom_id": "md_dmMK_ex_a025", "md_file": "knowledge_base/domains/MK/examples.md", "md_atom_type": "TABLE_ROW", "md_parent_section": "§MK.1 [Example 1]", "md_verbatim": "| 9 | DEF | MK | DEF-138 | 9 | TNDRIND | Tenderness Indicator | | | | NOT DONE | | ACROMIOCLAVICULAR JOINT | RIGHT | PHYSICAL EXAMINATION | 2 | WEEK 4 | 2012-09-30 |", "score": 0.825, "match_basis": "verbatim_token+domain_route:MK"}], "candidate_count": 5, "zero_candidate": false}
{"pdf_atom_id": "ig34_p0293_a013", "pdf_atom_type": "TABLE_ROW", "pdf_source": "SDTMIG_v3.4", "pdf_page": 293, "pdf_parent_section": "§6.3.7.3 Musculoskeletal System Findings (MK)", "pdf_verbatim": "| 11 | DEF | MK | DEF-138 | 11 | TNDRIND | Tenderness Indicator | Y | Y | | | ACROMIOCLAVICULAR JOINT | LEFT | PHYSICAL EXAMINATION | 2 | WEEK 4 | 2012-09-30 |", "figure_ref": null, "candidates": [{"md_atom_id": "md_dmMK_ex_a027", "md_file": "knowledge_base/domains/MK/examples.md", "md_atom_type": "TABLE_ROW", "md_parent_section": "§MK.1 [Example 1]", "md_verbatim": "| 11 | DEF | MK | DEF-138 | 11 | TNDRIND | Tenderness Indicator | Y | Y | | | | ACROMIOCLAVICULAR JOINT | LEFT | PHYSICAL EXAMINATION | 2 | WEEK 4 | 2012-09-30 |", "score": 1.0, "match_basis": "verbatim_token+domain_route:MK"}, {"md_atom_id": "md_dmMK_ex_a025", "md_file": "knowledge_base/domains/MK/examples.md", "md_atom_type": "TABLE_ROW", "md_parent_section": "§MK.1 [Example 1]", "md_verbatim": "| 9 | DEF | MK | DEF-138 | 9 | TNDRIND | Tenderness Indicator | | | | NOT DONE | | ACROMIOCLAVICULAR JOINT | RIGHT | PHYSICAL EXAMINATION | 2 | WEEK 4 | 2012-09-30 |", "score": 0.9262, "match_basis": "verbatim_token+domain_route:MK"}, {"md_atom_id": "md_dmMK_ex_a023", "md_file": "knowledge_base/domains/MK/examples.md", "md_atom_type": "TABLE_ROW", "md_parent_section": "§MK.1 [Example 1]", "md_verbatim": "| 7 | DEF | MK | DEF-138 | 7 | TNDRIND | Tenderness Indicator | Y | Y | | | | STERNOCLAVICULAR JOINT | LEFT | PHYSICAL EXAMINATION | 2 | WEEK 4 | 2012-09-30 |", "score": 0.9048, "match_basis": "verbatim_token+domain_route:MK"}, {"md_atom_id": "md_dmMK_ex_a021", "md_file": "knowledge_base/domains/MK/examples.md", "md_atom_type": "TABLE_ROW", "md_parent_section": "§MK.1 [Example 1]", "md_verbatim": "| 5 | DEF | MK | DEF-138 | 5 | TNDRIND | Tenderness Indicator | Y | Y | | | | STERNOCLAVICULAR JOINT | RIGHT | PHYSICAL EXAMINATION | 2 | WEEK 4 | 2012-09-30 |", "score": 0.8636, "match_basis": "verbatim_token+domain_route:MK"}, {"md_atom_id": "md_dmMK_ex_a028", "md_file": "knowledge_base/domains/MK/examples.md", "md_atom_type": "TABLE_ROW", "md_parent_section": "§MK.1 [Example 1]", "md_verbatim": "| 12 | DEF | MK | DEF-138 | 12 | SWLLIND | Swollen Indicator | Y | Y | | | | ACROMIOCLAVICULAR JOINT | LEFT | PHYSICAL EXAMINATION | 2 | WEEK 4 | 2012-09-30 |", "score": 0.8147, "match_basis": "verbatim_token+domain_route:MK"}], "candidate_count": 5, "zero_candidate": false}
{"pdf_atom_id": "ig34_p0293_a014", "pdf_atom_type": "TABLE_ROW", "pdf_source": "SDTMIG_v3.4", "pdf_page": 293, "pdf_parent_section": "§6.3.7.3 Musculoskeletal System Findings (MK)", "pdf_verbatim": "| 12 | DEF | MK | DEF-138 | 12 | SWLLIND | Swollen Indicator | Y | Y | | | ACROMIOCLAVICULAR JOINT | LEFT | PHYSICAL EXAMINATION | 2 | WEEK 4 | 2012-09-30 |", "figure_ref": null, "candidates": [{"md_atom_id": "md_dmMK_ex_a028", "md_file": "knowledge_base/domains/MK/examples.md", "md_atom_type": "TABLE_ROW", "md_parent_section": "§MK.1 [Example 1]", "md_verbatim": "| 12 | DEF | MK | DEF-138 | 12 | SWLLIND | Swollen Indicator | Y | Y | | | | ACROMIOCLAVICULAR JOINT | LEFT | PHYSICAL EXAMINATION | 2 | WEEK 4 | 2012-09-30 |", "score": 1.0, "match_basis": "verbatim_token+domain_route:MK"}, {"md_atom_id": "md_dmMK_ex_a026", "md_file": "knowledge_base/domains/MK/examples.md", "md_atom_type": "TABLE_ROW", "md_parent_section": "§MK.1 [Example 1]", "md_verbatim": "| 10 | DEF | MK | DEF-138 | 10 | SWLLIND | Swollen Indicator | | | | NOT DONE | | ACROMIOCLAVICULAR JOINT | RIGHT | PHYSICAL EXAMINATION | 2 | WEEK 4 | 2012-09-30 |", "score": 0.9226, "match_basis": "verbatim_token+domain_route:MK"}, {"md_atom_id": "md_dmMK_ex_a024", "md_file": "knowledge_base/domains/MK/examples.md", "md_atom_type": "TABLE_ROW", "md_parent_section": "§MK.1 [Example 1]", "md_verbatim": "| 8 | DEF | MK | DEF-138 | 8 | SWLLIND | Swollen Indicator | Y | Y | | | | STERNOCLAVICULAR JOINT | LEFT | PHYSICAL EXAMINATION | 2 | WEEK 4 | 2012-09-30 |", "score": 0.8918, "match_basis": "verbatim_token+domain_route:MK"}, {"md_atom_id": "md_dmMK_ex_a022", "md_file": "knowledge_base/domains/MK/examples.md", "md_atom_type": "TABLE_ROW", "md_parent_section": "§MK.1 [Example 1]", "md_verbatim": "| 6 | DEF | MK | DEF-138 | 6 | SWLLIND | Swollen Indicator | N | N | | | | STERNOCLAVICULAR JOINT | RIGHT | PHYSICAL EXAMINATION | 2 | WEEK 4 | 2012-09-30 |", "score": 0.85, "match_basis": "verbatim_token+domain_route:MK"}, {"md_atom_id": "md_dmMK_ex_a027", "md_file": "knowledge_base/domains/MK/examples.md", "md_atom_type": "TABLE_ROW", "md_parent_section": "§MK.1 [Example 1]", "md_verbatim": "| 11 | DEF | MK | DEF-138 | 11 | TNDRIND | Tenderness Indicator | Y | Y | | | | ACROMIOCLAVICULAR JOINT | LEFT | PHYSICAL EXAMINATION | 2 | WEEK 4 | 2012-09-30 |", "score": 0.8147, "match_basis": "verbatim_token+domain_route:MK"}], "candidate_count": 5, "zero_candidate": false}
{"pdf_atom_id": "ig34_p0293_a015", "pdf_atom_type": "TABLE_ROW", "pdf_source": "SDTMIG_v3.4", "pdf_page": 293, "pdf_parent_section": "§6.3.7.3 Musculoskeletal System Findings (MK)", "pdf_verbatim": "| 13 | DEF | MK | DEF-138 | 13 | TNDRIND | Tenderness Indicator | | | NOT DONE | JOINT NOT EVALUABLE | SHOULDER JOINT | RIGHT | PHYSICAL EXAMINATION | 2 | WEEK 4 | 2012-09-30 |", "figure_ref": null, "candidates": [{"md_atom_id": "md_dmMK_ex_a029", "md_file": "knowledge_base/domains/MK/examples.md", "md_atom_type": "TABLE_ROW", "md_parent_section": "§MK.1 [Example 1]", "md_verbatim": "| 13 | DEF | MK | DEF-138 | 13 | TNDRIND | Tenderness Indicator | | | | NOT DONE | JOINT NOT EVALUABLE | SHOULDER JOINT | RIGHT | PHYSICAL EXAMINATION | 2 | WEEK 4 | 2012-09-30 |", "score": 1.0, "match_basis": "verbatim_token+domain_route:MK"}, {"md_atom_id": "md_dmMK_ex_a031", "md_file": "knowledge_base/domains/MK/examples.md", "md_atom_type": "TABLE_ROW", "md_parent_section": "§MK.1 [Example 1]", "md_verbatim": "| 15 | DEF | MK | DEF-138 | 15 | TNDRIND | Tenderness Indicator | N | N | | | | SHOULDER JOINT | LEFT | PHYSICAL EXAMINATION | 2 | WEEK 4 | 2012-09-30 |", "score": 0.8548, "match_basis": "verbatim_token+domain_route:MK"}, {"md_atom_id": "md_dmMK_ex_a030", "md_file": "knowledge_base/domains/MK/examples.md", "md_atom_type": "TABLE_ROW", "md_parent_section": "§MK.1 [Example 1]", "md_verbatim": "| 14 | DEF | MK | DEF-138 | 14 | SWLLIND | Swollen Indicator | | | | NOT DONE | JOINT NOT EVALUABLE | SHOULDER JOINT | RIGHT | PHYSICAL EXAMINATION | 2 | WEEK 4 | 2012-09-30 |", "score": 0.8261, "match_basis": "verbatim_token+domain_route:MK"}, {"md_atom_id": "md_dmMK_ex_a025", "md_file": "knowledge_base/domains/MK/examples.md", "md_atom_type": "TABLE_ROW", "md_parent_section": "§MK.1 [Example 1]", "md_verbatim": "| 9 | DEF | MK | DEF-138 | 9 | TNDRIND | Tenderness Indicator | | | | NOT DONE | | ACROMIOCLAVICULAR JOINT | RIGHT | PHYSICAL EXAMINATION | 2 | WEEK 4 | 2012-09-30 |", "score": 0.784, "match_basis": "verbatim_token+domain_route:MK"}, {"md_atom_id": "md_dmMK_ex_a021", "md_file": "knowledge_base/domains/MK/examples.md", "md_atom_type": "TABLE_ROW", "md_parent_section": "§MK.1 [Example 1]", "md_verbatim": "| 5 | DEF | MK | DEF-138 | 5 | TNDRIND | Tenderness Indicator | Y | Y | | | | STERNOCLAVICULAR JOINT | RIGHT | PHYSICAL EXAMINATION | 2 | WEEK 4 | 2012-09-30 |", "score": 0.7699, "match_basis": "verbatim_token+domain_route:MK"}], "candidate_count": 5, "zero_candidate": false}
{"pdf_atom_id": "ig34_p0293_a016", "pdf_atom_type": "TABLE_ROW", "pdf_source": "SDTMIG_v3.4", "pdf_page": 293, "pdf_parent_section": "§6.3.7.3 Musculoskeletal System Findings (MK)", "pdf_verbatim": "| 14 | DEF | MK | DEF-138 | 14 | SWLLIND | Swollen Indicator | | | NOT DONE | JOINT NOT EVALUABLE | SHOULDER JOINT | RIGHT | PHYSICAL EXAMINATION | 2 | WEEK 4 | 2012-09-30 |", "figure_ref": null, "candidates": [{"md_atom_id": "md_dmMK_ex_a030", "md_file": "knowledge_base/domains/MK/examples.md", "md_atom_type": "TABLE_ROW", "md_parent_section": "§MK.1 [Example 1]", "md_verbatim": "| 14 | DEF | MK | DEF-138 | 14 | SWLLIND | Swollen Indicator | | | | NOT DONE | JOINT NOT EVALUABLE | SHOULDER JOINT | RIGHT | PHYSICAL EXAMINATION | 2 | WEEK 4 | 2012-09-30 |", "score": 1.0, "match_basis": "verbatim_token+domain_route:MK"}, {"md_atom_id": "md_dmMK_ex_a032", "md_file": "knowledge_base/domains/MK/examples.md", "md_atom_type": "TABLE_ROW", "md_parent_section": "§MK.1 [Example 1]", "md_verbatim": "| 16 | DEF | MK | DEF-138 | 16 | SWLLIND | Swollen Indicator | Y | Y | | | | SHOULDER JOINT | LEFT | PHYSICAL EXAMINATION | 2 | WEEK 4 | 2012-09-30 |", "score": 0.85, "match_basis": "verbatim_token+domain_route:MK"}, {"md_atom_id": "md_dmMK_ex_a029", "md_file": "knowledge_base/domains/MK/examples.md", "md_atom_type": "TABLE_ROW", "md_parent_section": "§MK.1 [Example 1]", "md_verbatim": "| 13 | DEF | MK | DEF-138 | 13 | TNDRIND | Tenderness Indicator | | | | NOT DONE | JOINT NOT EVALUABLE | SHOULDER JOINT | RIGHT | PHYSICAL EXAMINATION | 2 | WEEK 4 | 2012-09-30 |", "score": 0.8261, "match_basis": "verbatim_token+domain_route:MK"}, {"md_atom_id": "md_dmMK_ex_a026", "md_file": "knowledge_base/domains/MK/examples.md", "md_atom_type": "TABLE_ROW", "md_parent_section": "§MK.1 [Example 1]", "md_verbatim": "| 10 | DEF | MK | DEF-138 | 10 | SWLLIND | Swollen Indicator | | | | NOT DONE | | ACROMIOCLAVICULAR JOINT | RIGHT | PHYSICAL EXAMINATION | 2 | WEEK 4 | 2012-09-30 |", "score": 0.7699, "match_basis": "verbatim_token+domain_route:MK"}, {"md_atom_id": "md_dmMK_ex_a018", "md_file": "knowledge_base/domains/MK/examples.md", "md_atom_type": "TABLE_ROW", "md_parent_section": "§MK.1 [Example 1]", "md_verbatim": "| 2 | DEF | MK | DEF-138 | 2 | SWLLIND | Swollen Indicator | Y | Y | | | | TEMPOROMANDIBULAR JOINT | RIGHT | PHYSICAL EXAMINATION | 2 | WEEK 4 | 2012-09-30 |", "score": 0.75, "match_basis": "verbatim_token+domain_route:MK"}], "candidate_count": 5, "zero_candidate": false}
{"pdf_atom_id": "ig34_p0293_a017", "pdf_atom_type": "TABLE_ROW", "pdf_source": "SDTMIG_v3.4", "pdf_page": 293, "pdf_parent_section": "§6.3.7.3 Musculoskeletal System Findings (MK)", "pdf_verbatim": "| 15 | DEF | MK | DEF-138 | 15 | TNDRIND | Tenderness Indicator | N | N | | | SHOULDER JOINT | LEFT | PHYSICAL EXAMINATION | 2 | WEEK 4 | 2012-09-30 |", "figure_ref": null, "candidates": [{"md_atom_id": "md_dmMK_ex_a031", "md_file": "knowledge_base/domains/MK/examples.md", "md_atom_type": "TABLE_ROW", "md_parent_section": "§MK.1 [Example 1]", "md_verbatim": "| 15 | DEF | MK | DEF-138 | 15 | TNDRIND | Tenderness Indicator | N | N | | | | SHOULDER JOINT | LEFT | PHYSICAL EXAMINATION | 2 | WEEK 4 | 2012-09-30 |", "score": 1.0, "match_basis": "verbatim_token+domain_route:MK"}, {"md_atom_id": "md_dmMK_ex_a029", "md_file": "knowledge_base/domains/MK/examples.md", "md_atom_type": "TABLE_ROW", "md_parent_section": "§MK.1 [Example 1]", "md_verbatim": "| 13 | DEF | MK | DEF-138 | 13 | TNDRIND | Tenderness Indicator | | | | NOT DONE | JOINT NOT EVALUABLE | SHOULDER JOINT | RIGHT | PHYSICAL EXAMINATION | 2 | WEEK 4 | 2012-09-30 |", "score": 0.8548, "match_basis": "verbatim_token+domain_route:MK"}, {"md_atom_id": "md_dmMK_ex_a023", "md_file": "knowledge_base/domains/MK/examples.md", "md_atom_type": "TABLE_ROW", "md_parent_section": "§MK.1 [Example 1]", "md_verbatim": "| 7 | DEF | MK | DEF-138 | 7 | TNDRIND | Tenderness Indicator | Y | Y | | | | STERNOCLAVICULAR JOINT | LEFT | PHYSICAL EXAMINATION | 2 | WEEK 4 | 2012-09-30 |", "score": 0.8258, "match_basis": "verbatim_token+domain_route:MK"}, {"md_atom_id": "md_dmMK_ex_a019", "md_file": "knowledge_base/domains/MK/examples.md", "md_atom_type": "TABLE_ROW", "md_parent_section": "§MK.1 [Example 1]", "md_verbatim": "| 3 | DEF | MK | DEF-138 | 3 | TNDRIND | Tenderness Indicator | N | N | | | | TEMPOROMANDIBULAR JOINT | LEFT | PHYSICAL EXAMINATION | 2 | WEEK 4 | 2012-09-30 |", "score": 0.819, "match_basis": "verbatim_token+domain_route:MK"}, {"md_atom_id": "md_dmMK_ex_a027", "md_file": "knowledge_base/domains/MK/examples.md", "md_atom_type": "TABLE_ROW", "md_parent_section": "§MK.1 [Example 1]", "md_verbatim": "| 11 | DEF | MK | DEF-138 | 11 | TNDRIND | Tenderness Indicator | Y | Y | | | | ACROMIOCLAVICULAR JOINT | LEFT | PHYSICAL EXAMINATION | 2 | WEEK 4 | 2012-09-30 |", "score": 0.8125, "match_basis": "verbatim_token+domain_route:MK"}], "candidate_count": 5, "zero_candidate": false}
{"pdf_atom_id": "ig34_p0293_a018", "pdf_atom_type": "TABLE_ROW", "pdf_source": "SDTMIG_v3.4", "pdf_page": 293, "pdf_parent_section": "§6.3.7.3 Musculoskeletal System Findings (MK)", "pdf_verbatim": "| 16 | DEF | MK | DEF-138 | 16 | SWLLIND | Swollen Indicator | Y | Y | | | SHOULDER JOINT | LEFT | PHYSICAL EXAMINATION | 2 | WEEK 4 | 2012-09-30 |", "figure_ref": null, "candidates": [{"md_atom_id": "md_dmMK_ex_a032", "md_file": "knowledge_base/domains/MK/examples.md", "md_atom_type": "TABLE_ROW", "md_parent_section": "§MK.1 [Example 1]", "md_verbatim": "| 16 | DEF | MK | DEF-138 | 16 | SWLLIND | Swollen Indicator | Y | Y | | | | SHOULDER JOINT | LEFT | PHYSICAL EXAMINATION | 2 | WEEK 4 | 2012-09-30 |", "score": 1.0, "match_basis": "verbatim_token+domain_route:MK"}, {"md_atom_id": "md_dmMK_ex_a030", "md_file": "knowledge_base/domains/MK/examples.md", "md_atom_type": "TABLE_ROW", "md_parent_section": "§MK.1 [Example 1]", "md_verbatim": "| 14 | DEF | MK | DEF-138 | 14 | SWLLIND | Swollen Indicator | | | | NOT DONE | JOINT NOT EVALUABLE | SHOULDER JOINT | RIGHT | PHYSICAL EXAMINATION | 2 | WEEK 4 | 2012-09-30 |", "score": 0.85, "match_basis": "verbatim_token+domain_route:MK"}, {"md_atom_id": "md_dmMK_ex_a020", "md_file": "knowledge_base/domains/MK/examples.md", "md_atom_type": "TABLE_ROW", "md_parent_section": "§MK.1 [Example 1]", "md_verbatim": "| 4 | DEF | MK | DEF-138 | 4 | SWLLIND | Swollen Indicator | N | N | | | | TEMPOROMANDIBULAR JOINT | LEFT | PHYSICAL EXAMINATION | 2 | WEEK 4 | 2012-09-30 |", "score": 0.8033, "match_basis": "verbatim_token+domain_route:MK"}, {"md_atom_id": "md_dmMK_ex_a024", "md_file": "knowledge_base/domains/MK/examples.md", "md_atom_type": "TABLE_ROW", "md_parent_section": "§MK.1 [Example 1]", "md_verbatim": "| 8 | DEF | MK | DEF-138 | 8 | SWLLIND | Swollen Indicator | Y | Y | | | | STERNOCLAVICULAR JOINT | LEFT | PHYSICAL EXAMINATION | 2 | WEEK 4 | 2012-09-30 |", "score": 0.8033, "match_basis": "verbatim_token+domain_route:MK"}, {"md_atom_id": "md_dmMK_ex_a028", "md_file": "knowledge_base/domains/MK/examples.md", "md_atom_type": "TABLE_ROW", "md_parent_section": "§MK.1 [Example 1]", "md_verbatim": "| 12 | DEF | MK | DEF-138 | 12 | SWLLIND | Swollen Indicator | Y | Y | | | | ACROMIOCLAVICULAR JOINT | LEFT | PHYSICAL EXAMINATION | 2 | WEEK 4 | 2012-09-30 |", "score": 0.7968, "match_basis": "verbatim_token+domain_route:MK"}], "candidate_count": 5, "zero_candidate": false}
{"pdf_atom_id": "ig34_p0293_a019", "pdf_atom_type": "HEADING", "pdf_source": "SDTMIG_v3.4", "pdf_page": 293, "pdf_parent_section": "§6.3.7.3 Musculoskeletal System Findings (MK)", "pdf_verbatim": "Example 2", "figure_ref": null, "candidates": [{"md_atom_id": "md_dmMK_ex_a002", "md_file": "knowledge_base/domains/MK/examples.md", "md_atom_type": "HEADING", "md_parent_section": "§MK [MK — Examples]", "md_verbatim": "## Example 1", "score": 1.0, "match_basis": "verbatim_token+domain_route:MK"}, {"md_atom_id": "md_dmMK_ex_a033", "md_file": "knowledge_base/domains/MK/examples.md", "md_atom_type": "HEADING", "md_parent_section": "§MK [MK — Examples]", "md_verbatim": "## Example 2", "score": 1.0, "match_basis": "verbatim_token+domain_route:MK"}, {"md_atom_id": "md_dmMK_ex_a001", "md_file": "knowledge_base/domains/MK/examples.md", "md_atom_type": "HEADING", "md_parent_section": "§MK [MK — Examples]", "md_verbatim": "# MK — Examples", "score": 0.9, "match_basis": "verbatim_token+domain_route:MK"}, {"md_atom_id": "md_dmMK_assn_a001", "md_file": "knowledge_base/domains/MK/assumptions.md", "md_atom_type": "HEADING", "md_parent_section": "§MK [MK — Assumptions]", "md_verbatim": "# MK — Assumptions", "score": 0.4, "match_basis": "verbatim_token+domain_route:MK"}], "candidate_count": 4, "zero_candidate": false}
{"pdf_atom_id": "ig34_p0293_a020", "pdf_atom_type": "SENTENCE", "pdf_source": "SDTMIG_v3.4", "pdf_page": 293, "pdf_parent_section": "§6.3.7.3 Musculoskeletal System Findings (MK)", "pdf_verbatim": "This example illustrates the collection of scores for the joint space-narrowing assessment.", "figure_ref": null, "candidates": [{"md_atom_id": "md_dmMK_ex_a034", "md_file": "knowledge_base/domains/MK/examples.md", "md_atom_type": "SENTENCE", "md_parent_section": "§MK.2 [Example 2]", "md_verbatim": "This example illustrates the collection of scores for the joint space-narrowing assessment.", "score": 1.0, "match_basis": "verbatim_token+domain_route:MK"}, {"md_atom_id": "md_dmMK_ex_a003", "md_file": "knowledge_base/domains/MK/examples.md", "md_atom_type": "SENTENCE", "md_parent_section": "§MK.1 [Example 1]", "md_verbatim": "This example illustrates data collected for the swollen/tender joint count assessment, specifically the 68-joint count.", "score": 0.672, "match_basis": "verbatim_token+domain_route:MK"}, {"md_atom_id": "md_dmMK_ex_a044", "md_file": "knowledge_base/domains/MK/examples.md", "md_atom_type": "SENTENCE", "md_parent_section": "§MK.2 [Example 2]", "md_verbatim": "The total score for the assessment was not collected, so is not represented in this dataset; it was to be derived in an ADaM dataset.", "score": 0.5658, "match_basis": "verbatim_token+domain_route:MK"}, {"md_atom_id": "md_dmMK_ex_a045", "md_file": "knowledge_base/domains/MK/examples.md", "md_atom_type": "SENTENCE", "md_parent_section": "§MK.2 [Example 2]", "md_verbatim": "**Rows 1-2, 4-5, 7-8, 10-11, 13-16:** Show the text description of each joint space-narrowing score in MKORRES and the corresponding numeric score in MKSTRESC/MKSTRESN.", "score": 0.5482, "match_basis": "verbatim_token+domain_route:MK"}, {"md_atom_id": "md_dmMK_ex_a036", "md_file": "knowledge_base/domains/MK/examples.md", "md_atom_type": "SENTENCE", "md_parent_section": "§MK.2 [Example 2]", "md_verbatim": "In this evaluation of radiographs for joint narrowing, each joint was graded.", "score": 0.5268, "match_basis": "verbatim_token+domain_route:MK"}], "candidate_count": 5, "zero_candidate": false}
{"pdf_atom_id": "ig34_p0293_a021", "pdf_atom_type": "SENTENCE", "pdf_source": "SDTMIG_v3.4", "pdf_page": 293, "pdf_parent_section": "§6.3.7.3 Musculoskeletal System Findings (MK)", "pdf_verbatim": "There are 2 scoring methods that may be used to evaluate the joints via a radiographic image: Sharp/Genant and Sharp/van der Heijde.", "figure_ref": null, "candidates": [{"md_atom_id": "md_dmMK_ex_a035", "md_file": "knowledge_base/domains/MK/examples.md", "md_atom_type": "SENTENCE", "md_parent_section": "§MK.2 [Example 2]", "md_verbatim": "There are 2 scoring methods that may be used to evaluate the joints via a radiographic image: Sharp/Genant and Sharp/van der Heijde.", "score": 1.0, "match_basis": "verbatim_token+domain_route:MK"}, {"md_atom_id": "md_dmMK_ex_a036", "md_file": "knowledge_base/domains/MK/examples.md", "md_atom_type": "SENTENCE", "md_parent_section": "§MK.2 [Example 2]", "md_verbatim": "In this evaluation of radiographs for joint narrowing, each joint was graded.", "score": 0.536, "match_basis": "verbatim_token+domain_route:MK"}, {"md_atom_id": "md_dmMK_ex_a039", "md_file": "knowledge_base/domains/MK/examples.md", "md_atom_type": "SENTENCE", "md_parent_section": "§MK.2 [Example 2]", "md_verbatim": "In this example, the evaluation was done by a trained evaluator (MKEVAL = \"INDEPENDENT ASSESSOR\") from an x-ray using the Sharp/Genant method.", "score": 0.5102, "match_basis": "verbatim_token+domain_route:MK"}, {"md_atom_id": "md_dmMK_ex_a041", "md_file": "knowledge_base/domains/MK/examples.md", "md_atom_type": "SENTENCE", "md_parent_section": "§MK.2 [Example 2]", "md_verbatim": "The scoring method used for the assessment is precoordinated into MKTESTCD and MKTEST.", "score": 0.5071, "match_basis": "verbatim_token+domain_route:MK"}, {"md_atom_id": "md_dmMK_ex_a043", "md_file": "knowledge_base/domains/MK/examples.md", "md_atom_type": "SENTENCE", "md_parent_section": "§MK.2 [Example 2]", "md_verbatim": "Because the evaluation includes a large number of joints that would result in many records, only a subset of the data collected is shown here.", "score": 0.4889, "match_basis": "verbatim_token+domain_route:MK"}], "candidate_count": 5, "zero_candidate": false}
{"pdf_atom_id": "ig34_p0293_a022", "pdf_atom_type": "SENTENCE", "pdf_source": "SDTMIG_v3.4", "pdf_page": 293, "pdf_parent_section": "§6.3.7.3 Musculoskeletal System Findings (MK)", "pdf_verbatim": "In this evaluation of radiographs for joint narrowing, each joint was graded.", "figure_ref": null, "candidates": [{"md_atom_id": "md_dmMK_ex_a036", "md_file": "knowledge_base/domains/MK/examples.md", "md_atom_type": "SENTENCE", "md_parent_section": "§MK.2 [Example 2]", "md_verbatim": "In this evaluation of radiographs for joint narrowing, each joint was graded.", "score": 1.0, "match_basis": "verbatim_token+domain_route:MK"}, {"md_atom_id": "md_dmMK_ex_a035", "md_file": "knowledge_base/domains/MK/examples.md", "md_atom_type": "SENTENCE", "md_parent_section": "§MK.2 [Example 2]", "md_verbatim": "There are 2 scoring methods that may be used to evaluate the joints via a radiographic image: Sharp/Genant and Sharp/van der Heijde.", "score": 0.536, "match_basis": "verbatim_token+domain_route:MK"}, {"md_atom_id": "md_dmMK_ex_a034", "md_file": "knowledge_base/domains/MK/examples.md", "md_atom_type": "SENTENCE", "md_parent_section": "§MK.2 [Example 2]", "md_verbatim": "This example illustrates the collection of scores for the joint space-narrowing assessment.", "score": 0.5268, "match_basis": "verbatim_token+domain_route:MK"}, {"md_atom_id": "md_dmMK_ex_a007", "md_file": "knowledge_base/domains/MK/examples.md", "md_atom_type": "SENTENCE", "md_parent_section": "§MK.1 [Example 1]", "md_verbatim": "A field for the reason that a joint was not evaluable was not needed.", "score": 0.5154, "match_basis": "verbatim_token+domain_route:MK"}, {"md_atom_id": "md_dmMK_ex_a045", "md_file": "knowledge_base/domains/MK/examples.md", "md_atom_type": "SENTENCE", "md_parent_section": "§MK.2 [Example 2]", "md_verbatim": "**Rows 1-2, 4-5, 7-8, 10-11, 13-16:** Show the text description of each joint space-narrowing score in MKORRES and the corresponding numeric score in MKSTRESC/MKSTRESN.", "score": 0.5105, "match_basis": "verbatim_token+domain_route:MK"}], "candidate_count": 5, "zero_candidate": false}
{"pdf_atom_id": "ig34_p0293_a023", "pdf_atom_type": "SENTENCE", "pdf_source": "SDTMIG_v3.4", "pdf_page": 293, "pdf_parent_section": "§6.3.7.3 Musculoskeletal System Findings (MK)", "pdf_verbatim": "If the joint was not assessed, a reason why it was not assessed was provided.", "figure_ref": null, "candidates": [{"md_atom_id": "md_dmMK_ex_a037", "md_file": "knowledge_base/domains/MK/examples.md", "md_atom_type": "SENTENCE", "md_parent_section": "§MK.2 [Example 2]", "md_verbatim": "If the joint was not assessed, a reason why it was not assessed was provided.", "score": 1.0, "match_basis": "verbatim_token+domain_route:MK"}, {"md_atom_id": "md_dmMK_ex_a007", "md_file": "knowledge_base/domains/MK/examples.md", "md_atom_type": "SENTENCE", "md_parent_section": "§MK.1 [Example 1]", "md_verbatim": "A field for the reason that a joint was not evaluable was not needed.", "score": 0.5737, "match_basis": "verbatim_token+domain_route:MK"}, {"md_atom_id": "md_dmMK_ex_a046", "md_file": "knowledge_base/domains/MK/examples.md", "md_atom_type": "SENTENCE", "md_parent_section": "§MK.2 [Example 2]", "md_verbatim": "**Rows 3, 6, 9, 12:** Show data collected for joints that were not assessed (MKSTAT=\"NOT DONE\"), with the reason collected on the CRF represented in MKREASND.", "score": 0.5355, "match_basis": "verbatim_token+domain_route:MK"}, {"md_atom_id": "md_dmMK_ex_a008", "md_file": "knowledge_base/domains/MK/examples.md", "md_atom_type": "SENTENCE", "md_parent_section": "§MK.1 [Example 1]", "md_verbatim": "Note that there was a field for marking a joint assessment as not done; this was to be used if the joint assessor overlooked or missed a joint while performing the joint assessment.", "score": 0.5, "match_basis": "verbatim_token+domain_route:MK"}, {"md_atom_id": "md_dmMK_ex_a013", "md_file": "knowledge_base/domains/MK/examples.md", "md_atom_type": "SENTENCE", "md_parent_section": "§MK.1 [Example 1]", "md_verbatim": "**Rows 9-10:** Show that the assessments for tenderness and swelling of the acromioclavicular joint (see MKLOC) on the right side of the body was not performed (MKSTAT=\"NOT DONE\"), but a specific reason was not collected on the CRF.", "score": 0.49, "match_basis": "verbatim_token+domain_route:MK"}], "candidate_count": 5, "zero_candidate": false}
{"pdf_atom_id": "ig34_p0293_a024", "pdf_atom_type": "SENTENCE", "pdf_source": "SDTMIG_v3.4", "pdf_page": 293, "pdf_parent_section": "§6.3.7.3 Musculoskeletal System Findings (MK)", "pdf_verbatim": "The data collected are represented in the MK domain.", "figure_ref": null, "candidates": [{"md_atom_id": "md_dmMK_ex_a009", "md_file": "knowledge_base/domains/MK/examples.md", "md_atom_type": "SENTENCE", "md_parent_section": "§MK.1 [Example 1]", "md_verbatim": "The data collected are represented in the MK domain.", "score": 1.0, "match_basis": "verbatim_token+domain_route:MK"}, {"md_atom_id": "md_dmMK_ex_a038", "md_file": "knowledge_base/domains/MK/examples.md", "md_atom_type": "SENTENCE", "md_parent_section": "§MK.2 [Example 2]", "md_verbatim": "The data collected are represented in the MK domain.", "score": 1.0, "match_basis": "verbatim_token+domain_route:MK"}, {"md_atom_id": "md_dmMK_ex_a044", "md_file": "knowledge_base/domains/MK/examples.md", "md_atom_type": "SENTENCE", "md_parent_section": "§MK.2 [Example 2]", "md_verbatim": "The total score for the assessment was not collected, so is not represented in this dataset; it was to be derived in an ADaM dataset.", "score": 0.6118, "match_basis": "verbatim_token+domain_route:MK"}, {"md_atom_id": "md_dmMK_ex_a046", "md_file": "knowledge_base/domains/MK/examples.md", "md_atom_type": "SENTENCE", "md_parent_section": "§MK.2 [Example 2]", "md_verbatim": "**Rows 3, 6, 9, 12:** Show data collected for joints that were not assessed (MKSTAT=\"NOT DONE\"), with the reason collected on the CRF represented in MKREASND.", "score": 0.5831, "match_basis": "verbatim_token+domain_route:MK"}, {"md_atom_id": "md_dmMK_ex_a005", "md_file": "knowledge_base/domains/MK/examples.md", "md_atom_type": "SENTENCE", "md_parent_section": "§MK.1 [Example 1]", "md_verbatim": "Total counts were not collected on the CRF since they were to be derived in ADaM datasets.", "score": 0.5224, "match_basis": "verbatim_token+domain_route:MK"}], "candidate_count": 5, "zero_candidate": false}
{"pdf_atom_id": "ig34_p0293_a025", "pdf_atom_type": "SENTENCE", "pdf_source": "SDTMIG_v3.4", "pdf_page": 293, "pdf_parent_section": "§6.3.7.3 Musculoskeletal System Findings (MK)", "pdf_verbatim": "In this example, the evaluation was done by a trained evaluator (MKEVAL = \"INDEPENDENT ASSESSOR\") from an x-ray using the Sharp/Genant method.", "figure_ref": null, "candidates": [{"md_atom_id": "md_dmMK_ex_a039", "md_file": "knowledge_base/domains/MK/examples.md", "md_atom_type": "SENTENCE", "md_parent_section": "§MK.2 [Example 2]", "md_verbatim": "In this example, the evaluation was done by a trained evaluator (MKEVAL = \"INDEPENDENT ASSESSOR\") from an x-ray using the Sharp/Genant method.", "score": 1.0, "match_basis": "verbatim_token+domain_route:MK"}, {"md_atom_id": "md_dmMK_ex_a035", "md_file": "knowledge_base/domains/MK/examples.md", "md_atom_type": "SENTENCE", "md_parent_section": "§MK.2 [Example 2]", "md_verbatim": "There are 2 scoring methods that may be used to evaluate the joints via a radiographic image: Sharp/Genant and Sharp/van der Heijde.", "score": 0.5102, "match_basis": "verbatim_token+domain_route:MK"}, {"md_atom_id": "md_dmMK_ex_a034", "md_file": "knowledge_base/domains/MK/examples.md", "md_atom_type": "SENTENCE", "md_parent_section": "§MK.2 [Example 2]", "md_verbatim": "This example illustrates the collection of scores for the joint space-narrowing assessment.", "score": 0.5097, "match_basis": "verbatim_token+domain_route:MK"}, {"md_atom_id": "md_dmMK_ex_a040", "md_file": "knowledge_base/domains/MK/examples.md", "md_atom_type": "SENTENCE", "md_parent_section": "§MK.2 [Example 2]", "md_verbatim": "Each image was assessed by 2 readers of the same role; in this example, MKEVALID is populated with \"READER 1\" because these assessments were performed by the first reader.", "score": 0.5, "match_basis": "verbatim_token+domain_route:MK"}, {"md_atom_id": "md_dmMK_ex_a003", "md_file": "knowledge_base/domains/MK/examples.md", "md_atom_type": "SENTENCE", "md_parent_section": "§MK.1 [Example 1]", "md_verbatim": "This example illustrates data collected for the swollen/tender joint count assessment, specifically the 68-joint count.", "score": 0.495, "match_basis": "verbatim_token+domain_route:MK"}], "candidate_count": 5, "zero_candidate": false}
{"pdf_atom_id": "ig34_p0293_a026", "pdf_atom_type": "SENTENCE", "pdf_source": "SDTMIG_v3.4", "pdf_page": 293, "pdf_parent_section": "§6.3.7.3 Musculoskeletal System Findings (MK)", "pdf_verbatim": "Each image was assessed by 2 readers of the same role; in this example, MKEVALID is populated with \"READER 1\" because these assessments were performed by the first reader.", "figure_ref": null, "candidates": [{"md_atom_id": "md_dmMK_ex_a040", "md_file": "knowledge_base/domains/MK/examples.md", "md_atom_type": "SENTENCE", "md_parent_section": "§MK.2 [Example 2]", "md_verbatim": "Each image was assessed by 2 readers of the same role; in this example, MKEVALID is populated with \"READER 1\" because these assessments were performed by the first reader.", "score": 1.0, "match_basis": "verbatim_token+domain_route:MK"}, {"md_atom_id": "md_dmMK_ex_a014", "md_file": "knowledge_base/domains/MK/examples.md", "md_atom_type": "SENTENCE", "md_parent_section": "§MK.1 [Example 1]", "md_verbatim": "**Rows 13-14:** Show that the assessments for tenderness and swelling of the shoulder joint (see MKLOC) on the right side of the body was not performed (MKSTAT=\"NOT DONE\") because it was not evaluable (MKREASND=\"JOINT NOT EVALUABLE\").", "score": 0.5339, "match_basis": "verbatim_token+domain_route:MK"}, {"md_atom_id": "md_dmMK_ex_a008", "md_file": "knowledge_base/domains/MK/examples.md", "md_atom_type": "SENTENCE", "md_parent_section": "§MK.1 [Example 1]", "md_verbatim": "Note that there was a field for marking a joint assessment as not done; this was to be used if the joint assessor overlooked or missed a joint while performing the joint assessment.", "score": 0.5176, "match_basis": "verbatim_token+domain_route:MK"}, {"md_atom_id": "md_dmMK_ex_a003", "md_file": "knowledge_base/domains/MK/examples.md", "md_atom_type": "SENTENCE", "md_parent_section": "§MK.1 [Example 1]", "md_verbatim": "This example illustrates data collected for the swollen/tender joint count assessment, specifically the 68-joint count.", "score": 0.5143, "match_basis": "verbatim_token+domain_route:MK"}, {"md_atom_id": "md_dmMK_ex_a034", "md_file": "knowledge_base/domains/MK/examples.md", "md_atom_type": "SENTENCE", "md_parent_section": "§MK.2 [Example 2]", "md_verbatim": "This example illustrates the collection of scores for the joint space-narrowing assessment.", "score": 0.508, "match_basis": "verbatim_token+domain_route:MK"}], "candidate_count": 5, "zero_candidate": false}
{"pdf_atom_id": "ig34_p0293_a027", "pdf_atom_type": "SENTENCE", "pdf_source": "SDTMIG_v3.4", "pdf_page": 293, "pdf_parent_section": "§6.3.7.3 Musculoskeletal System Findings (MK)", "pdf_verbatim": "The method used to obtain the image is represented in MKMETHOD = \"X-RAY\".", "figure_ref": null, "candidates": [{"md_atom_id": "md_dmMK_ex_a009", "md_file": "knowledge_base/domains/MK/examples.md", "md_atom_type": "SENTENCE", "md_parent_section": "§MK.1 [Example 1]", "md_verbatim": "The data collected are represented in the MK domain.", "score": 0.5737, "match_basis": "verbatim_token+domain_route:MK"}, {"md_atom_id": "md_dmMK_ex_a038", "md_file": "knowledge_base/domains/MK/examples.md", "md_atom_type": "SENTENCE", "md_parent_section": "§MK.2 [Example 2]", "md_verbatim": "The data collected are represented in the MK domain.", "score": 0.5737, "match_basis": "verbatim_token+domain_route:MK"}, {"md_atom_id": "md_dmMK_ex_a041", "md_file": "knowledge_base/domains/MK/examples.md", "md_atom_type": "SENTENCE", "md_parent_section": "§MK.2 [Example 2]", "md_verbatim": "The scoring method used for the assessment is precoordinated into MKTESTCD and MKTEST.", "score": 0.5034, "match_basis": "verbatim_token+domain_route:MK"}, {"md_atom_id": "md_dmMK_ex_a044", "md_file": "knowledge_base/domains/MK/examples.md", "md_atom_type": "SENTENCE", "md_parent_section": "§MK.2 [Example 2]", "md_verbatim": "The total score for the assessment was not collected, so is not represented in this dataset; it was to be derived in an ADaM dataset.", "score": 0.4968, "match_basis": "verbatim_token+domain_route:MK"}, {"md_atom_id": "md_dmMK_ex_a046", "md_file": "knowledge_base/domains/MK/examples.md", "md_atom_type": "SENTENCE", "md_parent_section": "§MK.2 [Example 2]", "md_verbatim": "**Rows 3, 6, 9, 12:** Show data collected for joints that were not assessed (MKSTAT=\"NOT DONE\"), with the reason collected on the CRF represented in MKREASND.", "score": 0.4957, "match_basis": "verbatim_token+domain_route:MK"}], "candidate_count": 5, "zero_candidate": false}
{"pdf_atom_id": "ig34_p0293_a028", "pdf_atom_type": "SENTENCE", "pdf_source": "SDTMIG_v3.4", "pdf_page": 293, "pdf_parent_section": "§6.3.7.3 Musculoskeletal System Findings (MK)", "pdf_verbatim": "The scoring method used for the assessment is precoordinated into MKTESTCD and MKTEST.", "figure_ref": null, "candidates": [{"md_atom_id": "md_dmMK_ex_a041", "md_file": "knowledge_base/domains/MK/examples.md", "md_atom_type": "SENTENCE", "md_parent_section": "§MK.2 [Example 2]", "md_verbatim": "The scoring method used for the assessment is precoordinated into MKTESTCD and MKTEST.", "score": 1.0, "match_basis": "verbatim_token+domain_route:MK"}, {"md_atom_id": "md_dmMK_ex_a034", "md_file": "knowledge_base/domains/MK/examples.md", "md_atom_type": "SENTENCE", "md_parent_section": "§MK.2 [Example 2]", "md_verbatim": "This example illustrates the collection of scores for the joint space-narrowing assessment.", "score": 0.5247, "match_basis": "verbatim_token+domain_route:MK"}, {"md_atom_id": "md_dmMK_ex_a044", "md_file": "knowledge_base/domains/MK/examples.md", "md_atom_type": "SENTENCE", "md_parent_section": "§MK.2 [Example 2]", "md_verbatim": "The total score for the assessment was not collected, so is not represented in this dataset; it was to be derived in an ADaM dataset.", "score": 0.5135, "match_basis": "verbatim_token+domain_route:MK"}, {"md_atom_id": "md_dmMK_ex_a035", "md_file": "knowledge_base/domains/MK/examples.md", "md_atom_type": "SENTENCE", "md_parent_section": "§MK.2 [Example 2]", "md_verbatim": "There are 2 scoring methods that may be used to evaluate the joints via a radiographic image: Sharp/Genant and Sharp/van der Heijde.", "score": 0.5071, "match_basis": "verbatim_token+domain_route:MK"}, {"md_atom_id": "md_dmMK_ex_a008", "md_file": "knowledge_base/domains/MK/examples.md", "md_atom_type": "SENTENCE", "md_parent_section": "§MK.1 [Example 1]", "md_verbatim": "Note that there was a field for marking a joint assessment as not done; this was to be used if the joint assessor overlooked or missed a joint while performing the joint assessment.", "score": 0.5012, "match_basis": "verbatim_token+domain_route:MK"}], "candidate_count": 5, "zero_candidate": false}
{"pdf_atom_id": "ig34_p0293_a029", "pdf_atom_type": "SENTENCE", "pdf_source": "SDTMIG_v3.4", "pdf_page": 293, "pdf_parent_section": "§6.3.7.3 Musculoskeletal System Findings (MK)", "pdf_verbatim": "Each joint location is specified in MKLOC with laterality (\"RIGHT\" or \"LEFT\") in MKLAT.", "figure_ref": null, "candidates": [{"md_atom_id": "md_dmMK_ex_a010", "md_file": "knowledge_base/domains/MK/examples.md", "md_atom_type": "SENTENCE", "md_parent_section": "§MK.1 [Example 1]", "md_verbatim": "Each joint location is specified in MKLOC with laterality (\"RIGHT\" or \"LEFT\") in MKLAT.", "score": 1.0, "match_basis": "verbatim_token+domain_route:MK"}, {"md_atom_id": "md_dmMK_ex_a042", "md_file": "knowledge_base/domains/MK/examples.md", "md_atom_type": "SENTENCE", "md_parent_section": "§MK.2 [Example 2]", "md_verbatim": "Each joint location is specified in MKLOC with laterality (\"RIGHT\" or \"LEFT\") in MKLAT.", "score": 1.0, "match_basis": "verbatim_token+domain_route:MK"}, {"md_atom_id": "md_dmMK_ex_a012", "md_file": "knowledge_base/domains/MK/examples.md", "md_atom_type": "SENTENCE", "md_parent_section": "§MK.1 [Example 1]", "md_verbatim": "**Rows 1-8, 11-12, 15-16:** Show the occurrence of tenderness or swelling (MKORRES/MKSTRESC=\"Y\", \"N\") at specific joint locations, represented in MKLOC, on the right and left sides (MKLAT) of the body.", "score": 0.5568, "match_basis": "verbatim_token+domain_route:MK"}, {"md_atom_id": "md_dmMK_ex_a036", "md_file": "knowledge_base/domains/MK/examples.md", "md_atom_type": "SENTENCE", "md_parent_section": "§MK.2 [Example 2]", "md_verbatim": "In this evaluation of radiographs for joint narrowing, each joint was graded.", "score": 0.4762, "match_basis": "verbatim_token+domain_route:MK"}, {"md_atom_id": "md_dmMK_ex_a013", "md_file": "knowledge_base/domains/MK/examples.md", "md_atom_type": "SENTENCE", "md_parent_section": "§MK.1 [Example 1]", "md_verbatim": "**Rows 9-10:** Show that the assessments for tenderness and swelling of the acromioclavicular joint (see MKLOC) on the right side of the body was not performed (MKSTAT=\"NOT DONE\"), but a specific reason was not collected on the CRF.", "score": 0.473, "match_basis": "verbatim_token+domain_route:MK"}], "candidate_count": 5, "zero_candidate": false}
{"pdf_atom_id": "ig34_p0293_a030", "pdf_atom_type": "SENTENCE", "pdf_source": "SDTMIG_v3.4", "pdf_page": 293, "pdf_parent_section": "§6.3.7.3 Musculoskeletal System Findings (MK)", "pdf_verbatim": "Because the evaluation includes a large number of joints that would result in many records, only a subset of the data collected is shown here.", "figure_ref": null, "candidates": [{"md_atom_id": "md_dmMK_ex_a043", "md_file": "knowledge_base/domains/MK/examples.md", "md_atom_type": "SENTENCE", "md_parent_section": "§MK.2 [Example 2]", "md_verbatim": "Because the evaluation includes a large number of joints that would result in many records, only a subset of the data collected is shown here.", "score": 1.0, "match_basis": "verbatim_token+domain_route:MK"}, {"md_atom_id": "md_dmMK_ex_a011", "md_file": "knowledge_base/domains/MK/examples.md", "md_atom_type": "SENTENCE", "md_parent_section": "§MK.1 [Example 1]", "md_verbatim": "Because the evaluation includes a large number of joints that would result in many records, only a subset of the data collected is shown below.", "score": 0.9571, "match_basis": "verbatim_token+domain_route:MK"}, {"md_atom_id": "md_dmMK_ex_a046", "md_file": "knowledge_base/domains/MK/examples.md", "md_atom_type": "SENTENCE", "md_parent_section": "§MK.2 [Example 2]", "md_verbatim": "**Rows 3, 6, 9, 12:** Show data collected for joints that were not assessed (MKSTAT=\"NOT DONE\"), with the reason collected on the CRF represented in MKREASND.", "score": 0.5188, "match_basis": "verbatim_token+domain_route:MK"}, {"md_atom_id": "md_dmMK_ex_a006", "md_file": "knowledge_base/domains/MK/examples.md", "md_atom_type": "SENTENCE", "md_parent_section": "§MK.1 [Example 1]", "md_verbatim": "Data collection included a field for marking a joint not evaluable when that joint met a condition (e.g., infection of the overlying tissue or skin, grossly edematous, fused), which precluded joint assessment, as specified by the protocol and the protocol-related joint assessor training.", "score": 0.5052, "match_basis": "verbatim_token+domain_route:MK"}, {"md_atom_id": "md_dmMK_ex_a005", "md_file": "knowledge_base/domains/MK/examples.md", "md_atom_type": "SENTENCE", "md_parent_section": "§MK.1 [Example 1]", "md_verbatim": "Total counts were not collected on the CRF since they were to be derived in ADaM datasets.", "score": 0.4944, "match_basis": "verbatim_token+domain_route:MK"}], "candidate_count": 5, "zero_candidate": false}
{"pdf_atom_id": "ig34_p0293_a031", "pdf_atom_type": "SENTENCE", "pdf_source": "SDTMIG_v3.4", "pdf_page": 293, "pdf_parent_section": "§6.3.7.3 Musculoskeletal System Findings (MK)", "pdf_verbatim": "The total score for the assessment was not collected, so is not represented in this dataset; it was to be derived in an ADaM dataset.", "figure_ref": null, "candidates": [{"md_atom_id": "md_dmMK_ex_a044", "md_file": "knowledge_base/domains/MK/examples.md", "md_atom_type": "SENTENCE", "md_parent_section": "§MK.2 [Example 2]", "md_verbatim": "The total score for the assessment was not collected, so is not represented in this dataset; it was to be derived in an ADaM dataset.", "score": 1.0, "match_basis": "verbatim_token+domain_route:MK"}, {"md_atom_id": "md_dmMK_ex_a005", "md_file": "knowledge_base/domains/MK/examples.md", "md_atom_type": "SENTENCE", "md_parent_section": "§MK.1 [Example 1]", "md_verbatim": "Total counts were not collected on the CRF since they were to be derived in ADaM datasets.", "score": 0.6483, "match_basis": "verbatim_token+domain_route:MK"}, {"md_atom_id": "md_dmMK_ex_a009", "md_file": "knowledge_base/domains/MK/examples.md", "md_atom_type": "SENTENCE", "md_parent_section": "§MK.1 [Example 1]", "md_verbatim": "The data collected are represented in the MK domain.", "score": 0.6118, "match_basis": "verbatim_token+domain_route:MK"}, {"md_atom_id": "md_dmMK_ex_a038", "md_file": "knowledge_base/domains/MK/examples.md", "md_atom_type": "SENTENCE", "md_parent_section": "§MK.2 [Example 2]", "md_verbatim": "The data collected are represented in the MK domain.", "score": 0.6118, "match_basis": "verbatim_token+domain_route:MK"}, {"md_atom_id": "md_dmMK_ex_a046", "md_file": "knowledge_base/domains/MK/examples.md", "md_atom_type": "SENTENCE", "md_parent_section": "§MK.2 [Example 2]", "md_verbatim": "**Rows 3, 6, 9, 12:** Show data collected for joints that were not assessed (MKSTAT=\"NOT DONE\"), with the reason collected on the CRF represented in MKREASND.", "score": 0.5895, "match_basis": "verbatim_token+domain_route:MK"}], "candidate_count": 5, "zero_candidate": false}
{"pdf_atom_id": "ig34_p0293_a032", "pdf_atom_type": "LIST_ITEM", "pdf_source": "SDTMIG_v3.4", "pdf_page": 293, "pdf_parent_section": "§6.3.7.3 Musculoskeletal System Findings (MK)", "pdf_verbatim": "Rows 1-2, 4-5, 7-8, 10-11, 13-16: Show the text description of each joint space-narrowing score in MKORRES and the corresponding numeric score in MKSTRESC/MKSTRESN.", "figure_ref": null, "candidates": [{"md_atom_id": "md_dmMK_ex_a045", "md_file": "knowledge_base/domains/MK/examples.md", "md_atom_type": "SENTENCE", "md_parent_section": "§MK.2 [Example 2]", "md_verbatim": "**Rows 1-2, 4-5, 7-8, 10-11, 13-16:** Show the text description of each joint space-narrowing score in MKORRES and the corresponding numeric score in MKSTRESC/MKSTRESN.", "score": 0.91, "match_basis": "verbatim_token+domain_route:MK"}, {"md_atom_id": "md_dmMK_ex_a034", "md_file": "knowledge_base/domains/MK/examples.md", "md_atom_type": "SENTENCE", "md_parent_section": "§MK.2 [Example 2]", "md_verbatim": "This example illustrates the collection of scores for the joint space-narrowing assessment.", "score": 0.4582, "match_basis": "verbatim_token+domain_route:MK"}, {"md_atom_id": "md_dmMK_assn_a004", "md_file": "knowledge_base/domains/MK/assumptions.md", "md_atom_type": "LIST_ITEM", "md_parent_section": "§MK [MK — Assumptions]", "md_verbatim": "3. Any Identifiers, Timing variables, or Findings general observation class qualifiers may be added to the MK domain, but the following qualifiers would generally not be used: --MODIFY, --BODSYS, --LOINC, --TOX, --TOXGR, --FAST, --ORNRLO, --ORNRHI, --STNRLO, --STNRHI, --ORREF, --STREFC, --STREFN.", "score": 0.4542, "match_basis": "verbatim_token+domain_route:MK"}, {"md_atom_id": "md_dmMK_assn_a002", "md_file": "knowledge_base/domains/MK/assumptions.md", "md_atom_type": "LIST_ITEM", "md_parent_section": "§MK [MK — Assumptions]", "md_verbatim": "1. The Musculoskeletal System Findings domain should not be used for oncology data related to the musculoskeletal system (e.g., bone lesions). Such data should be placed in the appropriate oncology domains: Tumor/Lesion Identification (TU), Tumor/Lesion Results (TR), and/or Disease Response and Clinical Classification (RS).", "score": 0.4513, "match_basis": "verbatim_token+domain_route:MK"}, {"md_atom_id": "md_dmMK_assn_a003", "md_file": "knowledge_base/domains/MK/assumptions.md", "md_atom_type": "LIST_ITEM", "md_parent_section": "§MK [MK — Assumptions]", "md_verbatim": "2. Musculoskeletal assessment examples that may have results represented in the MK domain include the following: morphology/physiology observations (e.g., swollen/tender joint count, limb movement, strength/grip measurements).", "score": 0.4484, "match_basis": "verbatim_token+domain_route:MK"}], "candidate_count": 5, "zero_candidate": false}
{"pdf_atom_id": "ig34_p0293_a033", "pdf_atom_type": "LIST_ITEM", "pdf_source": "SDTMIG_v3.4", "pdf_page": 293, "pdf_parent_section": "§6.3.7.3 Musculoskeletal System Findings (MK)", "pdf_verbatim": "Rows 3, 6, 9, 12: Show data collected for joints that were not assessed (MKSTAT=\"NOT DONE\"), with the reason collected on the CRF represented in MKREASND.", "figure_ref": null, "candidates": [{"md_atom_id": "md_dmMK_ex_a046", "md_file": "knowledge_base/domains/MK/examples.md", "md_atom_type": "SENTENCE", "md_parent_section": "§MK.2 [Example 2]", "md_verbatim": "**Rows 3, 6, 9, 12:** Show data collected for joints that were not assessed (MKSTAT=\"NOT DONE\"), with the reason collected on the CRF represented in MKREASND.", "score": 0.91, "match_basis": "verbatim_token+domain_route:MK"}, {"md_atom_id": "md_dmMK_ex_a013", "md_file": "knowledge_base/domains/MK/examples.md", "md_atom_type": "SENTENCE", "md_parent_section": "§MK.1 [Example 1]", "md_verbatim": "**Rows 9-10:** Show that the assessments for tenderness and swelling of the acromioclavicular joint (see MKLOC) on the right side of the body was not performed (MKSTAT=\"NOT DONE\"), but a specific reason was not collected on the CRF.", "score": 0.5046, "match_basis": "verbatim_token+domain_route:MK"}, {"md_atom_id": "md_dmMK_ex_a044", "md_file": "knowledge_base/domains/MK/examples.md", "md_atom_type": "SENTENCE", "md_parent_section": "§MK.2 [Example 2]", "md_verbatim": "The total score for the assessment was not collected, so is not represented in this dataset; it was to be derived in an ADaM dataset.", "score": 0.4995, "match_basis": "verbatim_token+domain_route:MK"}, {"md_atom_id": "md_dmMK_ex_a009", "md_file": "knowledge_base/domains/MK/examples.md", "md_atom_type": "SENTENCE", "md_parent_section": "§MK.1 [Example 1]", "md_verbatim": "The data collected are represented in the MK domain.", "score": 0.4931, "match_basis": "verbatim_token+domain_route:MK"}, {"md_atom_id": "md_dmMK_ex_a038", "md_file": "knowledge_base/domains/MK/examples.md", "md_atom_type": "SENTENCE", "md_parent_section": "§MK.2 [Example 2]", "md_verbatim": "The data collected are represented in the MK domain.", "score": 0.4931, "match_basis": "verbatim_token+domain_route:MK"}], "candidate_count": 5, "zero_candidate": false}
