{"pdf_atom_id": "ig34_p0026_a029", "pdf_atom_type": "SENTENCE", "pdf_source": "SDTMIG_v3.4", "pdf_page": 26, "pdf_parent_section": "§4.1.8.2 [Origin Metadata for Records]", "pdf_verbatim": "For example, some records in a Findings dataset such as Questionnaires (QS) contain values collected from the CRF; other records may contain derived values, such as a total score.", "figure_ref": null, "candidates": [{"md_atom_id": "md_ch04_a133", "md_file": "knowledge_base/chapters/ch04_general_assumptions.md", "md_atom_type": "SENTENCE", "md_parent_section": "§4.1.8.2 [Origin Metadata for Records]", "md_verbatim": "For example, some records in a Findings dataset such as Questionnaires (QS) contain values collected from the CRF; other records may contain derived values, such as a total score.", "score": 0.9, "match_basis": "verbatim_token+chapter_route:ch04"}, {"md_atom_id": "md_ch04_a132", "md_file": "knowledge_base/chapters/ch04_general_assumptions.md", "md_atom_type": "SENTENCE", "md_parent_section": "§4.1.8.2 [Origin Metadata for Records]", "md_verbatim": "In some cases, both collected and derived values may be reported in the same field.", "score": 0.4571, "match_basis": "verbatim_token+chapter_route:ch04"}, {"md_atom_id": "md_ch04_a127", "md_file": "knowledge_base/chapters/ch04_general_assumptions.md", "md_atom_type": "SENTENCE", "md_parent_section": "§4.1.8.1 [Origin Metadata for Variables]", "md_verbatim": "For example, data could be collected (on the CRF, from a vendor, or from a device), derived, or assigned; CRF data should be traceable to an annotated CRF and derived data should be traceable to some derivation algorithm.", "score": 0.4554, "match_basis": "verbatim_token+chapter_route:ch04"}, {"md_atom_id": "md_ch04_a234", "md_file": "knowledge_base/chapters/ch04_general_assumptions.md", "md_atom_type": "SENTENCE", "md_parent_section": "§4.2.6 [Grouping Variables and Categorization]", "md_verbatim": "      In such cases, the data collected during the stress tests recorded in 3 separate domains may all have --CAT/--SCAT values (STRESS TEST) that identify that data were collected during the stress test.", "score": 0.4458, "match_basis": "verbatim_token+chapter_route:ch04"}, {"md_atom_id": "md_ch04_a353", "md_file": "knowledge_base/chapters/ch04_general_assumptions.md", "md_atom_type": "SENTENCE", "md_parent_section": "§4.2.8.2 [Multiple Values for a Findings Result Variable]", "md_verbatim": "If multiple result values (--ORRES) are reported for a test in a Findings class dataset, multiple records should be submitted for that --TESTCD.", "score": 0.4456, "match_basis": "verbatim_token+chapter_route:ch04"}], "candidate_count": 5, "zero_candidate": false}
{"pdf_atom_id": "ig34_p0026_a030", "pdf_atom_type": "SENTENCE", "pdf_source": "SDTMIG_v3.4", "pdf_page": 26, "pdf_parent_section": "§4.1.8.2 [Origin Metadata for Records]", "pdf_verbatim": "When both derived and collected values are reported in a variable, the origin is to be described using value-level metadata in the Define-XML document.", "figure_ref": null, "candidates": [{"md_atom_id": "md_ch04_a134", "md_file": "knowledge_base/chapters/ch04_general_assumptions.md", "md_atom_type": "SENTENCE", "md_parent_section": "§4.1.8.2 [Origin Metadata for Records]", "md_verbatim": "When both derived and collected values are reported in a variable, the origin is to be described using value-level metadata in the Define-XML document.", "score": 0.9, "match_basis": "verbatim_token+chapter_route:ch04"}, {"md_atom_id": "md_ch04_a023", "md_file": "knowledge_base/chapters/ch04_general_assumptions.md", "md_atom_type": "SENTENCE", "md_parent_section": "§4.1.3.1 [EPOCH Variable Guidance]", "md_verbatim": "Methods for assigning EPOCH values can be described in the Define-XML document.", "score": 0.4902, "match_basis": "verbatim_token+chapter_route:ch04"}, {"md_atom_id": "md_ch04_a132", "md_file": "knowledge_base/chapters/ch04_general_assumptions.md", "md_atom_type": "SENTENCE", "md_parent_section": "§4.1.8.2 [Origin Metadata for Records]", "md_verbatim": "In some cases, both collected and derived values may be reported in the same field.", "score": 0.4899, "match_basis": "verbatim_token+chapter_route:ch04"}, {"md_atom_id": "md_ch04_a028", "md_file": "knowledge_base/chapters/ch04_general_assumptions.md", "md_atom_type": "SENTENCE", "md_parent_section": "§4.1.4 [Order of the Variables]", "md_verbatim": "The order of variables in the Define-XML document must reflect the order of variables in the dataset.", "score": 0.4747, "match_basis": "verbatim_token+chapter_route:ch04"}, {"md_atom_id": "md_ch04_a131", "md_file": "knowledge_base/chapters/ch04_general_assumptions.md", "md_atom_type": "SENTENCE", "md_parent_section": "§4.1.8.2 [Origin Metadata for Records]", "md_verbatim": "Sponsors are cautioned to recognize that a derived origin means that all values for that variable were derived, and that collected on the CRF applies to all values as well.", "score": 0.4657, "match_basis": "verbatim_token+chapter_route:ch04"}], "candidate_count": 5, "zero_candidate": false}
{"pdf_atom_id": "ig34_p0026_a031", "pdf_atom_type": "HEADING", "pdf_source": "SDTMIG_v3.4", "pdf_page": 26, "pdf_parent_section": "§4.1.9 [Assigning Natural Keys in the Metadata]", "pdf_verbatim": "4.1.9 Assigning Natural Keys in the Metadata", "figure_ref": null, "candidates": [{"md_atom_id": "md_ch04_a135", "md_file": "knowledge_base/chapters/ch04_general_assumptions.md", "md_atom_type": "HEADING", "md_parent_section": "§4.1.9 [Assigning Natural Keys in the Metadata]", "md_verbatim": "### 4.1.9 Assigning Natural Keys in the Metadata", "score": 0.9, "match_basis": "verbatim_token+chapter_route:ch04"}, {"md_atom_id": "md_ch04_a123", "md_file": "knowledge_base/chapters/ch04_general_assumptions.md", "md_atom_type": "HEADING", "md_parent_section": "§4.1.8 [Origin Metadata]", "md_verbatim": "### 4.1.8 Origin Metadata", "score": 0.444, "match_basis": "verbatim_token+chapter_route:ch04"}, {"md_atom_id": "md_ch04_a130", "md_file": "knowledge_base/chapters/ch04_general_assumptions.md", "md_atom_type": "HEADING", "md_parent_section": "§4.1.8.2 [Origin Metadata for Records]", "md_verbatim": "#### 4.1.8.2 Origin Metadata for Records", "score": 0.4161, "match_basis": "verbatim_token+chapter_route:ch04"}, {"md_atom_id": "md_ch04_a124", "md_file": "knowledge_base/chapters/ch04_general_assumptions.md", "md_atom_type": "HEADING", "md_parent_section": "§4.1.8.1 [Origin Metadata for Variables]", "md_verbatim": "#### 4.1.8.1 Origin Metadata for Variables", "score": 0.4091, "match_basis": "verbatim_token+chapter_route:ch04"}, {"md_atom_id": "md_ch04_a968", "md_file": "knowledge_base/chapters/ch04_general_assumptions.md", "md_atom_type": "HEADING", "md_parent_section": "§4.5 [Other Assumptions]", "md_verbatim": "### 4.5.5 Clinical Significance for Findings Observation Class Data", "score": 0.384, "match_basis": "verbatim_token+chapter_route:ch04"}], "candidate_count": 5, "zero_candidate": false}
{"pdf_atom_id": "ig34_p0026_a032", "pdf_atom_type": "SENTENCE", "pdf_source": "SDTMIG_v3.4", "pdf_page": 26, "pdf_parent_section": "§4.1.9 [Assigning Natural Keys in the Metadata]", "pdf_verbatim": "Section 3.2, Using the CDISC Domain Models in Regulatory Submissions – Dataset Metadata, indicates that a sponsor should include in the metadata the variables that contribute to the natural key for a domain.", "figure_ref": null, "candidates": [{"md_atom_id": "md_ch04_a136", "md_file": "knowledge_base/chapters/ch04_general_assumptions.md", "md_atom_type": "SENTENCE", "md_parent_section": "§4.1.9 [Assigning Natural Keys in the Metadata]", "md_verbatim": "Section 3.2, Using the CDISC Domain Models in Regulatory Submissions — Dataset Metadata, indicates that a sponsor should include in the metadata the variables that contribute to the natural key for a domain.", "score": 0.9, "match_basis": "verbatim_token+chapter_route:ch04"}, {"md_atom_id": "md_ch04_a170", "md_file": "knowledge_base/chapters/ch04_general_assumptions.md", "md_atom_type": "SENTENCE", "md_parent_section": "§4.1.9 [Assigning Natural Keys in the Metadata]", "md_verbatim": "The following variables would be used to fully describe the test. The natural key for this domain includes both parent dataset variables and a supplemental qualifier variable that contribute to the natural key of each row and to describe the uniqueness of the test.", "score": 0.4804, "match_basis": "verbatim_token+chapter_route:ch04"}, {"md_atom_id": "md_ch04_a142", "md_file": "knowledge_base/chapters/ch04_general_assumptions.md", "md_atom_type": "SENTENCE", "md_parent_section": "§4.1.9 [Assigning Natural Keys in the Metadata]", "md_verbatim": "Sponsor B collects data in such a way that the location (MKLOC and MKLAT) and method (MKMETHOD) variables need to be included in the natural key to identify a unique row.", "score": 0.4659, "match_basis": "verbatim_token+chapter_route:ch04"}, {"md_atom_id": "md_ch04_a017", "md_file": "knowledge_base/chapters/ch04_general_assumptions.md", "md_atom_type": "SENTENCE", "md_parent_section": "§4.1.3.1 [EPOCH Variable Guidance]", "md_verbatim": "When EPOCH is included in a Findings class domain, it should be based on the --DTC variable, since this is the date/time of the test or, for tests performed on specimens, the date/time of specimen collection.", "score": 0.4559, "match_basis": "verbatim_token+chapter_route:ch04"}, {"md_atom_id": "md_ch04_a434", "md_file": "knowledge_base/chapters/ch04_general_assumptions.md", "md_atom_type": "SENTENCE", "md_parent_section": "§4.3.3 [Controlled Terminology Values]", "md_verbatim": "When a domain or dataset specification includes a codelist for a variable, not every value in that codelist may have been part of planned data collection; only values that were part of planned data collection should be included in the Define-XML document.", "score": 0.451, "match_basis": "verbatim_token+chapter_route:ch04"}], "candidate_count": 5, "zero_candidate": false}
{"pdf_atom_id": "ig34_p0026_a033", "pdf_atom_type": "SENTENCE", "pdf_source": "SDTMIG_v3.4", "pdf_page": 26, "pdf_parent_section": "§4.1.9 [Assigning Natural Keys in the Metadata]", "pdf_verbatim": "In a case where a dataset includes a mix of records with different natural keys, the natural key that provides the most granularity is the one that should be provided.", "figure_ref": null, "candidates": [{"md_atom_id": "md_ch04_a137", "md_file": "knowledge_base/chapters/ch04_general_assumptions.md", "md_atom_type": "SENTENCE", "md_parent_section": "§4.1.9 [Assigning Natural Keys in the Metadata]", "md_verbatim": "In a case where a dataset includes a mix of records with different natural keys, the natural key that provides the most granularity is the one that should be provided.", "score": 0.9, "match_basis": "verbatim_token+chapter_route:ch04"}, {"md_atom_id": "md_ch04_a703", "md_file": "knowledge_base/chapters/ch04_general_assumptions.md", "md_atom_type": "SENTENCE", "md_parent_section": "§4.4.9 [Use of Dates as Result Variables]", "md_verbatim": "Remember, in most cases, these dates should be timing variables associated with a record in an Intervention or Events dataset.", "score": 0.426, "match_basis": "verbatim_token+chapter_route:ch04"}, {"md_atom_id": "md_ch04_a136", "md_file": "knowledge_base/chapters/ch04_general_assumptions.md", "md_atom_type": "SENTENCE", "md_parent_section": "§4.1.9 [Assigning Natural Keys in the Metadata]", "md_verbatim": "Section 3.2, Using the CDISC Domain Models in Regulatory Submissions — Dataset Metadata, indicates that a sponsor should include in the metadata the variables that contribute to the natural key for a domain.", "score": 0.42, "match_basis": "verbatim_token+chapter_route:ch04"}, {"md_atom_id": "md_ch04_a432", "md_file": "knowledge_base/chapters/ch04_general_assumptions.md", "md_atom_type": "SENTENCE", "md_parent_section": "§4.3.3 [Controlled Terminology Values]", "md_verbatim": "Note that a null value should not be included in the permissible value set.", "score": 0.4184, "match_basis": "verbatim_token+chapter_route:ch04"}, {"md_atom_id": "md_ch04_a170", "md_file": "knowledge_base/chapters/ch04_general_assumptions.md", "md_atom_type": "SENTENCE", "md_parent_section": "§4.1.9 [Assigning Natural Keys in the Metadata]", "md_verbatim": "The following variables would be used to fully describe the test. The natural key for this domain includes both parent dataset variables and a supplemental qualifier variable that contribute to the natural key of each row and to describe the uniqueness of the test.", "score": 0.4128, "match_basis": "verbatim_token+chapter_route:ch04"}], "candidate_count": 5, "zero_candidate": false}
{"pdf_atom_id": "ig34_p0026_a034", "pdf_atom_type": "SENTENCE", "pdf_source": "SDTMIG_v3.4", "pdf_page": 26, "pdf_parent_section": "§4.1.9 [Assigning Natural Keys in the Metadata]", "pdf_verbatim": "The following example illustrates how to do this, and include a case where a Supplemental Qualifier variable is referenced because it forms part of the natural key.", "figure_ref": null, "candidates": [{"md_atom_id": "md_ch04_a138", "md_file": "knowledge_base/chapters/ch04_general_assumptions.md", "md_atom_type": "SENTENCE", "md_parent_section": "§4.1.9 [Assigning Natural Keys in the Metadata]", "md_verbatim": "The following example illustrates how to do this, and include a case where a Supplemental Qualifier variable is referenced because it forms part of the natural key.", "score": 0.9, "match_basis": "verbatim_token+chapter_route:ch04"}, {"md_atom_id": "md_ch04_a148", "md_file": "knowledge_base/chapters/ch04_general_assumptions.md", "md_atom_type": "SENTENCE", "md_parent_section": "§4.1.9 [Assigning Natural Keys in the Metadata]", "md_verbatim": "Supplemental Qualifier variables should be referenced in the natural key by using a 2-part name.", "score": 0.5733, "match_basis": "verbatim_token+chapter_route:ch04"}, {"md_atom_id": "md_ch04_a170", "md_file": "knowledge_base/chapters/ch04_general_assumptions.md", "md_atom_type": "SENTENCE", "md_parent_section": "§4.1.9 [Assigning Natural Keys in the Metadata]", "md_verbatim": "The following variables would be used to fully describe the test. The natural key for this domain includes both parent dataset variables and a supplemental qualifier variable that contribute to the natural key of each row and to describe the uniqueness of the test.", "score": 0.5409, "match_basis": "verbatim_token+chapter_route:ch04"}, {"md_atom_id": "md_ch04_a145", "md_file": "knowledge_base/chapters/ch04_general_assumptions.md", "md_atom_type": "SENTENCE", "md_parent_section": "§4.1.9 [Assigning Natural Keys in the Metadata]", "md_verbatim": "In certain instances a Supplemental Qualifier variable (i.e., a QNAM value; see Section 8.4, Relating Non-standard Variable Values to a Parent Domain) might also contribute to the natural key of a record, and therefore needs to be referenced as part of the natural key for a domain.", "score": 0.4899, "match_basis": "verbatim_token+chapter_route:ch04"}, {"md_atom_id": "md_ch04_a907", "md_file": "knowledge_base/chapters/ch04_general_assumptions.md", "md_atom_type": "SENTENCE", "md_parent_section": "§4.5.3.2 [Text Strings Greater than 200 Characters in Other Variables]", "md_verbatim": "For general observation-class variables and supplemental qualifiers (i.e., non-standard variables, NSVs), the conventions are as follows:", "score": 0.4617, "match_basis": "verbatim_token+chapter_route:ch04"}], "candidate_count": 5, "zero_candidate": false}
{"pdf_atom_id": "ig34_p0026_a035", "pdf_atom_type": "HEADING", "pdf_source": "SDTMIG_v3.4", "pdf_page": 26, "pdf_parent_section": "§4.1.9 [Assigning Natural Keys in the Metadata]", "pdf_verbatim": "Musculoskeletal System Findings (MK) Domain Example", "figure_ref": null, "candidates": [{"md_atom_id": "md_ch04_a680", "md_file": "knowledge_base/chapters/ch04_general_assumptions.md", "md_atom_type": "HEADING", "md_parent_section": "§4.4 [Use of Timing Variables]", "md_verbatim": "### 4.4.8 Date and Time Reported in a Domain Based on Findings", "score": 0.4304, "match_basis": "verbatim_token+chapter_route:ch04"}, {"md_atom_id": "md_ch04_a352", "md_file": "knowledge_base/chapters/ch04_general_assumptions.md", "md_atom_type": "HEADING", "md_parent_section": "§4.2.8 [Multiple Values for a Variable]", "md_verbatim": "#### 4.2.8.2 Multiple Values for a Findings Result Variable", "score": 0.3824, "match_basis": "verbatim_token+chapter_route:ch04"}, {"md_atom_id": "md_ch04_a182", "md_file": "knowledge_base/chapters/ch04_general_assumptions.md", "md_atom_type": "HEADING", "md_parent_section": "§4.2.1 [Variable-Naming Conventions]", "md_verbatim": "#### 4.2.1.1 --TEST and --TESTCD Conventions (Findings)", "score": 0.3783, "match_basis": "verbatim_token+chapter_route:ch04"}, {"md_atom_id": "md_ch04_a049", "md_file": "knowledge_base/chapters/ch04_general_assumptions.md", "md_atom_type": "HEADING", "md_parent_section": "§4.1 [General Domain Assumptions]", "md_verbatim": "### 4.1.7 Splitting Domains", "score": 0.3769, "match_basis": "verbatim_token+chapter_route:ch04"}, {"md_atom_id": "md_ch04_a069", "md_file": "knowledge_base/chapters/ch04_general_assumptions.md", "md_atom_type": "HEADING", "md_parent_section": "§4.1.7 [Splitting Domains]", "md_verbatim": "#### 4.1.7.1 Example of Splitting Questionnaires", "score": 0.372, "match_basis": "verbatim_token+chapter_route:ch04"}], "candidate_count": 5, "zero_candidate": false}
{"pdf_atom_id": "ig34_p0026_a036", "pdf_atom_type": "SENTENCE", "pdf_source": "SDTMIG_v3.4", "pdf_page": 26, "pdf_parent_section": "§4.1.9 [Assigning Natural Keys in the Metadata]", "pdf_verbatim": "Sponsor A chooses the following natural key for the MK domain:", "figure_ref": null, "candidates": [{"md_atom_id": "md_ch04_a140", "md_file": "knowledge_base/chapters/ch04_general_assumptions.md", "md_atom_type": "SENTENCE", "md_parent_section": "§4.1.9 [Assigning Natural Keys in the Metadata]", "md_verbatim": "Sponsor A chooses the following natural key for the MK domain:", "score": 0.9, "match_basis": "verbatim_token+chapter_route:ch04"}, {"md_atom_id": "md_ch04_a143", "md_file": "knowledge_base/chapters/ch04_general_assumptions.md", "md_atom_type": "SENTENCE", "md_parent_section": "§4.1.9 [Assigning Natural Keys in the Metadata]", "md_verbatim": "Sponsor B then defines the following natural key for the MK domain:", "score": 0.7114, "match_basis": "verbatim_token+chapter_route:ch04"}, {"md_atom_id": "md_ch04_a152", "md_file": "knowledge_base/chapters/ch04_general_assumptions.md", "md_atom_type": "SENTENCE", "md_parent_section": "§4.1.9 [Assigning Natural Keys in the Metadata]", "md_verbatim": "The natural key is then defined as follows:", "score": 0.4833, "match_basis": "verbatim_token+chapter_route:ch04"}, {"md_atom_id": "md_ch04_a697", "md_file": "knowledge_base/chapters/ch04_general_assumptions.md", "md_atom_type": "SENTENCE", "md_parent_section": "§4.4.9 [Use of Dates as Result Variables]", "md_verbatim": "Consider the following cases:", "score": 0.4667, "match_basis": "verbatim_token+chapter_route:ch04"}, {"md_atom_id": "md_ch04_a946", "md_file": "knowledge_base/chapters/ch04_general_assumptions.md", "md_atom_type": "SENTENCE", "md_parent_section": "§4.5.3.2 [Text Strings Greater than 200 Characters in Other Variables]", "md_verbatim": "The following domains have specialized conventions: CO (Section 5.1), IE (Section 6.3.4), TS (Section 7.4.2), and TI (Section 7.4.1).", "score": 0.4472, "match_basis": "verbatim_token+chapter_route:ch04"}], "candidate_count": 5, "zero_candidate": false}
{"pdf_atom_id": "ig34_p0026_a037", "pdf_atom_type": "CODE_LITERAL", "pdf_source": "SDTMIG_v3.4", "pdf_page": 26, "pdf_parent_section": "§4.1.9 [Assigning Natural Keys in the Metadata]", "pdf_verbatim": "STUDYID, USUBJID, VISTNUM, MKTESTCD", "figure_ref": null, "candidates": [{"md_atom_id": "md_ch04_a141", "md_file": "knowledge_base/chapters/ch04_general_assumptions.md", "md_atom_type": "CODE_LITERAL", "md_parent_section": "§4.1.9 [Assigning Natural Keys in the Metadata]", "md_verbatim": "STUDYID, USUBJID, VISITNUM, MKTESTCD", "score": 0.565, "match_basis": "verbatim_token+chapter_route:ch04"}, {"md_atom_id": "md_ch04_a144", "md_file": "knowledge_base/chapters/ch04_general_assumptions.md", "md_atom_type": "CODE_LITERAL", "md_parent_section": "§4.1.9 [Assigning Natural Keys in the Metadata]", "md_verbatim": "STUDYID, USUBJID, VISITNUM, MKTESTCD, MKLOC, MKLAT, MKMETHOD", "score": 0.4157, "match_basis": "verbatim_token+chapter_route:ch04"}, {"md_atom_id": "md_ch04_a153", "md_file": "knowledge_base/chapters/ch04_general_assumptions.md", "md_atom_type": "CODE_LITERAL", "md_parent_section": "§4.1.9 [Assigning Natural Keys in the Metadata]", "md_verbatim": "    STUDYID, USUBJID, SPDEVID, VISITNUM, MKTESTCD, MKLOC, MKLAT, MKMETHOD,\n    QNAM.MKHNDPOS", "score": 0.3275, "match_basis": "verbatim_token+chapter_route:ch04"}, {"md_atom_id": "md_ch04_a939", "md_file": "knowledge_base/chapters/ch04_general_assumptions.md", "md_atom_type": "TABLE_HEADER", "md_parent_section": "§4.5.3.2 [Text Strings Greater than 200 Characters in Other Variables]", "md_verbatim": "| Row | STUDYID | DOMAIN | USUBJID | PRSEQ | PRTRT |\n|-----|---------|--------|---------|-------|-------|", "score": 0.2775, "match_basis": "verbatim_token+chapter_route:ch04"}, {"md_atom_id": "md_ch04_a920", "md_file": "knowledge_base/chapters/ch04_general_assumptions.md", "md_atom_type": "TABLE_HEADER", "md_parent_section": "§4.5.3.2 [Text Strings Greater than 200 Characters in Other Variables]", "md_verbatim": "| Row | STUDYID | DOMAIN | USUBJID | MHSEQ | MHTERM |\n|-----|---------|--------|---------|-------|--------|", "score": 0.2718, "match_basis": "verbatim_token+chapter_route:ch04"}], "candidate_count": 5, "zero_candidate": false}
{"pdf_atom_id": "ig34_p0026_a038", "pdf_atom_type": "SENTENCE", "pdf_source": "SDTMIG_v3.4", "pdf_page": 26, "pdf_parent_section": "§4.1.9 [Assigning Natural Keys in the Metadata]", "pdf_verbatim": "Sponsor B collects data in such a way that the location (MKLOC and MKLAT) and method (MKMETHOD) variables need to be included in the natural key to identify a unique row.", "figure_ref": null, "candidates": [{"md_atom_id": "md_ch04_a142", "md_file": "knowledge_base/chapters/ch04_general_assumptions.md", "md_atom_type": "SENTENCE", "md_parent_section": "§4.1.9 [Assigning Natural Keys in the Metadata]", "md_verbatim": "Sponsor B collects data in such a way that the location (MKLOC and MKLAT) and method (MKMETHOD) variables need to be included in the natural key to identify a unique row.", "score": 0.9, "match_basis": "verbatim_token+chapter_route:ch04"}, {"md_atom_id": "md_ch04_a136", "md_file": "knowledge_base/chapters/ch04_general_assumptions.md", "md_atom_type": "SENTENCE", "md_parent_section": "§4.1.9 [Assigning Natural Keys in the Metadata]", "md_verbatim": "Section 3.2, Using the CDISC Domain Models in Regulatory Submissions — Dataset Metadata, indicates that a sponsor should include in the metadata the variables that contribute to the natural key for a domain.", "score": 0.4659, "match_basis": "verbatim_token+chapter_route:ch04"}, {"md_atom_id": "md_ch04_a898", "md_file": "knowledge_base/chapters/ch04_general_assumptions.md", "md_atom_type": "SENTENCE", "md_parent_section": "§4.5.3.1 [Test Name (--TEST) Greater than 40 Characters]", "md_verbatim": "Sponsors have the following options for including the full description for these variables in the study metadata:", "score": 0.4408, "match_basis": "verbatim_token+chapter_route:ch04"}, {"md_atom_id": "md_ch04_a151", "md_file": "knowledge_base/chapters/ch04_general_assumptions.md", "md_atom_type": "SENTENCE", "md_parent_section": "§4.1.9 [Assigning Natural Keys in the Metadata]", "md_verbatim": "The sponsor considers the make and model information and hand position to be essential data that contributes to the uniqueness of the test result, and so includes a device identifier (SPDEVID) in the data and creates a Supplemental Qualifier variable for hand position (QNAM = \"MKHNDPOS\").", "score": 0.4407, "match_basis": "verbatim_token+chapter_route:ch04"}, {"md_atom_id": "md_ch04_a170", "md_file": "knowledge_base/chapters/ch04_general_assumptions.md", "md_atom_type": "SENTENCE", "md_parent_section": "§4.1.9 [Assigning Natural Keys in the Metadata]", "md_verbatim": "The following variables would be used to fully describe the test. The natural key for this domain includes both parent dataset variables and a supplemental qualifier variable that contribute to the natural key of each row and to describe the uniqueness of the test.", "score": 0.4388, "match_basis": "verbatim_token+chapter_route:ch04"}], "candidate_count": 5, "zero_candidate": false}
{"pdf_atom_id": "ig34_p0026_a039", "pdf_atom_type": "SENTENCE", "pdf_source": "SDTMIG_v3.4", "pdf_page": 26, "pdf_parent_section": "§4.1.9 [Assigning Natural Keys in the Metadata]", "pdf_verbatim": "Sponsor B then defines the following natural key for the MK domain.", "figure_ref": null, "candidates": [{"md_atom_id": "md_ch04_a143", "md_file": "knowledge_base/chapters/ch04_general_assumptions.md", "md_atom_type": "SENTENCE", "md_parent_section": "§4.1.9 [Assigning Natural Keys in the Metadata]", "md_verbatim": "Sponsor B then defines the following natural key for the MK domain:", "score": 0.9, "match_basis": "verbatim_token+chapter_route:ch04"}, {"md_atom_id": "md_ch04_a140", "md_file": "knowledge_base/chapters/ch04_general_assumptions.md", "md_atom_type": "SENTENCE", "md_parent_section": "§4.1.9 [Assigning Natural Keys in the Metadata]", "md_verbatim": "Sponsor A chooses the following natural key for the MK domain:", "score": 0.7114, "match_basis": "verbatim_token+chapter_route:ch04"}, {"md_atom_id": "md_ch04_a152", "md_file": "knowledge_base/chapters/ch04_general_assumptions.md", "md_atom_type": "SENTENCE", "md_parent_section": "§4.1.9 [Assigning Natural Keys in the Metadata]", "md_verbatim": "The natural key is then defined as follows:", "score": 0.6, "match_basis": "verbatim_token+chapter_route:ch04"}, {"md_atom_id": "md_ch04_a946", "md_file": "knowledge_base/chapters/ch04_general_assumptions.md", "md_atom_type": "SENTENCE", "md_parent_section": "§4.5.3.2 [Text Strings Greater than 200 Characters in Other Variables]", "md_verbatim": "The following domains have specialized conventions: CO (Section 5.1), IE (Section 6.3.4), TS (Section 7.4.2), and TI (Section 7.4.1).", "score": 0.4444, "match_basis": "verbatim_token+chapter_route:ch04"}, {"md_atom_id": "md_ch04_a697", "md_file": "knowledge_base/chapters/ch04_general_assumptions.md", "md_atom_type": "SENTENCE", "md_parent_section": "§4.4.9 [Use of Dates as Result Variables]", "md_verbatim": "Consider the following cases:", "score": 0.4421, "match_basis": "verbatim_token+chapter_route:ch04"}], "candidate_count": 5, "zero_candidate": false}
{"pdf_atom_id": "ig34_p0027_a001", "pdf_atom_type": "CODE_LITERAL", "pdf_source": "SDTMIG_v3.4", "pdf_page": 27, "pdf_parent_section": "§4.1.9 [Assigning Natural Keys in the Metadata]", "pdf_verbatim": "STUDYID, USUBJID, VISITNUM, MKTESTCD, MKLOC, MKLAT, MKMETHOD", "figure_ref": null, "candidates": [{"md_atom_id": "md_ch04_a144", "md_file": "knowledge_base/chapters/ch04_general_assumptions.md", "md_atom_type": "CODE_LITERAL", "md_parent_section": "§4.1.9 [Assigning Natural Keys in the Metadata]", "md_verbatim": "STUDYID, USUBJID, VISITNUM, MKTESTCD, MKLOC, MKLAT, MKMETHOD", "score": 0.69, "match_basis": "verbatim_token+chapter_route:ch04"}, {"md_atom_id": "md_ch04_a153", "md_file": "knowledge_base/chapters/ch04_general_assumptions.md", "md_atom_type": "CODE_LITERAL", "md_parent_section": "§4.1.9 [Assigning Natural Keys in the Metadata]", "md_verbatim": "    STUDYID, USUBJID, SPDEVID, VISITNUM, MKTESTCD, MKLOC, MKLAT, MKMETHOD,\n    QNAM.MKHNDPOS", "score": 0.5204, "match_basis": "verbatim_token+chapter_route:ch04"}, {"md_atom_id": "md_ch04_a141", "md_file": "knowledge_base/chapters/ch04_general_assumptions.md", "md_atom_type": "CODE_LITERAL", "md_parent_section": "§4.1.9 [Assigning Natural Keys in the Metadata]", "md_verbatim": "STUDYID, USUBJID, VISITNUM, MKTESTCD", "score": 0.49, "match_basis": "verbatim_token+chapter_route:ch04"}, {"md_atom_id": "md_ch04_a083", "md_file": "knowledge_base/chapters/ch04_general_assumptions.md", "md_atom_type": "TABLE_HEADER", "md_parent_section": "§4.1.7.1 [Example of Splitting Questionnaires]", "md_verbatim": "| Row | STUDYID | DOMAIN | USUBJID | QSSEQ | QSTESTCD | QSTEST | QSCAT | QSSCAT | QSORRES | QSORRESU | QSSTRESC | QSSTRESN | QSSTRESU | QSLOC | QSMETHOD | QSLOBXFL | VISITNUM | QSDTC | QSDY | QSEVLINT |", "score": 0.2874, "match_basis": "verbatim_token+chapter_route:ch04"}, {"md_atom_id": "md_ch04_a091", "md_file": "knowledge_base/chapters/ch04_general_assumptions.md", "md_atom_type": "TABLE_HEADER", "md_parent_section": "§4.1.7.1 [Example of Splitting Questionnaires]", "md_verbatim": "| Row | STUDYID | DOMAIN | USUBJID | QSSEQ | QSTESTCD | QSTEST | QSCAT | QSORRES | QSSTRESC | QSSTRESN | QSLOBXFL | VISITNUM | QSDTC | QSDY |", "score": 0.2718, "match_basis": "verbatim_token+chapter_route:ch04"}], "candidate_count": 5, "zero_candidate": false}
{"pdf_atom_id": "ig34_p0027_a002", "pdf_atom_type": "SENTENCE", "pdf_source": "SDTMIG_v3.4", "pdf_page": 27, "pdf_parent_section": "§4.1.9 [Assigning Natural Keys in the Metadata]", "pdf_verbatim": "In certain instances a Supplemental Qualifier variable (i.e., a QNAM value; see Section 8.4, Relating Non-standard Variable Values to a Parent Domain) might also contribute to the natural key of a record, and therefore needs to be referenced as part of the natural key for a domain.", "figure_ref": null, "candidates": [{"md_atom_id": "md_ch04_a145", "md_file": "knowledge_base/chapters/ch04_general_assumptions.md", "md_atom_type": "SENTENCE", "md_parent_section": "§4.1.9 [Assigning Natural Keys in the Metadata]", "md_verbatim": "In certain instances a Supplemental Qualifier variable (i.e., a QNAM value; see Section 8.4, Relating Non-standard Variable Values to a Parent Domain) might also contribute to the natural key of a record, and therefore needs to be referenced as part of the natural key for a domain.", "score": 0.9, "match_basis": "verbatim_token+chapter_route:ch04"}, {"md_atom_id": "md_ch04_a148", "md_file": "knowledge_base/chapters/ch04_general_assumptions.md", "md_atom_type": "SENTENCE", "md_parent_section": "§4.1.9 [Assigning Natural Keys in the Metadata]", "md_verbatim": "Supplemental Qualifier variables should be referenced in the natural key by using a 2-part name.", "score": 0.5291, "match_basis": "verbatim_token+chapter_route:ch04"}, {"md_atom_id": "md_ch04_a262", "md_file": "knowledge_base/chapters/ch04_general_assumptions.md", "md_atom_type": "SENTENCE", "md_parent_section": "§4.2.7.1 [\"Specify\" Values for Non-Result Qualifier Variables]", "md_verbatim": "When free-text information is collected to supplement a standard non-result qualifier field, the free-text value should be placed in the SUPP-- dataset described in Section 8.4, Relating Non-standard Variable Values to a Parent Domain.", "score": 0.5266, "match_basis": "verbatim_token+chapter_route:ch04"}, {"md_atom_id": "md_ch04_a961", "md_file": "knowledge_base/chapters/ch04_general_assumptions.md", "md_atom_type": "SENTENCE", "md_parent_section": "§4.5.4 [Evaluators in the Interventions and Events Observation Classes]", "md_verbatim": "See Section 8.4, Relating Non-standard Variable Values to a Parent Domain.", "score": 0.5176, "match_basis": "verbatim_token+chapter_route:ch04"}, {"md_atom_id": "md_ch04_a366", "md_file": "knowledge_base/chapters/ch04_general_assumptions.md", "md_atom_type": "SENTENCE", "md_parent_section": "§4.2.8.3 [Multiple Values for a Non-result Qualifier Variable]", "md_verbatim": "See Section 8.4, Relating Non-standard Variable Values to a Parent Domain, for additional guidance on maintaining appropriately unique QNAM values.", "score": 0.5047, "match_basis": "verbatim_token+chapter_route:ch04"}], "candidate_count": 5, "zero_candidate": false}
{"pdf_atom_id": "ig34_p0027_a003", "pdf_atom_type": "SENTENCE", "pdf_source": "SDTMIG_v3.4", "pdf_page": 27, "pdf_parent_section": "§4.1.9 [Assigning Natural Keys in the Metadata]", "pdf_verbatim": "The important concept here is that a domain is not limited by physical structure.", "figure_ref": null, "candidates": [{"md_atom_id": "md_ch04_a146", "md_file": "knowledge_base/chapters/ch04_general_assumptions.md", "md_atom_type": "SENTENCE", "md_parent_section": "§4.1.9 [Assigning Natural Keys in the Metadata]", "md_verbatim": "The important concept here is that a domain is not limited by physical structure.", "score": 0.9, "match_basis": "verbatim_token+chapter_route:ch04"}, {"md_atom_id": "md_ch04_a147", "md_file": "knowledge_base/chapters/ch04_general_assumptions.md", "md_atom_type": "SENTENCE", "md_parent_section": "§4.1.9 [Assigning Natural Keys in the Metadata]", "md_verbatim": "A domain may comprise more than 1 physical dataset (e.g., the main domain dataset and its associated Supplemental Qualifiers dataset).", "score": 0.3951, "match_basis": "verbatim_token+chapter_route:ch04"}, {"md_atom_id": "md_ch04_a050", "md_file": "knowledge_base/chapters/ch04_general_assumptions.md", "md_atom_type": "SENTENCE", "md_parent_section": "§4.1.7 [Splitting Domains]", "md_verbatim": "Sponsors may choose to split a domain of topically related information into physically separate datasets.", "score": 0.3776, "match_basis": "verbatim_token+chapter_route:ch04"}, {"md_atom_id": "md_ch04_a636", "md_file": "knowledge_base/chapters/ch04_general_assumptions.md", "md_atom_type": "SENTENCE", "md_parent_section": "§4.4.7 [Use of Relative Timing Variables]", "md_verbatim": "Note that in this example, the information collected is with respect to the start of the concomitant medication use only, and therefore the collected data corresponds to variable CMSTRF, not CMENRF.", "score": 0.3771, "match_basis": "verbatim_token+chapter_route:ch04"}, {"md_atom_id": "md_ch04_a045", "md_file": "knowledge_base/chapters/ch04_general_assumptions.md", "md_atom_type": "SENTENCE", "md_parent_section": "§4.1.6 [Additional Guidance on Dataset Naming]", "md_verbatim": "In some cases, sponsors may need to define new custom domains and may be concerned that CDISC domain codes defined in the future will conflict with those they choose to use.", "score": 0.3766, "match_basis": "verbatim_token+chapter_route:ch04"}], "candidate_count": 5, "zero_candidate": false}
{"pdf_atom_id": "ig34_p0027_a004", "pdf_atom_type": "SENTENCE", "pdf_source": "SDTMIG_v3.4", "pdf_page": 27, "pdf_parent_section": "§4.1.9 [Assigning Natural Keys in the Metadata]", "pdf_verbatim": "A domain may comprise more than 1 physical dataset (e.g., the main domain dataset and its associated Supplemental Qualifiers dataset).", "figure_ref": null, "candidates": [{"md_atom_id": "md_ch04_a147", "md_file": "knowledge_base/chapters/ch04_general_assumptions.md", "md_atom_type": "SENTENCE", "md_parent_section": "§4.1.9 [Assigning Natural Keys in the Metadata]", "md_verbatim": "A domain may comprise more than 1 physical dataset (e.g., the main domain dataset and its associated Supplemental Qualifiers dataset).", "score": 0.9, "match_basis": "verbatim_token+chapter_route:ch04"}, {"md_atom_id": "md_ch04_a103", "md_file": "knowledge_base/chapters/ch04_general_assumptions.md", "md_atom_type": "SENTENCE", "md_parent_section": "§4.1.7.1 [Example of Splitting Questionnaires]", "md_verbatim": "**Supplemental Qualifiers for QSCG — suppqscg.xpt**", "score": 0.477, "match_basis": "verbatim_token+chapter_route:ch04"}, {"md_atom_id": "md_ch04_a107", "md_file": "knowledge_base/chapters/ch04_general_assumptions.md", "md_atom_type": "SENTENCE", "md_parent_section": "§4.1.7.1 [Example of Splitting Questionnaires]", "md_verbatim": "**Supplemental Qualifiers for QSPI — suppqspi.xpt**", "score": 0.477, "match_basis": "verbatim_token+chapter_route:ch04"}, {"md_atom_id": "md_ch04_a119", "md_file": "knowledge_base/chapters/ch04_general_assumptions.md", "md_atom_type": "SENTENCE", "md_parent_section": "§4.1.7.1 [Example of Splitting Questionnaires]", "md_verbatim": "**Supplemental Qualifiers for QSSW — suppqssw.xpt**", "score": 0.477, "match_basis": "verbatim_token+chapter_route:ch04"}, {"md_atom_id": "md_ch04_a901", "md_file": "knowledge_base/chapters/ch04_general_assumptions.md", "md_atom_type": "SENTENCE", "md_parent_section": "§4.5.3.1 [Test Name (--TEST) Greater than 40 Characters]", "md_verbatim": "This convention should also be applied to the qualifier value label (QLABEL) in Supplemental Qualifiers (SUPP--) datasets.", "score": 0.4756, "match_basis": "verbatim_token+chapter_route:ch04"}], "candidate_count": 5, "zero_candidate": false}
{"pdf_atom_id": "ig34_p0027_a005", "pdf_atom_type": "SENTENCE", "pdf_source": "SDTMIG_v3.4", "pdf_page": 27, "pdf_parent_section": "§4.1.9 [Assigning Natural Keys in the Metadata]", "pdf_verbatim": "Supplemental Qualifier variables should be referenced in the natural key by using a 2-part name.", "figure_ref": null, "candidates": [{"md_atom_id": "md_ch04_a148", "md_file": "knowledge_base/chapters/ch04_general_assumptions.md", "md_atom_type": "SENTENCE", "md_parent_section": "§4.1.9 [Assigning Natural Keys in the Metadata]", "md_verbatim": "Supplemental Qualifier variables should be referenced in the natural key by using a 2-part name.", "score": 0.9, "match_basis": "verbatim_token+chapter_route:ch04"}, {"md_atom_id": "md_ch04_a138", "md_file": "knowledge_base/chapters/ch04_general_assumptions.md", "md_atom_type": "SENTENCE", "md_parent_section": "§4.1.9 [Assigning Natural Keys in the Metadata]", "md_verbatim": "The following example illustrates how to do this, and include a case where a Supplemental Qualifier variable is referenced because it forms part of the natural key.", "score": 0.5733, "match_basis": "verbatim_token+chapter_route:ch04"}, {"md_atom_id": "md_ch04_a145", "md_file": "knowledge_base/chapters/ch04_general_assumptions.md", "md_atom_type": "SENTENCE", "md_parent_section": "§4.1.9 [Assigning Natural Keys in the Metadata]", "md_verbatim": "In certain instances a Supplemental Qualifier variable (i.e., a QNAM value; see Section 8.4, Relating Non-standard Variable Values to a Parent Domain) might also contribute to the natural key of a record, and therefore needs to be referenced as part of the natural key for a domain.", "score": 0.5291, "match_basis": "verbatim_token+chapter_route:ch04"}, {"md_atom_id": "md_ch04_a180", "md_file": "knowledge_base/chapters/ch04_general_assumptions.md", "md_atom_type": "SENTENCE", "md_parent_section": "§4.2.1 [Variable-Naming Conventions]", "md_verbatim": "Variable descriptive names (labels), up to 40 characters, should be provided as data variable labels for all variables, including Supplemental Qualifier variables.", "score": 0.5114, "match_basis": "verbatim_token+chapter_route:ch04"}, {"md_atom_id": "md_ch04_a170", "md_file": "knowledge_base/chapters/ch04_general_assumptions.md", "md_atom_type": "SENTENCE", "md_parent_section": "§4.1.9 [Assigning Natural Keys in the Metadata]", "md_verbatim": "The following variables would be used to fully describe the test. The natural key for this domain includes both parent dataset variables and a supplemental qualifier variable that contribute to the natural key of each row and to describe the uniqueness of the test.", "score": 0.4946, "match_basis": "verbatim_token+chapter_route:ch04"}], "candidate_count": 5, "zero_candidate": false}
{"pdf_atom_id": "ig34_p0027_a006", "pdf_atom_type": "SENTENCE", "pdf_source": "SDTMIG_v3.4", "pdf_page": 27, "pdf_parent_section": "§4.1.9 [Assigning Natural Keys in the Metadata]", "pdf_verbatim": "The word QNAM must be used as the first part of the name to indicate that the contributing variable exists in a domain-specific SUPP--; the second part is the value of QNAM that ultimately becomes a column reference when the SUPPQUAL records are joined on to the main domain dataset (e.g., QNAM.XVAR when the SUPP-- record has a QNAM of \"XVAR\") .", "figure_ref": null, "candidates": [{"md_atom_id": "md_ch04_a149", "md_file": "knowledge_base/chapters/ch04_general_assumptions.md", "md_atom_type": "SENTENCE", "md_parent_section": "§4.1.9 [Assigning Natural Keys in the Metadata]", "md_verbatim": "The word QNAM must be used as the first part of the name to indicate that the contributing variable exists in a domain-specific SUPP--; the second part is the value of QNAM that ultimately becomes a column reference when the SUPPQUAL records are joined on to the main domain dataset (e.g., QNAM.XVAR when the SUPP-- record has a QNAM of \"XVAR\").", "score": 0.9, "match_basis": "verbatim_token+chapter_route:ch04"}, {"md_atom_id": "md_ch04_a145", "md_file": "knowledge_base/chapters/ch04_general_assumptions.md", "md_atom_type": "SENTENCE", "md_parent_section": "§4.1.9 [Assigning Natural Keys in the Metadata]", "md_verbatim": "In certain instances a Supplemental Qualifier variable (i.e., a QNAM value; see Section 8.4, Relating Non-standard Variable Values to a Parent Domain) might also contribute to the natural key of a record, and therefore needs to be referenced as part of the natural key for a domain.", "score": 0.4677, "match_basis": "verbatim_token+chapter_route:ch04"}, {"md_atom_id": "md_ch04_a362", "md_file": "knowledge_base/chapters/ch04_general_assumptions.md", "md_atom_type": "SENTENCE", "md_parent_section": "§4.2.8.3 [Multiple Values for a Non-result Qualifier Variable]", "md_verbatim": "It is recommended that the SUPP-- QNAM value reference the corresponding standard domain variable with an appended number or letter.", "score": 0.45, "match_basis": "verbatim_token+chapter_route:ch04"}, {"md_atom_id": "md_ch04_a434", "md_file": "knowledge_base/chapters/ch04_general_assumptions.md", "md_atom_type": "SENTENCE", "md_parent_section": "§4.3.3 [Controlled Terminology Values]", "md_verbatim": "When a domain or dataset specification includes a codelist for a variable, not every value in that codelist may have been part of planned data collection; only values that were part of planned data collection should be included in the Define-XML document.", "score": 0.4462, "match_basis": "verbatim_token+chapter_route:ch04"}, {"md_atom_id": "md_ch04_a955", "md_file": "knowledge_base/chapters/ch04_general_assumptions.md", "md_atom_type": "SENTENCE", "md_parent_section": "§4.5.4 [Evaluators in the Interventions and Events Observation Classes]", "md_verbatim": "For observations that have primary and secondary evaluations of specific qualifier variables, sponsors should put data from the primary evaluation into the standard domain dataset and data from the secondary evaluation into the Supplemental Qualifier datasets (SUPP--).", "score": 0.4329, "match_basis": "verbatim_token+chapter_route:ch04"}], "candidate_count": 5, "zero_candidate": false}
{"pdf_atom_id": "ig34_p0027_a007", "pdf_atom_type": "SENTENCE", "pdf_source": "SDTMIG_v3.4", "pdf_page": 27, "pdf_parent_section": "§4.1.9 [Assigning Natural Keys in the Metadata]", "pdf_verbatim": "In this example, sponsor B might have collected data that used different imaging methods, using imaging devices with different makes and models, and using different hand positions.", "figure_ref": null, "candidates": [{"md_atom_id": "md_ch04_a150", "md_file": "knowledge_base/chapters/ch04_general_assumptions.md", "md_atom_type": "SENTENCE", "md_parent_section": "§4.1.9 [Assigning Natural Keys in the Metadata]", "md_verbatim": "In this example, sponsor B might have collected data that used different imaging methods, using imaging devices with different makes and models, and using different hand positions.", "score": 0.9, "match_basis": "verbatim_token+chapter_route:ch04"}, {"md_atom_id": "md_ch04_a636", "md_file": "knowledge_base/chapters/ch04_general_assumptions.md", "md_atom_type": "SENTENCE", "md_parent_section": "§4.4.7 [Use of Relative Timing Variables]", "md_verbatim": "Note that in this example, the information collected is with respect to the start of the concomitant medication use only, and therefore the collected data corresponds to variable CMSTRF, not CMENRF.", "score": 0.4276, "match_basis": "verbatim_token+chapter_route:ch04"}, {"md_atom_id": "md_ch04_a983", "md_file": "knowledge_base/chapters/ch04_general_assumptions.md", "md_atom_type": "SENTENCE", "md_parent_section": "§4.5.6 [Supplemental Reason Variables]", "md_verbatim": "For example, if the sponsor collected the reason for admission to a nursing home was for rehabilitation, a SUPPHO record might be populated as follows.", "score": 0.4231, "match_basis": "verbatim_token+chapter_route:ch04"}, {"md_atom_id": "md_ch04_a046", "md_file": "knowledge_base/chapters/ch04_general_assumptions.md", "md_atom_type": "SENTENCE", "md_parent_section": "§4.1.6 [Additional Guidance on Dataset Naming]", "md_verbatim": "To eliminate any risk of a sponsor using a name that CDISC later determines to have a different meaning, domain codes beginning with the letters X, Y, and Z have been reserved for the creation of custom domains.", "score": 0.4191, "match_basis": "verbatim_token+chapter_route:ch04"}, {"md_atom_id": "md_ch04_a142", "md_file": "knowledge_base/chapters/ch04_general_assumptions.md", "md_atom_type": "SENTENCE", "md_parent_section": "§4.1.9 [Assigning Natural Keys in the Metadata]", "md_verbatim": "Sponsor B collects data in such a way that the location (MKLOC and MKLAT) and method (MKMETHOD) variables need to be included in the natural key to identify a unique row.", "score": 0.4128, "match_basis": "verbatim_token+chapter_route:ch04"}], "candidate_count": 5, "zero_candidate": false}
{"pdf_atom_id": "ig34_p0027_a008", "pdf_atom_type": "SENTENCE", "pdf_source": "SDTMIG_v3.4", "pdf_page": 27, "pdf_parent_section": "§4.1.9 [Assigning Natural Keys in the Metadata]", "pdf_verbatim": "The sponsor considers the make and model information and hand position to be essential data that contributes to the uniqueness of the test result, and so includes a device identifier (SPDEVID) in the data and creates a Supplemental Qualifier variable for hand position (QNAM = \"MKHNDPOS\").", "figure_ref": null, "candidates": [{"md_atom_id": "md_ch04_a151", "md_file": "knowledge_base/chapters/ch04_general_assumptions.md", "md_atom_type": "SENTENCE", "md_parent_section": "§4.1.9 [Assigning Natural Keys in the Metadata]", "md_verbatim": "The sponsor considers the make and model information and hand position to be essential data that contributes to the uniqueness of the test result, and so includes a device identifier (SPDEVID) in the data and creates a Supplemental Qualifier variable for hand position (QNAM = \"MKHNDPOS\").", "score": 0.9, "match_basis": "verbatim_token+chapter_route:ch04"}, {"md_atom_id": "md_ch04_a170", "md_file": "knowledge_base/chapters/ch04_general_assumptions.md", "md_atom_type": "SENTENCE", "md_parent_section": "§4.1.9 [Assigning Natural Keys in the Metadata]", "md_verbatim": "The following variables would be used to fully describe the test. The natural key for this domain includes both parent dataset variables and a supplemental qualifier variable that contribute to the natural key of each row and to describe the uniqueness of the test.", "score": 0.5104, "match_basis": "verbatim_token+chapter_route:ch04"}, {"md_atom_id": "md_ch04_a169", "md_file": "knowledge_base/chapters/ch04_general_assumptions.md", "md_atom_type": "SENTENCE", "md_parent_section": "§4.1.9 [Assigning Natural Keys in the Metadata]", "md_verbatim": "The MKTESTCD value \"SGBESCR\" is a generic test code, and additional information about the test is provided by separate qualifier variables. The variables that completely specify a test may include domain variables and supplemental qualifier variables. Expressing the natural key becomes very important in this situation in order to communicate the variables that contribute to the uniqueness of a test.", "score": 0.5, "match_basis": "verbatim_token+chapter_route:ch04"}, {"md_atom_id": "md_ch04_a955", "md_file": "knowledge_base/chapters/ch04_general_assumptions.md", "md_atom_type": "SENTENCE", "md_parent_section": "§4.5.4 [Evaluators in the Interventions and Events Observation Classes]", "md_verbatim": "For observations that have primary and secondary evaluations of specific qualifier variables, sponsors should put data from the primary evaluation into the standard domain dataset and data from the secondary evaluation into the Supplemental Qualifier datasets (SUPP--).", "score": 0.4453, "match_basis": "verbatim_token+chapter_route:ch04"}, {"md_atom_id": "md_ch04_a180", "md_file": "knowledge_base/chapters/ch04_general_assumptions.md", "md_atom_type": "SENTENCE", "md_parent_section": "§4.2.1 [Variable-Naming Conventions]", "md_verbatim": "Variable descriptive names (labels), up to 40 characters, should be provided as data variable labels for all variables, including Supplemental Qualifier variables.", "score": 0.4448, "match_basis": "verbatim_token+chapter_route:ch04"}], "candidate_count": 5, "zero_candidate": false}
{"pdf_atom_id": "ig34_p0027_a009", "pdf_atom_type": "SENTENCE", "pdf_source": "SDTMIG_v3.4", "pdf_page": 27, "pdf_parent_section": "§4.1.9 [Assigning Natural Keys in the Metadata]", "pdf_verbatim": "The natural key is then defined as follows:", "figure_ref": null, "candidates": [{"md_atom_id": "md_ch04_a152", "md_file": "knowledge_base/chapters/ch04_general_assumptions.md", "md_atom_type": "SENTENCE", "md_parent_section": "§4.1.9 [Assigning Natural Keys in the Metadata]", "md_verbatim": "The natural key is then defined as follows:", "score": 0.9, "match_basis": "verbatim_token+chapter_route:ch04"}, {"md_atom_id": "md_ch04_a143", "md_file": "knowledge_base/chapters/ch04_general_assumptions.md", "md_atom_type": "SENTENCE", "md_parent_section": "§4.1.9 [Assigning Natural Keys in the Metadata]", "md_verbatim": "Sponsor B then defines the following natural key for the MK domain:", "score": 0.6, "match_basis": "verbatim_token+chapter_route:ch04"}, {"md_atom_id": "md_ch04_a140", "md_file": "knowledge_base/chapters/ch04_general_assumptions.md", "md_atom_type": "SENTENCE", "md_parent_section": "§4.1.9 [Assigning Natural Keys in the Metadata]", "md_verbatim": "Sponsor A chooses the following natural key for the MK domain:", "score": 0.4833, "match_basis": "verbatim_token+chapter_route:ch04"}, {"md_atom_id": "md_ch04_a502", "md_file": "knowledge_base/chapters/ch04_general_assumptions.md", "md_atom_type": "SENTENCE", "md_parent_section": "§4.4.1 [Formats for Date/Time Variables]", "md_verbatim": "Key aspects of the ISO 8601 standard are as follows:", "score": 0.4273, "match_basis": "verbatim_token+chapter_route:ch04"}, {"md_atom_id": "md_ch04_a559", "md_file": "knowledge_base/chapters/ch04_general_assumptions.md", "md_atom_type": "SENTENCE", "md_parent_section": "§4.4.3.1 [Intervals of Time and Use of Duration]", "md_verbatim": "where the letter designation is defined as:", "score": 0.4273, "match_basis": "verbatim_token+chapter_route:ch04"}], "candidate_count": 5, "zero_candidate": false}
{"pdf_atom_id": "ig34_p0027_a010", "pdf_atom_type": "CODE_LITERAL", "pdf_source": "SDTMIG_v3.4", "pdf_page": 27, "pdf_parent_section": "§4.1.9 [Assigning Natural Keys in the Metadata]", "pdf_verbatim": "STUDYID, USUBJID, SPDEVID, VISITNUM, MKTESTCD, MKLOC, MKLAT, MKMETHOD, QNAM.MKHNDPOS", "figure_ref": null, "candidates": [{"md_atom_id": "md_ch04_a153", "md_file": "knowledge_base/chapters/ch04_general_assumptions.md", "md_atom_type": "CODE_LITERAL", "md_parent_section": "§4.1.9 [Assigning Natural Keys in the Metadata]", "md_verbatim": "    STUDYID, USUBJID, SPDEVID, VISITNUM, MKTESTCD, MKLOC, MKLAT, MKMETHOD,\n    QNAM.MKHNDPOS", "score": 0.69, "match_basis": "verbatim_token+chapter_route:ch04"}, {"md_atom_id": "md_ch04_a144", "md_file": "knowledge_base/chapters/ch04_general_assumptions.md", "md_atom_type": "CODE_LITERAL", "md_parent_section": "§4.1.9 [Assigning Natural Keys in the Metadata]", "md_verbatim": "STUDYID, USUBJID, VISITNUM, MKTESTCD, MKLOC, MKLAT, MKMETHOD", "score": 0.5204, "match_basis": "verbatim_token+chapter_route:ch04"}, {"md_atom_id": "md_ch04_a141", "md_file": "knowledge_base/chapters/ch04_general_assumptions.md", "md_atom_type": "CODE_LITERAL", "md_parent_section": "§4.1.9 [Assigning Natural Keys in the Metadata]", "md_verbatim": "STUDYID, USUBJID, VISITNUM, MKTESTCD", "score": 0.377, "match_basis": "verbatim_token+chapter_route:ch04"}, {"md_atom_id": "md_ch04_a083", "md_file": "knowledge_base/chapters/ch04_general_assumptions.md", "md_atom_type": "TABLE_HEADER", "md_parent_section": "§4.1.7.1 [Example of Splitting Questionnaires]", "md_verbatim": "| Row | STUDYID | DOMAIN | USUBJID | QSSEQ | QSTESTCD | QSTEST | QSCAT | QSSCAT | QSORRES | QSORRESU | QSSTRESC | QSSTRESN | QSSTRESU | QSLOC | QSMETHOD | QSLOBXFL | VISITNUM | QSDTC | QSDY | QSEVLINT |", "score": 0.2585, "match_basis": "verbatim_token+chapter_route:ch04"}, {"md_atom_id": "md_ch04_a091", "md_file": "knowledge_base/chapters/ch04_general_assumptions.md", "md_atom_type": "TABLE_HEADER", "md_parent_section": "§4.1.7.1 [Example of Splitting Questionnaires]", "md_verbatim": "| Row | STUDYID | DOMAIN | USUBJID | QSSEQ | QSTESTCD | QSTEST | QSCAT | QSORRES | QSSTRESC | QSSTRESN | QSLOBXFL | VISITNUM | QSDTC | QSDY |", "score": 0.2419, "match_basis": "verbatim_token+chapter_route:ch04"}], "candidate_count": 5, "zero_candidate": false}
{"pdf_atom_id": "ig34_p0027_a011", "pdf_atom_type": "SENTENCE", "pdf_source": "SDTMIG_v3.4", "pdf_page": 27, "pdf_parent_section": "§4.1.9 [Assigning Natural Keys in the Metadata]", "pdf_verbatim": "where the notation \"QNAM.MKHNDPOS\" means the Supplemental Qualifier whose QNAM is \"MKHNDPOS\".", "figure_ref": null, "candidates": [{"md_atom_id": "md_ch04_a154", "md_file": "knowledge_base/chapters/ch04_general_assumptions.md", "md_atom_type": "SENTENCE", "md_parent_section": "§4.1.9 [Assigning Natural Keys in the Metadata]", "md_verbatim": "where the notation \"QNAM.MKHNDPOS\" means the Supplemental Qualifier whose QNAM is \"MKHNDPOS\".", "score": 0.9, "match_basis": "verbatim_token+chapter_route:ch04"}, {"md_atom_id": "md_ch04_a103", "md_file": "knowledge_base/chapters/ch04_general_assumptions.md", "md_atom_type": "SENTENCE", "md_parent_section": "§4.1.7.1 [Example of Splitting Questionnaires]", "md_verbatim": "**Supplemental Qualifiers for QSCG — suppqscg.xpt**", "score": 0.5125, "match_basis": "verbatim_token+chapter_route:ch04"}, {"md_atom_id": "md_ch04_a107", "md_file": "knowledge_base/chapters/ch04_general_assumptions.md", "md_atom_type": "SENTENCE", "md_parent_section": "§4.1.7.1 [Example of Splitting Questionnaires]", "md_verbatim": "**Supplemental Qualifiers for QSPI — suppqspi.xpt**", "score": 0.5125, "match_basis": "verbatim_token+chapter_route:ch04"}, {"md_atom_id": "md_ch04_a119", "md_file": "knowledge_base/chapters/ch04_general_assumptions.md", "md_atom_type": "SENTENCE", "md_parent_section": "§4.1.7.1 [Example of Splitting Questionnaires]", "md_verbatim": "**Supplemental Qualifiers for QSSW — suppqssw.xpt**", "score": 0.5125, "match_basis": "verbatim_token+chapter_route:ch04"}, {"md_atom_id": "md_ch04_a962", "md_file": "knowledge_base/chapters/ch04_general_assumptions.md", "md_atom_type": "SENTENCE", "md_parent_section": "§4.5.4 [Evaluators in the Interventions and Events Observation Classes]", "md_verbatim": "Note that the QNAM for the \"Relationship to Non-study Treatment\" supplemental qualifier is AERELNS1, rather than AERELNST1, because AERELNST is already 8 characters in length.", "score": 0.4714, "match_basis": "verbatim_token+chapter_route:ch04"}], "candidate_count": 5, "zero_candidate": false}
{"pdf_atom_id": "ig34_p0027_a012", "pdf_atom_type": "SENTENCE", "pdf_source": "SDTMIG_v3.4", "pdf_page": 27, "pdf_parent_section": "§4.1.9 [Assigning Natural Keys in the Metadata]", "pdf_verbatim": "This approach becomes very useful in a Findings domain when --TESTCD values are \"generic\" and rely on other variables to completely describe the test.", "figure_ref": null, "candidates": [{"md_atom_id": "md_ch04_a155", "md_file": "knowledge_base/chapters/ch04_general_assumptions.md", "md_atom_type": "SENTENCE", "md_parent_section": "§4.1.9 [Assigning Natural Keys in the Metadata]", "md_verbatim": "This approach becomes very useful in a Findings domain when --TESTCD values are \"generic\" and rely on other variables to completely describe the test.", "score": 0.9, "match_basis": "verbatim_token+chapter_route:ch04"}, {"md_atom_id": "md_ch04_a169", "md_file": "knowledge_base/chapters/ch04_general_assumptions.md", "md_atom_type": "SENTENCE", "md_parent_section": "§4.1.9 [Assigning Natural Keys in the Metadata]", "md_verbatim": "The MKTESTCD value \"SGBESCR\" is a generic test code, and additional information about the test is provided by separate qualifier variables. The variables that completely specify a test may include domain variables and supplemental qualifier variables. Expressing the natural key becomes very important in this situation in order to communicate the variables that contribute to the uniqueness of a test.", "score": 0.4525, "match_basis": "verbatim_token+chapter_route:ch04"}, {"md_atom_id": "md_ch04_a832", "md_file": "knowledge_base/chapters/ch04_general_assumptions.md", "md_atom_type": "SENTENCE", "md_parent_section": "§4.5.1.3 [Examples of Original and Standard Units and Test Not Done]", "md_verbatim": "The following examples illustrate the use of Findings results variables and are not meant as comprehensive domain examples.", "score": 0.45, "match_basis": "verbatim_token+chapter_route:ch04"}, {"md_atom_id": "md_ch04_a177", "md_file": "knowledge_base/chapters/ch04_general_assumptions.md", "md_atom_type": "SENTENCE", "md_parent_section": "§4.2.1 [Variable-Naming Conventions]", "md_verbatim": "Values of other \"CD\" variables are **not** subject to the same restrictions as --TESTCD:", "score": 0.4395, "match_basis": "verbatim_token+chapter_route:ch04"}, {"md_atom_id": "md_ch04_a170", "md_file": "knowledge_base/chapters/ch04_general_assumptions.md", "md_atom_type": "SENTENCE", "md_parent_section": "§4.1.9 [Assigning Natural Keys in the Metadata]", "md_verbatim": "The following variables would be used to fully describe the test. The natural key for this domain includes both parent dataset variables and a supplemental qualifier variable that contribute to the natural key of each row and to describe the uniqueness of the test.", "score": 0.4368, "match_basis": "verbatim_token+chapter_route:ch04"}], "candidate_count": 5, "zero_candidate": false}
{"pdf_atom_id": "ig34_p0027_a013", "pdf_atom_type": "SENTENCE", "pdf_source": "SDTMIG_v3.4", "pdf_page": 27, "pdf_parent_section": "§4.1.9 [Assigning Natural Keys in the Metadata]", "pdf_verbatim": "The use of generic test codes helps to create distinct lists of manageable controlled terminology for --TESTCD.", "figure_ref": null, "candidates": [{"md_atom_id": "md_ch04_a156", "md_file": "knowledge_base/chapters/ch04_general_assumptions.md", "md_atom_type": "SENTENCE", "md_parent_section": "§4.1.9 [Assigning Natural Keys in the Metadata]", "md_verbatim": "The use of generic test codes helps to create distinct lists of manageable controlled terminology for --TESTCD.", "score": 0.9, "match_basis": "verbatim_token+chapter_route:ch04"}, {"md_atom_id": "md_ch04_a995", "md_file": "knowledge_base/chapters/ch04_general_assumptions.md", "md_atom_type": "SENTENCE", "md_parent_section": "§4.5.7 [Presence or Absence of Prespecified Interventions and Events]", "md_verbatim": "It has controlled terminology of \"Y\" and \"N\" (for \"Yes\" and \"No\").", "score": 0.4862, "match_basis": "verbatim_token+chapter_route:ch04"}, {"md_atom_id": "md_ch04_a991", "md_file": "knowledge_base/chapters/ch04_general_assumptions.md", "md_atom_type": "SENTENCE", "md_parent_section": "§4.5.7 [Presence or Absence of Prespecified Interventions and Events]", "md_verbatim": "It has controlled terminology of \"Y\" (for \"Yes\") or a null value.", "score": 0.4742, "match_basis": "verbatim_token+chapter_route:ch04"}, {"md_atom_id": "md_ch04_a168", "md_file": "knowledge_base/chapters/ch04_general_assumptions.md", "md_atom_type": "SENTENCE", "md_parent_section": "§4.1.9 [Assigning Natural Keys in the Metadata]", "md_verbatim": "As a result, the preferred approach would be to use a generic (or simple) test code that requires associated qualifier variables to fully express the test detail. This approach was used in creating the CDISC Controlled Terminology used in this example:", "score": 0.4714, "match_basis": "verbatim_token+chapter_route:ch04"}, {"md_atom_id": "md_ch04_a456", "md_file": "knowledge_base/chapters/ch04_general_assumptions.md", "md_atom_type": "SENTENCE", "md_parent_section": "§4.3.6 [Storing Topic Variables for General Domain Models]", "md_verbatim": "For a Findings domain, the topic variable --TESTCD should use controlled terminology (e.g., \"SYSBP\" for systolic blood pressure).", "score": 0.4677, "match_basis": "verbatim_token+chapter_route:ch04"}], "candidate_count": 5, "zero_candidate": false}
{"pdf_atom_id": "ig34_p0027_a014", "pdf_atom_type": "SENTENCE", "pdf_source": "SDTMIG_v3.4", "pdf_page": 27, "pdf_parent_section": "§4.1.9 [Assigning Natural Keys in the Metadata]", "pdf_verbatim": "In studies where multiple repetitive tests or measurements are being made, for example in a rheumatoid arthritis study where repetitive measurements of bone erosion in the hands and wrists might be made using both X-ray and MRI equipment, the generic MKTEST \"Sharp/Genant Bone Erosion Score\" would be used in combination with other variables to fully identify the result.", "figure_ref": null, "candidates": [{"md_atom_id": "md_ch04_a157", "md_file": "knowledge_base/chapters/ch04_general_assumptions.md", "md_atom_type": "SENTENCE", "md_parent_section": "§4.1.9 [Assigning Natural Keys in the Metadata]", "md_verbatim": "In studies where multiple repetitive tests or measurements are being made, for example in a rheumatoid arthritis study where repetitive measurements of bone erosion in the hands and wrists might be made using both X-ray and MRI equipment, the generic MKTEST \"Sharp/Genari Bone Erosion Score\" would be used in combination with other variables to fully identify the result.", "score": 0.8871, "match_basis": "verbatim_token+chapter_route:ch04"}, {"md_atom_id": "md_ch04_a253", "md_file": "knowledge_base/chapters/ch04_general_assumptions.md", "md_atom_type": "SENTENCE", "md_parent_section": "§4.2.6 [Grouping Variables and Categorization]", "md_verbatim": "For example, a concomitant medication administered as part of a known combination therapy for all subjects (e.g., \"Mayo Clinic Regimen\") would more appropriately use --CAT/--SCAT to identify the medication as part of that regimen.", "score": 0.4046, "match_basis": "verbatim_token+chapter_route:ch04"}, {"md_atom_id": "md_ch04_a168", "md_file": "knowledge_base/chapters/ch04_general_assumptions.md", "md_atom_type": "SENTENCE", "md_parent_section": "§4.1.9 [Assigning Natural Keys in the Metadata]", "md_verbatim": "As a result, the preferred approach would be to use a generic (or simple) test code that requires associated qualifier variables to fully express the test detail. This approach was used in creating the CDISC Controlled Terminology used in this example:", "score": 0.4033, "match_basis": "verbatim_token+chapter_route:ch04"}, {"md_atom_id": "md_ch04_a636", "md_file": "knowledge_base/chapters/ch04_general_assumptions.md", "md_atom_type": "SENTENCE", "md_parent_section": "§4.4.7 [Use of Relative Timing Variables]", "md_verbatim": "Note that in this example, the information collected is with respect to the start of the concomitant medication use only, and therefore the collected data corresponds to variable CMSTRF, not CMENRF.", "score": 0.3979, "match_basis": "verbatim_token+chapter_route:ch04"}, {"md_atom_id": "md_ch04_a640", "md_file": "knowledge_base/chapters/ch04_general_assumptions.md", "md_atom_type": "SENTENCE", "md_parent_section": "§4.4.7 [Use of Relative Timing Variables]", "md_verbatim": "Although --STRF and --ENRF are useful when relative timing assessments are made coincident with the start and end of the study reference period, they may not be suitable for expressing relative timing assessments collected at other times of the study.", "score": 0.396, "match_basis": "verbatim_token+chapter_route:ch04"}], "candidate_count": 5, "zero_candidate": false}
{"pdf_atom_id": "ig34_p0027_a015", "pdf_atom_type": "SENTENCE", "pdf_source": "SDTMIG_v3.4", "pdf_page": 27, "pdf_parent_section": "§4.1.9 [Assigning Natural Keys in the Metadata]", "pdf_verbatim": "Taking just the phalanges, a sponsor might want to express the following in a test in order to make it unique:", "figure_ref": null, "candidates": [{"md_atom_id": "md_ch04_a158", "md_file": "knowledge_base/chapters/ch04_general_assumptions.md", "md_atom_type": "SENTENCE", "md_parent_section": "§4.1.9 [Assigning Natural Keys in the Metadata]", "md_verbatim": "Taking just the phalanges, a sponsor might want to express the following in a test in order to make it unique:", "score": 0.9, "match_basis": "verbatim_token+chapter_route:ch04"}, {"md_atom_id": "md_ch04_a140", "md_file": "knowledge_base/chapters/ch04_general_assumptions.md", "md_atom_type": "SENTENCE", "md_parent_section": "§4.1.9 [Assigning Natural Keys in the Metadata]", "md_verbatim": "Sponsor A chooses the following natural key for the MK domain:", "score": 0.4258, "match_basis": "verbatim_token+chapter_route:ch04"}, {"md_atom_id": "md_ch04_a143", "md_file": "knowledge_base/chapters/ch04_general_assumptions.md", "md_atom_type": "SENTENCE", "md_parent_section": "§4.1.9 [Assigning Natural Keys in the Metadata]", "md_verbatim": "Sponsor B then defines the following natural key for the MK domain:", "score": 0.4238, "match_basis": "verbatim_token+chapter_route:ch04"}, {"md_atom_id": "md_ch04_a697", "md_file": "knowledge_base/chapters/ch04_general_assumptions.md", "md_atom_type": "SENTENCE", "md_parent_section": "§4.4.9 [Use of Dates as Result Variables]", "md_verbatim": "Consider the following cases:", "score": 0.4132, "match_basis": "verbatim_token+chapter_route:ch04"}, {"md_atom_id": "md_ch04_a577", "md_file": "knowledge_base/chapters/ch04_general_assumptions.md", "md_atom_type": "SENTENCE", "md_parent_section": "§4.4.3.1 [Intervals of Time and Use of Duration]", "md_verbatim": "This is ONLY allowed in the lowest-order (right-most) component in any ISO 8601 duration representation.", "score": 0.3911, "match_basis": "verbatim_token+chapter_route:ch04"}], "candidate_count": 5, "zero_candidate": false}
{"pdf_atom_id": "ig34_p0027_a016", "pdf_atom_type": "LIST_ITEM", "pdf_source": "SDTMIG_v3.4", "pdf_page": 27, "pdf_parent_section": "§4.1.9 [Assigning Natural Keys in the Metadata]", "pdf_verbatim": "Left or right hand", "figure_ref": null, "candidates": [{"md_atom_id": "md_ch04_a159", "md_file": "knowledge_base/chapters/ch04_general_assumptions.md", "md_atom_type": "LIST_ITEM", "md_parent_section": "§4.1.9 [Assigning Natural Keys in the Metadata]", "md_verbatim": "- Left or right hand", "score": 0.9, "match_basis": "verbatim_token+chapter_route:ch04"}, {"md_atom_id": "md_ch04_a161", "md_file": "knowledge_base/chapters/ch04_general_assumptions.md", "md_atom_type": "LIST_ITEM", "md_parent_section": "§4.1.9 [Assigning Natural Keys in the Metadata]", "md_verbatim": "- Rotation of the hand", "score": 0.3857, "match_basis": "verbatim_token+chapter_route:ch04"}, {"md_atom_id": "md_ch04_a822", "md_file": "knowledge_base/chapters/ch04_general_assumptions.md", "md_atom_type": "LIST_ITEM", "md_parent_section": "§4.5.1 [Original and Standardized Results]", "md_verbatim": "- --ORRESU / --STRESU: original and standard units", "score": 0.3462, "match_basis": "verbatim_token+chapter_route:ch04"}, {"md_atom_id": "md_ch04_a415", "md_file": "knowledge_base/chapters/ch04_general_assumptions.md", "md_atom_type": "LIST_ITEM", "md_parent_section": "§4.2.9 [Variable Lengths]", "md_verbatim": "    - --TESTCD and IDVAR will never be more than 8, so the length can always be set to 8.", "score": 0.3364, "match_basis": "verbatim_token+chapter_route:ch04"}, {"md_atom_id": "md_ch04_a163", "md_file": "knowledge_base/chapters/ch04_general_assumptions.md", "md_atom_type": "LIST_ITEM", "md_parent_section": "§4.1.9 [Assigning Natural Keys in the Metadata]", "md_verbatim": "- Machine make and model", "score": 0.3353, "match_basis": "verbatim_token+chapter_route:ch04"}], "candidate_count": 5, "zero_candidate": false}
{"pdf_atom_id": "ig34_p0027_a017", "pdf_atom_type": "LIST_ITEM", "pdf_source": "SDTMIG_v3.4", "pdf_page": 27, "pdf_parent_section": "§4.1.9 [Assigning Natural Keys in the Metadata]", "pdf_verbatim": "Phalangeal joint position (which finger, which joint)", "figure_ref": null, "candidates": [{"md_atom_id": "md_ch04_a160", "md_file": "knowledge_base/chapters/ch04_general_assumptions.md", "md_atom_type": "LIST_ITEM", "md_parent_section": "§4.1.9 [Assigning Natural Keys in the Metadata]", "md_verbatim": "- Phalangeal joint position (which finger, which joint)", "score": 0.9, "match_basis": "verbatim_token+chapter_route:ch04"}, {"md_atom_id": "md_ch04_a561", "md_file": "knowledge_base/chapters/ch04_general_assumptions.md", "md_atom_type": "LIST_ITEM", "md_parent_section": "§4.4.3.1 [Intervals of Time and Use of Duration]", "md_verbatim": "- [n] represents a positive number or zero.", "score": 0.3615, "match_basis": "verbatim_token+chapter_route:ch04"}, {"md_atom_id": "md_ch04_a685", "md_file": "knowledge_base/chapters/ch04_general_assumptions.md", "md_atom_type": "LIST_ITEM", "md_parent_section": "§4.4.8 [Date and Time Reported in a Domain Based on Findings]", "md_verbatim": "- For **single-point blood collections or spot urine collections**: use **LBDTC** for the date/time of collection", "score": 0.3577, "match_basis": "verbatim_token+chapter_route:ch04"}, {"md_atom_id": "md_ch04_a618", "md_file": "knowledge_base/chapters/ch04_general_assumptions.md", "md_atom_type": "LIST_ITEM", "md_parent_section": "§4.4.5 [Clinical Encounters and Visits]", "md_verbatim": "- VISITDY must **not** be populated for unplanned visits; VISITDY is, by definition, the planned study day of visit. The actual study day of an unplanned visit belongs in a --DY variable.", "score": 0.3522, "match_basis": "verbatim_token+chapter_route:ch04"}, {"md_atom_id": "md_ch04_a1024", "md_file": "knowledge_base/chapters/ch04_general_assumptions.md", "md_atom_type": "LIST_ITEM", "md_parent_section": "§4.5.8 [Accounting for Long-term Follow-up]", "md_verbatim": "3. The disposition of the subject at the time of the final follow-up contact should be stored in DS. Note that overall study conclusion is the point where any contact with the subject ceases, which in this example is also the conclusion of long-term follow-up. The disposition of the subject at the conclusion of the 2-month clinical treatment phase would be stored in DS as the conclusion to that epoch. Long-term follow-up would be represented as a separate epoch. Therefore, in this example the subject could have 3 disposition records in DS, with both the follow-up epoch disposition and the overall study conclusion disposition being collected at the final telephone contact. See Section 6.2.4, Disposition, for detailed assumptions and examples.", "score": 0.3486, "match_basis": "verbatim_token+chapter_route:ch04"}], "candidate_count": 5, "zero_candidate": false}
{"pdf_atom_id": "ig34_p0027_a018", "pdf_atom_type": "LIST_ITEM", "pdf_source": "SDTMIG_v3.4", "pdf_page": 27, "pdf_parent_section": "§4.1.9 [Assigning Natural Keys in the Metadata]", "pdf_verbatim": "Rotation of the hand", "figure_ref": null, "candidates": [{"md_atom_id": "md_ch04_a161", "md_file": "knowledge_base/chapters/ch04_general_assumptions.md", "md_atom_type": "LIST_ITEM", "md_parent_section": "§4.1.9 [Assigning Natural Keys in the Metadata]", "md_verbatim": "- Rotation of the hand", "score": 0.9, "match_basis": "verbatim_token+chapter_route:ch04"}, {"md_atom_id": "md_ch04_a504", "md_file": "knowledge_base/chapters/ch04_general_assumptions.md", "md_atom_type": "LIST_ITEM", "md_parent_section": "§4.4.1 [Formats for Date/Time Variables]", "md_verbatim": "- ISO 8601 represents times as a text string using the notation hh:mm:ss(.n+)?(((+|-)hh:mm)|Z)?.", "score": 0.4125, "match_basis": "verbatim_token+chapter_route:ch04"}, {"md_atom_id": "md_ch04_a503", "md_file": "knowledge_base/chapters/ch04_general_assumptions.md", "md_atom_type": "LIST_ITEM", "md_parent_section": "§4.4.1 [Formats for Date/Time Variables]", "md_verbatim": "- ISO 8601 represents dates as a text string using the notation YYYY-MM-DD.", "score": 0.4091, "match_basis": "verbatim_token+chapter_route:ch04"}, {"md_atom_id": "md_ch04_a487", "md_file": "knowledge_base/chapters/ch04_general_assumptions.md", "md_atom_type": "LIST_ITEM", "md_parent_section": "§4.4.1 [Formats for Date/Time Variables]", "md_verbatim": "- [MM] = two-digit representation of the month (01-12, 01=January, etc.)", "score": 0.4, "match_basis": "verbatim_token+chapter_route:ch04"}, {"md_atom_id": "md_ch04_a614", "md_file": "knowledge_base/chapters/ch04_general_assumptions.md", "md_atom_type": "LIST_ITEM", "md_parent_section": "§4.4.5 [Clinical Encounters and Visits]", "md_verbatim": "- There must be a **one-to-one relationship** between VISIT and VISITNUM", "score": 0.3937, "match_basis": "verbatim_token+chapter_route:ch04"}], "candidate_count": 5, "zero_candidate": false}
{"pdf_atom_id": "ig34_p0027_a019", "pdf_atom_type": "LIST_ITEM", "pdf_source": "SDTMIG_v3.4", "pdf_page": 27, "pdf_parent_section": "§4.1.9 [Assigning Natural Keys in the Metadata]", "pdf_verbatim": "Method of measurement (x-ray or MRI)", "figure_ref": null, "candidates": [{"md_atom_id": "md_ch04_a162", "md_file": "knowledge_base/chapters/ch04_general_assumptions.md", "md_atom_type": "LIST_ITEM", "md_parent_section": "§4.1.9 [Assigning Natural Keys in the Metadata]", "md_verbatim": "- Method of measurement (x-ray or MRI)", "score": 0.9, "match_basis": "verbatim_token+chapter_route:ch04"}, {"md_atom_id": "md_ch04_a880", "md_file": "knowledge_base/chapters/ch04_general_assumptions.md", "md_atom_type": "LIST_ITEM", "md_parent_section": "§4.5.1.3 [Examples of Original and Standard Units and Test Not Done]", "md_verbatim": "- **Rows 4-5:** Two measurements for VSTESTCD = \"SYSBP\" were done at visit 1.", "score": 0.45, "match_basis": "verbatim_token+chapter_route:ch04"}, {"md_atom_id": "md_ch04_a881", "md_file": "knowledge_base/chapters/ch04_general_assumptions.md", "md_atom_type": "LIST_ITEM", "md_parent_section": "§4.5.1.3 [Examples of Original and Standard Units and Test Not Done]", "md_verbatim": "- **Row 6:** A third measurement for VSTESTCD = \"SYSBP\" at visit 1 was a derived record, as indicated by VSDRVFL = \"Y\".", "score": 0.4, "match_basis": "verbatim_token+chapter_route:ch04"}, {"md_atom_id": "md_ch04_a167", "md_file": "knowledge_base/chapters/ch04_general_assumptions.md", "md_atom_type": "LIST_ITEM", "md_parent_section": "§4.1.9 [Assigning Natural Keys in the Metadata]", "md_verbatim": "- Multiple test codes are essentially representing the same test or measurement simply to accommodate attributes of a test within the --TESTCD value itself (e.g., to represent a body location at which a measurement was taken).", "score": 0.3581, "match_basis": "verbatim_token+chapter_route:ch04"}, {"md_atom_id": "md_ch04_a974", "md_file": "knowledge_base/chapters/ch04_general_assumptions.md", "md_atom_type": "LIST_ITEM", "md_parent_section": "§4.5.5 [Clinical Significance for Findings Observation Class Data]", "md_verbatim": "- A record for a vital signs measurement (e.g., systolic blood pressure) or a lab test (e.g., hematocrit) that contains a measurement may have a normal range and a normal range indicator. It could also have --CLSIG indicating whether the result was clinically significant.", "score": 0.3566, "match_basis": "verbatim_token+chapter_route:ch04"}], "candidate_count": 5, "zero_candidate": false}
{"pdf_atom_id": "ig34_p0027_a020", "pdf_atom_type": "LIST_ITEM", "pdf_source": "SDTMIG_v3.4", "pdf_page": 27, "pdf_parent_section": "§4.1.9 [Assigning Natural Keys in the Metadata]", "pdf_verbatim": "Machine make and model", "figure_ref": null, "candidates": [{"md_atom_id": "md_ch04_a163", "md_file": "knowledge_base/chapters/ch04_general_assumptions.md", "md_atom_type": "LIST_ITEM", "md_parent_section": "§4.1.9 [Assigning Natural Keys in the Metadata]", "md_verbatim": "- Machine make and model", "score": 0.9, "match_basis": "verbatim_token+chapter_route:ch04"}, {"md_atom_id": "md_ch04_a159", "md_file": "knowledge_base/chapters/ch04_general_assumptions.md", "md_atom_type": "LIST_ITEM", "md_parent_section": "§4.1.9 [Assigning Natural Keys in the Metadata]", "md_verbatim": "- Left or right hand", "score": 0.3353, "match_basis": "verbatim_token+chapter_route:ch04"}, {"md_atom_id": "md_ch04_a161", "md_file": "knowledge_base/chapters/ch04_general_assumptions.md", "md_atom_type": "LIST_ITEM", "md_parent_section": "§4.1.9 [Assigning Natural Keys in the Metadata]", "md_verbatim": "- Rotation of the hand", "score": 0.3316, "match_basis": "verbatim_token+chapter_route:ch04"}, {"md_atom_id": "md_ch04_a423", "md_file": "knowledge_base/chapters/ch04_general_assumptions.md", "md_atom_type": "LIST_ITEM", "md_parent_section": "§4.3.1 [Controlled Terms, Codelist or Format Column]", "md_verbatim": "- The name of a CDISC codelist, represented as a hyperlink in parentheses (e.g., \"(NY)\")", "score": 0.3279, "match_basis": "verbatim_token+chapter_route:ch04"}, {"md_atom_id": "md_ch04_a686", "md_file": "knowledge_base/chapters/ch04_general_assumptions.md", "md_atom_type": "LIST_ITEM", "md_parent_section": "§4.4.8 [Date and Time Reported in a Domain Based on Findings]", "md_verbatim": "- For **timed lab collections** (e.g., 24-hour urine collections): use **LBDTC** for the start date/time of the collection and **LBENDTC** for the end date/time of the collection", "score": 0.3279, "match_basis": "verbatim_token+chapter_route:ch04"}], "candidate_count": 5, "zero_candidate": false}
{"pdf_atom_id": "ig34_p0027_a021", "pdf_atom_type": "SENTENCE", "pdf_source": "SDTMIG_v3.4", "pdf_page": 27, "pdf_parent_section": "§4.1.9 [Assigning Natural Keys in the Metadata]", "pdf_verbatim": "When CDISC Controlled Terminology for a test is not available, and a sponsor creates --TEST and --TESTCD values, trying to encapsulate all information about a test within a unique value of a --TESTCD is not a recommended approach for the following reasons:", "figure_ref": null, "candidates": [{"md_atom_id": "md_ch04_a164", "md_file": "knowledge_base/chapters/ch04_general_assumptions.md", "md_atom_type": "SENTENCE", "md_parent_section": "§4.1.9 [Assigning Natural Keys in the Metadata]", "md_verbatim": "When CDISC Controlled Terminology for a test is not available, and a sponsor creates --TEST and --TESTCD values, trying to encapsulate all information about a test within a unique value of a --TESTCD is not a recommended approach for the following reasons:", "score": 0.9, "match_basis": "verbatim_token+chapter_route:ch04"}, {"md_atom_id": "md_ch04_a337", "md_file": "knowledge_base/chapters/ch04_general_assumptions.md", "md_atom_type": "SENTENCE", "md_parent_section": "§4.2.7.3 [\"Specify\" Values for Topic Variables]", "md_verbatim": "If specific tests are not listed on the CRF and the investigator has the option of writing in tests, then the name of the test would have to be coded to ensure that all --TESTCD and --TEST values are consistent with the test controlled terminology.", "score": 0.4451, "match_basis": "verbatim_token+chapter_route:ch04"}, {"md_atom_id": "md_ch04_a168", "md_file": "knowledge_base/chapters/ch04_general_assumptions.md", "md_atom_type": "SENTENCE", "md_parent_section": "§4.1.9 [Assigning Natural Keys in the Metadata]", "md_verbatim": "As a result, the preferred approach would be to use a generic (or simple) test code that requires associated qualifier variables to fully express the test detail. This approach was used in creating the CDISC Controlled Terminology used in this example:", "score": 0.4395, "match_basis": "verbatim_token+chapter_route:ch04"}, {"md_atom_id": "md_ch04_a156", "md_file": "knowledge_base/chapters/ch04_general_assumptions.md", "md_atom_type": "SENTENCE", "md_parent_section": "§4.1.9 [Assigning Natural Keys in the Metadata]", "md_verbatim": "The use of generic test codes helps to create distinct lists of manageable controlled terminology for --TESTCD.", "score": 0.4385, "match_basis": "verbatim_token+chapter_route:ch04"}, {"md_atom_id": "md_ch04_a340", "md_file": "knowledge_base/chapters/ch04_general_assumptions.md", "md_atom_type": "SENTENCE", "md_parent_section": "§4.2.7.3 [\"Specify\" Values for Topic Variables]", "md_verbatim": "The sponsor would submit the controlled terminology for this test: LBTESTCD would be \"PT\" and LBTEST would be \"Prothrombin Time\", rather than the verbatim term, \"Prothrombin time\" supplied by the investigator.", "score": 0.4289, "match_basis": "verbatim_token+chapter_route:ch04"}], "candidate_count": 5, "zero_candidate": false}
{"pdf_atom_id": "ig34_p0027_a022", "pdf_atom_type": "LIST_ITEM", "pdf_source": "SDTMIG_v3.4", "pdf_page": 27, "pdf_parent_section": "§4.1.9 [Assigning Natural Keys in the Metadata]", "pdf_verbatim": "It results in the creation of a potentially large number of test codes.", "figure_ref": null, "candidates": [{"md_atom_id": "md_ch04_a165", "md_file": "knowledge_base/chapters/ch04_general_assumptions.md", "md_atom_type": "LIST_ITEM", "md_parent_section": "§4.1.9 [Assigning Natural Keys in the Metadata]", "md_verbatim": "- It results in the creation of a potentially large number of test codes.", "score": 0.9, "match_basis": "verbatim_token+chapter_route:ch04"}, {"md_atom_id": "md_ch04_a167", "md_file": "knowledge_base/chapters/ch04_general_assumptions.md", "md_atom_type": "LIST_ITEM", "md_parent_section": "§4.1.9 [Assigning Natural Keys in the Metadata]", "md_verbatim": "- Multiple test codes are essentially representing the same test or measurement simply to accommodate attributes of a test within the --TESTCD value itself (e.g., to represent a body location at which a measurement was taken).", "score": 0.399, "match_basis": "verbatim_token+chapter_route:ch04"}, {"md_atom_id": "md_ch04_a865", "md_file": "knowledge_base/chapters/ch04_general_assumptions.md", "md_atom_type": "LIST_ITEM", "md_parent_section": "§4.5.1.3 [Examples of Original and Standard Units and Test Not Done]", "md_verbatim": "- **Row 5:** The overall interpretation of the ECG is represented as a separate test.", "score": 0.3915, "match_basis": "verbatim_token+chapter_route:ch04"}, {"md_atom_id": "md_ch04_a233", "md_file": "knowledge_base/chapters/ch04_general_assumptions.md", "md_atom_type": "LIST_ITEM", "md_parent_section": "§4.2.6 [Grouping Variables and Categorization]", "md_verbatim": "      - Treatments (e.g., oxygen) administered during the stress test (in an Interventions domain)", "score": 0.3882, "match_basis": "verbatim_token+chapter_route:ch04"}, {"md_atom_id": "md_ch04_a867", "md_file": "knowledge_base/chapters/ch04_general_assumptions.md", "md_atom_type": "LIST_ITEM", "md_parent_section": "§4.5.1.3 [Examples of Original and Standard Units and Test Not Done]", "md_verbatim": "- **Row 7:** At visit 3, there were no ECG results, as indicated by EGTESTCD = \"EGALL\" and EGSTAT = \"NOT DONE\".", "score": 0.3871, "match_basis": "verbatim_token+chapter_route:ch04"}], "candidate_count": 5, "zero_candidate": false}
{"pdf_atom_id": "ig34_p0027_a023", "pdf_atom_type": "LIST_ITEM", "pdf_source": "SDTMIG_v3.4", "pdf_page": 27, "pdf_parent_section": "§4.1.9 [Assigning Natural Keys in the Metadata]", "pdf_verbatim": "The 8-character values of --TESTCD become less intuitively meaningful.", "figure_ref": null, "candidates": [{"md_atom_id": "md_ch04_a166", "md_file": "knowledge_base/chapters/ch04_general_assumptions.md", "md_atom_type": "LIST_ITEM", "md_parent_section": "§4.1.9 [Assigning Natural Keys in the Metadata]", "md_verbatim": "- The 8-character values of --TESTCD become less intuitively meaningful.", "score": 0.9, "match_basis": "verbatim_token+chapter_route:ch04"}, {"md_atom_id": "md_ch04_a864", "md_file": "knowledge_base/chapters/ch04_general_assumptions.md", "md_atom_type": "LIST_ITEM", "md_parent_section": "§4.5.1.3 [Examples of Original and Standard Units and Test Not Done]", "md_verbatim": "- **Row 4:** Character values were copied to EGSTRESC. EGSTRESN is null.", "score": 0.42, "match_basis": "verbatim_token+chapter_route:ch04"}, {"md_atom_id": "md_ch04_a183", "md_file": "knowledge_base/chapters/ch04_general_assumptions.md", "md_atom_type": "LIST_ITEM", "md_parent_section": "§4.2.1.1 [--TEST and --TESTCD Conventions (Findings)]", "md_verbatim": "- --TESTCD: standardized or dictionary-derived short sequence, up to 8 characters", "score": 0.4014, "match_basis": "verbatim_token+chapter_route:ch04"}, {"md_atom_id": "md_ch04_a820", "md_file": "knowledge_base/chapters/ch04_general_assumptions.md", "md_atom_type": "LIST_ITEM", "md_parent_section": "§4.5.1 [Original and Standardized Results]", "md_verbatim": "- --STRESC: standardized character result; must be populated whenever --ORRES is populated (regardless of whether data values are character or numeric)", "score": 0.3944, "match_basis": "verbatim_token+chapter_route:ch04"}, {"md_atom_id": "md_ch04_a178", "md_file": "knowledge_base/chapters/ch04_general_assumptions.md", "md_atom_type": "LIST_ITEM", "md_parent_section": "§4.2.1 [Variable-Naming Conventions]", "md_verbatim": "- ETCD (the companion to ELEMENT) and TSPARMCD (the companion to TSPARM) are limited to 8 characters and do not have the character restrictions that apply to --TESTCD. These values should be short for ease of use in programming, but it is not expected that they will need to serve as variable names.", "score": 0.3934, "match_basis": "verbatim_token+chapter_route:ch04"}], "candidate_count": 5, "zero_candidate": false}
{"pdf_atom_id": "ig34_p0027_a024", "pdf_atom_type": "LIST_ITEM", "pdf_source": "SDTMIG_v3.4", "pdf_page": 27, "pdf_parent_section": "§4.1.9 [Assigning Natural Keys in the Metadata]", "pdf_verbatim": "Multiple test codes are essentially representing the same test or measurement simply to accommodate attributes of a test within the --TESTCD value itself (e.g., to represent a body location at which a measurement was taken).", "figure_ref": null, "candidates": [{"md_atom_id": "md_ch04_a167", "md_file": "knowledge_base/chapters/ch04_general_assumptions.md", "md_atom_type": "LIST_ITEM", "md_parent_section": "§4.1.9 [Assigning Natural Keys in the Metadata]", "md_verbatim": "- Multiple test codes are essentially representing the same test or measurement simply to accommodate attributes of a test within the --TESTCD value itself (e.g., to represent a body location at which a measurement was taken).", "score": 0.9, "match_basis": "verbatim_token+chapter_route:ch04"}, {"md_atom_id": "md_ch04_a444", "md_file": "knowledge_base/chapters/ch04_general_assumptions.md", "md_atom_type": "LIST_ITEM", "md_parent_section": "§4.3.5 [Storing Controlled Terminology for Synonym Qualifier Variables (MedDRA and WHODrug)]", "md_verbatim": "- If a dictionary is multi-axial, the value in **--BODSYS** should represent the system organ class (SOC) used for the sponsor's analysis and summary tables, which may not necessarily be the primary SOC; populate **--SOC** with the dictionary-derived primary SOC; in cases where the primary SOC was used for analysis, --BODSYS and --SOC are the same", "score": 0.4061, "match_basis": "verbatim_token+chapter_route:ch04"}, {"md_atom_id": "md_ch04_a446", "md_file": "knowledge_base/chapters/ch04_general_assumptions.md", "md_atom_type": "LIST_ITEM", "md_parent_section": "§4.3.5 [Storing Controlled Terminology for Synonym Qualifier Variables (MedDRA and WHODrug)]", "md_verbatim": "  - For example, **--LLT** should be used to represent the Lowest Level Term text description and **--LLTCD** should be used to represent the Lowest Level Term code value", "score": 0.4034, "match_basis": "verbatim_token+chapter_route:ch04"}, {"md_atom_id": "md_ch04_a165", "md_file": "knowledge_base/chapters/ch04_general_assumptions.md", "md_atom_type": "LIST_ITEM", "md_parent_section": "§4.1.9 [Assigning Natural Keys in the Metadata]", "md_verbatim": "- It results in the creation of a potentially large number of test codes.", "score": 0.399, "match_basis": "verbatim_token+chapter_route:ch04"}, {"md_atom_id": "md_ch04_a179", "md_file": "knowledge_base/chapters/ch04_general_assumptions.md", "md_atom_type": "LIST_ITEM", "md_parent_section": "§4.2.1 [Variable-Naming Conventions]", "md_verbatim": "- ARMCD is limited to 20 characters and does not have the character restrictions that apply to --TESTCD. The maximum length of ARMCD is longer than for other \"short\" variables to accommodate the kind of values that are likely to be needed for crossover trials. For example, if ARMCD values for a 7-period crossover were constructed using 2-character abbreviations for each treatment and separating hyphens, the length of ARMCD values would be 20. This same rule applies to the ACTARMCD variable.", "score": 0.3953, "match_basis": "verbatim_token+chapter_route:ch04"}], "candidate_count": 5, "zero_candidate": false}
{"pdf_atom_id": "ig34_p0027_a025", "pdf_atom_type": "SENTENCE", "pdf_source": "SDTMIG_v3.4", "pdf_page": 27, "pdf_parent_section": "§4.1.9 [Assigning Natural Keys in the Metadata]", "pdf_verbatim": "As a result, the preferred approach would be to use a generic (or simple) test code that requires associated qualifier variables to fully express the test detail.", "figure_ref": null, "candidates": [{"md_atom_id": "md_ch04_a168", "md_file": "knowledge_base/chapters/ch04_general_assumptions.md", "md_atom_type": "SENTENCE", "md_parent_section": "§4.1.9 [Assigning Natural Keys in the Metadata]", "md_verbatim": "As a result, the preferred approach would be to use a generic (or simple) test code that requires associated qualifier variables to fully express the test detail. This approach was used in creating the CDISC Controlled Terminology used in this example:", "score": 0.715, "match_basis": "verbatim_token+chapter_route:ch04"}, {"md_atom_id": "md_ch04_a916", "md_file": "knowledge_base/chapters/ch04_general_assumptions.md", "md_atom_type": "SENTENCE", "md_parent_section": "§4.5.3.2 [Text Strings Greater than 200 Characters in Other Variables]", "md_verbatim": "**Example 1 (mh.xpt / suppmh.xpt):** MHTERM was longer than 200 characters and required 2 supplemental qualifier variables for the text that extended beyond what could be represented in the standard variable.", "score": 0.4364, "match_basis": "verbatim_token+chapter_route:ch04"}, {"md_atom_id": "md_ch04_a435", "md_file": "knowledge_base/chapters/ch04_general_assumptions.md", "md_atom_type": "SENTENCE", "md_parent_section": "§4.3.3 [Controlled Terminology Values]", "md_verbatim": "For example, --PRESP variables are associated with the NY codelist, but only the value \"Y\" is allowed in --PRESP variables.", "score": 0.4361, "match_basis": "verbatim_token+chapter_route:ch04"}, {"md_atom_id": "md_ch04_a982", "md_file": "knowledge_base/chapters/ch04_general_assumptions.md", "md_atom_type": "SENTENCE", "md_parent_section": "§4.5.6 [Supplemental Reason Variables]", "md_verbatim": "If multiple reasons are reported, refer to Section 4.2.8.3, Multiple Values for a Non-result Qualifier Variable.", "score": 0.432, "match_basis": "verbatim_token+chapter_route:ch04"}, {"md_atom_id": "md_ch04_a170", "md_file": "knowledge_base/chapters/ch04_general_assumptions.md", "md_atom_type": "SENTENCE", "md_parent_section": "§4.1.9 [Assigning Natural Keys in the Metadata]", "md_verbatim": "The following variables would be used to fully describe the test. The natural key for this domain includes both parent dataset variables and a supplemental qualifier variable that contribute to the natural key of each row and to describe the uniqueness of the test.", "score": 0.4277, "match_basis": "verbatim_token+chapter_route:ch04"}], "candidate_count": 5, "zero_candidate": false}
{"pdf_atom_id": "ig34_p0027_a026", "pdf_atom_type": "SENTENCE", "pdf_source": "SDTMIG_v3.4", "pdf_page": 27, "pdf_parent_section": "§4.1.9 [Assigning Natural Keys in the Metadata]", "pdf_verbatim": "This approach was used in creating the CDISC Controlled Terminology used in this example:", "figure_ref": null, "candidates": [{"md_atom_id": "md_ch04_a168", "md_file": "knowledge_base/chapters/ch04_general_assumptions.md", "md_atom_type": "SENTENCE", "md_parent_section": "§4.1.9 [Assigning Natural Keys in the Metadata]", "md_verbatim": "As a result, the preferred approach would be to use a generic (or simple) test code that requires associated qualifier variables to fully express the test detail. This approach was used in creating the CDISC Controlled Terminology used in this example:", "score": 0.5411, "match_basis": "verbatim_token+chapter_route:ch04"}, {"md_atom_id": "md_ch04_a995", "md_file": "knowledge_base/chapters/ch04_general_assumptions.md", "md_atom_type": "SENTENCE", "md_parent_section": "§4.5.7 [Presence or Absence of Prespecified Interventions and Events]", "md_verbatim": "It has controlled terminology of \"Y\" and \"N\" (for \"Yes\" and \"No\").", "score": 0.517, "match_basis": "verbatim_token+chapter_route:ch04"}, {"md_atom_id": "md_ch04_a991", "md_file": "knowledge_base/chapters/ch04_general_assumptions.md", "md_atom_type": "SENTENCE", "md_parent_section": "§4.5.7 [Presence or Absence of Prespecified Interventions and Events]", "md_verbatim": "It has controlled terminology of \"Y\" (for \"Yes\") or a null value.", "score": 0.5, "match_basis": "verbatim_token+chapter_route:ch04"}, {"md_atom_id": "md_ch04_a999", "md_file": "knowledge_base/chapters/ch04_general_assumptions.md", "md_atom_type": "SENTENCE", "md_parent_section": "§4.5.7 [Presence or Absence of Prespecified Interventions and Events]", "md_verbatim": "As in Findings, --STAT has controlled terminology of NOT DONE.", "score": 0.5, "match_basis": "verbatim_token+chapter_route:ch04"}, {"md_atom_id": "md_ch04_a156", "md_file": "knowledge_base/chapters/ch04_general_assumptions.md", "md_atom_type": "SENTENCE", "md_parent_section": "§4.1.9 [Assigning Natural Keys in the Metadata]", "md_verbatim": "The use of generic test codes helps to create distinct lists of manageable controlled terminology for --TESTCD.", "score": 0.4946, "match_basis": "verbatim_token+chapter_route:ch04"}], "candidate_count": 5, "zero_candidate": false}
{"pdf_atom_id": "ig34_p0027_a027", "pdf_atom_type": "SENTENCE", "pdf_source": "SDTMIG_v3.4", "pdf_page": 27, "pdf_parent_section": "§4.1.9 [Assigning Natural Keys in the Metadata]", "pdf_verbatim": "The MKTESTCD value \"SGBESCR\" is a generic test code, and additional information about the test is provided by separate qualifier variables.", "figure_ref": null, "candidates": [{"md_atom_id": "md_ch04_a169", "md_file": "knowledge_base/chapters/ch04_general_assumptions.md", "md_atom_type": "SENTENCE", "md_parent_section": "§4.1.9 [Assigning Natural Keys in the Metadata]", "md_verbatim": "The MKTESTCD value \"SGBESCR\" is a generic test code, and additional information about the test is provided by separate qualifier variables. The variables that completely specify a test may include domain variables and supplemental qualifier variables. Expressing the natural key becomes very important in this situation in order to communicate the variables that contribute to the uniqueness of a test.", "score": 0.5561, "match_basis": "verbatim_token+chapter_route:ch04"}, {"md_atom_id": "md_ch04_a998", "md_file": "knowledge_base/chapters/ch04_general_assumptions.md", "md_atom_type": "SENTENCE", "md_parent_section": "§4.5.7 [Presence or Absence of Prespecified Interventions and Events]", "md_verbatim": "The --STAT and --REASND variables can be used to provide information about prespecified interventions and events for which there is no response (e.g., investigator forgot to ask).", "score": 0.45, "match_basis": "verbatim_token+chapter_route:ch04"}, {"md_atom_id": "md_ch04_a262", "md_file": "knowledge_base/chapters/ch04_general_assumptions.md", "md_atom_type": "SENTENCE", "md_parent_section": "§4.2.7.1 [\"Specify\" Values for Non-Result Qualifier Variables]", "md_verbatim": "When free-text information is collected to supplement a standard non-result qualifier field, the free-text value should be placed in the SUPP-- dataset described in Section 8.4, Relating Non-standard Variable Values to a Parent Domain.", "score": 0.4364, "match_basis": "verbatim_token+chapter_route:ch04"}, {"md_atom_id": "md_ch04_a360", "md_file": "knowledge_base/chapters/ch04_general_assumptions.md", "md_atom_type": "SENTENCE", "md_parent_section": "§4.2.8.3 [Multiple Values for a Non-result Qualifier Variable]", "md_verbatim": "The SDTM permits 1 value for each qualifier variable per record.", "score": 0.435, "match_basis": "verbatim_token+chapter_route:ch04"}, {"md_atom_id": "md_ch04_a151", "md_file": "knowledge_base/chapters/ch04_general_assumptions.md", "md_atom_type": "SENTENCE", "md_parent_section": "§4.1.9 [Assigning Natural Keys in the Metadata]", "md_verbatim": "The sponsor considers the make and model information and hand position to be essential data that contributes to the uniqueness of the test result, and so includes a device identifier (SPDEVID) in the data and creates a Supplemental Qualifier variable for hand position (QNAM = \"MKHNDPOS\").", "score": 0.4315, "match_basis": "verbatim_token+chapter_route:ch04"}], "candidate_count": 5, "zero_candidate": false}
{"pdf_atom_id": "ig34_p0027_a028", "pdf_atom_type": "SENTENCE", "pdf_source": "SDTMIG_v3.4", "pdf_page": 27, "pdf_parent_section": "§4.1.9 [Assigning Natural Keys in the Metadata]", "pdf_verbatim": "The variables that completely specify a test may include domain variables and supplemental qualifier variables.", "figure_ref": null, "candidates": [{"md_atom_id": "md_ch04_a170", "md_file": "knowledge_base/chapters/ch04_general_assumptions.md", "md_atom_type": "SENTENCE", "md_parent_section": "§4.1.9 [Assigning Natural Keys in the Metadata]", "md_verbatim": "The following variables would be used to fully describe the test. The natural key for this domain includes both parent dataset variables and a supplemental qualifier variable that contribute to the natural key of each row and to describe the uniqueness of the test.", "score": 0.5127, "match_basis": "verbatim_token+chapter_route:ch04"}, {"md_atom_id": "md_ch04_a955", "md_file": "knowledge_base/chapters/ch04_general_assumptions.md", "md_atom_type": "SENTENCE", "md_parent_section": "§4.5.4 [Evaluators in the Interventions and Events Observation Classes]", "md_verbatim": "For observations that have primary and secondary evaluations of specific qualifier variables, sponsors should put data from the primary evaluation into the standard domain dataset and data from the secondary evaluation into the Supplemental Qualifier datasets (SUPP--).", "score": 0.5057, "match_basis": "verbatim_token+chapter_route:ch04"}, {"md_atom_id": "md_ch04_a147", "md_file": "knowledge_base/chapters/ch04_general_assumptions.md", "md_atom_type": "SENTENCE", "md_parent_section": "§4.1.9 [Assigning Natural Keys in the Metadata]", "md_verbatim": "A domain may comprise more than 1 physical dataset (e.g., the main domain dataset and its associated Supplemental Qualifiers dataset).", "score": 0.5025, "match_basis": "verbatim_token+chapter_route:ch04"}, {"md_atom_id": "md_ch04_a169", "md_file": "knowledge_base/chapters/ch04_general_assumptions.md", "md_atom_type": "SENTENCE", "md_parent_section": "§4.1.9 [Assigning Natural Keys in the Metadata]", "md_verbatim": "The MKTESTCD value \"SGBESCR\" is a generic test code, and additional information about the test is provided by separate qualifier variables. The variables that completely specify a test may include domain variables and supplemental qualifier variables. Expressing the natural key becomes very important in this situation in order to communicate the variables that contribute to the uniqueness of a test.", "score": 0.4987, "match_basis": "verbatim_token+chapter_route:ch04"}, {"md_atom_id": "md_ch04_a148", "md_file": "knowledge_base/chapters/ch04_general_assumptions.md", "md_atom_type": "SENTENCE", "md_parent_section": "§4.1.9 [Assigning Natural Keys in the Metadata]", "md_verbatim": "Supplemental Qualifier variables should be referenced in the natural key by using a 2-part name.", "score": 0.4948, "match_basis": "verbatim_token+chapter_route:ch04"}], "candidate_count": 5, "zero_candidate": false}
{"pdf_atom_id": "ig34_p0027_a029", "pdf_atom_type": "SENTENCE", "pdf_source": "SDTMIG_v3.4", "pdf_page": 27, "pdf_parent_section": "§4.1.9 [Assigning Natural Keys in the Metadata]", "pdf_verbatim": "Expressing the natural key becomes very important in this situation in order to communicate the variables that contribute to the uniqueness of a test.", "figure_ref": null, "candidates": [{"md_atom_id": "md_ch04_a169", "md_file": "knowledge_base/chapters/ch04_general_assumptions.md", "md_atom_type": "SENTENCE", "md_parent_section": "§4.1.9 [Assigning Natural Keys in the Metadata]", "md_verbatim": "The MKTESTCD value \"SGBESCR\" is a generic test code, and additional information about the test is provided by separate qualifier variables. The variables that completely specify a test may include domain variables and supplemental qualifier variables. Expressing the natural key becomes very important in this situation in order to communicate the variables that contribute to the uniqueness of a test.", "score": 0.5828, "match_basis": "verbatim_token+chapter_route:ch04"}, {"md_atom_id": "md_ch04_a170", "md_file": "knowledge_base/chapters/ch04_general_assumptions.md", "md_atom_type": "SENTENCE", "md_parent_section": "§4.1.9 [Assigning Natural Keys in the Metadata]", "md_verbatim": "The following variables would be used to fully describe the test. The natural key for this domain includes both parent dataset variables and a supplemental qualifier variable that contribute to the natural key of each row and to describe the uniqueness of the test.", "score": 0.4657, "match_basis": "verbatim_token+chapter_route:ch04"}, {"md_atom_id": "md_ch04_a136", "md_file": "knowledge_base/chapters/ch04_general_assumptions.md", "md_atom_type": "SENTENCE", "md_parent_section": "§4.1.9 [Assigning Natural Keys in the Metadata]", "md_verbatim": "Section 3.2, Using the CDISC Domain Models in Regulatory Submissions — Dataset Metadata, indicates that a sponsor should include in the metadata the variables that contribute to the natural key for a domain.", "score": 0.4523, "match_basis": "verbatim_token+chapter_route:ch04"}, {"md_atom_id": "md_ch04_a151", "md_file": "knowledge_base/chapters/ch04_general_assumptions.md", "md_atom_type": "SENTENCE", "md_parent_section": "§4.1.9 [Assigning Natural Keys in the Metadata]", "md_verbatim": "The sponsor considers the make and model information and hand position to be essential data that contributes to the uniqueness of the test result, and so includes a device identifier (SPDEVID) in the data and creates a Supplemental Qualifier variable for hand position (QNAM = \"MKHNDPOS\").", "score": 0.4351, "match_basis": "verbatim_token+chapter_route:ch04"}, {"md_atom_id": "md_ch04_a142", "md_file": "knowledge_base/chapters/ch04_general_assumptions.md", "md_atom_type": "SENTENCE", "md_parent_section": "§4.1.9 [Assigning Natural Keys in the Metadata]", "md_verbatim": "Sponsor B collects data in such a way that the location (MKLOC and MKLAT) and method (MKMETHOD) variables need to be included in the natural key to identify a unique row.", "score": 0.422, "match_basis": "verbatim_token+chapter_route:ch04"}], "candidate_count": 5, "zero_candidate": false}
{"pdf_atom_id": "ig34_p0027_a030", "pdf_atom_type": "SENTENCE", "pdf_source": "SDTMIG_v3.4", "pdf_page": 27, "pdf_parent_section": "§4.1.9 [Assigning Natural Keys in the Metadata]", "pdf_verbatim": "The following variables would be used to fully describe the test. The natural key for this domain includes both parent dataset variables and a supplemental qualifier variable that contribute to the natural key of each row and to describe the uniqueness of the test.", "figure_ref": null, "candidates": [{"md_atom_id": "md_ch04_a170", "md_file": "knowledge_base/chapters/ch04_general_assumptions.md", "md_atom_type": "SENTENCE", "md_parent_section": "§4.1.9 [Assigning Natural Keys in the Metadata]", "md_verbatim": "The following variables would be used to fully describe the test. The natural key for this domain includes both parent dataset variables and a supplemental qualifier variable that contribute to the natural key of each row and to describe the uniqueness of the test.", "score": 0.9, "match_basis": "verbatim_token+chapter_route:ch04"}, {"md_atom_id": "md_ch04_a138", "md_file": "knowledge_base/chapters/ch04_general_assumptions.md", "md_atom_type": "SENTENCE", "md_parent_section": "§4.1.9 [Assigning Natural Keys in the Metadata]", "md_verbatim": "The following example illustrates how to do this, and include a case where a Supplemental Qualifier variable is referenced because it forms part of the natural key.", "score": 0.5409, "match_basis": "verbatim_token+chapter_route:ch04"}, {"md_atom_id": "md_ch04_a169", "md_file": "knowledge_base/chapters/ch04_general_assumptions.md", "md_atom_type": "SENTENCE", "md_parent_section": "§4.1.9 [Assigning Natural Keys in the Metadata]", "md_verbatim": "The MKTESTCD value \"SGBESCR\" is a generic test code, and additional information about the test is provided by separate qualifier variables. The variables that completely specify a test may include domain variables and supplemental qualifier variables. Expressing the natural key becomes very important in this situation in order to communicate the variables that contribute to the uniqueness of a test.", "score": 0.5194, "match_basis": "verbatim_token+chapter_route:ch04"}, {"md_atom_id": "md_ch04_a151", "md_file": "knowledge_base/chapters/ch04_general_assumptions.md", "md_atom_type": "SENTENCE", "md_parent_section": "§4.1.9 [Assigning Natural Keys in the Metadata]", "md_verbatim": "The sponsor considers the make and model information and hand position to be essential data that contributes to the uniqueness of the test result, and so includes a device identifier (SPDEVID) in the data and creates a Supplemental Qualifier variable for hand position (QNAM = \"MKHNDPOS\").", "score": 0.5104, "match_basis": "verbatim_token+chapter_route:ch04"}, {"md_atom_id": "md_ch04_a148", "md_file": "knowledge_base/chapters/ch04_general_assumptions.md", "md_atom_type": "SENTENCE", "md_parent_section": "§4.1.9 [Assigning Natural Keys in the Metadata]", "md_verbatim": "Supplemental Qualifier variables should be referenced in the natural key by using a 2-part name.", "score": 0.4946, "match_basis": "verbatim_token+chapter_route:ch04"}], "candidate_count": 5, "zero_candidate": false}
{"pdf_atom_id": "ig34_p0028_a001", "pdf_atom_type": "TABLE_HEADER", "pdf_source": "SDTMIG_v3.4", "pdf_page": 28, "pdf_parent_section": "§4.1.9 [Assigning Natural Keys in the Metadata]", "pdf_verbatim": "SPDEVID | MKTESTCD | MKTEST | MKLOC | MKLAT | MKMETHOD | QNAM.MKHNDPOS", "figure_ref": null, "candidates": [{"md_atom_id": "md_ch04_a153", "md_file": "knowledge_base/chapters/ch04_general_assumptions.md", "md_atom_type": "CODE_LITERAL", "md_parent_section": "§4.1.9 [Assigning Natural Keys in the Metadata]", "md_verbatim": "    STUDYID, USUBJID, SPDEVID, VISITNUM, MKTESTCD, MKLOC, MKLAT, MKMETHOD,\n    QNAM.MKHNDPOS", "score": 0.4813, "match_basis": "verbatim_token+chapter_route:ch04"}, {"md_atom_id": "md_ch04_a083", "md_file": "knowledge_base/chapters/ch04_general_assumptions.md", "md_atom_type": "TABLE_HEADER", "md_parent_section": "§4.1.7.1 [Example of Splitting Questionnaires]", "md_verbatim": "| Row | STUDYID | DOMAIN | USUBJID | QSSEQ | QSTESTCD | QSTEST | QSCAT | QSSCAT | QSORRES | QSORRESU | QSSTRESC | QSSTRESN | QSSTRESU | QSLOC | QSMETHOD | QSLOBXFL | VISITNUM | QSDTC | QSDY | QSEVLINT |", "score": 0.3607, "match_basis": "verbatim_token+chapter_route:ch04"}, {"md_atom_id": "md_ch04_a868", "md_file": "knowledge_base/chapters/ch04_general_assumptions.md", "md_atom_type": "TABLE_HEADER", "md_parent_section": "§4.5.1.3 [Examples of Original and Standard Units and Test Not Done]", "md_verbatim": "| Row | EGTESTCD | EGTEST | EGORRES | EGORRESU | EGSTRESC | EGSTRESN | EGSTRESU | EGSTAT | VISITNUM | EGDTC |\n|-----|----------|--------|---------|----------|----------|----------|----------|--------|----------|-------|", "score": 0.3429, "match_basis": "verbatim_token+chapter_route:ch04"}, {"md_atom_id": "md_ch04_a883", "md_file": "knowledge_base/chapters/ch04_general_assumptions.md", "md_atom_type": "TABLE_HEADER", "md_parent_section": "§4.5.1.3 [Examples of Original and Standard Units and Test Not Done]", "md_verbatim": "| Row | VSTESTCD | VSORRES | VSORRESU | VSSTRESC | VSSTRESN | VSSTRESU | VSSTAT | VSDRVFL | VISITNUM | VSDTC |\n|-----|----------|---------|----------|----------|----------|----------|--------|---------|----------|-------|", "score": 0.34, "match_basis": "verbatim_token+chapter_route:ch04"}, {"md_atom_id": "md_ch04_a847", "md_file": "knowledge_base/chapters/ch04_general_assumptions.md", "md_atom_type": "TABLE_HEADER", "md_parent_section": "§4.5.1.3 [Examples of Original and Standard Units and Test Not Done]", "md_verbatim": "| Row | LBTESTCD | LBCAT | LBORRES | LBORRESU | LBSTRESC | LBSTRESN | LBSTRESU | LBSTAT | LBLOBXFL | VISITNUM | LBDTC |\n|-----|----------|-------|---------|----------|----------|----------|----------|--------|----------|----------|-------|", "score": 0.3369, "match_basis": "verbatim_token+chapter_route:ch04"}], "candidate_count": 5, "zero_candidate": false}
{"pdf_atom_id": "ig34_p0028_a002", "pdf_atom_type": "TABLE_ROW", "pdf_source": "SDTMIG_v3.4", "pdf_page": 28, "pdf_parent_section": "§4.1.9 [Assigning Natural Keys in the Metadata]", "pdf_verbatim": "ACME3000 | SGBESCR | Sharp/Genant Bone Erosion Score | METACARPOPHALANGEAL JOINT 1 | LEFT | X-RAY | PALM UP", "figure_ref": null, "candidates": [{"md_atom_id": "md_ch04_a711", "md_file": "knowledge_base/chapters/ch04_general_assumptions.md", "md_atom_type": "TABLE_ROW", "md_parent_section": "§4.4.10 [Representing Time Points]", "md_verbatim": "| --TPTREF | Time Point Reference description (e.g., \"DOSE 1 OF TREATMENT A\") |", "score": 0.338, "match_basis": "verbatim_token+chapter_route:ch04"}, {"md_atom_id": "md_ch04_a644", "md_file": "knowledge_base/chapters/ch04_general_assumptions.md", "md_atom_type": "TABLE_ROW", "md_parent_section": "§4.4.7 [Use of Relative Timing Variables]", "md_verbatim": "| --STTPT | (free text) | Description of the reference time point for --STRTPT |", "score": 0.3375, "match_basis": "verbatim_token+chapter_route:ch04"}, {"md_atom_id": "md_ch04_a646", "md_file": "knowledge_base/chapters/ch04_general_assumptions.md", "md_atom_type": "TABLE_ROW", "md_parent_section": "§4.4.7 [Use of Relative Timing Variables]", "md_verbatim": "| --ENTPT | (free text) | Description of the reference time point for --ENRTPT |", "score": 0.3375, "match_basis": "verbatim_token+chapter_route:ch04"}, {"md_atom_id": "md_ch04_a948", "md_file": "knowledge_base/chapters/ch04_general_assumptions.md", "md_atom_type": "TABLE_ROW", "md_parent_section": "§4.5.3.2 [Text Strings Greater than 200 Characters in Other Variables]", "md_verbatim": "| Storage | First 200 chars in parent domain variable; each additional 200 chars in a SUPP-- record | First 200 chars in COVAL; each additional 200 chars in a CO domain record linked to COVALn | First 200 chars in TSVAL; each additional 200 chars in a TS domain record linked to TSVALn | If text >200 chars, put meaningful text in IETEST and describe full text in study metadata |", "score": 0.3326, "match_basis": "verbatim_token+chapter_route:ch04"}, {"md_atom_id": "md_ch04_a791", "md_file": "knowledge_base/chapters/ch04_general_assumptions.md", "md_atom_type": "TABLE_ROW", "md_parent_section": "§4.4.11 [Disease Milestones and Disease Milestone Timing Variables]", "md_verbatim": "| MIDS | Disease Milestone Instance Name (e.g., EPISODE1, EPISODE2). MIDS is the \"anchor\" for describing the timing of the observation relative to the disease milestone — its function is similar to --TPTREF for time points. |", "score": 0.3295, "match_basis": "verbatim_token+chapter_route:ch04"}], "candidate_count": 5, "zero_candidate": false}
{"pdf_atom_id": "ig34_p0028_a003", "pdf_atom_type": "HEADING", "pdf_source": "SDTMIG_v3.4", "pdf_page": 28, "pdf_parent_section": "§4.2 [General Variable Assumptions]", "pdf_verbatim": "4.2 General Variable Assumptions", "figure_ref": null, "candidates": [{"md_atom_id": "md_ch04_a172", "md_file": "knowledge_base/chapters/ch04_general_assumptions.md", "md_atom_type": "HEADING", "md_parent_section": "§4 [Assumptions for Domain Models]", "md_verbatim": "## 4.2 General Variable Assumptions", "score": 0.9, "match_basis": "verbatim_token+chapter_route:ch04"}, {"md_atom_id": "md_ch04_a006", "md_file": "knowledge_base/chapters/ch04_general_assumptions.md", "md_atom_type": "HEADING", "md_parent_section": "§4 [Assumptions for Domain Models]", "md_verbatim": "## 4.1 General Domain Assumptions", "score": 0.65, "match_basis": "verbatim_token+chapter_route:ch04"}, {"md_atom_id": "md_ch04_a814", "md_file": "knowledge_base/chapters/ch04_general_assumptions.md", "md_atom_type": "HEADING", "md_parent_section": "§4 [General Assumptions]", "md_verbatim": "## 4.5 Other Assumptions", "score": 0.5348, "match_basis": "verbatim_token+chapter_route:ch04"}, {"md_atom_id": "md_ch04_a173", "md_file": "knowledge_base/chapters/ch04_general_assumptions.md", "md_atom_type": "HEADING", "md_parent_section": "§4.2 [General Variable Assumptions]", "md_verbatim": "### 4.2.1 Variable-Naming Conventions", "score": 0.48, "match_basis": "verbatim_token+chapter_route:ch04"}, {"md_atom_id": "md_ch04_a452", "md_file": "knowledge_base/chapters/ch04_general_assumptions.md", "md_atom_type": "HEADING", "md_parent_section": "§4.3 [Coding and Controlled Terminology Assumptions]", "md_verbatim": "### 4.3.6 Storing Topic Variables for General Domain Models", "score": 0.4737, "match_basis": "verbatim_token+chapter_route:ch04"}], "candidate_count": 5, "zero_candidate": false}
{"pdf_atom_id": "ig34_p0028_a004", "pdf_atom_type": "HEADING", "pdf_source": "SDTMIG_v3.4", "pdf_page": 28, "pdf_parent_section": "§4.2.1 [Variable-naming Conventions]", "pdf_verbatim": "4.2.1 Variable-naming Conventions", "figure_ref": null, "candidates": [{"md_atom_id": "md_ch04_a173", "md_file": "knowledge_base/chapters/ch04_general_assumptions.md", "md_atom_type": "HEADING", "md_parent_section": "§4.2 [General Variable Assumptions]", "md_verbatim": "### 4.2.1 Variable-Naming Conventions", "score": 0.9, "match_basis": "verbatim_token+chapter_route:ch04"}, {"md_atom_id": "md_ch04_a189", "md_file": "knowledge_base/chapters/ch04_general_assumptions.md", "md_atom_type": "HEADING", "md_parent_section": "§4.2.1 [Variable-Naming Conventions]", "md_verbatim": "#### 4.2.1.3 --TERM Conventions (Events)", "score": 0.5348, "match_basis": "verbatim_token+chapter_route:ch04"}, {"md_atom_id": "md_ch04_a186", "md_file": "knowledge_base/chapters/ch04_general_assumptions.md", "md_atom_type": "HEADING", "md_parent_section": "§4.2.1 [Variable-Naming Conventions]", "md_verbatim": "#### 4.2.1.2 --TRT Conventions (Interventions)", "score": 0.516, "match_basis": "verbatim_token+chapter_route:ch04"}, {"md_atom_id": "md_ch04_a012", "md_file": "knowledge_base/chapters/ch04_general_assumptions.md", "md_atom_type": "HEADING", "md_parent_section": "§4.1 [General Domain Assumptions]", "md_verbatim": "### 4.1.3 Additional Timing Variables", "score": 0.5143, "match_basis": "verbatim_token+chapter_route:ch04"}, {"md_atom_id": "md_ch04_a182", "md_file": "knowledge_base/chapters/ch04_general_assumptions.md", "md_atom_type": "HEADING", "md_parent_section": "§4.2.1 [Variable-Naming Conventions]", "md_verbatim": "#### 4.2.1.1 --TEST and --TESTCD Conventions (Findings)", "score": 0.5069, "match_basis": "verbatim_token+chapter_route:ch04"}], "candidate_count": 5, "zero_candidate": false}
{"pdf_atom_id": "ig34_p0028_a005", "pdf_atom_type": "SENTENCE", "pdf_source": "SDTMIG_v3.4", "pdf_page": 28, "pdf_parent_section": "§4.2.1 [Variable-naming Conventions]", "pdf_verbatim": "SDTM variables are named according to a set of conventions, using fragment names (see Appendix D, CDISC Variable-naming Fragments).", "figure_ref": null, "candidates": [{"md_atom_id": "md_ch04_a174", "md_file": "knowledge_base/chapters/ch04_general_assumptions.md", "md_atom_type": "SENTENCE", "md_parent_section": "§4.2.1 [Variable-Naming Conventions]", "md_verbatim": "SDTM variables are named according to a set of conventions, using fragment names (see Appendix D, CDISC Variable-naming Fragments). Variables with names ending in \"CD\" are \"short\" versions of associated variables that do not include the \"CD\" suffix (e.g., --TESTCD is the short version of --TEST).", "score": 0.66, "match_basis": "verbatim_token+chapter_route:ch04"}, {"md_atom_id": "md_ch04_a906", "md_file": "knowledge_base/chapters/ch04_general_assumptions.md", "md_atom_type": "SENTENCE", "md_parent_section": "§4.5.3.2 [Text Strings Greater than 200 Characters in Other Variables]", "md_verbatim": "Therefore, the SDTMIG has defined conventions for storing long text strings using multiple variables.", "score": 0.4518, "match_basis": "verbatim_token+chapter_route:ch04"}, {"md_atom_id": "md_ch04_a508", "md_file": "knowledge_base/chapters/ch04_general_assumptions.md", "md_atom_type": "SENTENCE", "md_parent_section": "§4.4.1 [Formats for Date/Time Variables]", "md_verbatim": "The SDTM fragment employed for date/time character variables is **DTC**.", "score": 0.4268, "match_basis": "verbatim_token+chapter_route:ch04"}, {"md_atom_id": "md_ch04_a956", "md_file": "knowledge_base/chapters/ch04_general_assumptions.md", "md_atom_type": "SENTENCE", "md_parent_section": "§4.5.4 [Evaluators in the Interventions and Events Observation Classes]", "md_verbatim": "Within each SUPP-- record, the value for QNAM should be formed by appending a \"1\" to the corresponding standard domain variable name.", "score": 0.42, "match_basis": "verbatim_token+chapter_route:ch04"}, {"md_atom_id": "md_ch04_a343", "md_file": "knowledge_base/chapters/ch04_general_assumptions.md", "md_atom_type": "SENTENCE", "md_parent_section": "§4.2.7.4 [\"Specify\" Values for --OBJ]", "md_verbatim": "See also Section 6.4.3, Variables Unique to Findings About.", "score": 0.4182, "match_basis": "verbatim_token+chapter_route:ch04"}], "candidate_count": 5, "zero_candidate": false}
{"pdf_atom_id": "ig34_p0028_a006", "pdf_atom_type": "SENTENCE", "pdf_source": "SDTMIG_v3.4", "pdf_page": 28, "pdf_parent_section": "§4.2.1 [Variable-naming Conventions]", "pdf_verbatim": "Variables with names ending in \"CD\" are \"short\" versions of associated variables that do not include the \"CD\" suffix (e.g., --TESTCD is the short version of --TEST).", "figure_ref": null, "candidates": [{"md_atom_id": "md_ch04_a174", "md_file": "knowledge_base/chapters/ch04_general_assumptions.md", "md_atom_type": "SENTENCE", "md_parent_section": "§4.2.1 [Variable-Naming Conventions]", "md_verbatim": "SDTM variables are named according to a set of conventions, using fragment names (see Appendix D, CDISC Variable-naming Fragments). Variables with names ending in \"CD\" are \"short\" versions of associated variables that do not include the \"CD\" suffix (e.g., --TESTCD is the short version of --TEST).", "score": 0.66, "match_basis": "verbatim_token+chapter_route:ch04"}, {"md_atom_id": "md_ch04_a786", "md_file": "knowledge_base/chapters/ch04_general_assumptions.md", "md_atom_type": "SENTENCE", "md_parent_section": "§4.4.11 [Disease Milestones and Disease Milestone Timing Variables]", "md_verbatim": "The association between the longer text in MIDSTYPE and the shorter text in MIDS can be seen in SM, which includes both variables.", "score": 0.4704, "match_basis": "verbatim_token+chapter_route:ch04"}, {"md_atom_id": "md_ch04_a703", "md_file": "knowledge_base/chapters/ch04_general_assumptions.md", "md_atom_type": "SENTENCE", "md_parent_section": "§4.4.9 [Use of Dates as Result Variables]", "md_verbatim": "Remember, in most cases, these dates should be timing variables associated with a record in an Intervention or Events dataset.", "score": 0.4483, "match_basis": "verbatim_token+chapter_route:ch04"}, {"md_atom_id": "md_ch04_a435", "md_file": "knowledge_base/chapters/ch04_general_assumptions.md", "md_atom_type": "SENTENCE", "md_parent_section": "§4.3.3 [Controlled Terminology Values]", "md_verbatim": "For example, --PRESP variables are associated with the NY codelist, but only the value \"Y\" is allowed in --PRESP variables.", "score": 0.4481, "match_basis": "verbatim_token+chapter_route:ch04"}, {"md_atom_id": "md_ch04_a177", "md_file": "knowledge_base/chapters/ch04_general_assumptions.md", "md_atom_type": "SENTENCE", "md_parent_section": "§4.2.1 [Variable-Naming Conventions]", "md_verbatim": "Values of other \"CD\" variables are **not** subject to the same restrictions as --TESTCD:", "score": 0.4457, "match_basis": "verbatim_token+chapter_route:ch04"}], "candidate_count": 5, "zero_candidate": false}
{"pdf_atom_id": "ig34_p0028_a007", "pdf_atom_type": "SENTENCE", "pdf_source": "SDTMIG_v3.4", "pdf_page": 28, "pdf_parent_section": "§4.2.1 [Variable-naming Conventions]", "pdf_verbatim": "Values of --TESTCD must be limited to 8 characters and cannot start with a number, nor can they contain characters other than letters, numbers, or underscores.", "figure_ref": null, "candidates": [{"md_atom_id": "md_ch04_a175", "md_file": "knowledge_base/chapters/ch04_general_assumptions.md", "md_atom_type": "SENTENCE", "md_parent_section": "§4.2.1 [Variable-Naming Conventions]", "md_verbatim": "Values of --TESTCD must be limited to 8 characters and cannot start with a number, nor can they contain characters other than letters, numbers, or underscores. This is to avoid possible incompatibility with SAS v5 transport files. This limitation will be in effect until the use of other formats (e.g., Dataset-XML) becomes acceptable to regulatory authorities.", "score": 0.5432, "match_basis": "verbatim_token+chapter_route:ch04"}, {"md_atom_id": "md_ch04_a362", "md_file": "knowledge_base/chapters/ch04_general_assumptions.md", "md_atom_type": "SENTENCE", "md_parent_section": "§4.2.8.3 [Multiple Values for a Non-result Qualifier Variable]", "md_verbatim": "It is recommended that the SUPP-- QNAM value reference the corresponding standard domain variable with an appended number or letter.", "score": 0.42, "match_basis": "verbatim_token+chapter_route:ch04"}, {"md_atom_id": "md_ch04_a496", "md_file": "knowledge_base/chapters/ch04_general_assumptions.md", "md_atom_type": "SENTENCE", "md_parent_section": "§4.4.1 [Formats for Date/Time Variables]", "md_verbatim": "Other characters defined for use within the ISO 8601 standard are:", "score": 0.4169, "match_basis": "verbatim_token+chapter_route:ch04"}, {"md_atom_id": "md_ch04_a569", "md_file": "knowledge_base/chapters/ch04_general_assumptions.md", "md_atom_type": "SENTENCE", "md_parent_section": "§4.4.3.1 [Intervals of Time and Use of Duration]", "md_verbatim": "The letter \"P\" must precede other values in the ISO 8601 representation of duration.", "score": 0.4125, "match_basis": "verbatim_token+chapter_route:ch04"}, {"md_atom_id": "md_ch04_a133", "md_file": "knowledge_base/chapters/ch04_general_assumptions.md", "md_atom_type": "SENTENCE", "md_parent_section": "§4.1.8.2 [Origin Metadata for Records]", "md_verbatim": "For example, some records in a Findings dataset such as Questionnaires (QS) contain values collected from the CRF; other records may contain derived values, such as a total score.", "score": 0.4091, "match_basis": "verbatim_token+chapter_route:ch04"}], "candidate_count": 5, "zero_candidate": false}
{"pdf_atom_id": "ig34_p0028_a008", "pdf_atom_type": "SENTENCE", "pdf_source": "SDTMIG_v3.4", "pdf_page": 28, "pdf_parent_section": "§4.2.1 [Variable-naming Conventions]", "pdf_verbatim": "This is to avoid possible incompatibility with SAS v5 transport files.", "figure_ref": null, "candidates": [{"md_atom_id": "md_ch04_a175", "md_file": "knowledge_base/chapters/ch04_general_assumptions.md", "md_atom_type": "SENTENCE", "md_parent_section": "§4.2.1 [Variable-Naming Conventions]", "md_verbatim": "Values of --TESTCD must be limited to 8 characters and cannot start with a number, nor can they contain characters other than letters, numbers, or underscores. This is to avoid possible incompatibility with SAS v5 transport files. This limitation will be in effect until the use of other formats (e.g., Dataset-XML) becomes acceptable to regulatory authorities.", "score": 0.45, "match_basis": "verbatim_token+chapter_route:ch04"}, {"md_atom_id": "md_ch04_a905", "md_file": "knowledge_base/chapters/ch04_general_assumptions.md", "md_atom_type": "SENTENCE", "md_parent_section": "§4.5.3.2 [Text Strings Greater than 200 Characters in Other Variables]", "md_verbatim": "Because of the current requirement for the SAS V5 transport file format, it is not possible to store long text strings using only 1 variable.", "score": 0.4171, "match_basis": "verbatim_token+chapter_route:ch04"}, {"md_atom_id": "md_ch04_a409", "md_file": "knowledge_base/chapters/ch04_general_assumptions.md", "md_atom_type": "SENTENCE", "md_parent_section": "§4.2.9 [Variable Lengths]", "md_verbatim": "Very large transport files have become an issue for certain regulatory authorities (e.g., US FDA) to process.", "score": 0.3835, "match_basis": "verbatim_token+chapter_route:ch04"}, {"md_atom_id": "md_ch04_a194", "md_file": "knowledge_base/chapters/ch04_general_assumptions.md", "md_atom_type": "SENTENCE", "md_parent_section": "§4.2.2 [Two-character Domain Identifier]", "md_verbatim": "Variables in domain specification tables (see Section 5, Models for Special-purpose Domains; Section 6, Domain Models Based on the General Observation Classes; Section 7, Trial Design Model Datasets; Section 8, Representing Relationships and Data; and Section 9, Study References) already specify the complete variable names. When adding variables from the SDTM to standard domains or creating custom domains based on the general observation classes, sponsors must replace the \"--\" prefix in the SDTM tables of General Observation Class, Timing, and Identifier variables with the 2-character domain identifier (DOMAIN) value for that domain/dataset. The 2-character domain code is limited to A-Z for the first character, and A-Z, 0-9 for the second character. No other characters are allowed. This is for compatibility with SAS v5 transport files and with file naming requirements as part of the Electronic Common Technical Document (eCTD).", "score": 0.3675, "match_basis": "verbatim_token+chapter_route:ch04"}, {"md_atom_id": "md_ch04_a022", "md_file": "knowledge_base/chapters/ch04_general_assumptions.md", "md_atom_type": "SENTENCE", "md_parent_section": "§4.1.3.1 [EPOCH Variable Guidance]", "md_verbatim": "If it is not possible to determine the epoch of an observation, then EPOCH should be null.", "score": 0.3656, "match_basis": "verbatim_token+chapter_route:ch04"}], "candidate_count": 5, "zero_candidate": false}
{"pdf_atom_id": "ig34_p0028_a009", "pdf_atom_type": "SENTENCE", "pdf_source": "SDTMIG_v3.4", "pdf_page": 28, "pdf_parent_section": "§4.2.1 [Variable-naming Conventions]", "pdf_verbatim": "This limitation will be in effect until the use of other formats (e.g., Dataset-XML) becomes acceptable to regulatory authorities.", "figure_ref": null, "candidates": [{"md_atom_id": "md_ch04_a175", "md_file": "knowledge_base/chapters/ch04_general_assumptions.md", "md_atom_type": "SENTENCE", "md_parent_section": "§4.2.1 [Variable-Naming Conventions]", "md_verbatim": "Values of --TESTCD must be limited to 8 characters and cannot start with a number, nor can they contain characters other than letters, numbers, or underscores. This is to avoid possible incompatibility with SAS v5 transport files. This limitation will be in effect until the use of other formats (e.g., Dataset-XML) becomes acceptable to regulatory authorities.", "score": 0.5595, "match_basis": "verbatim_token+chapter_route:ch04"}, {"md_atom_id": "md_ch04_a409", "md_file": "knowledge_base/chapters/ch04_general_assumptions.md", "md_atom_type": "SENTENCE", "md_parent_section": "§4.2.9 [Variable Lengths]", "md_verbatim": "Very large transport files have become an issue for certain regulatory authorities (e.g., US FDA) to process.", "score": 0.4389, "match_basis": "verbatim_token+chapter_route:ch04"}, {"md_atom_id": "md_ch04_a896", "md_file": "knowledge_base/chapters/ch04_general_assumptions.md", "md_atom_type": "SENTENCE", "md_parent_section": "§4.5.3.1 [Test Name (--TEST) Greater than 40 Characters]", "md_verbatim": "Because the --TEST variable is meant to serve as a label for a --TESTCD when a Findings dataset is transposed to a more horizontal format, the length of --TEST is limited to 40 characters (except as noted below) to conform to the limitations of the SAS V5 transport file format.", "score": 0.4139, "match_basis": "verbatim_token+chapter_route:ch04"}, {"md_atom_id": "md_ch04_a636", "md_file": "knowledge_base/chapters/ch04_general_assumptions.md", "md_atom_type": "SENTENCE", "md_parent_section": "§4.4.7 [Use of Relative Timing Variables]", "md_verbatim": "Note that in this example, the information collected is with respect to the start of the concomitant medication use only, and therefore the collected data corresponds to variable CMSTRF, not CMENRF.", "score": 0.3945, "match_basis": "verbatim_token+chapter_route:ch04"}, {"md_atom_id": "md_ch04_a241", "md_file": "knowledge_base/chapters/ch04_general_assumptions.md", "md_atom_type": "SENTENCE", "md_parent_section": "§4.2.6 [Grouping Variables and Categorization]", "md_verbatim": "As such, these variables are often used in IDVAR in a RELREC relationship when there is a dataset-to-dataset relationship.", "score": 0.3913, "match_basis": "verbatim_token+chapter_route:ch04"}], "candidate_count": 5, "zero_candidate": false}
{"pdf_atom_id": "ig34_p0028_a010", "pdf_atom_type": "SENTENCE", "pdf_source": "SDTMIG_v3.4", "pdf_page": 28, "pdf_parent_section": "§4.2.1 [Variable-naming Conventions]", "pdf_verbatim": "Because QNAM serves the same purpose as --TESTCD within supplemental qualifier datasets, values of QNAM are subject to the same restrictions as values of --TESTCD.", "figure_ref": null, "candidates": [{"md_atom_id": "md_ch04_a176", "md_file": "knowledge_base/chapters/ch04_general_assumptions.md", "md_atom_type": "SENTENCE", "md_parent_section": "§4.2.1 [Variable-Naming Conventions]", "md_verbatim": "Because QNAM serves the same purpose as --TESTCD within supplemental qualifier datasets, values of QNAM are subject to the same restrictions as values of --TESTCD.", "score": 0.9, "match_basis": "verbatim_token+chapter_route:ch04"}, {"md_atom_id": "md_ch04_a901", "md_file": "knowledge_base/chapters/ch04_general_assumptions.md", "md_atom_type": "SENTENCE", "md_parent_section": "§4.5.3.1 [Test Name (--TEST) Greater than 40 Characters]", "md_verbatim": "This convention should also be applied to the qualifier value label (QLABEL) in Supplemental Qualifiers (SUPP--) datasets.", "score": 0.5, "match_basis": "verbatim_token+chapter_route:ch04"}, {"md_atom_id": "md_ch04_a177", "md_file": "knowledge_base/chapters/ch04_general_assumptions.md", "md_atom_type": "SENTENCE", "md_parent_section": "§4.2.1 [Variable-Naming Conventions]", "md_verbatim": "Values of other \"CD\" variables are **not** subject to the same restrictions as --TESTCD:", "score": 0.4975, "match_basis": "verbatim_token+chapter_route:ch04"}, {"md_atom_id": "md_ch04_a954", "md_file": "knowledge_base/chapters/ch04_general_assumptions.md", "md_atom_type": "SENTENCE", "md_parent_section": "§4.5.4 [Evaluators in the Interventions and Events Observation Classes]", "md_verbatim": "The QEVAL variable can be used to describe the evaluator for any data item in a SUPP-- dataset (see Section 8.4.1, Supplemental Qualifiers -- SUPP-- Datasets), but is not required when the data are objective.", "score": 0.4872, "match_basis": "verbatim_token+chapter_route:ch04"}, {"md_atom_id": "md_ch04_a154", "md_file": "knowledge_base/chapters/ch04_general_assumptions.md", "md_atom_type": "SENTENCE", "md_parent_section": "§4.1.9 [Assigning Natural Keys in the Metadata]", "md_verbatim": "where the notation \"QNAM.MKHNDPOS\" means the Supplemental Qualifier whose QNAM is \"MKHNDPOS\".", "score": 0.4674, "match_basis": "verbatim_token+chapter_route:ch04"}], "candidate_count": 5, "zero_candidate": false}
{"pdf_atom_id": "ig34_p0028_a011", "pdf_atom_type": "SENTENCE", "pdf_source": "SDTMIG_v3.4", "pdf_page": 28, "pdf_parent_section": "§4.2.1 [Variable-naming Conventions]", "pdf_verbatim": "Values of other \"CD\" variables are not subject to the same restrictions as --TESTCD:", "figure_ref": null, "candidates": [{"md_atom_id": "md_ch04_a177", "md_file": "knowledge_base/chapters/ch04_general_assumptions.md", "md_atom_type": "SENTENCE", "md_parent_section": "§4.2.1 [Variable-Naming Conventions]", "md_verbatim": "Values of other \"CD\" variables are **not** subject to the same restrictions as --TESTCD:", "score": 0.9, "match_basis": "verbatim_token+chapter_route:ch04"}, {"md_atom_id": "md_ch04_a176", "md_file": "knowledge_base/chapters/ch04_general_assumptions.md", "md_atom_type": "SENTENCE", "md_parent_section": "§4.2.1 [Variable-Naming Conventions]", "md_verbatim": "Because QNAM serves the same purpose as --TESTCD within supplemental qualifier datasets, values of QNAM are subject to the same restrictions as values of --TESTCD.", "score": 0.4975, "match_basis": "verbatim_token+chapter_route:ch04"}, {"md_atom_id": "md_ch04_a961", "md_file": "knowledge_base/chapters/ch04_general_assumptions.md", "md_atom_type": "SENTENCE", "md_parent_section": "§4.5.4 [Evaluators in the Interventions and Events Observation Classes]", "md_verbatim": "See Section 8.4, Relating Non-standard Variable Values to a Parent Domain.", "score": 0.4552, "match_basis": "verbatim_token+chapter_route:ch04"}, {"md_atom_id": "md_ch04_a982", "md_file": "knowledge_base/chapters/ch04_general_assumptions.md", "md_atom_type": "SENTENCE", "md_parent_section": "§4.5.6 [Supplemental Reason Variables]", "md_verbatim": "If multiple reasons are reported, refer to Section 4.2.8.3, Multiple Values for a Non-result Qualifier Variable.", "score": 0.4522, "match_basis": "verbatim_token+chapter_route:ch04"}, {"md_atom_id": "md_ch04_a155", "md_file": "knowledge_base/chapters/ch04_general_assumptions.md", "md_atom_type": "SENTENCE", "md_parent_section": "§4.1.9 [Assigning Natural Keys in the Metadata]", "md_verbatim": "This approach becomes very useful in a Findings domain when --TESTCD values are \"generic\" and rely on other variables to completely describe the test.", "score": 0.4395, "match_basis": "verbatim_token+chapter_route:ch04"}], "candidate_count": 5, "zero_candidate": false}
{"pdf_atom_id": "ig34_p0028_a012", "pdf_atom_type": "LIST_ITEM", "pdf_source": "SDTMIG_v3.4", "pdf_page": 28, "pdf_parent_section": "§4.2.1 [Variable-naming Conventions]", "pdf_verbatim": "ETCD (the companion to ELEMENT) and TSPARMCD (the companion to TSPARM) are limited to 8 characters and do not have the character restrictions that apply to --TESTCD. These values should be short for ease of use in programming, but it is not expected that they will need to serve as variable names.", "figure_ref": null, "candidates": [{"md_atom_id": "md_ch04_a178", "md_file": "knowledge_base/chapters/ch04_general_assumptions.md", "md_atom_type": "LIST_ITEM", "md_parent_section": "§4.2.1 [Variable-Naming Conventions]", "md_verbatim": "- ETCD (the companion to ELEMENT) and TSPARMCD (the companion to TSPARM) are limited to 8 characters and do not have the character restrictions that apply to --TESTCD. These values should be short for ease of use in programming, but it is not expected that they will need to serve as variable names.", "score": 0.9, "match_basis": "verbatim_token+chapter_route:ch04"}, {"md_atom_id": "md_ch04_a179", "md_file": "knowledge_base/chapters/ch04_general_assumptions.md", "md_atom_type": "LIST_ITEM", "md_parent_section": "§4.2.1 [Variable-Naming Conventions]", "md_verbatim": "- ARMCD is limited to 20 characters and does not have the character restrictions that apply to --TESTCD. The maximum length of ARMCD is longer than for other \"short\" variables to accommodate the kind of values that are likely to be needed for crossover trials. For example, if ARMCD values for a 7-period crossover were constructed using 2-character abbreviations for each treatment and separating hyphens, the length of ARMCD values would be 20. This same rule applies to the ACTARMCD variable.", "score": 0.493, "match_basis": "verbatim_token+chapter_route:ch04"}, {"md_atom_id": "md_ch04_a908", "md_file": "knowledge_base/chapters/ch04_general_assumptions.md", "md_atom_type": "LIST_ITEM", "md_parent_section": "§4.5.3.2 [Text Strings Greater than 200 Characters in Other Variables]", "md_verbatim": "- The **first 200 characters** of text should be stored in the parent domain variable and each additional 200 characters of text should be stored in a record in the SUPP-- dataset (see Section 8.4, Relating Non-standard Variable Values to a Parent Domain)", "score": 0.4338, "match_basis": "verbatim_token+chapter_route:ch04"}, {"md_atom_id": "md_ch04_a915", "md_file": "knowledge_base/chapters/ch04_general_assumptions.md", "md_atom_type": "LIST_ITEM", "md_parent_section": "§4.5.3.2 [Text Strings Greater than 200 Characters in Other Variables]", "md_verbatim": "  - In cases where the standard domain variable name is already 8 characters in length, sponsors should **replace the last character with a digit** when creating values for QNAM; for example, for Other Action Taken in Adverse Events (AEACNOTH), values for QNAM for the SUPPAE records would have the values AEACNOT1, AEACNOT2, and so on", "score": 0.4233, "match_basis": "verbatim_token+chapter_route:ch04"}, {"md_atom_id": "md_ch04_a911", "md_file": "knowledge_base/chapters/ch04_general_assumptions.md", "md_atom_type": "LIST_ITEM", "md_parent_section": "§4.5.3.2 [Text Strings Greater than 200 Characters in Other Variables]", "md_verbatim": "- The value for QNAMs for additional text (>200 characters) should contain a **sequential variable name formed by appending a 1-digit integer, beginning with 1**, to the original domain variable name", "score": 0.4161, "match_basis": "verbatim_token+chapter_route:ch04"}], "candidate_count": 5, "zero_candidate": false}
{"pdf_atom_id": "ig34_p0028_a013", "pdf_atom_type": "LIST_ITEM", "pdf_source": "SDTMIG_v3.4", "pdf_page": 28, "pdf_parent_section": "§4.2.1 [Variable-naming Conventions]", "pdf_verbatim": "ARMCD is limited to 20 characters and does not have the character restrictions that apply to --TESTCD. The maximum length of ARMCD is longer than for other \"short\" variables to accommodate the kind of values that are likely to be needed for crossover trials. For example, if ARMCD values for a 7-period crossover were constructed using 2-character abbreviations for each treatment and separating hyphens, the length of ARMCD values would be 20. This same rule applies to the ACTARMCD variable.", "figure_ref": null, "candidates": [{"md_atom_id": "md_ch04_a179", "md_file": "knowledge_base/chapters/ch04_general_assumptions.md", "md_atom_type": "LIST_ITEM", "md_parent_section": "§4.2.1 [Variable-Naming Conventions]", "md_verbatim": "- ARMCD is limited to 20 characters and does not have the character restrictions that apply to --TESTCD. The maximum length of ARMCD is longer than for other \"short\" variables to accommodate the kind of values that are likely to be needed for crossover trials. For example, if ARMCD values for a 7-period crossover were constructed using 2-character abbreviations for each treatment and separating hyphens, the length of ARMCD values would be 20. This same rule applies to the ACTARMCD variable.", "score": 0.9, "match_basis": "verbatim_token+chapter_route:ch04"}, {"md_atom_id": "md_ch04_a178", "md_file": "knowledge_base/chapters/ch04_general_assumptions.md", "md_atom_type": "LIST_ITEM", "md_parent_section": "§4.2.1 [Variable-Naming Conventions]", "md_verbatim": "- ETCD (the companion to ELEMENT) and TSPARMCD (the companion to TSPARM) are limited to 8 characters and do not have the character restrictions that apply to --TESTCD. These values should be short for ease of use in programming, but it is not expected that they will need to serve as variable names.", "score": 0.493, "match_basis": "verbatim_token+chapter_route:ch04"}, {"md_atom_id": "md_ch04_a915", "md_file": "knowledge_base/chapters/ch04_general_assumptions.md", "md_atom_type": "LIST_ITEM", "md_parent_section": "§4.5.3.2 [Text Strings Greater than 200 Characters in Other Variables]", "md_verbatim": "  - In cases where the standard domain variable name is already 8 characters in length, sponsors should **replace the last character with a digit** when creating values for QNAM; for example, for Other Action Taken in Adverse Events (AEACNOTH), values for QNAM for the SUPPAE records would have the values AEACNOT1, AEACNOT2, and so on", "score": 0.4459, "match_basis": "verbatim_token+chapter_route:ch04"}, {"md_atom_id": "md_ch04_a059", "md_file": "knowledge_base/chapters/ch04_general_assumptions.md", "md_atom_type": "LIST_ITEM", "md_parent_section": "§4.1.7 [Splitting Domains]", "md_verbatim": "6. For domains with 2-letter domain codes (i.e., other than SUPPxx and RELREC), split dataset names can be up to 4 characters in length. For example, if splitting by --CAT, dataset names would be the domain name plus up to 2 additional characters (e.g., QS36 for SF-36). If splitting Findings About by parent domain, then the dataset name would be the domain code, \"FA\", plus the 2-character domain code for parent domain code (e.g., \"FACM\"). The 4-character dataset-name limitation allows the use of a Supplemental Qualifier dataset associated with the split dataset.", "score": 0.4246, "match_basis": "verbatim_token+chapter_route:ch04"}, {"md_atom_id": "md_ch04_a1024", "md_file": "knowledge_base/chapters/ch04_general_assumptions.md", "md_atom_type": "LIST_ITEM", "md_parent_section": "§4.5.8 [Accounting for Long-term Follow-up]", "md_verbatim": "3. The disposition of the subject at the time of the final follow-up contact should be stored in DS. Note that overall study conclusion is the point where any contact with the subject ceases, which in this example is also the conclusion of long-term follow-up. The disposition of the subject at the conclusion of the 2-month clinical treatment phase would be stored in DS as the conclusion to that epoch. Long-term follow-up would be represented as a separate epoch. Therefore, in this example the subject could have 3 disposition records in DS, with both the follow-up epoch disposition and the overall study conclusion disposition being collected at the final telephone contact. See Section 6.2.4, Disposition, for detailed assumptions and examples.", "score": 0.4169, "match_basis": "verbatim_token+chapter_route:ch04"}], "candidate_count": 5, "zero_candidate": false}
{"pdf_atom_id": "ig34_p0028_a014", "pdf_atom_type": "SENTENCE", "pdf_source": "SDTMIG_v3.4", "pdf_page": 28, "pdf_parent_section": "§4.2.1 [Variable-naming Conventions]", "pdf_verbatim": "Variable descriptive names (labels), up to 40 characters, should be provided as data variable labels for all variables, including Supplemental Qualifier variables.", "figure_ref": null, "candidates": [{"md_atom_id": "md_ch04_a180", "md_file": "knowledge_base/chapters/ch04_general_assumptions.md", "md_atom_type": "SENTENCE", "md_parent_section": "§4.2.1 [Variable-Naming Conventions]", "md_verbatim": "Variable descriptive names (labels), up to 40 characters, should be provided as data variable labels for all variables, including Supplemental Qualifier variables.", "score": 0.9, "match_basis": "verbatim_token+chapter_route:ch04"}, {"md_atom_id": "md_ch04_a148", "md_file": "knowledge_base/chapters/ch04_general_assumptions.md", "md_atom_type": "SENTENCE", "md_parent_section": "§4.1.9 [Assigning Natural Keys in the Metadata]", "md_verbatim": "Supplemental Qualifier variables should be referenced in the natural key by using a 2-part name.", "score": 0.5114, "match_basis": "verbatim_token+chapter_route:ch04"}, {"md_atom_id": "md_ch04_a954", "md_file": "knowledge_base/chapters/ch04_general_assumptions.md", "md_atom_type": "SENTENCE", "md_parent_section": "§4.5.4 [Evaluators in the Interventions and Events Observation Classes]", "md_verbatim": "The QEVAL variable can be used to describe the evaluator for any data item in a SUPP-- dataset (see Section 8.4.1, Supplemental Qualifiers -- SUPP-- Datasets), but is not required when the data are objective.", "score": 0.48, "match_basis": "verbatim_token+chapter_route:ch04"}, {"md_atom_id": "md_ch04_a916", "md_file": "knowledge_base/chapters/ch04_general_assumptions.md", "md_atom_type": "SENTENCE", "md_parent_section": "§4.5.3.2 [Text Strings Greater than 200 Characters in Other Variables]", "md_verbatim": "**Example 1 (mh.xpt / suppmh.xpt):** MHTERM was longer than 200 characters and required 2 supplemental qualifier variables for the text that extended beyond what could be represented in the standard variable.", "score": 0.4785, "match_basis": "verbatim_token+chapter_route:ch04"}, {"md_atom_id": "md_ch04_a170", "md_file": "knowledge_base/chapters/ch04_general_assumptions.md", "md_atom_type": "SENTENCE", "md_parent_section": "§4.1.9 [Assigning Natural Keys in the Metadata]", "md_verbatim": "The following variables would be used to fully describe the test. The natural key for this domain includes both parent dataset variables and a supplemental qualifier variable that contribute to the natural key of each row and to describe the uniqueness of the test.", "score": 0.4781, "match_basis": "verbatim_token+chapter_route:ch04"}], "candidate_count": 5, "zero_candidate": false}
{"pdf_atom_id": "ig34_p0028_a015", "pdf_atom_type": "SENTENCE", "pdf_source": "SDTMIG_v3.4", "pdf_page": 28, "pdf_parent_section": "§4.2.1 [Variable-naming Conventions]", "pdf_verbatim": "Use of variable names (other than domain prefixes), formats, decodes, terminology, and data types for the same type of data (even for custom domains and Supplemental Qualifiers) should be consistent within and across studies within a submission.", "figure_ref": null, "candidates": [{"md_atom_id": "md_ch04_a181", "md_file": "knowledge_base/chapters/ch04_general_assumptions.md", "md_atom_type": "SENTENCE", "md_parent_section": "§4.2.1 [Variable-Naming Conventions]", "md_verbatim": "Use of variable names (other than domain prefixes), formats, decodes, terminology, and data types for the same type of data (even for custom domains and Supplemental Qualifiers) should be consistent within and across studies within a submission.", "score": 0.9, "match_basis": "verbatim_token+chapter_route:ch04"}, {"md_atom_id": "md_ch04_a263", "md_file": "knowledge_base/chapters/ch04_general_assumptions.md", "md_atom_type": "SENTENCE", "md_parent_section": "§4.2.7.1 [\"Specify\" Values for Non-Result Qualifier Variables]", "md_verbatim": "When applicable, controlled terminology should be used for SUPP-- field names (QNAM) and their associated labels (QLABEL; see Section 8.4 and Appendix C1, Supplemental Qualifiers Name Codes).", "score": 0.4788, "match_basis": "verbatim_token+chapter_route:ch04"}, {"md_atom_id": "md_ch04_a981", "md_file": "knowledge_base/chapters/ch04_general_assumptions.md", "md_atom_type": "SENTENCE", "md_parent_section": "§4.5.6 [Supplemental Reason Variables]", "md_verbatim": "If the sponsor collects a reason for performing an activity represented in an Events domain where the topic is not a medical condition, or a reason for an intervention other than a medical indication, the reason can be represented in the SUPP-- dataset (as described in Section 8.4.1, Supplemental Qualifiers -- SUPP-- Datasets) using the supplemental qualifier with QNAM of \"--REAS\" listed in Appendix C1, Supplemental Qualifiers Name Codes.", "score": 0.4598, "match_basis": "verbatim_token+chapter_route:ch04"}, {"md_atom_id": "md_ch04_a180", "md_file": "knowledge_base/chapters/ch04_general_assumptions.md", "md_atom_type": "SENTENCE", "md_parent_section": "§4.2.1 [Variable-Naming Conventions]", "md_verbatim": "Variable descriptive names (labels), up to 40 characters, should be provided as data variable labels for all variables, including Supplemental Qualifier variables.", "score": 0.4586, "match_basis": "verbatim_token+chapter_route:ch04"}, {"md_atom_id": "md_ch04_a955", "md_file": "knowledge_base/chapters/ch04_general_assumptions.md", "md_atom_type": "SENTENCE", "md_parent_section": "§4.5.4 [Evaluators in the Interventions and Events Observation Classes]", "md_verbatim": "For observations that have primary and secondary evaluations of specific qualifier variables, sponsors should put data from the primary evaluation into the standard domain dataset and data from the secondary evaluation into the Supplemental Qualifier datasets (SUPP--).", "score": 0.4577, "match_basis": "verbatim_token+chapter_route:ch04"}], "candidate_count": 5, "zero_candidate": false}
{"pdf_atom_id": "ig34_p0028_a016", "pdf_atom_type": "HEADING", "pdf_source": "SDTMIG_v3.4", "pdf_page": 28, "pdf_parent_section": "§4.2.2 [Two-character Domain Identifier]", "pdf_verbatim": "4.2.2 Two-character Domain Identifier", "figure_ref": null, "candidates": [{"md_atom_id": "md_ch04_a192", "md_file": "knowledge_base/chapters/ch04_general_assumptions.md", "md_atom_type": "HEADING", "md_parent_section": "§4.2 [General Variable Assumptions]", "md_verbatim": "### 4.2.2 Two-character Domain Identifier", "score": 0.9, "match_basis": "verbatim_token+chapter_route:ch04"}, {"md_atom_id": "md_ch04_a894", "md_file": "knowledge_base/chapters/ch04_general_assumptions.md", "md_atom_type": "HEADING", "md_parent_section": "§4.5.3 [Text Strings that Exceed the Maximum Length for General Observation-class Domain Variables]", "md_verbatim": "#### 4.5.3.1 Test Name (--TEST) Greater than 40 Characters", "score": 0.4355, "match_basis": "verbatim_token+chapter_route:ch04"}, {"md_atom_id": "md_ch04_a903", "md_file": "knowledge_base/chapters/ch04_general_assumptions.md", "md_atom_type": "HEADING", "md_parent_section": "§4.5.3 [Text Strings that Exceed the Maximum Length for General Observation-class Domain Variables]", "md_verbatim": "#### 4.5.3.2 Text Strings Greater than 200 Characters in Other Variables", "score": 0.3933, "match_basis": "verbatim_token+chapter_route:ch04"}, {"md_atom_id": "md_ch04_a001", "md_file": "knowledge_base/chapters/ch04_general_assumptions.md", "md_atom_type": "HEADING", "md_parent_section": "§4 [Assumptions for Domain Models]", "md_verbatim": "# SDTMIG v3.4 — Chapter 4: Assumptions for Domain Models", "score": 0.3878, "match_basis": "verbatim_token+chapter_route:ch04"}, {"md_atom_id": "md_ch04_a049", "md_file": "knowledge_base/chapters/ch04_general_assumptions.md", "md_atom_type": "HEADING", "md_parent_section": "§4.1 [General Domain Assumptions]", "md_verbatim": "### 4.1.7 Splitting Domains", "score": 0.3857, "match_basis": "verbatim_token+chapter_route:ch04"}], "candidate_count": 5, "zero_candidate": false}
{"pdf_atom_id": "ig34_p0028_a017", "pdf_atom_type": "SENTENCE", "pdf_source": "SDTMIG_v3.4", "pdf_page": 28, "pdf_parent_section": "§4.2.2 [Two-character Domain Identifier]", "pdf_verbatim": "In order to minimize the risk of difficulty when merging/joining domains for reporting purposes, the 2-character domain identifier is used as a prefix in most variable names.", "figure_ref": null, "candidates": [{"md_atom_id": "md_ch04_a193", "md_file": "knowledge_base/chapters/ch04_general_assumptions.md", "md_atom_type": "SENTENCE", "md_parent_section": "§4.2.2 [Two-character Domain Identifier]", "md_verbatim": "In order to minimize the risk of difficulty when merging/joining domains for reporting purposes, the 2-character domain identifier is used as a prefix in most variable names.", "score": 0.9, "match_basis": "verbatim_token+chapter_route:ch04"}, {"md_atom_id": "md_ch04_a200", "md_file": "knowledge_base/chapters/ch04_general_assumptions.md", "md_atom_type": "SENTENCE", "md_parent_section": "§4.2.2 [Two-character Domain Identifier]", "md_verbatim": "Required identifiers are not prefixed because they are usually used as keys when merging/joining observations. The --SEQ and the optional Identifiers --GRPID and --REFID are prefixed because they may be used as keys when relating observations across domains.", "score": 0.4466, "match_basis": "verbatim_token+chapter_route:ch04"}, {"md_atom_id": "md_ch04_a195", "md_file": "knowledge_base/chapters/ch04_general_assumptions.md", "md_atom_type": "SENTENCE", "md_parent_section": "§4.2.2 [Two-character Domain Identifier]", "md_verbatim": "The following variables are exceptions to the philosophy that all variable names are prefixed with the domain identifier:", "score": 0.4459, "match_basis": "verbatim_token+chapter_route:ch04"}, {"md_atom_id": "md_ch04_a239", "md_file": "knowledge_base/chapters/ch04_general_assumptions.md", "md_atom_type": "SENTENCE", "md_parent_section": "§4.2.6 [Grouping Variables and Categorization]", "md_verbatim": "Although --SPID and --REFID are Identifier variables, they may sometimes be used as grouping variables and may also have meaning across domains.", "score": 0.4397, "match_basis": "verbatim_token+chapter_route:ch04"}, {"md_atom_id": "md_ch04_a969", "md_file": "knowledge_base/chapters/ch04_general_assumptions.md", "md_atom_type": "SENTENCE", "md_parent_section": "§4.5.5 [Clinical Significance for Findings Observation Class Data]", "md_verbatim": "For assessments of clinical significance when the overall interpretation is in the domain, use the --CLSIG (Clinically Significant) variable on the record that contains the overall interpretation or a particular result.", "score": 0.4244, "match_basis": "verbatim_token+chapter_route:ch04"}], "candidate_count": 5, "zero_candidate": false}
{"pdf_atom_id": "ig34_p0028_a018", "pdf_atom_type": "SENTENCE", "pdf_source": "SDTMIG_v3.4", "pdf_page": 28, "pdf_parent_section": "§4.2.2 [Two-character Domain Identifier]", "pdf_verbatim": "Variables in domain specification tables (see Section 5, Models for Special-purpose Domains; Section 6, Domain Models Based on the General Observation Classes; Section 7, Trial Design Model Datasets; Section 8, Representing Relationships and Data; and Section 9, Study References) already specify the complete variable names.", "figure_ref": null, "candidates": [{"md_atom_id": "md_ch04_a194", "md_file": "knowledge_base/chapters/ch04_general_assumptions.md", "md_atom_type": "SENTENCE", "md_parent_section": "§4.2.2 [Two-character Domain Identifier]", "md_verbatim": "Variables in domain specification tables (see Section 5, Models for Special-purpose Domains; Section 6, Domain Models Based on the General Observation Classes; Section 7, Trial Design Model Datasets; Section 8, Representing Relationships and Data; and Section 9, Study References) already specify the complete variable names. When adding variables from the SDTM to standard domains or creating custom domains based on the general observation classes, sponsors must replace the \"--\" prefix in the SDTM tables of General Observation Class, Timing, and Identifier variables with the 2-character domain identifier (DOMAIN) value for that domain/dataset. The 2-character domain code is limited to A-Z for the first character, and A-Z, 0-9 for the second character. No other characters are allowed. This is for compatibility with SAS v5 transport files and with file naming requirements as part of the Electronic Common Technical Document (eCTD).", "score": 0.5875, "match_basis": "verbatim_token+chapter_route:ch04"}, {"md_atom_id": "md_ch04_a009", "md_file": "knowledge_base/chapters/ch04_general_assumptions.md", "md_atom_type": "SENTENCE", "md_parent_section": "§4.1.1 [Review Study Data Tabulation Model and Implementation Guide]", "md_verbatim": "The SDTM describes the general conceptual framework, including the general observation classes (Interventions, Events, Findings), special-purpose domains, trial design model datasets, relationship datasets, and study references.", "score": 0.5863, "match_basis": "verbatim_token+chapter_route:ch04"}, {"md_atom_id": "md_ch04_a044", "md_file": "knowledge_base/chapters/ch04_general_assumptions.md", "md_atom_type": "SENTENCE", "md_parent_section": "§4.1.6 [Additional Guidance on Dataset Naming]", "md_verbatim": "Exceptions to this rule are described in Section 4.1.7, Splitting Domains, for general observation class datasets and in Section 8, Representing Relationships and Data, for RELREC and SUPP-- datasets.", "score": 0.5271, "match_basis": "verbatim_token+chapter_route:ch04"}, {"md_atom_id": "md_ch04_a013", "md_file": "knowledge_base/chapters/ch04_general_assumptions.md", "md_atom_type": "SENTENCE", "md_parent_section": "§4.1.3 [Additional Timing Variables]", "md_verbatim": "Additional Timing variables can be added as needed to a standard domain model based on the 3 general observation classes, except for the cases specified in Assumption 4.4.8, Date and Time Reported in a Domain Based on Findings.", "score": 0.4774, "match_basis": "verbatim_token+chapter_route:ch04"}, {"md_atom_id": "md_ch04_a015", "md_file": "knowledge_base/chapters/ch04_general_assumptions.md", "md_atom_type": "SENTENCE", "md_parent_section": "§4.1.3 [Additional Timing Variables]", "md_verbatim": "Timing variables cannot be added to SUPPQUAL datasets or to RELREC (described in Section 8, Representing Relationships and Data).", "score": 0.4727, "match_basis": "verbatim_token+chapter_route:ch04"}], "candidate_count": 5, "zero_candidate": false}
{"pdf_atom_id": "ig34_p0028_a019", "pdf_atom_type": "SENTENCE", "pdf_source": "SDTMIG_v3.4", "pdf_page": 28, "pdf_parent_section": "§4.2.2 [Two-character Domain Identifier]", "pdf_verbatim": "When adding variables from the SDTM to standard domains or creating custom domains based on the general observation classes, sponsors must replace the \"--\" prefix in the SDTM tables of General Observation Class, Timing, and Identifier variables with the 2-character domain identifier (DOMAIN) value for that domain/dataset.", "figure_ref": null, "candidates": [{"md_atom_id": "md_ch04_a194", "md_file": "knowledge_base/chapters/ch04_general_assumptions.md", "md_atom_type": "SENTENCE", "md_parent_section": "§4.2.2 [Two-character Domain Identifier]", "md_verbatim": "Variables in domain specification tables (see Section 5, Models for Special-purpose Domains; Section 6, Domain Models Based on the General Observation Classes; Section 7, Trial Design Model Datasets; Section 8, Representing Relationships and Data; and Section 9, Study References) already specify the complete variable names. When adding variables from the SDTM to standard domains or creating custom domains based on the general observation classes, sponsors must replace the \"--\" prefix in the SDTM tables of General Observation Class, Timing, and Identifier variables with the 2-character domain identifier (DOMAIN) value for that domain/dataset. The 2-character domain code is limited to A-Z for the first character, and A-Z, 0-9 for the second character. No other characters are allowed. This is for compatibility with SAS v5 transport files and with file naming requirements as part of the Electronic Common Technical Document (eCTD).", "score": 0.565, "match_basis": "verbatim_token+chapter_route:ch04"}, {"md_atom_id": "md_ch04_a013", "md_file": "knowledge_base/chapters/ch04_general_assumptions.md", "md_atom_type": "SENTENCE", "md_parent_section": "§4.1.3 [Additional Timing Variables]", "md_verbatim": "Additional Timing variables can be added as needed to a standard domain model based on the 3 general observation classes, except for the cases specified in Assumption 4.4.8, Date and Time Reported in a Domain Based on Findings.", "score": 0.5152, "match_basis": "verbatim_token+chapter_route:ch04"}, {"md_atom_id": "md_ch04_a030", "md_file": "knowledge_base/chapters/ch04_general_assumptions.md", "md_atom_type": "SENTENCE", "md_parent_section": "§4.1.4 [Order of the Variables]", "md_verbatim": "Variables for the 3 general observation classes must be ordered with Identifiers variables first, followed by Topic, Qualifier, and Timing variables.", "score": 0.5109, "match_basis": "verbatim_token+chapter_route:ch04"}, {"md_atom_id": "md_ch04_a957", "md_file": "knowledge_base/chapters/ch04_general_assumptions.md", "md_atom_type": "SENTENCE", "md_parent_section": "§4.5.4 [Evaluators in the Interventions and Events Observation Classes]", "md_verbatim": "In cases where the standard domain variable name is already 8 characters in length, sponsors should replace the last character with a \"1\" (incremented for each additional attribution).", "score": 0.5028, "match_basis": "verbatim_token+chapter_route:ch04"}, {"md_atom_id": "md_ch04_a955", "md_file": "knowledge_base/chapters/ch04_general_assumptions.md", "md_atom_type": "SENTENCE", "md_parent_section": "§4.5.4 [Evaluators in the Interventions and Events Observation Classes]", "md_verbatim": "For observations that have primary and secondary evaluations of specific qualifier variables, sponsors should put data from the primary evaluation into the standard domain dataset and data from the secondary evaluation into the Supplemental Qualifier datasets (SUPP--).", "score": 0.5014, "match_basis": "verbatim_token+chapter_route:ch04"}], "candidate_count": 5, "zero_candidate": false}
{"pdf_atom_id": "ig34_p0028_a020", "pdf_atom_type": "SENTENCE", "pdf_source": "SDTMIG_v3.4", "pdf_page": 28, "pdf_parent_section": "§4.2.2 [Two-character Domain Identifier]", "pdf_verbatim": "The 2-character domain code is limited to A-Z for the first character, and A-Z, 0-9 for the second character.", "figure_ref": null, "candidates": [{"md_atom_id": "md_ch04_a945", "md_file": "knowledge_base/chapters/ch04_general_assumptions.md", "md_atom_type": "SENTENCE", "md_parent_section": "§4.5.3.2 [Text Strings Greater than 200 Characters in Other Variables]", "md_verbatim": "**Domain-specific conventions for text > 200 characters:**", "score": 0.4696, "match_basis": "verbatim_token+chapter_route:ch04"}, {"md_atom_id": "md_ch04_a496", "md_file": "knowledge_base/chapters/ch04_general_assumptions.md", "md_atom_type": "SENTENCE", "md_parent_section": "§4.4.1 [Formats for Date/Time Variables]", "md_verbatim": "Other characters defined for use within the ISO 8601 standard are:", "score": 0.42, "match_basis": "verbatim_token+chapter_route:ch04"}, {"md_atom_id": "md_ch04_a146", "md_file": "knowledge_base/chapters/ch04_general_assumptions.md", "md_atom_type": "SENTENCE", "md_parent_section": "§4.1.9 [Assigning Natural Keys in the Metadata]", "md_verbatim": "The important concept here is that a domain is not limited by physical structure.", "score": 0.4158, "match_basis": "verbatim_token+chapter_route:ch04"}, {"md_atom_id": "md_ch04_a897", "md_file": "knowledge_base/chapters/ch04_general_assumptions.md", "md_atom_type": "SENTENCE", "md_parent_section": "§4.5.3.1 [Test Name (--TEST) Greater than 40 Characters]", "md_verbatim": "Therefore, sponsors have the choice to either insert the first 40 characters or a text string abbreviated to 40 characters in --TEST.", "score": 0.4147, "match_basis": "verbatim_token+chapter_route:ch04"}, {"md_atom_id": "md_ch04_a454", "md_file": "knowledge_base/chapters/ch04_general_assumptions.md", "md_atom_type": "SENTENCE", "md_parent_section": "§4.3.6 [Storing Topic Variables for General Domain Models]", "md_verbatim": "For an Events domain, the topic variable is --TERM.", "score": 0.4, "match_basis": "verbatim_token+chapter_route:ch04"}], "candidate_count": 5, "zero_candidate": false}
{"pdf_atom_id": "ig34_p0028_a021", "pdf_atom_type": "SENTENCE", "pdf_source": "SDTMIG_v3.4", "pdf_page": 28, "pdf_parent_section": "§4.2.2 [Two-character Domain Identifier]", "pdf_verbatim": "No other characters are allowed.", "figure_ref": null, "candidates": [{"md_atom_id": "md_ch04_a496", "md_file": "knowledge_base/chapters/ch04_general_assumptions.md", "md_atom_type": "SENTENCE", "md_parent_section": "§4.4.1 [Formats for Date/Time Variables]", "md_verbatim": "Other characters defined for use within the ISO 8601 standard are:", "score": 0.4946, "match_basis": "verbatim_token+chapter_route:ch04"}, {"md_atom_id": "md_ch04_a945", "md_file": "knowledge_base/chapters/ch04_general_assumptions.md", "md_atom_type": "SENTENCE", "md_parent_section": "§4.5.3.2 [Text Strings Greater than 200 Characters in Other Variables]", "md_verbatim": "**Domain-specific conventions for text > 200 characters:**", "score": 0.42, "match_basis": "verbatim_token+chapter_route:ch04"}, {"md_atom_id": "md_ch04_a784", "md_file": "knowledge_base/chapters/ch04_general_assumptions.md", "md_atom_type": "SENTENCE", "md_parent_section": "§4.4.11 [Disease Milestones and Disease Milestone Timing Variables]", "md_verbatim": "The character string used in the name of a disease milestone is usually a short form of the disease milestone type.", "score": 0.4125, "match_basis": "verbatim_token+chapter_route:ch04"}, {"md_atom_id": "md_ch04_a508", "md_file": "knowledge_base/chapters/ch04_general_assumptions.md", "md_atom_type": "SENTENCE", "md_parent_section": "§4.4.1 [Formats for Date/Time Variables]", "md_verbatim": "The SDTM fragment employed for date/time character variables is **DTC**.", "score": 0.4091, "match_basis": "verbatim_token+chapter_route:ch04"}, {"md_atom_id": "md_ch04_a408", "md_file": "knowledge_base/chapters/ch04_general_assumptions.md", "md_atom_type": "SENTENCE", "md_parent_section": "§4.2.9 [Variable Lengths]", "md_verbatim": "When variable length is referenced in the SDTMIG, this refers to the length in bytes of ASCII character strings.", "score": 0.4, "match_basis": "verbatim_token+chapter_route:ch04"}], "candidate_count": 5, "zero_candidate": false}
{"pdf_atom_id": "ig34_p0028_a022", "pdf_atom_type": "SENTENCE", "pdf_source": "SDTMIG_v3.4", "pdf_page": 28, "pdf_parent_section": "§4.2.2 [Two-character Domain Identifier]", "pdf_verbatim": "This is for compatibility with SAS v5 transport files and with file naming requirements as part of the Electronic Common Technical Document (eCTD).", "figure_ref": null, "candidates": [{"md_atom_id": "md_ch04_a194", "md_file": "knowledge_base/chapters/ch04_general_assumptions.md", "md_atom_type": "SENTENCE", "md_parent_section": "§4.2.2 [Two-character Domain Identifier]", "md_verbatim": "Variables in domain specification tables (see Section 5, Models for Special-purpose Domains; Section 6, Domain Models Based on the General Observation Classes; Section 7, Trial Design Model Datasets; Section 8, Representing Relationships and Data; and Section 9, Study References) already specify the complete variable names. When adding variables from the SDTM to standard domains or creating custom domains based on the general observation classes, sponsors must replace the \"--\" prefix in the SDTM tables of General Observation Class, Timing, and Identifier variables with the 2-character domain identifier (DOMAIN) value for that domain/dataset. The 2-character domain code is limited to A-Z for the first character, and A-Z, 0-9 for the second character. No other characters are allowed. This is for compatibility with SAS v5 transport files and with file naming requirements as part of the Electronic Common Technical Document (eCTD).", "score": 0.4675, "match_basis": "verbatim_token+chapter_route:ch04"}, {"md_atom_id": "md_ch04_a905", "md_file": "knowledge_base/chapters/ch04_general_assumptions.md", "md_atom_type": "SENTENCE", "md_parent_section": "§4.5.3.2 [Text Strings Greater than 200 Characters in Other Variables]", "md_verbatim": "Because of the current requirement for the SAS V5 transport file format, it is not possible to store long text strings using only 1 variable.", "score": 0.4245, "match_basis": "verbatim_token+chapter_route:ch04"}, {"md_atom_id": "md_ch04_a175", "md_file": "knowledge_base/chapters/ch04_general_assumptions.md", "md_atom_type": "SENTENCE", "md_parent_section": "§4.2.1 [Variable-Naming Conventions]", "md_verbatim": "Values of --TESTCD must be limited to 8 characters and cannot start with a number, nor can they contain characters other than letters, numbers, or underscores. This is to avoid possible incompatibility with SAS v5 transport files. This limitation will be in effect until the use of other formats (e.g., Dataset-XML) becomes acceptable to regulatory authorities.", "score": 0.4011, "match_basis": "verbatim_token+chapter_route:ch04"}, {"md_atom_id": "md_ch04_a293", "md_file": "knowledge_base/chapters/ch04_general_assumptions.md", "md_atom_type": "SENTENCE", "md_parent_section": "§4.2.7.1 [\"Specify\" Values for Non-Result Qualifier Variables]", "md_verbatim": "   Note that the sponsor might choose a different value for CMINDC (e.g., \"BONE FRACTURE\") depending on the sponsor's coding practice and analysis requirements.", "score": 0.38, "match_basis": "verbatim_token+chapter_route:ch04"}, {"md_atom_id": "md_ch04_a202", "md_file": "knowledge_base/chapters/ch04_general_assumptions.md", "md_atom_type": "SENTENCE", "md_parent_section": "§4.2.3 [Use of \"Subject\" and USUBJID]", "md_verbatim": "\"Subject\" is used to generically refer to both patients and healthy volunteers in order to be consistent with the recommendation in FDA guidance. The term \"subject\" should be used consistently in all labels and Define-XML document comments.", "score": 0.3761, "match_basis": "verbatim_token+chapter_route:ch04"}], "candidate_count": 5, "zero_candidate": false}
{"pdf_atom_id": "ig34_p0028_a023", "pdf_atom_type": "SENTENCE", "pdf_source": "SDTMIG_v3.4", "pdf_page": 28, "pdf_parent_section": "§4.2.2 [Two-character Domain Identifier]", "pdf_verbatim": "The following variables are exceptions to the philosophy that all variable names are prefixed with the domain identifier:", "figure_ref": null, "candidates": [{"md_atom_id": "md_ch04_a195", "md_file": "knowledge_base/chapters/ch04_general_assumptions.md", "md_atom_type": "SENTENCE", "md_parent_section": "§4.2.2 [Two-character Domain Identifier]", "md_verbatim": "The following variables are exceptions to the philosophy that all variable names are prefixed with the domain identifier:", "score": 0.9, "match_basis": "verbatim_token+chapter_route:ch04"}, {"md_atom_id": "md_ch04_a239", "md_file": "knowledge_base/chapters/ch04_general_assumptions.md", "md_atom_type": "SENTENCE", "md_parent_section": "§4.2.6 [Grouping Variables and Categorization]", "md_verbatim": "Although --SPID and --REFID are Identifier variables, they may sometimes be used as grouping variables and may also have meaning across domains.", "score": 0.4562, "match_basis": "verbatim_token+chapter_route:ch04"}, {"md_atom_id": "md_ch04_a030", "md_file": "knowledge_base/chapters/ch04_general_assumptions.md", "md_atom_type": "SENTENCE", "md_parent_section": "§4.1.4 [Order of the Variables]", "md_verbatim": "Variables for the 3 general observation classes must be ordered with Identifiers variables first, followed by Topic, Qualifier, and Timing variables.", "score": 0.45, "match_basis": "verbatim_token+chapter_route:ch04"}, {"md_atom_id": "md_ch04_a193", "md_file": "knowledge_base/chapters/ch04_general_assumptions.md", "md_atom_type": "SENTENCE", "md_parent_section": "§4.2.2 [Two-character Domain Identifier]", "md_verbatim": "In order to minimize the risk of difficulty when merging/joining domains for reporting purposes, the 2-character domain identifier is used as a prefix in most variable names.", "score": 0.4459, "match_basis": "verbatim_token+chapter_route:ch04"}, {"md_atom_id": "md_ch04_a455", "md_file": "knowledge_base/chapters/ch04_general_assumptions.md", "md_atom_type": "SENTENCE", "md_parent_section": "§4.3.6 [Storing Topic Variables for General Domain Models]", "md_verbatim": "For an Interventions domain, the topic variable is --TRT.", "score": 0.4391, "match_basis": "verbatim_token+chapter_route:ch04"}], "candidate_count": 5, "zero_candidate": false}
{"pdf_atom_id": "ig34_p0028_a024", "pdf_atom_type": "LIST_ITEM", "pdf_source": "SDTMIG_v3.4", "pdf_page": 28, "pdf_parent_section": "§4.2.2 [Two-character Domain Identifier]", "pdf_verbatim": "Required Identifiers (STUDYID, DOMAIN, USUBJID)", "figure_ref": null, "candidates": [{"md_atom_id": "md_ch04_a196", "md_file": "knowledge_base/chapters/ch04_general_assumptions.md", "md_atom_type": "LIST_ITEM", "md_parent_section": "§4.2.2 [Two-character Domain Identifier]", "md_verbatim": "- Required Identifiers (STUDYID, DOMAIN, USUBJID)", "score": 0.9, "match_basis": "verbatim_token+chapter_route:ch04"}, {"md_atom_id": "md_ch04_a055", "md_file": "knowledge_base/chapters/ch04_general_assumptions.md", "md_atom_type": "LIST_ITEM", "md_parent_section": "§4.1.7 [Splitting Domains]", "md_verbatim": "2. All variables that require a domain prefix (e.g., --TESTCD, --LOC) must use the value of DOMAIN as the prefix value (e.g., QS, FA).", "score": 0.3982, "match_basis": "verbatim_token+chapter_route:ch04"}, {"md_atom_id": "md_ch04_a242", "md_file": "knowledge_base/chapters/ch04_general_assumptions.md", "md_atom_type": "LIST_ITEM", "md_parent_section": "§4.2.6 [Grouping Variables and Categorization]", "md_verbatim": "- --LNKID is a grouping identifier used to identify a record in one domain that is related to records in another domain, often forming a one-to-many relationship.", "score": 0.396, "match_basis": "verbatim_token+chapter_route:ch04"}, {"md_atom_id": "md_ch04_a243", "md_file": "knowledge_base/chapters/ch04_general_assumptions.md", "md_atom_type": "LIST_ITEM", "md_parent_section": "§4.2.6 [Grouping Variables and Categorization]", "md_verbatim": "- --LNKGRP is a grouping identifier used to identify a group of records in one domain that is related to a record in another domain, often forming a many-to-one relationship.", "score": 0.3947, "match_basis": "verbatim_token+chapter_route:ch04"}, {"md_atom_id": "md_ch04_a1023", "md_file": "knowledge_base/chapters/ch04_general_assumptions.md", "md_atom_type": "LIST_ITEM", "md_parent_section": "§4.5.8 [Accounting for Long-term Follow-up]", "md_verbatim": "2. The subject's survival status should be stored in the Subject Status (SS) domain.", "score": 0.384, "match_basis": "verbatim_token+chapter_route:ch04"}], "candidate_count": 5, "zero_candidate": false}
{"pdf_atom_id": "ig34_p0028_a025", "pdf_atom_type": "LIST_ITEM", "pdf_source": "SDTMIG_v3.4", "pdf_page": 28, "pdf_parent_section": "§4.2.2 [Two-character Domain Identifier]", "pdf_verbatim": "Commonly used grouping and merge keys (e.g., VISIT, VISITNUM, VISITDY)", "figure_ref": null, "candidates": [{"md_atom_id": "md_ch04_a197", "md_file": "knowledge_base/chapters/ch04_general_assumptions.md", "md_atom_type": "LIST_ITEM", "md_parent_section": "§4.2.2 [Two-character Domain Identifier]", "md_verbatim": "- Commonly used grouping and merge keys (e.g., VISIT, VISITNUM, VISITDY)", "score": 0.9, "match_basis": "verbatim_token+chapter_route:ch04"}, {"md_atom_id": "md_ch04_a614", "md_file": "knowledge_base/chapters/ch04_general_assumptions.md", "md_atom_type": "LIST_ITEM", "md_parent_section": "§4.4.5 [Clinical Encounters and Visits]", "md_verbatim": "- There must be a **one-to-one relationship** between VISIT and VISITNUM", "score": 0.3857, "match_basis": "verbatim_token+chapter_route:ch04"}, {"md_atom_id": "md_ch04_a250", "md_file": "knowledge_base/chapters/ch04_general_assumptions.md", "md_atom_type": "LIST_ITEM", "md_parent_section": "§4.2.6 [Grouping Variables and Categorization]", "md_verbatim": "5. --GRPID groups data only within a subject.", "score": 0.3698, "match_basis": "verbatim_token+chapter_route:ch04"}, {"md_atom_id": "md_ch04_a242", "md_file": "knowledge_base/chapters/ch04_general_assumptions.md", "md_atom_type": "LIST_ITEM", "md_parent_section": "§4.2.6 [Grouping Variables and Categorization]", "md_verbatim": "- --LNKID is a grouping identifier used to identify a record in one domain that is related to records in another domain, often forming a one-to-many relationship.", "score": 0.3615, "match_basis": "verbatim_token+chapter_route:ch04"}, {"md_atom_id": "md_ch04_a243", "md_file": "knowledge_base/chapters/ch04_general_assumptions.md", "md_atom_type": "LIST_ITEM", "md_parent_section": "§4.2.6 [Grouping Variables and Categorization]", "md_verbatim": "- --LNKGRP is a grouping identifier used to identify a group of records in one domain that is related to a record in another domain, often forming a many-to-one relationship.", "score": 0.3608, "match_basis": "verbatim_token+chapter_route:ch04"}], "candidate_count": 5, "zero_candidate": false}
{"pdf_atom_id": "ig34_p0028_a026", "pdf_atom_type": "LIST_ITEM", "pdf_source": "SDTMIG_v3.4", "pdf_page": 28, "pdf_parent_section": "§4.2.2 [Two-character Domain Identifier]", "pdf_verbatim": "All Demographics (DM) domain variables other than DMDTC and DMDY", "figure_ref": null, "candidates": [{"md_atom_id": "md_ch04_a198", "md_file": "knowledge_base/chapters/ch04_general_assumptions.md", "md_atom_type": "LIST_ITEM", "md_parent_section": "§4.2.2 [Two-character Domain Identifier]", "md_verbatim": "- All Demographics (DM) domain variables other than DMDTC and DMDY", "score": 0.9, "match_basis": "verbatim_token+chapter_route:ch04"}, {"md_atom_id": "md_ch04_a1025", "md_file": "knowledge_base/chapters/ch04_general_assumptions.md", "md_atom_type": "LIST_ITEM", "md_parent_section": "§4.5.8 [Accounting for Long-term Follow-up]", "md_verbatim": "4. If the subject's survival status is \"dead\", the Demographics (DM) variables DTHDTC and DTHFL must be appropriately populated.", "score": 0.4667, "match_basis": "verbatim_token+chapter_route:ch04"}, {"md_atom_id": "md_ch04_a055", "md_file": "knowledge_base/chapters/ch04_general_assumptions.md", "md_atom_type": "LIST_ITEM", "md_parent_section": "§4.1.7 [Splitting Domains]", "md_verbatim": "2. All variables that require a domain prefix (e.g., --TESTCD, --LOC) must use the value of DOMAIN as the prefix value (e.g., QS, FA).", "score": 0.4585, "match_basis": "verbatim_token+chapter_route:ch04"}, {"md_atom_id": "md_ch04_a422", "md_file": "knowledge_base/chapters/ch04_general_assumptions.md", "md_atom_type": "LIST_ITEM", "md_parent_section": "§4.3.1 [Controlled Terms, Codelist or Format Column]", "md_verbatim": "- The single applicable value for the variable DOMAIN (e.g., \"PR\")", "score": 0.4435, "match_basis": "verbatim_token+chapter_route:ch04"}, {"md_atom_id": "md_ch04_a912", "md_file": "knowledge_base/chapters/ch04_general_assumptions.md", "md_atom_type": "LIST_ITEM", "md_parent_section": "§4.5.3.2 [Text Strings Greater than 200 Characters in Other Variables]", "md_verbatim": "- The value for **QLABEL should be the original domain variable label**:", "score": 0.432, "match_basis": "verbatim_token+chapter_route:ch04"}], "candidate_count": 5, "zero_candidate": false}
{"pdf_atom_id": "ig34_p0029_a001", "pdf_atom_type": "LIST_ITEM", "pdf_source": "SDTMIG_v3.4", "pdf_page": 29, "pdf_parent_section": "§4.2.2 [Two-character Domain Identifier]", "pdf_verbatim": "All variables in RELREC and SUPPQUAL, and some variables in the Comments and Trial Design datasets", "figure_ref": null, "candidates": [{"md_atom_id": "md_ch04_a199", "md_file": "knowledge_base/chapters/ch04_general_assumptions.md", "md_atom_type": "LIST_ITEM", "md_parent_section": "§4.2.2 [Two-character Domain Identifier]", "md_verbatim": "- All variables in RELREC and SUPPQUAL, and some variables in the Comments and Trial Design datasets", "score": 0.9, "match_basis": "verbatim_token+chapter_route:ch04"}, {"md_atom_id": "md_ch04_a058", "md_file": "knowledge_base/chapters/ch04_general_assumptions.md", "md_atom_type": "LIST_ITEM", "md_parent_section": "§4.1.7 [Splitting Domains]", "md_verbatim": "5. Permissible variables included in one split dataset need not be included in all split datasets.", "score": 0.4377, "match_basis": "verbatim_token+chapter_route:ch04"}, {"md_atom_id": "md_ch04_a015", "md_file": "knowledge_base/chapters/ch04_general_assumptions.md", "md_atom_type": "SENTENCE", "md_parent_section": "§4.1.3 [Additional Timing Variables]", "md_verbatim": "Timing variables cannot be added to SUPPQUAL datasets or to RELREC (described in Section 8, Representing Relationships and Data).", "score": 0.41, "match_basis": "verbatim_token+chapter_route:ch04"}, {"md_atom_id": "md_ch04_a908", "md_file": "knowledge_base/chapters/ch04_general_assumptions.md", "md_atom_type": "LIST_ITEM", "md_parent_section": "§4.5.3.2 [Text Strings Greater than 200 Characters in Other Variables]", "md_verbatim": "- The **first 200 characters** of text should be stored in the parent domain variable and each additional 200 characters of text should be stored in a record in the SUPP-- dataset (see Section 8.4, Relating Non-standard Variable Values to a Parent Domain)", "score": 0.4069, "match_basis": "verbatim_token+chapter_route:ch04"}, {"md_atom_id": "md_ch04_a198", "md_file": "knowledge_base/chapters/ch04_general_assumptions.md", "md_atom_type": "LIST_ITEM", "md_parent_section": "§4.2.2 [Two-character Domain Identifier]", "md_verbatim": "- All Demographics (DM) domain variables other than DMDTC and DMDY", "score": 0.3968, "match_basis": "verbatim_token+chapter_route:ch04"}], "candidate_count": 5, "zero_candidate": false}
{"pdf_atom_id": "ig34_p0029_a002", "pdf_atom_type": "SENTENCE", "pdf_source": "SDTMIG_v3.4", "pdf_page": 29, "pdf_parent_section": "§4.2.2 [Two-character Domain Identifier]", "pdf_verbatim": "Required identifiers are not prefixed because they are usually used as keys when merging/joining observations.", "figure_ref": null, "candidates": [{"md_atom_id": "md_ch04_a200", "md_file": "knowledge_base/chapters/ch04_general_assumptions.md", "md_atom_type": "SENTENCE", "md_parent_section": "§4.2.2 [Two-character Domain Identifier]", "md_verbatim": "Required identifiers are not prefixed because they are usually used as keys when merging/joining observations. The --SEQ and the optional Identifiers --GRPID and --REFID are prefixed because they may be used as keys when relating observations across domains.", "score": 0.7265, "match_basis": "verbatim_token+chapter_route:ch04"}, {"md_atom_id": "md_ch04_a193", "md_file": "knowledge_base/chapters/ch04_general_assumptions.md", "md_atom_type": "SENTENCE", "md_parent_section": "§4.2.2 [Two-character Domain Identifier]", "md_verbatim": "In order to minimize the risk of difficulty when merging/joining domains for reporting purposes, the 2-character domain identifier is used as a prefix in most variable names.", "score": 0.4381, "match_basis": "verbatim_token+chapter_route:ch04"}, {"md_atom_id": "md_ch04_a195", "md_file": "knowledge_base/chapters/ch04_general_assumptions.md", "md_atom_type": "SENTENCE", "md_parent_section": "§4.2.2 [Two-character Domain Identifier]", "md_verbatim": "The following variables are exceptions to the philosophy that all variable names are prefixed with the domain identifier:", "score": 0.4313, "match_basis": "verbatim_token+chapter_route:ch04"}, {"md_atom_id": "md_ch04_a030", "md_file": "knowledge_base/chapters/ch04_general_assumptions.md", "md_atom_type": "SENTENCE", "md_parent_section": "§4.1.4 [Order of the Variables]", "md_verbatim": "Variables for the 3 general observation classes must be ordered with Identifiers variables first, followed by Topic, Qualifier, and Timing variables.", "score": 0.4269, "match_basis": "verbatim_token+chapter_route:ch04"}, {"md_atom_id": "md_ch04_a031", "md_file": "knowledge_base/chapters/ch04_general_assumptions.md", "md_atom_type": "SENTENCE", "md_parent_section": "§4.1.4 [Order of the Variables]", "md_verbatim": "Within each role, variables must be ordered as shown in SDTM Sections 3.1.1, The Interventions Observation Class; 3.1.2, The Events Observation Class; 3.1.3, The Findings Observation Class; 3.1.3.1, Findings About Events or Interventions; 3.1.4, Identifiers for All Classes; and 3.1.5, Timing Variables for All Classes.", "score": 0.4221, "match_basis": "verbatim_token+chapter_route:ch04"}], "candidate_count": 5, "zero_candidate": false}
{"pdf_atom_id": "ig34_p0029_a003", "pdf_atom_type": "SENTENCE", "pdf_source": "SDTMIG_v3.4", "pdf_page": 29, "pdf_parent_section": "§4.2.2 [Two-character Domain Identifier]", "pdf_verbatim": "The --SEQ and the optional Identifiers --GRPID and --REFID are prefixed because they may be used as keys when relating observations across domains.", "figure_ref": null, "candidates": [{"md_atom_id": "md_ch04_a200", "md_file": "knowledge_base/chapters/ch04_general_assumptions.md", "md_atom_type": "SENTENCE", "md_parent_section": "§4.2.2 [Two-character Domain Identifier]", "md_verbatim": "Required identifiers are not prefixed because they are usually used as keys when merging/joining observations. The --SEQ and the optional Identifiers --GRPID and --REFID are prefixed because they may be used as keys when relating observations across domains.", "score": 0.7554, "match_basis": "verbatim_token+chapter_route:ch04"}, {"md_atom_id": "md_ch04_a239", "md_file": "knowledge_base/chapters/ch04_general_assumptions.md", "md_atom_type": "SENTENCE", "md_parent_section": "§4.2.6 [Grouping Variables and Categorization]", "md_verbatim": "Although --SPID and --REFID are Identifier variables, they may sometimes be used as grouping variables and may also have meaning across domains.", "score": 0.4794, "match_basis": "verbatim_token+chapter_route:ch04"}, {"md_atom_id": "md_ch04_a195", "md_file": "knowledge_base/chapters/ch04_general_assumptions.md", "md_atom_type": "SENTENCE", "md_parent_section": "§4.2.2 [Two-character Domain Identifier]", "md_verbatim": "The following variables are exceptions to the philosophy that all variable names are prefixed with the domain identifier:", "score": 0.4562, "match_basis": "verbatim_token+chapter_route:ch04"}, {"md_atom_id": "md_ch04_a044", "md_file": "knowledge_base/chapters/ch04_general_assumptions.md", "md_atom_type": "SENTENCE", "md_parent_section": "§4.1.6 [Additional Guidance on Dataset Naming]", "md_verbatim": "Exceptions to this rule are described in Section 4.1.7, Splitting Domains, for general observation class datasets and in Section 8, Representing Relationships and Data, for RELREC and SUPP-- datasets.", "score": 0.4357, "match_basis": "verbatim_token+chapter_route:ch04"}, {"md_atom_id": "md_ch04_a1007", "md_file": "knowledge_base/chapters/ch04_general_assumptions.md", "md_atom_type": "SENTENCE", "md_parent_section": "§4.5.7 [Presence or Absence of Prespecified Interventions and Events]", "md_verbatim": "Refer to the standard domains in the Events and Interventions general observation classes for additional assumptions and examples.", "score": 0.4353, "match_basis": "verbatim_token+chapter_route:ch04"}], "candidate_count": 5, "zero_candidate": false}
{"pdf_atom_id": "ig34_p0029_a004", "pdf_atom_type": "HEADING", "pdf_source": "SDTMIG_v3.4", "pdf_page": 29, "pdf_parent_section": "§4.2.3 [Use of \"Subject\" and USUBJID]", "pdf_verbatim": "4.2.3 Use of \"Subject\" and USUBJID", "figure_ref": null, "candidates": [{"md_atom_id": "md_ch04_a201", "md_file": "knowledge_base/chapters/ch04_general_assumptions.md", "md_atom_type": "HEADING", "md_parent_section": "§4.2 [General Variable Assumptions]", "md_verbatim": "### 4.2.3 Use of \"Subject\" and USUBJID", "score": 0.9, "match_basis": "verbatim_token+chapter_route:ch04"}, {"md_atom_id": "md_ch04_a467", "md_file": "knowledge_base/chapters/ch04_general_assumptions.md", "md_atom_type": "HEADING", "md_parent_section": "§4.3 [Coding and Controlled Terminology Assumptions]", "md_verbatim": "### 4.3.7 Use of \"Yes\" and \"No\" Values", "score": 0.38, "match_basis": "verbatim_token+chapter_route:ch04"}, {"md_atom_id": "md_ch04_a547", "md_file": "knowledge_base/chapters/ch04_general_assumptions.md", "md_atom_type": "HEADING", "md_parent_section": "§4.4.3 [Intervals of Time and Use of Duration for --DUR Variables]", "md_verbatim": "#### 4.4.3.1 Intervals of Time and Use of Duration", "score": 0.348, "match_basis": "verbatim_token+chapter_route:ch04"}, {"md_atom_id": "md_ch04_a628", "md_file": "knowledge_base/chapters/ch04_general_assumptions.md", "md_atom_type": "HEADING", "md_parent_section": "§4.4.7 [Use of Relative Timing Variables]", "md_verbatim": "#### --STRF and --ENRF", "score": 0.3429, "match_basis": "verbatim_token+chapter_route:ch04"}, {"md_atom_id": "md_ch04_a546", "md_file": "knowledge_base/chapters/ch04_general_assumptions.md", "md_atom_type": "HEADING", "md_parent_section": "§4.4 [Actual and Relative Time Assumptions]", "md_verbatim": "### 4.4.3 Intervals of Time and Use of Duration for --DUR Variables", "score": 0.3364, "match_basis": "verbatim_token+chapter_route:ch04"}], "candidate_count": 5, "zero_candidate": false}
{"pdf_atom_id": "ig34_p0029_a005", "pdf_atom_type": "SENTENCE", "pdf_source": "SDTMIG_v3.4", "pdf_page": 29, "pdf_parent_section": "§4.2.3 [Use of \"Subject\" and USUBJID]", "pdf_verbatim": "\"Subject\" is used to generically refer to both patients and healthy volunteers in order to be consistent with the recommendation in FDA guidance.", "figure_ref": null, "candidates": [{"md_atom_id": "md_ch04_a202", "md_file": "knowledge_base/chapters/ch04_general_assumptions.md", "md_atom_type": "SENTENCE", "md_parent_section": "§4.2.3 [Use of \"Subject\" and USUBJID]", "md_verbatim": "\"Subject\" is used to generically refer to both patients and healthy volunteers in order to be consistent with the recommendation in FDA guidance. The term \"subject\" should be used consistently in all labels and Define-XML document comments.", "score": 0.7645, "match_basis": "verbatim_token+chapter_route:ch04"}, {"md_atom_id": "md_ch04_a988", "md_file": "knowledge_base/chapters/ch04_general_assumptions.md", "md_atom_type": "SENTENCE", "md_parent_section": "§4.5.7 [Presence or Absence of Prespecified Interventions and Events]", "md_verbatim": "Interventions (e.g., concomitant medications) and events (e.g., medical history) can generally be collected in 2 different ways, by recording either verbatim free text or the responses to a prespecified list of treatments or terms.", "score": 0.4061, "match_basis": "verbatim_token+chapter_route:ch04"}, {"md_atom_id": "md_ch04_a254", "md_file": "knowledge_base/chapters/ch04_general_assumptions.md", "md_atom_type": "SENTENCE", "md_parent_section": "§4.2.6 [Grouping Variables and Categorization]", "md_verbatim": "Groups of medications recorded on a Serious Adverse Event (SAE) form as treatments for the SAE would more appropriately use --GRPID because groupings are likely to differ across subjects.", "score": 0.395, "match_basis": "verbatim_token+chapter_route:ch04"}, {"md_atom_id": "md_ch04_a687", "md_file": "knowledge_base/chapters/ch04_general_assumptions.md", "md_atom_type": "SENTENCE", "md_parent_section": "§4.4.8 [Date and Time Reported in a Domain Based on Findings]", "md_verbatim": "This approach allows the single-point and interval collections to use the same date/time variables consistently across all datasets for the Findings general observation class.", "score": 0.392, "match_basis": "verbatim_token+chapter_route:ch04"}, {"md_atom_id": "md_ch04_a511", "md_file": "knowledge_base/chapters/ch04_general_assumptions.md", "md_atom_type": "SENTENCE", "md_parent_section": "§4.4.2 [Date/Time Precision]", "md_verbatim": "According to ISO 8601, precision (also referred to as \"completeness\" or \"representations with reduced accuracy\") can be inferred from the presence or absence of components in the date and/or time values.", "score": 0.3902, "match_basis": "verbatim_token+chapter_route:ch04"}], "candidate_count": 5, "zero_candidate": false}
{"pdf_atom_id": "ig34_p0029_a006", "pdf_atom_type": "SENTENCE", "pdf_source": "SDTMIG_v3.4", "pdf_page": 29, "pdf_parent_section": "§4.2.3 [Use of \"Subject\" and USUBJID]", "pdf_verbatim": "The term \"subject\" should be used consistently in all labels and Define-XML document comments.", "figure_ref": null, "candidates": [{"md_atom_id": "md_ch04_a202", "md_file": "knowledge_base/chapters/ch04_general_assumptions.md", "md_atom_type": "SENTENCE", "md_parent_section": "§4.2.3 [Use of \"Subject\" and USUBJID]", "md_verbatim": "\"Subject\" is used to generically refer to both patients and healthy volunteers in order to be consistent with the recommendation in FDA guidance. The term \"subject\" should be used consistently in all labels and Define-XML document comments.", "score": 0.5839, "match_basis": "verbatim_token+chapter_route:ch04"}, {"md_atom_id": "md_ch04_a387", "md_file": "knowledge_base/chapters/ch04_general_assumptions.md", "md_atom_type": "SENTENCE", "md_parent_section": "§4.2.8.3 [Multiple Values for a Non-result Qualifier Variable]", "md_verbatim": "In each of these examples, the use of SUPPAE should be documented in the Define-XML document and the annotated CRF.", "score": 0.4612, "match_basis": "verbatim_token+chapter_route:ch04"}, {"md_atom_id": "md_ch04_a430", "md_file": "knowledge_base/chapters/ch04_general_assumptions.md", "md_atom_type": "SENTENCE", "md_parent_section": "§4.3.3 [Controlled Terminology Values]", "md_verbatim": "The controlled terminology or a reference to it should be included in the Define-XML document wherever applicable.", "score": 0.4357, "match_basis": "verbatim_token+chapter_route:ch04"}, {"md_atom_id": "md_ch04_a388", "md_file": "knowledge_base/chapters/ch04_general_assumptions.md", "md_atom_type": "SENTENCE", "md_parent_section": "§4.2.8.3 [Multiple Values for a Non-result Qualifier Variable]", "md_verbatim": "The controlled terminology used should be documented as part of value-level metadata.", "score": 0.4297, "match_basis": "verbatim_token+chapter_route:ch04"}, {"md_atom_id": "md_ch04_a028", "md_file": "knowledge_base/chapters/ch04_general_assumptions.md", "md_atom_type": "SENTENCE", "md_parent_section": "§4.1.4 [Order of the Variables]", "md_verbatim": "The order of variables in the Define-XML document must reflect the order of variables in the dataset.", "score": 0.42, "match_basis": "verbatim_token+chapter_route:ch04"}], "candidate_count": 5, "zero_candidate": false}
{"pdf_atom_id": "ig34_p0029_a007", "pdf_atom_type": "SENTENCE", "pdf_source": "SDTMIG_v3.4", "pdf_page": 29, "pdf_parent_section": "§4.2.3 [Use of \"Subject\" and USUBJID]", "pdf_verbatim": "To identify a subject uniquely across all studies for all applications or submissions involving the product, a unique identifier (USUBJID) should be assigned and included in all datasets.", "figure_ref": null, "candidates": [{"md_atom_id": "md_ch04_a203", "md_file": "knowledge_base/chapters/ch04_general_assumptions.md", "md_atom_type": "SENTENCE", "md_parent_section": "§4.2.3 [Use of \"Subject\" and USUBJID]", "md_verbatim": "To identify a subject uniquely across all studies for all applications or submissions involving the product, a unique identifier (USUBJID) should be assigned and included in all datasets.", "score": 0.9, "match_basis": "verbatim_token+chapter_route:ch04"}, {"md_atom_id": "md_ch04_a204", "md_file": "knowledge_base/chapters/ch04_general_assumptions.md", "md_atom_type": "SENTENCE", "md_parent_section": "§4.2.3 [Use of \"Subject\" and USUBJID]", "md_verbatim": "The unique subject identifier (USUBJID) is required in all datasets containing subject-level data. USUBJID values must be unique for each trial participant (subject) across all trials in the submission. This means that no 2 or more subjects, across all trials in the submission, may have the same USUBJID. In addition, the same person who participates in multiple clinical trials (when this is known) must be assigned the same USUBJID value in all trials.", "score": 0.4756, "match_basis": "verbatim_token+chapter_route:ch04"}, {"md_atom_id": "md_ch04_a431", "md_file": "knowledge_base/chapters/ch04_general_assumptions.md", "md_atom_type": "SENTENCE", "md_parent_section": "§4.3.3 [Controlled Terminology Values]", "md_verbatim": "All values in the permissible value set for the study should be included, whether or not they are represented in submitted data.", "score": 0.4316, "match_basis": "verbatim_token+chapter_route:ch04"}, {"md_atom_id": "md_ch04_a136", "md_file": "knowledge_base/chapters/ch04_general_assumptions.md", "md_atom_type": "SENTENCE", "md_parent_section": "§4.1.9 [Assigning Natural Keys in the Metadata]", "md_verbatim": "Section 3.2, Using the CDISC Domain Models in Regulatory Submissions — Dataset Metadata, indicates that a sponsor should include in the metadata the variables that contribute to the natural key for a domain.", "score": 0.425, "match_basis": "verbatim_token+chapter_route:ch04"}, {"md_atom_id": "md_ch04_a142", "md_file": "knowledge_base/chapters/ch04_general_assumptions.md", "md_atom_type": "SENTENCE", "md_parent_section": "§4.1.9 [Assigning Natural Keys in the Metadata]", "md_verbatim": "Sponsor B collects data in such a way that the location (MKLOC and MKLAT) and method (MKMETHOD) variables need to be included in the natural key to identify a unique row.", "score": 0.4228, "match_basis": "verbatim_token+chapter_route:ch04"}], "candidate_count": 5, "zero_candidate": false}
