{"pdf_atom_id": "ig34_p0045_a021", "pdf_atom_type": "LIST_ITEM", "pdf_source": "SDTMIG_v3.4", "pdf_page": 45, "pdf_parent_section": "§4.4.7 [Use of Relative Timing Variables]", "pdf_verbatim": "AESTDTC is start date (e.g., \"2006-10-01\")", "figure_ref": null, "candidates": [{"md_atom_id": "md_ch04_a676", "md_file": "knowledge_base/chapters/ch04_general_assumptions.md", "md_atom_type": "LIST_ITEM", "md_parent_section": "§4.4.7 [Use of Relative Timing Variables]", "md_verbatim": "- AESTDTC = start date (e.g., \"2006-10-01\")", "score": 0.9, "match_basis": "verbatim_token+chapter_route:ch04"}, {"md_atom_id": "md_ch04_a658", "md_file": "knowledge_base/chapters/ch04_general_assumptions.md", "md_atom_type": "LIST_ITEM", "md_parent_section": "§4.4.7 [Use of Relative Timing Variables]", "md_verbatim": "- MHSTDTC = year of condition start (e.g., \"2002\")", "score": 0.475, "match_basis": "verbatim_token+chapter_route:ch04"}, {"md_atom_id": "md_ch04_a601", "md_file": "knowledge_base/chapters/ch04_general_assumptions.md", "md_atom_type": "LIST_ITEM", "md_parent_section": "§4.4.4 [Study Day Variables]", "md_verbatim": "- If --DTC is on or after RFSTDTC: DY = date portion of --DTC − date portion of RFSTDTC + 1", "score": 0.4364, "match_basis": "verbatim_token+chapter_route:ch04"}, {"md_atom_id": "md_ch04_a602", "md_file": "knowledge_base/chapters/ch04_general_assumptions.md", "md_atom_type": "LIST_ITEM", "md_parent_section": "§4.4.4 [Study Day Variables]", "md_verbatim": "- If --DTC is before RFSTDTC: DY = date portion of --DTC − date portion of RFSTDTC", "score": 0.4304, "match_basis": "verbatim_token+chapter_route:ch04"}, {"md_atom_id": "md_ch04_a657", "md_file": "knowledge_base/chapters/ch04_general_assumptions.md", "md_atom_type": "LIST_ITEM", "md_parent_section": "§4.4.7 [Use of Relative Timing Variables]", "md_verbatim": "- MHDTC = date of assessment value (e.g., \"2006-11-02\")", "score": 0.42, "match_basis": "verbatim_token+chapter_route:ch04"}], "candidate_count": 5, "zero_candidate": false}
{"pdf_atom_id": "ig34_p0045_a022", "pdf_atom_type": "LIST_ITEM", "pdf_source": "SDTMIG_v3.4", "pdf_page": 45, "pdf_parent_section": "§4.4.7 [Use of Relative Timing Variables]", "pdf_verbatim": "AEENDTC is null", "figure_ref": null, "candidates": [{"md_atom_id": "md_ch04_a677", "md_file": "knowledge_base/chapters/ch04_general_assumptions.md", "md_atom_type": "LIST_ITEM", "md_parent_section": "§4.4.7 [Use of Relative Timing Variables]", "md_verbatim": "- AEENDTC is null", "score": 0.9, "match_basis": "verbatim_token+chapter_route:ch04"}, {"md_atom_id": "md_ch04_a667", "md_file": "knowledge_base/chapters/ch04_general_assumptions.md", "md_atom_type": "LIST_ITEM", "md_parent_section": "§4.4.7 [Use of Relative Timing Variables]", "md_verbatim": "- CMENDTC is null", "score": 0.6333, "match_basis": "verbatim_token+chapter_route:ch04"}, {"md_atom_id": "md_ch04_a666", "md_file": "knowledge_base/chapters/ch04_general_assumptions.md", "md_atom_type": "LIST_ITEM", "md_parent_section": "§4.4.7 [Use of Relative Timing Variables]", "md_verbatim": "- CMSTDTC is null", "score": 0.4636, "match_basis": "verbatim_token+chapter_route:ch04"}, {"md_atom_id": "md_ch04_a678", "md_file": "knowledge_base/chapters/ch04_general_assumptions.md", "md_atom_type": "LIST_ITEM", "md_parent_section": "§4.4.7 [Use of Relative Timing Variables]", "md_verbatim": "- AEENRTPT = \"UNKNOWN\"", "score": 0.375, "match_basis": "verbatim_token+chapter_route:ch04"}, {"md_atom_id": "md_ch04_a827", "md_file": "knowledge_base/chapters/ch04_general_assumptions.md", "md_atom_type": "LIST_ITEM", "md_parent_section": "§4.5.1 [Original and Standardized Results]", "md_verbatim": "- --ORRESU and --STRESU should also be null", "score": 0.36, "match_basis": "verbatim_token+chapter_route:ch04"}], "candidate_count": 5, "zero_candidate": false}
{"pdf_atom_id": "ig34_p0045_a023", "pdf_atom_type": "LIST_ITEM", "pdf_source": "SDTMIG_v3.4", "pdf_page": 45, "pdf_parent_section": "§4.4.7 [Use of Relative Timing Variables]", "pdf_verbatim": "AEENRTPT = \"UNKNOWN\"", "figure_ref": null, "candidates": [{"md_atom_id": "md_ch04_a678", "md_file": "knowledge_base/chapters/ch04_general_assumptions.md", "md_atom_type": "LIST_ITEM", "md_parent_section": "§4.4.7 [Use of Relative Timing Variables]", "md_verbatim": "- AEENRTPT = \"UNKNOWN\"", "score": 0.9, "match_basis": "verbatim_token+chapter_route:ch04"}, {"md_atom_id": "md_ch04_a659", "md_file": "knowledge_base/chapters/ch04_general_assumptions.md", "md_atom_type": "LIST_ITEM", "md_parent_section": "§4.4.7 [Use of Relative Timing Variables]", "md_verbatim": "- MHENRTPT = \"ONGOING\"", "score": 0.4333, "match_basis": "verbatim_token+chapter_route:ch04"}, {"md_atom_id": "md_ch04_a670", "md_file": "knowledge_base/chapters/ch04_general_assumptions.md", "md_atom_type": "LIST_ITEM", "md_parent_section": "§4.4.7 [Use of Relative Timing Variables]", "md_verbatim": "- CMENRTPT = \"ONGOING\"", "score": 0.4333, "match_basis": "verbatim_token+chapter_route:ch04"}, {"md_atom_id": "md_ch04_a675", "md_file": "knowledge_base/chapters/ch04_general_assumptions.md", "md_atom_type": "SENTENCE", "md_parent_section": "§4.4.7 [Use of Relative Timing Variables]", "md_verbatim": "When \"Unknown\" is checked:", "score": 0.3767, "match_basis": "verbatim_token+chapter_route:ch04"}, {"md_atom_id": "md_ch04_a653", "md_file": "knowledge_base/chapters/ch04_general_assumptions.md", "md_atom_type": "LIST_ITEM", "md_parent_section": "§4.4.7 [Use of Relative Timing Variables]", "md_verbatim": "- **Adverse Events (--ENRTPT):** --ENRTPT = \"ONGOING\", --ENTPT = \"DATE OF LAST DOSE\"", "score": 0.375, "match_basis": "verbatim_token+chapter_route:ch04"}], "candidate_count": 5, "zero_candidate": false}
{"pdf_atom_id": "ig34_p0045_a024", "pdf_atom_type": "CODE_LITERAL", "pdf_source": "SDTMIG_v3.4", "pdf_page": 45, "pdf_parent_section": "§4.4.7 [Use of Relative Timing Variables]", "pdf_verbatim": "UNKNOWN", "figure_ref": null, "candidates": [{"md_atom_id": "md_ch04_a678", "md_file": "knowledge_base/chapters/ch04_general_assumptions.md", "md_atom_type": "LIST_ITEM", "md_parent_section": "§4.4.7 [Use of Relative Timing Variables]", "md_verbatim": "- AEENRTPT = \"UNKNOWN\"", "score": 0.3627, "match_basis": "verbatim_token+chapter_route:ch04"}, {"md_atom_id": "md_ch04_a675", "md_file": "knowledge_base/chapters/ch04_general_assumptions.md", "md_atom_type": "SENTENCE", "md_parent_section": "§4.4.7 [Use of Relative Timing Variables]", "md_verbatim": "When \"Unknown\" is checked:", "score": 0.34, "match_basis": "verbatim_token+chapter_route:ch04"}, {"md_atom_id": "md_ch04_a525", "md_file": "knowledge_base/chapters/ch04_general_assumptions.md", "md_atom_type": "TABLE_ROW", "md_parent_section": "§4.4.2 [Date/Time Precision]", "md_verbatim": "| 7 | 2003 | Unknown month, day, and time | 2003 |", "score": 0.3043, "match_basis": "verbatim_token+chapter_route:ch04"}, {"md_atom_id": "md_ch04_a523", "md_file": "knowledge_base/chapters/ch04_general_assumptions.md", "md_atom_type": "TABLE_ROW", "md_parent_section": "§4.4.2 [Date/Time Precision]", "md_verbatim": "| 5 | December 15, 2003 | Unknown time | 2003-12-15 |", "score": 0.29, "match_basis": "verbatim_token+chapter_route:ch04"}, {"md_atom_id": "md_ch04_a524", "md_file": "knowledge_base/chapters/ch04_general_assumptions.md", "md_atom_type": "TABLE_ROW", "md_parent_section": "§4.4.2 [Date/Time Precision]", "md_verbatim": "| 6 | December, 2003 | Unknown day and time | 2003-12 |", "score": 0.2665, "match_basis": "verbatim_token+chapter_route:ch04"}, {"md_atom_id": "md_ch04_a542", "md_file": "knowledge_base/chapters/ch04_general_assumptions.md", "md_atom_type": "TABLE_ROW", "md_parent_section": "§4.4.2 [Date/Time Precision]", "md_verbatim": "| 6 | 7:15 of some unknown date | Unknown date with known hour and minute | -----T07:15 |", "score": 0.2479, "match_basis": "verbatim_token+chapter_route:ch04"}, {"md_atom_id": "md_ch04_a521", "md_file": "knowledge_base/chapters/ch04_general_assumptions.md", "md_atom_type": "TABLE_ROW", "md_parent_section": "§4.4.2 [Date/Time Precision]", "md_verbatim": "| 3 | December 15, 2003 13:14 | Unknown seconds | 2003-12-15T13:14 |", "score": 0.2329, "match_basis": "verbatim_token+chapter_route:ch04"}, {"md_atom_id": "md_ch04_a538", "md_file": "knowledge_base/chapters/ch04_general_assumptions.md", "md_atom_type": "TABLE_ROW", "md_parent_section": "§4.4.2 [Date/Time Precision]", "md_verbatim": "| 2 | December 15, 2003 ??:15 | Unknown hour with known minutes | 2003-12-15T--:15 |", "score": 0.2204, "match_basis": "verbatim_token+chapter_route:ch04"}, {"md_atom_id": "md_ch04_a522", "md_file": "knowledge_base/chapters/ch04_general_assumptions.md", "md_atom_type": "TABLE_ROW", "md_parent_section": "§4.4.2 [Date/Time Precision]", "md_verbatim": "| 4 | December 15, 2003 13 | Unknown minutes and seconds | 2003-12-15T13 |", "score": 0.2011, "match_basis": "verbatim_token+chapter_route:ch04"}, {"md_atom_id": "md_ch04_a540", "md_file": "knowledge_base/chapters/ch04_general_assumptions.md", "md_atom_type": "TABLE_ROW", "md_parent_section": "§4.4.2 [Date/Time Precision]", "md_verbatim": "| 4 | The 15th of some month in 2003, time not collected | Unknown month and time with known year and day | 2003---15 |", "score": 0.1868, "match_basis": "verbatim_token+chapter_route:ch04"}], "candidate_count": 10, "zero_candidate": false}
{"pdf_atom_id": "ig34_p0045_a025", "pdf_atom_type": "LIST_ITEM", "pdf_source": "SDTMIG_v3.4", "pdf_page": 45, "pdf_parent_section": "§4.4.7 [Use of Relative Timing Variables]", "pdf_verbatim": "AEENTPT is final subject contact date (e.g., \"2006-11-02\")", "figure_ref": null, "candidates": [{"md_atom_id": "md_ch04_a679", "md_file": "knowledge_base/chapters/ch04_general_assumptions.md", "md_atom_type": "LIST_ITEM", "md_parent_section": "§4.4.7 [Use of Relative Timing Variables]", "md_verbatim": "- AEENTPT = final subject contact date (e.g., \"2006-11-02\")", "score": 0.9, "match_basis": "verbatim_token+chapter_route:ch04"}, {"md_atom_id": "md_ch04_a671", "md_file": "knowledge_base/chapters/ch04_general_assumptions.md", "md_atom_type": "LIST_ITEM", "md_parent_section": "§4.4.7 [Use of Relative Timing Variables]", "md_verbatim": "- CMENTPT = final study visit date (e.g., \"2006-11-02\")", "score": 0.5, "match_basis": "verbatim_token+chapter_route:ch04"}, {"md_atom_id": "md_ch04_a660", "md_file": "knowledge_base/chapters/ch04_general_assumptions.md", "md_atom_type": "LIST_ITEM", "md_parent_section": "§4.4.7 [Use of Relative Timing Variables]", "md_verbatim": "- MHENTPT = date of assessment value (e.g., \"2006-11-02\")", "score": 0.4235, "match_basis": "verbatim_token+chapter_route:ch04"}, {"md_atom_id": "md_ch04_a669", "md_file": "knowledge_base/chapters/ch04_general_assumptions.md", "md_atom_type": "LIST_ITEM", "md_parent_section": "§4.4.7 [Use of Relative Timing Variables]", "md_verbatim": "- CMSTTPT = screening date (e.g., \"2006-10-21\")", "score": 0.4125, "match_basis": "verbatim_token+chapter_route:ch04"}, {"md_atom_id": "md_ch04_a1027", "md_file": "knowledge_base/chapters/ch04_general_assumptions.md", "md_atom_type": "LIST_ITEM", "md_parent_section": "§4.5.8 [Accounting for Long-term Follow-up]", "md_verbatim": "6. The contacts would be recorded in Subject Visits (SV) and Subject Elements (SE) consistent with the way they are represented in TV and TE.", "score": 0.4065, "match_basis": "verbatim_token+chapter_route:ch04"}], "candidate_count": 5, "zero_candidate": false}
{"pdf_atom_id": "ig34_p0045_a026", "pdf_atom_type": "HEADING", "pdf_source": "SDTMIG_v3.4", "pdf_page": 45, "pdf_parent_section": "§4.4.8 [Date and Time Reported in a Domain Based on Findings]", "pdf_verbatim": "4.4.8 Date and Time Reported in a Domain Based on Findings", "figure_ref": null, "candidates": [{"md_atom_id": "md_ch04_a680", "md_file": "knowledge_base/chapters/ch04_general_assumptions.md", "md_atom_type": "HEADING", "md_parent_section": "§4.4 [Use of Timing Variables]", "md_verbatim": "### 4.4.8 Date and Time Reported in a Domain Based on Findings", "score": 0.9, "match_basis": "verbatim_token+chapter_route:ch04"}, {"md_atom_id": "md_ch04_a182", "md_file": "knowledge_base/chapters/ch04_general_assumptions.md", "md_atom_type": "HEADING", "md_parent_section": "§4.2.1 [Variable-Naming Conventions]", "md_verbatim": "#### 4.2.1.1 --TEST and --TESTCD Conventions (Findings)", "score": 0.4135, "match_basis": "verbatim_token+chapter_route:ch04"}, {"md_atom_id": "md_ch04_a049", "md_file": "knowledge_base/chapters/ch04_general_assumptions.md", "md_atom_type": "HEADING", "md_parent_section": "§4.1 [General Domain Assumptions]", "md_verbatim": "### 4.1.7 Splitting Domains", "score": 0.3968, "match_basis": "verbatim_token+chapter_route:ch04"}, {"md_atom_id": "md_ch04_a352", "md_file": "knowledge_base/chapters/ch04_general_assumptions.md", "md_atom_type": "HEADING", "md_parent_section": "§4.2.8 [Multiple Values for a Variable]", "md_verbatim": "#### 4.2.8.2 Multiple Values for a Findings Result Variable", "score": 0.3818, "match_basis": "verbatim_token+chapter_route:ch04"}, {"md_atom_id": "md_ch04_a968", "md_file": "knowledge_base/chapters/ch04_general_assumptions.md", "md_atom_type": "HEADING", "md_parent_section": "§4.5 [Other Assumptions]", "md_verbatim": "### 4.5.5 Clinical Significance for Findings Observation Class Data", "score": 0.3792, "match_basis": "verbatim_token+chapter_route:ch04"}], "candidate_count": 5, "zero_candidate": false}
{"pdf_atom_id": "ig34_p0045_a027", "pdf_atom_type": "SENTENCE", "pdf_source": "SDTMIG_v3.4", "pdf_page": 45, "pdf_parent_section": "§4.4.8 [Date and Time Reported in a Domain Based on Findings]", "pdf_verbatim": "When the date/time of collection is reported in any domain, the date/time should go into the --DTC field (e.g., EGDTC for Date/Time of ECG).", "figure_ref": null, "candidates": [{"md_atom_id": "md_ch04_a681", "md_file": "knowledge_base/chapters/ch04_general_assumptions.md", "md_atom_type": "SENTENCE", "md_parent_section": "§4.4.8 [Date and Time Reported in a Domain Based on Findings]", "md_verbatim": "When the date/time of collection is reported in any domain, the date/time should go into the --DTC field (e.g., EGDTC for Date/Time of ECG).", "score": 0.9, "match_basis": "verbatim_token+chapter_route:ch04"}, {"md_atom_id": "md_ch04_a017", "md_file": "knowledge_base/chapters/ch04_general_assumptions.md", "md_atom_type": "SENTENCE", "md_parent_section": "§4.1.3.1 [EPOCH Variable Guidance]", "md_verbatim": "When EPOCH is included in a Findings class domain, it should be based on the --DTC variable, since this is the date/time of the test or, for tests performed on specimens, the date/time of specimen collection.", "score": 0.4835, "match_basis": "verbatim_token+chapter_route:ch04"}, {"md_atom_id": "md_ch04_a997", "md_file": "knowledge_base/chapters/ch04_general_assumptions.md", "md_atom_type": "SENTENCE", "md_parent_section": "§4.5.7 [Presence or Absence of Prespecified Interventions and Events]", "md_verbatim": "If a study collects both prespecified interventions and events as well as free-text events and interventions, the value of --OCCUR should be \"Y\" or \"N\" for all prespecified interventions and events, and null for those reported as free text.", "score": 0.45, "match_basis": "verbatim_token+chapter_route:ch04"}, {"md_atom_id": "md_ch04_a132", "md_file": "knowledge_base/chapters/ch04_general_assumptions.md", "md_atom_type": "SENTENCE", "md_parent_section": "§4.1.8.2 [Origin Metadata for Records]", "md_verbatim": "In some cases, both collected and derived values may be reported in the same field.", "score": 0.4475, "match_basis": "verbatim_token+chapter_route:ch04"}, {"md_atom_id": "md_ch04_a544", "md_file": "knowledge_base/chapters/ch04_general_assumptions.md", "md_atom_type": "SENTENCE", "md_parent_section": "§4.4.2 [Date/Time Precision]", "md_verbatim": "Because most data are collected as part of a visit, when only a time appears on a CRF, it is expected that the date of the visit would usually be used as the date of collection.", "score": 0.444, "match_basis": "verbatim_token+chapter_route:ch04"}], "candidate_count": 5, "zero_candidate": false}
{"pdf_atom_id": "ig34_p0045_a028", "pdf_atom_type": "SENTENCE", "pdf_source": "SDTMIG_v3.4", "pdf_page": 45, "pdf_parent_section": "§4.4.8 [Date and Time Reported in a Domain Based on Findings]", "pdf_verbatim": "For any domain based on the Findings general observation class (e.g., lab tests based on a specimen), the collection date is likely to be tied to when the source of the finding was captured, not necessarily when the data were recorded.", "figure_ref": null, "candidates": [{"md_atom_id": "md_ch04_a682", "md_file": "knowledge_base/chapters/ch04_general_assumptions.md", "md_atom_type": "SENTENCE", "md_parent_section": "§4.4.8 [Date and Time Reported in a Domain Based on Findings]", "md_verbatim": "For any domain based on the Findings general observation class (e.g., lab tests based on a specimen), the collection date is likely to be tied to when the source of the finding was captured, not necessarily when the data were recorded.", "score": 0.9, "match_basis": "verbatim_token+chapter_route:ch04"}, {"md_atom_id": "md_ch04_a017", "md_file": "knowledge_base/chapters/ch04_general_assumptions.md", "md_atom_type": "SENTENCE", "md_parent_section": "§4.1.3.1 [EPOCH Variable Guidance]", "md_verbatim": "When EPOCH is included in a Findings class domain, it should be based on the --DTC variable, since this is the date/time of the test or, for tests performed on specimens, the date/time of specimen collection.", "score": 0.5067, "match_basis": "verbatim_token+chapter_route:ch04"}, {"md_atom_id": "md_ch04_a013", "md_file": "knowledge_base/chapters/ch04_general_assumptions.md", "md_atom_type": "SENTENCE", "md_parent_section": "§4.1.3 [Additional Timing Variables]", "md_verbatim": "Additional Timing variables can be added as needed to a standard domain model based on the 3 general observation classes, except for the cases specified in Assumption 4.4.8, Date and Time Reported in a Domain Based on Findings.", "score": 0.477, "match_basis": "verbatim_token+chapter_route:ch04"}, {"md_atom_id": "md_ch04_a255", "md_file": "knowledge_base/chapters/ch04_general_assumptions.md", "md_atom_type": "SENTENCE", "md_parent_section": "§4.2.6 [Grouping Variables and Categorization]", "md_verbatim": "In domains based on the Findings general observation class, the --RESCAT variable can be used to categorize results after the fact.", "score": 0.4707, "match_basis": "verbatim_token+chapter_route:ch04"}, {"md_atom_id": "md_ch04_a687", "md_file": "knowledge_base/chapters/ch04_general_assumptions.md", "md_atom_type": "SENTENCE", "md_parent_section": "§4.4.8 [Date and Time Reported in a Domain Based on Findings]", "md_verbatim": "This approach allows the single-point and interval collections to use the same date/time variables consistently across all datasets for the Findings general observation class.", "score": 0.4609, "match_basis": "verbatim_token+chapter_route:ch04"}], "candidate_count": 5, "zero_candidate": false}
{"pdf_atom_id": "ig34_p0045_a029", "pdf_atom_type": "SENTENCE", "pdf_source": "SDTMIG_v3.4", "pdf_page": 45, "pdf_parent_section": "§4.4.8 [Date and Time Reported in a Domain Based on Findings]", "pdf_verbatim": "In order to ensure that the critical timing information is always represented in the same variable, the --DTC variable is used to represent the time of specimen collection.", "figure_ref": null, "candidates": [{"md_atom_id": "md_ch04_a683", "md_file": "knowledge_base/chapters/ch04_general_assumptions.md", "md_atom_type": "SENTENCE", "md_parent_section": "§4.4.8 [Date and Time Reported in a Domain Based on Findings]", "md_verbatim": "In order to ensure that the critical timing information is always represented in the same variable, the --DTC variable is used to represent the time of specimen collection.", "score": 0.9, "match_basis": "verbatim_token+chapter_route:ch04"}, {"md_atom_id": "md_ch04_a575", "md_file": "knowledge_base/chapters/ch04_general_assumptions.md", "md_atom_type": "SENTENCE", "md_parent_section": "§4.4.3.1 [Intervals of Time and Use of Duration]", "md_verbatim": "ISO 8601 also allows that the \"lowest-order components\" of duration being represented may be represented in decimal format.", "score": 0.4613, "match_basis": "verbatim_token+chapter_route:ch04"}, {"md_atom_id": "md_ch04_a482", "md_file": "knowledge_base/chapters/ch04_general_assumptions.md", "md_atom_type": "SENTENCE", "md_parent_section": "§4.4.1 [Formats for Date/Time Variables]", "md_verbatim": "An SDTM DTC variable may include data that is represented in ISO 8601 format as a complete date/time, a partial date/time, or an incomplete date/time.", "score": 0.4582, "match_basis": "verbatim_token+chapter_route:ch04"}, {"md_atom_id": "md_ch04_a017", "md_file": "knowledge_base/chapters/ch04_general_assumptions.md", "md_atom_type": "SENTENCE", "md_parent_section": "§4.1.3.1 [EPOCH Variable Guidance]", "md_verbatim": "When EPOCH is included in a Findings class domain, it should be based on the --DTC variable, since this is the date/time of the test or, for tests performed on specimens, the date/time of specimen collection.", "score": 0.4556, "match_basis": "verbatim_token+chapter_route:ch04"}, {"md_atom_id": "md_ch04_a636", "md_file": "knowledge_base/chapters/ch04_general_assumptions.md", "md_atom_type": "SENTENCE", "md_parent_section": "§4.4.7 [Use of Relative Timing Variables]", "md_verbatim": "Note that in this example, the information collected is with respect to the start of the concomitant medication use only, and therefore the collected data corresponds to variable CMSTRF, not CMENRF.", "score": 0.4525, "match_basis": "verbatim_token+chapter_route:ch04"}], "candidate_count": 5, "zero_candidate": false}
{"pdf_atom_id": "ig34_p0045_a030", "pdf_atom_type": "SENTENCE", "pdf_source": "SDTMIG_v3.4", "pdf_page": 45, "pdf_parent_section": "§4.4.8 [Date and Time Reported in a Domain Based on Findings]", "pdf_verbatim": "For example, in the Laboratory Test Results (LB) domain, the LBDTC variable would be used for all single-point blood collections or spot urine collections.", "figure_ref": null, "candidates": [{"md_atom_id": "md_ch04_a685", "md_file": "knowledge_base/chapters/ch04_general_assumptions.md", "md_atom_type": "LIST_ITEM", "md_parent_section": "§4.4.8 [Date and Time Reported in a Domain Based on Findings]", "md_verbatim": "- For **single-point blood collections or spot urine collections**: use **LBDTC** for the date/time of collection", "score": 0.4709, "match_basis": "verbatim_token+chapter_route:ch04"}, {"md_atom_id": "md_ch04_a017", "md_file": "knowledge_base/chapters/ch04_general_assumptions.md", "md_atom_type": "SENTENCE", "md_parent_section": "§4.1.3.1 [EPOCH Variable Guidance]", "md_verbatim": "When EPOCH is included in a Findings class domain, it should be based on the --DTC variable, since this is the date/time of the test or, for tests performed on specimens, the date/time of specimen collection.", "score": 0.4556, "match_basis": "verbatim_token+chapter_route:ch04"}, {"md_atom_id": "md_ch04_a256", "md_file": "knowledge_base/chapters/ch04_general_assumptions.md", "md_atom_type": "SENTENCE", "md_parent_section": "§4.2.6 [Grouping Variables and Categorization]", "md_verbatim": "--CAT and --SCAT by contrast, are generally defined by the sponsor or used by the investigator at the point of collection, not after assessing the value of Findings results.", "score": 0.4514, "match_basis": "verbatim_token+chapter_route:ch04"}, {"md_atom_id": "md_ch04_a554", "md_file": "knowledge_base/chapters/ch04_general_assumptions.md", "md_atom_type": "SENTENCE", "md_parent_section": "§4.4.3.1 [Intervals of Time and Use of Duration]", "md_verbatim": "Duration is frequently used during a review; however, the duration timing variable (--DUR) should generally be used in a domain if it was collected in lieu of a start date/time (--STDTC) and end date/time (--ENDTC).", "score": 0.45, "match_basis": "verbatim_token+chapter_route:ch04"}, {"md_atom_id": "md_ch04_a832", "md_file": "knowledge_base/chapters/ch04_general_assumptions.md", "md_atom_type": "SENTENCE", "md_parent_section": "§4.5.1.3 [Examples of Original and Standard Units and Test Not Done]", "md_verbatim": "The following examples illustrate the use of Findings results variables and are not meant as comprehensive domain examples.", "score": 0.45, "match_basis": "verbatim_token+chapter_route:ch04"}], "candidate_count": 5, "zero_candidate": false}
{"pdf_atom_id": "ig34_p0045_a031", "pdf_atom_type": "SENTENCE", "pdf_source": "SDTMIG_v3.4", "pdf_page": 45, "pdf_parent_section": "§4.4.8 [Date and Time Reported in a Domain Based on Findings]", "pdf_verbatim": "For timed lab collections (e.g., 24-hour urine collections) the LBDTC variable would be used for the start date/time of the collection and LBENDTC for the end date/time of the collection.", "figure_ref": null, "candidates": [{"md_atom_id": "md_ch04_a686", "md_file": "knowledge_base/chapters/ch04_general_assumptions.md", "md_atom_type": "LIST_ITEM", "md_parent_section": "§4.4.8 [Date and Time Reported in a Domain Based on Findings]", "md_verbatim": "- For **timed lab collections** (e.g., 24-hour urine collections): use **LBDTC** for the start date/time of the collection and **LBENDTC** for the end date/time of the collection", "score": 0.6736, "match_basis": "verbatim_token+chapter_route:ch04"}, {"md_atom_id": "md_ch04_a554", "md_file": "knowledge_base/chapters/ch04_general_assumptions.md", "md_atom_type": "SENTENCE", "md_parent_section": "§4.4.3.1 [Intervals of Time and Use of Duration]", "md_verbatim": "Duration is frequently used during a review; however, the duration timing variable (--DUR) should generally be used in a domain if it was collected in lieu of a start date/time (--STDTC) and end date/time (--ENDTC).", "score": 0.5207, "match_basis": "verbatim_token+chapter_route:ch04"}, {"md_atom_id": "md_ch04_a688", "md_file": "knowledge_base/chapters/ch04_general_assumptions.md", "md_atom_type": "SENTENCE", "md_parent_section": "§4.4.8 [Date and Time Reported in a Domain Based on Findings]", "md_verbatim": "**Collection type and variable usage (--STDTC should not be used in Findings):**", "score": 0.5136, "match_basis": "verbatim_token+chapter_route:ch04"}, {"md_atom_id": "md_ch04_a721", "md_file": "knowledge_base/chapters/ch04_general_assumptions.md", "md_atom_type": "SENTENCE", "md_parent_section": "§4.4.10 [Representing Time Points]", "md_verbatim": "**Example: LB timed urine collections (pre-dose, 0-12 hours, 12-24 hours post-dose)**", "score": 0.4855, "match_basis": "verbatim_token+chapter_route:ch04"}, {"md_atom_id": "md_ch04_a017", "md_file": "knowledge_base/chapters/ch04_general_assumptions.md", "md_atom_type": "SENTENCE", "md_parent_section": "§4.1.3.1 [EPOCH Variable Guidance]", "md_verbatim": "When EPOCH is included in a Findings class domain, it should be based on the --DTC variable, since this is the date/time of the test or, for tests performed on specimens, the date/time of specimen collection.", "score": 0.4753, "match_basis": "verbatim_token+chapter_route:ch04"}], "candidate_count": 5, "zero_candidate": false}
{"pdf_atom_id": "ig34_p0045_a032", "pdf_atom_type": "SENTENCE", "pdf_source": "SDTMIG_v3.4", "pdf_page": 45, "pdf_parent_section": "§4.4.8 [Date and Time Reported in a Domain Based on Findings]", "pdf_verbatim": "This approach allows the single-point and interval collections to use the same date/time variables consistently across all datasets for the Findings general observation class.", "figure_ref": null, "candidates": [{"md_atom_id": "md_ch04_a687", "md_file": "knowledge_base/chapters/ch04_general_assumptions.md", "md_atom_type": "SENTENCE", "md_parent_section": "§4.4.8 [Date and Time Reported in a Domain Based on Findings]", "md_verbatim": "This approach allows the single-point and interval collections to use the same date/time variables consistently across all datasets for the Findings general observation class.", "score": 0.9, "match_basis": "verbatim_token+chapter_route:ch04"}, {"md_atom_id": "md_ch04_a031", "md_file": "knowledge_base/chapters/ch04_general_assumptions.md", "md_atom_type": "SENTENCE", "md_parent_section": "§4.1.4 [Order of the Variables]", "md_verbatim": "Within each role, variables must be ordered as shown in SDTM Sections 3.1.1, The Interventions Observation Class; 3.1.2, The Events Observation Class; 3.1.3, The Findings Observation Class; 3.1.3.1, Findings About Events or Interventions; 3.1.4, Identifiers for All Classes; and 3.1.5, Timing Variables for All Classes.", "score": 0.4887, "match_basis": "verbatim_token+chapter_route:ch04"}, {"md_atom_id": "md_ch04_a694", "md_file": "knowledge_base/chapters/ch04_general_assumptions.md", "md_atom_type": "SENTENCE", "md_parent_section": "§4.4.9 [Use of Dates as Result Variables]", "md_verbatim": "Dates are generally used only as timing variables to describe the timing of an event, intervention, or collection activity, but there may be occasions when it may be preferable to model a date as a result (--ORRES) in a Findings dataset.", "score": 0.4881, "match_basis": "verbatim_token+chapter_route:ch04"}, {"md_atom_id": "md_ch04_a478", "md_file": "knowledge_base/chapters/ch04_general_assumptions.md", "md_atom_type": "SENTENCE", "md_parent_section": "§4.4 [Actual and Relative Time Assumptions]", "md_verbatim": "In the Findings observation class, where data are usually collected at multiple visits, at least 1 timing variable must be used.", "score": 0.4842, "match_basis": "verbatim_token+chapter_route:ch04"}, {"md_atom_id": "md_ch04_a608", "md_file": "knowledge_base/chapters/ch04_general_assumptions.md", "md_atom_type": "SENTENCE", "md_parent_section": "§4.4.5 [Clinical Encounters and Visits]", "md_verbatim": "In the Findings observation class, where data are usually collected at multiple visits, at least 1 timing variable must be used.", "score": 0.4842, "match_basis": "verbatim_token+chapter_route:ch04"}], "candidate_count": 5, "zero_candidate": false}
{"pdf_atom_id": "ig34_p0045_a033", "pdf_atom_type": "SENTENCE", "pdf_source": "SDTMIG_v3.4", "pdf_page": 45, "pdf_parent_section": "§4.4.8 [Date and Time Reported in a Domain Based on Findings]", "pdf_verbatim": "The following table illustrates the proper use of these variables.", "figure_ref": null, "candidates": [{"md_atom_id": "md_ch04_a832", "md_file": "knowledge_base/chapters/ch04_general_assumptions.md", "md_atom_type": "SENTENCE", "md_parent_section": "§4.5.1.3 [Examples of Original and Standard Units and Test Not Done]", "md_verbatim": "The following examples illustrate the use of Findings results variables and are not meant as comprehensive domain examples.", "score": 0.5118, "match_basis": "verbatim_token+chapter_route:ch04"}, {"md_atom_id": "md_ch04_a1015", "md_file": "knowledge_base/chapters/ch04_general_assumptions.md", "md_atom_type": "SENTENCE", "md_parent_section": "§4.5.8 [Accounting for Long-term Follow-up]", "md_verbatim": "The following example illustrates the recommended SDTM approach to storing these data.", "score": 0.5034, "match_basis": "verbatim_token+chapter_route:ch04"}, {"md_atom_id": "md_ch04_a1033", "md_file": "knowledge_base/chapters/ch04_general_assumptions.md", "md_atom_type": "SENTENCE", "md_parent_section": "§4.5.9 [Baseline Values]", "md_verbatim": "The following table shows a set of similar flag variables and their usage across the SDTM and ADaM.", "score": 0.4684, "match_basis": "verbatim_token+chapter_route:ch04"}, {"md_atom_id": "md_ch04_a138", "md_file": "knowledge_base/chapters/ch04_general_assumptions.md", "md_atom_type": "SENTENCE", "md_parent_section": "§4.1.9 [Assigning Natural Keys in the Metadata]", "md_verbatim": "The following example illustrates how to do this, and include a case where a Supplemental Qualifier variable is referenced because it forms part of the natural key.", "score": 0.4618, "match_basis": "verbatim_token+chapter_route:ch04"}, {"md_atom_id": "md_ch04_a898", "md_file": "knowledge_base/chapters/ch04_general_assumptions.md", "md_atom_type": "SENTENCE", "md_parent_section": "§4.5.3.1 [Test Name (--TEST) Greater than 40 Characters]", "md_verbatim": "Sponsors have the following options for including the full description for these variables in the study metadata:", "score": 0.45, "match_basis": "verbatim_token+chapter_route:ch04"}], "candidate_count": 5, "zero_candidate": false}
{"pdf_atom_id": "ig34_p0045_a034", "pdf_atom_type": "SENTENCE", "pdf_source": "SDTMIG_v3.4", "pdf_page": 45, "pdf_parent_section": "§4.4.8 [Date and Time Reported in a Domain Based on Findings]", "pdf_verbatim": "Note that --STDTC should not be used in the Findings general observation class and is therefore blank in this table.", "figure_ref": null, "candidates": [{"md_atom_id": "md_ch04_a692", "md_file": "knowledge_base/chapters/ch04_general_assumptions.md", "md_atom_type": "NOTE", "md_parent_section": "§4.4.8 [Date and Time Reported in a Domain Based on Findings]", "md_verbatim": "**Note:** --STDTC should not be used in the Findings general observation class and is therefore blank in this table.", "score": 0.7869, "match_basis": "verbatim_token+chapter_route:ch04"}, {"md_atom_id": "md_ch04_a476", "md_file": "knowledge_base/chapters/ch04_general_assumptions.md", "md_atom_type": "SENTENCE", "md_parent_section": "§4.4 [Actual and Relative Time Assumptions]", "md_verbatim": "In general, all domains based on the 3 general observation classes should have at least 1 timing variable.", "score": 0.5108, "match_basis": "verbatim_token+chapter_route:ch04"}, {"md_atom_id": "md_ch04_a606", "md_file": "knowledge_base/chapters/ch04_general_assumptions.md", "md_atom_type": "SENTENCE", "md_parent_section": "§4.4.5 [Clinical Encounters and Visits]", "md_verbatim": "All domains based on the 3 general observation classes should have at least 1 timing variable.", "score": 0.5108, "match_basis": "verbatim_token+chapter_route:ch04"}, {"md_atom_id": "md_ch04_a980", "md_file": "knowledge_base/chapters/ch04_general_assumptions.md", "md_atom_type": "SENTENCE", "md_parent_section": "§4.5.6 [Supplemental Reason Variables]", "md_verbatim": "For the Findings general observation class, --REASPF is available to represent the reason a test was performed.", "score": 0.5051, "match_basis": "verbatim_token+chapter_route:ch04"}, {"md_atom_id": "md_ch04_a255", "md_file": "knowledge_base/chapters/ch04_general_assumptions.md", "md_atom_type": "SENTENCE", "md_parent_section": "§4.2.6 [Grouping Variables and Categorization]", "md_verbatim": "In domains based on the Findings general observation class, the --RESCAT variable can be used to categorize results after the fact.", "score": 0.5, "match_basis": "verbatim_token+chapter_route:ch04"}], "candidate_count": 5, "zero_candidate": false}
{"pdf_atom_id": "ig34_p0045_a035", "pdf_atom_type": "TABLE_HEADER", "pdf_source": "SDTMIG_v3.4", "pdf_page": 45, "pdf_parent_section": "§4.4.8 [Date and Time Reported in a Domain Based on Findings]", "pdf_verbatim": "Collection Type | --DTC | --STDTC | --ENDTC", "figure_ref": null, "candidates": [{"md_atom_id": "md_ch04_a689", "md_file": "knowledge_base/chapters/ch04_general_assumptions.md", "md_atom_type": "TABLE_HEADER", "md_parent_section": "§4.4.8 [Date and Time Reported in a Domain Based on Findings]", "md_verbatim": "| Collection Type | --DTC | --STDTC | --ENDTC |\n|-----------------|-------|---------|---------|", "score": 0.9, "match_basis": "verbatim_token+chapter_route:ch04"}, {"md_atom_id": "md_ch04_a691", "md_file": "knowledge_base/chapters/ch04_general_assumptions.md", "md_atom_type": "TABLE_ROW", "md_parent_section": "§4.4.8 [Date and Time Reported in a Domain Based on Findings]", "md_verbatim": "| Interval Collection | X | | X |", "score": 0.4686, "match_basis": "verbatim_token+chapter_route:ch04"}, {"md_atom_id": "md_ch04_a690", "md_file": "knowledge_base/chapters/ch04_general_assumptions.md", "md_atom_type": "TABLE_ROW", "md_parent_section": "§4.4.8 [Date and Time Reported in a Domain Based on Findings]", "md_verbatim": "| Single-point Collection | X | | |", "score": 0.4582, "match_basis": "verbatim_token+chapter_route:ch04"}, {"md_atom_id": "md_ch04_a299", "md_file": "knowledge_base/chapters/ch04_general_assumptions.md", "md_atom_type": "TABLE_HEADER", "md_parent_section": "§4.2.7.2 [\"Specify\" Values for Result Qualifier Variables]", "md_verbatim": "| Eye Color | Options                       |\n|-----------|-------------------------------|", "score": 0.3857, "match_basis": "verbatim_token+chapter_route:ch04"}, {"md_atom_id": "md_ch04_a1000", "md_file": "knowledge_base/chapters/ch04_general_assumptions.md", "md_atom_type": "TABLE_HEADER", "md_parent_section": "§4.5.7 [Presence or Absence of Prespecified Interventions and Events]", "md_verbatim": "| Situation | Value of --PRESP | Value of --OCCUR | Value of --STAT |\n|-----------|-----------------|-----------------|-----------------|", "score": 0.3387, "match_basis": "verbatim_token+chapter_route:ch04"}], "candidate_count": 5, "zero_candidate": false}
{"pdf_atom_id": "ig34_p0045_a036", "pdf_atom_type": "TABLE_ROW", "pdf_source": "SDTMIG_v3.4", "pdf_page": 45, "pdf_parent_section": "§4.4.8 [Date and Time Reported in a Domain Based on Findings]", "pdf_verbatim": "Single-point Collection | X |  | ", "figure_ref": null, "candidates": [{"md_atom_id": "md_ch04_a690", "md_file": "knowledge_base/chapters/ch04_general_assumptions.md", "md_atom_type": "TABLE_ROW", "md_parent_section": "§4.4.8 [Date and Time Reported in a Domain Based on Findings]", "md_verbatim": "| Single-point Collection | X | | |", "score": 0.9, "match_basis": "verbatim_token+chapter_route:ch04"}, {"md_atom_id": "md_ch04_a691", "md_file": "knowledge_base/chapters/ch04_general_assumptions.md", "md_atom_type": "TABLE_ROW", "md_parent_section": "§4.4.8 [Date and Time Reported in a Domain Based on Findings]", "md_verbatim": "| Interval Collection | X | | X |", "score": 0.57, "match_basis": "verbatim_token+chapter_route:ch04"}, {"md_atom_id": "md_ch04_a689", "md_file": "knowledge_base/chapters/ch04_general_assumptions.md", "md_atom_type": "TABLE_HEADER", "md_parent_section": "§4.4.8 [Date and Time Reported in a Domain Based on Findings]", "md_verbatim": "| Collection Type | --DTC | --STDTC | --ENDTC |\n|-----------------|-------|---------|---------|", "score": 0.4582, "match_basis": "verbatim_token+chapter_route:ch04"}, {"md_atom_id": "md_ch04_a685", "md_file": "knowledge_base/chapters/ch04_general_assumptions.md", "md_atom_type": "LIST_ITEM", "md_parent_section": "§4.4.8 [Date and Time Reported in a Domain Based on Findings]", "md_verbatim": "- For **single-point blood collections or spot urine collections**: use **LBDTC** for the date/time of collection", "score": 0.3847, "match_basis": "verbatim_token+chapter_route:ch04"}, {"md_atom_id": "md_ch04_a540", "md_file": "knowledge_base/chapters/ch04_general_assumptions.md", "md_atom_type": "TABLE_ROW", "md_parent_section": "§4.4.2 [Date/Time Precision]", "md_verbatim": "| 4 | The 15th of some month in 2003, time not collected | Unknown month and time with known year and day | 2003---15 |", "score": 0.3732, "match_basis": "verbatim_token+chapter_route:ch04"}], "candidate_count": 5, "zero_candidate": false}
{"pdf_atom_id": "ig34_p0045_a037", "pdf_atom_type": "TABLE_ROW", "pdf_source": "SDTMIG_v3.4", "pdf_page": 45, "pdf_parent_section": "§4.4.8 [Date and Time Reported in a Domain Based on Findings]", "pdf_verbatim": "Interval Collection | X |  | X", "figure_ref": null, "candidates": [{"md_atom_id": "md_ch04_a691", "md_file": "knowledge_base/chapters/ch04_general_assumptions.md", "md_atom_type": "TABLE_ROW", "md_parent_section": "§4.4.8 [Date and Time Reported in a Domain Based on Findings]", "md_verbatim": "| Interval Collection | X | | X |", "score": 0.9, "match_basis": "verbatim_token+chapter_route:ch04"}, {"md_atom_id": "md_ch04_a690", "md_file": "knowledge_base/chapters/ch04_general_assumptions.md", "md_atom_type": "TABLE_ROW", "md_parent_section": "§4.4.8 [Date and Time Reported in a Domain Based on Findings]", "md_verbatim": "| Single-point Collection | X | | |", "score": 0.57, "match_basis": "verbatim_token+chapter_route:ch04"}, {"md_atom_id": "md_ch04_a689", "md_file": "knowledge_base/chapters/ch04_general_assumptions.md", "md_atom_type": "TABLE_HEADER", "md_parent_section": "§4.4.8 [Date and Time Reported in a Domain Based on Findings]", "md_verbatim": "| Collection Type | --DTC | --STDTC | --ENDTC |\n|-----------------|-------|---------|---------|", "score": 0.4686, "match_basis": "verbatim_token+chapter_route:ch04"}, {"md_atom_id": "md_ch04_a869", "md_file": "knowledge_base/chapters/ch04_general_assumptions.md", "md_atom_type": "TABLE_ROW", "md_parent_section": "§4.5.1.3 [Examples of Original and Standard Units and Test Not Done]", "md_verbatim": "| 1 | QRSAG | PR Interval, Aggregate | 0.362 | sec | 0.362 | 0.362 | sec | | 1 | 2015-03-07 |", "score": 0.4286, "match_basis": "verbatim_token+chapter_route:ch04"}, {"md_atom_id": "md_ch04_a870", "md_file": "knowledge_base/chapters/ch04_general_assumptions.md", "md_atom_type": "TABLE_ROW", "md_parent_section": "§4.5.1.3 [Examples of Original and Standard Units and Test Not Done]", "md_verbatim": "| 2 | QTAG | QT Interval, Aggregate | 221 | msec | 0.221 | 0.221 | sec | | 1 | 2015-03-07 |", "score": 0.4286, "match_basis": "verbatim_token+chapter_route:ch04"}], "candidate_count": 5, "zero_candidate": false}
{"pdf_atom_id": "ig34_p0045_a038", "pdf_atom_type": "HEADING", "pdf_source": "SDTMIG_v3.4", "pdf_page": 45, "pdf_parent_section": "§4.4.9 [Use of Dates as Result Variables]", "pdf_verbatim": "4.4.9 Use of Dates as Result Variables", "figure_ref": null, "candidates": [{"md_atom_id": "md_ch04_a693", "md_file": "knowledge_base/chapters/ch04_general_assumptions.md", "md_atom_type": "HEADING", "md_parent_section": "§4.4 [Use of Timing Variables]", "md_verbatim": "### 4.4.9 Use of Dates as Result Variables", "score": 0.9, "match_basis": "verbatim_token+chapter_route:ch04"}, {"md_atom_id": "md_ch04_a481", "md_file": "knowledge_base/chapters/ch04_general_assumptions.md", "md_atom_type": "HEADING", "md_parent_section": "§4.4 [Actual and Relative Time Assumptions]", "md_verbatim": "### 4.4.1 Formats for Date/Time Variables", "score": 0.5455, "match_basis": "verbatim_token+chapter_route:ch04"}, {"md_atom_id": "md_ch04_a027", "md_file": "knowledge_base/chapters/ch04_general_assumptions.md", "md_atom_type": "HEADING", "md_parent_section": "§4.1 [General Domain Assumptions]", "md_verbatim": "### 4.1.4 Order of the Variables", "score": 0.5211, "match_basis": "verbatim_token+chapter_route:ch04"}, {"md_atom_id": "md_ch04_a599", "md_file": "knowledge_base/chapters/ch04_general_assumptions.md", "md_atom_type": "HEADING", "md_parent_section": "§4.4 [Actual and Relative Time Assumptions]", "md_verbatim": "### 4.4.4 Study Day Variables", "score": 0.5211, "match_basis": "verbatim_token+chapter_route:ch04"}, {"md_atom_id": "md_ch04_a221", "md_file": "knowledge_base/chapters/ch04_general_assumptions.md", "md_atom_type": "HEADING", "md_parent_section": "§4.2.6 [Grouping Variables and Categorization]", "md_verbatim": "#### How Grouping Variables Group Data", "score": 0.5087, "match_basis": "verbatim_token+chapter_route:ch04"}], "candidate_count": 5, "zero_candidate": false}
{"pdf_atom_id": "ig34_p0045_a039", "pdf_atom_type": "SENTENCE", "pdf_source": "SDTMIG_v3.4", "pdf_page": 45, "pdf_parent_section": "§4.4.9 [Use of Dates as Result Variables]", "pdf_verbatim": "Dates are generally used only as timing variables to describe the timing of an event, intervention, or collection activity, but there may be occasions when it may be preferable to model a date as a result (--ORRES) in a Findings dataset.", "figure_ref": null, "candidates": [{"md_atom_id": "md_ch04_a694", "md_file": "knowledge_base/chapters/ch04_general_assumptions.md", "md_atom_type": "SENTENCE", "md_parent_section": "§4.4.9 [Use of Dates as Result Variables]", "md_verbatim": "Dates are generally used only as timing variables to describe the timing of an event, intervention, or collection activity, but there may be occasions when it may be preferable to model a date as a result (--ORRES) in a Findings dataset.", "score": 0.9, "match_basis": "verbatim_token+chapter_route:ch04"}, {"md_atom_id": "md_ch04_a687", "md_file": "knowledge_base/chapters/ch04_general_assumptions.md", "md_atom_type": "SENTENCE", "md_parent_section": "§4.4.8 [Date and Time Reported in a Domain Based on Findings]", "md_verbatim": "This approach allows the single-point and interval collections to use the same date/time variables consistently across all datasets for the Findings general observation class.", "score": 0.4881, "match_basis": "verbatim_token+chapter_route:ch04"}, {"md_atom_id": "md_ch04_a478", "md_file": "knowledge_base/chapters/ch04_general_assumptions.md", "md_atom_type": "SENTENCE", "md_parent_section": "§4.4 [Actual and Relative Time Assumptions]", "md_verbatim": "In the Findings observation class, where data are usually collected at multiple visits, at least 1 timing variable must be used.", "score": 0.478, "match_basis": "verbatim_token+chapter_route:ch04"}, {"md_atom_id": "md_ch04_a608", "md_file": "knowledge_base/chapters/ch04_general_assumptions.md", "md_atom_type": "SENTENCE", "md_parent_section": "§4.4.5 [Clinical Encounters and Visits]", "md_verbatim": "In the Findings observation class, where data are usually collected at multiple visits, at least 1 timing variable must be used.", "score": 0.478, "match_basis": "verbatim_token+chapter_route:ch04"}, {"md_atom_id": "md_ch04_a976", "md_file": "knowledge_base/chapters/ch04_general_assumptions.md", "md_atom_type": "SENTENCE", "md_parent_section": "§4.5.6 [Supplemental Reason Variables]", "md_verbatim": "The SDTM general observation classes include the --REASND variable to submit the reason a response is not present (a result in a findings class or an --OCCUR value in an events or interventions variable).", "score": 0.4649, "match_basis": "verbatim_token+chapter_route:ch04"}], "candidate_count": 5, "zero_candidate": false}
{"pdf_atom_id": "ig34_p0045_a040", "pdf_atom_type": "SENTENCE", "pdf_source": "SDTMIG_v3.4", "pdf_page": 45, "pdf_parent_section": "§4.4.9 [Use of Dates as Result Variables]", "pdf_verbatim": "Note that using a date as a result to a Findings question is unusual and atypical, and should be approached [TRUNCATED_AT_PAGE_BOUNDARY]", "figure_ref": null, "candidates": [{"md_atom_id": "md_ch04_a695", "md_file": "knowledge_base/chapters/ch04_general_assumptions.md", "md_atom_type": "SENTENCE", "md_parent_section": "§4.4.9 [Use of Dates as Result Variables]", "md_verbatim": "Note that using a date as a result to a Findings question is unusual and atypical, and should be approached with caution.", "score": 0.7299, "match_basis": "verbatim_token+chapter_route:ch04"}, {"md_atom_id": "md_ch04_a353", "md_file": "knowledge_base/chapters/ch04_general_assumptions.md", "md_atom_type": "SENTENCE", "md_parent_section": "§4.2.8.2 [Multiple Values for a Findings Result Variable]", "md_verbatim": "If multiple result values (--ORRES) are reported for a test in a Findings class dataset, multiple records should be submitted for that --TESTCD.", "score": 0.42, "match_basis": "verbatim_token+chapter_route:ch04"}, {"md_atom_id": "md_ch04_a701", "md_file": "knowledge_base/chapters/ch04_general_assumptions.md", "md_atom_type": "SENTENCE", "md_parent_section": "§4.4.9 [Use of Dates as Result Variables]", "md_verbatim": "One approach to modeling these data would be to place the text of the question in --TEST and the response to the question (a date represented in ISO 8601 format) in --ORRES and --STRESC, as long as these date results do not contain the dates of medically significant events or interventions.", "score": 0.4191, "match_basis": "verbatim_token+chapter_route:ch04"}, {"md_atom_id": "md_ch04_a688", "md_file": "knowledge_base/chapters/ch04_general_assumptions.md", "md_atom_type": "SENTENCE", "md_parent_section": "§4.4.8 [Date and Time Reported in a Domain Based on Findings]", "md_verbatim": "**Collection type and variable usage (--STDTC should not be used in Findings):**", "score": 0.4171, "match_basis": "verbatim_token+chapter_route:ch04"}, {"md_atom_id": "md_ch04_a702", "md_file": "knowledge_base/chapters/ch04_general_assumptions.md", "md_atom_type": "SENTENCE", "md_parent_section": "§4.4.9 [Use of Dates as Result Variables]", "md_verbatim": "Again, use extreme caution when storing dates as the results of findings.", "score": 0.4012, "match_basis": "verbatim_token+chapter_route:ch04"}], "candidate_count": 5, "zero_candidate": false}
{"pdf_atom_id": "ig34_p0046_a001", "pdf_atom_type": "SENTENCE", "pdf_source": "SDTMIG_v3.4", "pdf_page": 46, "pdf_parent_section": "§4.4.9 [Use of Dates as Result Variables]", "pdf_verbatim": "with caution. This situation, however, may occasionally occur when (1) a group of questions (each of which has a date response) is asked and analyzed together; or (2) the event(s) and intervention(s) in question are not medically significant (e.g., when included in questionnaires). Consider the following cases:", "figure_ref": null, "candidates": [{"md_atom_id": "md_ch04_a696", "md_file": "knowledge_base/chapters/ch04_general_assumptions.md", "md_atom_type": "SENTENCE", "md_parent_section": "§4.4.9 [Use of Dates as Result Variables]", "md_verbatim": "This situation, however, may occasionally occur when (1) a group of questions (each of which has a date response) is asked and analyzed together; or (2) the event(s) and intervention(s) in question are not medically significant (e.g., when included in questionnaires).", "score": 0.8026, "match_basis": "verbatim_token+chapter_route:ch04"}, {"md_atom_id": "md_ch04_a701", "md_file": "knowledge_base/chapters/ch04_general_assumptions.md", "md_atom_type": "SENTENCE", "md_parent_section": "§4.4.9 [Use of Dates as Result Variables]", "md_verbatim": "One approach to modeling these data would be to place the text of the question in --TEST and the response to the question (a date represented in ISO 8601 format) in --ORRES and --STRESC, as long as these date results do not contain the dates of medically significant events or interventions.", "score": 0.4571, "match_basis": "verbatim_token+chapter_route:ch04"}, {"md_atom_id": "md_ch04_a988", "md_file": "knowledge_base/chapters/ch04_general_assumptions.md", "md_atom_type": "SENTENCE", "md_parent_section": "§4.5.7 [Presence or Absence of Prespecified Interventions and Events]", "md_verbatim": "Interventions (e.g., concomitant medications) and events (e.g., medical history) can generally be collected in 2 different ways, by recording either verbatim free text or the responses to a prespecified list of treatments or terms.", "score": 0.4267, "match_basis": "verbatim_token+chapter_route:ch04"}, {"md_atom_id": "md_ch04_a953", "md_file": "knowledge_base/chapters/ch04_general_assumptions.md", "md_atom_type": "SENTENCE", "md_parent_section": "§4.5.4 [Evaluators in the Interventions and Events Observation Classes]", "md_verbatim": "For the Interventions and Events observation classes, which do not include the --EVAL variable, all data are assumed to be attributed to the principal investigator.", "score": 0.4148, "match_basis": "verbatim_token+chapter_route:ch04"}, {"md_atom_id": "md_ch04_a976", "md_file": "knowledge_base/chapters/ch04_general_assumptions.md", "md_atom_type": "SENTENCE", "md_parent_section": "§4.5.6 [Supplemental Reason Variables]", "md_verbatim": "The SDTM general observation classes include the --REASND variable to submit the reason a response is not present (a result in a findings class or an --OCCUR value in an events or interventions variable).", "score": 0.4098, "match_basis": "verbatim_token+chapter_route:ch04"}], "candidate_count": 5, "zero_candidate": false}
{"pdf_atom_id": "ig34_p0046_a002", "pdf_atom_type": "LIST_ITEM", "pdf_source": "SDTMIG_v3.4", "pdf_page": 46, "pdf_parent_section": "§4.4.9 [Use of Dates as Result Variables]", "pdf_verbatim": "Calculated due date", "figure_ref": null, "candidates": [{"md_atom_id": "md_ch04_a698", "md_file": "knowledge_base/chapters/ch04_general_assumptions.md", "md_atom_type": "LIST_ITEM", "md_parent_section": "§4.4.9 [Use of Dates as Result Variables]", "md_verbatim": "- Calculated due date", "score": 0.9, "match_basis": "verbatim_token+chapter_route:ch04"}, {"md_atom_id": "md_ch04_a600", "md_file": "knowledge_base/chapters/ch04_general_assumptions.md", "md_atom_type": "LIST_ITEM", "md_parent_section": "§4.4.4 [Study Day Variables]", "md_verbatim": "- --DY is calculated as: `--DTC - RFSTDTC` (with no day 0)", "score": 0.5667, "match_basis": "verbatim_token+chapter_route:ch04"}, {"md_atom_id": "md_ch04_a604", "md_file": "knowledge_base/chapters/ch04_general_assumptions.md", "md_atom_type": "LIST_ITEM", "md_parent_section": "§4.4.4 [Study Day Variables]", "md_verbatim": "- Study Day is not suitable for mathematical calculations (e.g., computing durations); use original date values instead", "score": 0.3814, "match_basis": "verbatim_token+chapter_route:ch04"}, {"md_atom_id": "md_ch04_a699", "md_file": "knowledge_base/chapters/ch04_general_assumptions.md", "md_atom_type": "LIST_ITEM", "md_parent_section": "§4.4.9 [Use of Dates as Result Variables]", "md_verbatim": "- Date of last day on the job", "score": 0.38, "match_basis": "verbatim_token+chapter_route:ch04"}, {"md_atom_id": "md_ch04_a676", "md_file": "knowledge_base/chapters/ch04_general_assumptions.md", "md_atom_type": "LIST_ITEM", "md_parent_section": "§4.4.7 [Use of Relative Timing Variables]", "md_verbatim": "- AESTDTC = start date (e.g., \"2006-10-01\")", "score": 0.36, "match_basis": "verbatim_token+chapter_route:ch04"}], "candidate_count": 5, "zero_candidate": false}
{"pdf_atom_id": "ig34_p0046_a003", "pdf_atom_type": "LIST_ITEM", "pdf_source": "SDTMIG_v3.4", "pdf_page": 46, "pdf_parent_section": "§4.4.9 [Use of Dates as Result Variables]", "pdf_verbatim": "Date of last day on the job", "figure_ref": null, "candidates": [{"md_atom_id": "md_ch04_a699", "md_file": "knowledge_base/chapters/ch04_general_assumptions.md", "md_atom_type": "LIST_ITEM", "md_parent_section": "§4.4.9 [Use of Dates as Result Variables]", "md_verbatim": "- Date of last day on the job", "score": 0.9, "match_basis": "verbatim_token+chapter_route:ch04"}, {"md_atom_id": "md_ch04_a653", "md_file": "knowledge_base/chapters/ch04_general_assumptions.md", "md_atom_type": "LIST_ITEM", "md_parent_section": "§4.4.7 [Use of Relative Timing Variables]", "md_verbatim": "- **Adverse Events (--ENRTPT):** --ENRTPT = \"ONGOING\", --ENTPT = \"DATE OF LAST DOSE\"", "score": 0.3857, "match_basis": "verbatim_token+chapter_route:ch04"}, {"md_atom_id": "md_ch04_a565", "md_file": "knowledge_base/chapters/ch04_general_assumptions.md", "md_atom_type": "LIST_ITEM", "md_parent_section": "§4.4.3.1 [Intervals of Time and Use of Duration]", "md_verbatim": "- [T] is used as the date/time format separator.", "score": 0.3818, "match_basis": "verbatim_token+chapter_route:ch04"}, {"md_atom_id": "md_ch04_a698", "md_file": "knowledge_base/chapters/ch04_general_assumptions.md", "md_atom_type": "LIST_ITEM", "md_parent_section": "§4.4.9 [Use of Dates as Result Variables]", "md_verbatim": "- Calculated due date", "score": 0.38, "match_basis": "verbatim_token+chapter_route:ch04"}, {"md_atom_id": "md_ch04_a676", "md_file": "knowledge_base/chapters/ch04_general_assumptions.md", "md_atom_type": "LIST_ITEM", "md_parent_section": "§4.4.7 [Use of Relative Timing Variables]", "md_verbatim": "- AESTDTC = start date (e.g., \"2006-10-01\")", "score": 0.3706, "match_basis": "verbatim_token+chapter_route:ch04"}], "candidate_count": 5, "zero_candidate": false}
{"pdf_atom_id": "ig34_p0046_a004", "pdf_atom_type": "LIST_ITEM", "pdf_source": "SDTMIG_v3.4", "pdf_page": 46, "pdf_parent_section": "§4.4.9 [Use of Dates as Result Variables]", "pdf_verbatim": "Date of high school graduation", "figure_ref": null, "candidates": [{"md_atom_id": "md_ch04_a700", "md_file": "knowledge_base/chapters/ch04_general_assumptions.md", "md_atom_type": "LIST_ITEM", "md_parent_section": "§4.4.9 [Use of Dates as Result Variables]", "md_verbatim": "- Date of high school graduation", "score": 0.9, "match_basis": "verbatim_token+chapter_route:ch04"}, {"md_atom_id": "md_ch04_a601", "md_file": "knowledge_base/chapters/ch04_general_assumptions.md", "md_atom_type": "LIST_ITEM", "md_parent_section": "§4.4.4 [Study Day Variables]", "md_verbatim": "- If --DTC is on or after RFSTDTC: DY = date portion of --DTC − date portion of RFSTDTC + 1", "score": 0.3889, "match_basis": "verbatim_token+chapter_route:ch04"}, {"md_atom_id": "md_ch04_a602", "md_file": "knowledge_base/chapters/ch04_general_assumptions.md", "md_atom_type": "LIST_ITEM", "md_parent_section": "§4.4.4 [Study Day Variables]", "md_verbatim": "- If --DTC is before RFSTDTC: DY = date portion of --DTC − date portion of RFSTDTC", "score": 0.3857, "match_basis": "verbatim_token+chapter_route:ch04"}, {"md_atom_id": "md_ch04_a161", "md_file": "knowledge_base/chapters/ch04_general_assumptions.md", "md_atom_type": "LIST_ITEM", "md_parent_section": "§4.1.9 [Assigning Natural Keys in the Metadata]", "md_verbatim": "- Rotation of the hand", "score": 0.3818, "match_basis": "verbatim_token+chapter_route:ch04"}, {"md_atom_id": "md_ch04_a503", "md_file": "knowledge_base/chapters/ch04_general_assumptions.md", "md_atom_type": "LIST_ITEM", "md_parent_section": "§4.4.1 [Formats for Date/Time Variables]", "md_verbatim": "- ISO 8601 represents dates as a text string using the notation YYYY-MM-DD.", "score": 0.3732, "match_basis": "verbatim_token+chapter_route:ch04"}], "candidate_count": 5, "zero_candidate": false}
{"pdf_atom_id": "ig34_p0046_a005", "pdf_atom_type": "SENTENCE", "pdf_source": "SDTMIG_v3.4", "pdf_page": 46, "pdf_parent_section": "§4.4.9 [Use of Dates as Result Variables]", "pdf_verbatim": "One approach to modeling these data would be to place the text of the question in --TEST and the response to the question (a date represented in ISO 8601 format) in --ORRES and --STRESC, as long as these date results do not contain the dates of medically significant events or interventions.", "figure_ref": null, "candidates": [{"md_atom_id": "md_ch04_a701", "md_file": "knowledge_base/chapters/ch04_general_assumptions.md", "md_atom_type": "SENTENCE", "md_parent_section": "§4.4.9 [Use of Dates as Result Variables]", "md_verbatim": "One approach to modeling these data would be to place the text of the question in --TEST and the response to the question (a date represented in ISO 8601 format) in --ORRES and --STRESC, as long as these date results do not contain the dates of medically significant events or interventions.", "score": 0.9, "match_basis": "verbatim_token+chapter_route:ch04"}, {"md_atom_id": "md_ch04_a696", "md_file": "knowledge_base/chapters/ch04_general_assumptions.md", "md_atom_type": "SENTENCE", "md_parent_section": "§4.4.9 [Use of Dates as Result Variables]", "md_verbatim": "This situation, however, may occasionally occur when (1) a group of questions (each of which has a date response) is asked and analyzed together; or (2) the event(s) and intervention(s) in question are not medically significant (e.g., when included in questionnaires).", "score": 0.4669, "match_basis": "verbatim_token+chapter_route:ch04"}, {"md_atom_id": "md_ch04_a534", "md_file": "knowledge_base/chapters/ch04_general_assumptions.md", "md_atom_type": "SENTENCE", "md_parent_section": "§4.4.2 [Date/Time Precision]", "md_verbatim": "ISO 8601 represents missing intermediate components through the use of a hyphen where the missing component would normally be represented.", "score": 0.4426, "match_basis": "verbatim_token+chapter_route:ch04"}, {"md_atom_id": "md_ch04_a981", "md_file": "knowledge_base/chapters/ch04_general_assumptions.md", "md_atom_type": "SENTENCE", "md_parent_section": "§4.5.6 [Supplemental Reason Variables]", "md_verbatim": "If the sponsor collects a reason for performing an activity represented in an Events domain where the topic is not a medical condition, or a reason for an intervention other than a medical indication, the reason can be represented in the SUPP-- dataset (as described in Section 8.4.1, Supplemental Qualifiers -- SUPP-- Datasets) using the supplemental qualifier with QNAM of \"--REAS\" listed in Appendix C1, Supplemental Qualifiers Name Codes.", "score": 0.4416, "match_basis": "verbatim_token+chapter_route:ch04"}, {"md_atom_id": "md_ch04_a988", "md_file": "knowledge_base/chapters/ch04_general_assumptions.md", "md_atom_type": "SENTENCE", "md_parent_section": "§4.5.7 [Presence or Absence of Prespecified Interventions and Events]", "md_verbatim": "Interventions (e.g., concomitant medications) and events (e.g., medical history) can generally be collected in 2 different ways, by recording either verbatim free text or the responses to a prespecified list of treatments or terms.", "score": 0.4396, "match_basis": "verbatim_token+chapter_route:ch04"}], "candidate_count": 5, "zero_candidate": false}
{"pdf_atom_id": "ig34_p0046_a006", "pdf_atom_type": "SENTENCE", "pdf_source": "SDTMIG_v3.4", "pdf_page": 46, "pdf_parent_section": "§4.4.9 [Use of Dates as Result Variables]", "pdf_verbatim": "Again, use extreme caution when storing dates as the results of findings.", "figure_ref": null, "candidates": [{"md_atom_id": "md_ch04_a702", "md_file": "knowledge_base/chapters/ch04_general_assumptions.md", "md_atom_type": "SENTENCE", "md_parent_section": "§4.4.9 [Use of Dates as Result Variables]", "md_verbatim": "Again, use extreme caution when storing dates as the results of findings.", "score": 0.9, "match_basis": "verbatim_token+chapter_route:ch04"}, {"md_atom_id": "md_ch04_a695", "md_file": "knowledge_base/chapters/ch04_general_assumptions.md", "md_atom_type": "SENTENCE", "md_parent_section": "§4.4.9 [Use of Dates as Result Variables]", "md_verbatim": "Note that using a date as a result to a Findings question is unusual and atypical, and should be approached with caution.", "score": 0.4437, "match_basis": "verbatim_token+chapter_route:ch04"}, {"md_atom_id": "md_ch04_a255", "md_file": "knowledge_base/chapters/ch04_general_assumptions.md", "md_atom_type": "SENTENCE", "md_parent_section": "§4.2.6 [Grouping Variables and Categorization]", "md_verbatim": "In domains based on the Findings general observation class, the --RESCAT variable can be used to categorize results after the fact.", "score": 0.4403, "match_basis": "verbatim_token+chapter_route:ch04"}, {"md_atom_id": "md_ch04_a357", "md_file": "knowledge_base/chapters/ch04_general_assumptions.md", "md_atom_type": "SENTENCE", "md_parent_section": "§4.2.8.2 [Multiple Values for a Findings Result Variable]", "md_verbatim": "When a finding can have multiple results, the key structure for the findings dataset must be adequate to distinguish between the multiple results.", "score": 0.4263, "match_basis": "verbatim_token+chapter_route:ch04"}, {"md_atom_id": "md_ch04_a816", "md_file": "knowledge_base/chapters/ch04_general_assumptions.md", "md_atom_type": "SENTENCE", "md_parent_section": "§4.5.1 [Original and Standardized Results]", "md_verbatim": "The SDTM provides a 3-level result framework for Findings:", "score": 0.4222, "match_basis": "verbatim_token+chapter_route:ch04"}], "candidate_count": 5, "zero_candidate": false}
{"pdf_atom_id": "ig34_p0046_a007", "pdf_atom_type": "SENTENCE", "pdf_source": "SDTMIG_v3.4", "pdf_page": 46, "pdf_parent_section": "§4.4.9 [Use of Dates as Result Variables]", "pdf_verbatim": "Remember, in most cases, these dates should be timing variables associated with a record in an Intervention or Events dataset.", "figure_ref": null, "candidates": [{"md_atom_id": "md_ch04_a703", "md_file": "knowledge_base/chapters/ch04_general_assumptions.md", "md_atom_type": "SENTENCE", "md_parent_section": "§4.4.9 [Use of Dates as Result Variables]", "md_verbatim": "Remember, in most cases, these dates should be timing variables associated with a record in an Intervention or Events dataset.", "score": 0.9, "match_basis": "verbatim_token+chapter_route:ch04"}, {"md_atom_id": "md_ch04_a031", "md_file": "knowledge_base/chapters/ch04_general_assumptions.md", "md_atom_type": "SENTENCE", "md_parent_section": "§4.1.4 [Order of the Variables]", "md_verbatim": "Within each role, variables must be ordered as shown in SDTM Sections 3.1.1, The Interventions Observation Class; 3.1.2, The Events Observation Class; 3.1.3, The Findings Observation Class; 3.1.3.1, Findings About Events or Interventions; 3.1.4, Identifiers for All Classes; and 3.1.5, Timing Variables for All Classes.", "score": 0.4682, "match_basis": "verbatim_token+chapter_route:ch04"}, {"md_atom_id": "md_ch04_a018", "md_file": "knowledge_base/chapters/ch04_general_assumptions.md", "md_atom_type": "SENTENCE", "md_parent_section": "§4.1.3.1 [EPOCH Variable Guidance]", "md_verbatim": "For observations in Interventions or Events class domains, EPOCH should be based on the --STDTC variable, since this is the start of the intervention or event.", "score": 0.4648, "match_basis": "verbatim_token+chapter_route:ch04"}, {"md_atom_id": "md_ch04_a174", "md_file": "knowledge_base/chapters/ch04_general_assumptions.md", "md_atom_type": "SENTENCE", "md_parent_section": "§4.2.1 [Variable-Naming Conventions]", "md_verbatim": "SDTM variables are named according to a set of conventions, using fragment names (see Appendix D, CDISC Variable-naming Fragments). Variables with names ending in \"CD\" are \"short\" versions of associated variables that do not include the \"CD\" suffix (e.g., --TESTCD is the short version of --TEST).", "score": 0.4632, "match_basis": "verbatim_token+chapter_route:ch04"}, {"md_atom_id": "md_ch04_a694", "md_file": "knowledge_base/chapters/ch04_general_assumptions.md", "md_atom_type": "SENTENCE", "md_parent_section": "§4.4.9 [Use of Dates as Result Variables]", "md_verbatim": "Dates are generally used only as timing variables to describe the timing of an event, intervention, or collection activity, but there may be occasions when it may be preferable to model a date as a result (--ORRES) in a Findings dataset.", "score": 0.4563, "match_basis": "verbatim_token+chapter_route:ch04"}], "candidate_count": 5, "zero_candidate": false}
{"pdf_atom_id": "ig34_p0046_a008", "pdf_atom_type": "HEADING", "pdf_source": "SDTMIG_v3.4", "pdf_page": 46, "pdf_parent_section": "§4.4.10 [Representing Time Points]", "pdf_verbatim": "4.4.10  Representing Time Points", "figure_ref": null, "candidates": [{"md_atom_id": "md_ch04_a704", "md_file": "knowledge_base/chapters/ch04_general_assumptions.md", "md_atom_type": "HEADING", "md_parent_section": "§4.4 [Use of Timing Variables]", "md_verbatim": "### 4.4.10 Representing Time Points", "score": 0.9, "match_basis": "verbatim_token+chapter_route:ch04"}, {"md_atom_id": "md_ch04_a624", "md_file": "knowledge_base/chapters/ch04_general_assumptions.md", "md_atom_type": "HEADING", "md_parent_section": "§4.4 [Actual and Relative Time Assumptions]", "md_verbatim": "### 4.4.6 Representing Additional Study Days", "score": 0.5069, "match_basis": "verbatim_token+chapter_route:ch04"}, {"md_atom_id": "md_ch04_a987", "md_file": "knowledge_base/chapters/ch04_general_assumptions.md", "md_atom_type": "HEADING", "md_parent_section": "§4.5 [Other Assumptions]", "md_verbatim": "### 4.5.7 Presence or Absence of Prespecified Interventions and Events", "score": 0.4263, "match_basis": "verbatim_token+chapter_route:ch04"}, {"md_atom_id": "md_ch04_a447", "md_file": "knowledge_base/chapters/ch04_general_assumptions.md", "md_atom_type": "HEADING", "md_parent_section": "§4.3.5 [Storing Controlled Terminology for Synonym Qualifier Variables (MedDRA and WHODrug)]", "md_verbatim": "#### WHODrug Coding (Interventions)", "score": 0.375, "match_basis": "verbatim_token+chapter_route:ch04"}, {"md_atom_id": "md_ch04_a509", "md_file": "knowledge_base/chapters/ch04_general_assumptions.md", "md_atom_type": "HEADING", "md_parent_section": "§4.4 [Actual and Relative Time Assumptions]", "md_verbatim": "### 4.4.2 Date/Time Precision", "score": 0.375, "match_basis": "verbatim_token+chapter_route:ch04"}], "candidate_count": 5, "zero_candidate": false}
{"pdf_atom_id": "ig34_p0046_a009", "pdf_atom_type": "SENTENCE", "pdf_source": "SDTMIG_v3.4", "pdf_page": 46, "pdf_parent_section": "§4.4.10 [Representing Time Points]", "pdf_verbatim": "Time points can be represented using the time point variables --TPT, --TPTNUM, --ELTM, and the time-point anchors --TPTREF (text description) and --RFTDTC (the date/time).", "figure_ref": null, "candidates": [{"md_atom_id": "md_ch04_a705", "md_file": "knowledge_base/chapters/ch04_general_assumptions.md", "md_atom_type": "SENTENCE", "md_parent_section": "§4.4.10 [Representing Time Points]", "md_verbatim": "Time points can be represented using the time point variables --TPT, --TPTNUM, --ELTM, and the time-point anchors --TPTREF (text description) and --RFTDTC (date/time).", "score": 0.9, "match_basis": "verbatim_token+chapter_route:ch04"}, {"md_atom_id": "md_ch04_a641", "md_file": "knowledge_base/chapters/ch04_general_assumptions.md", "md_atom_type": "SENTENCE", "md_parent_section": "§4.4.7 [Use of Relative Timing Variables]", "md_verbatim": "The variables --STRTPT and --ENRTPT contain values similar to --STRF and --ENRF, but may be anchored with any timing description or date/time value expressed in the respective --STTPT and --ENTPT variables.", "score": 0.4806, "match_basis": "verbatim_token+chapter_route:ch04"}, {"md_atom_id": "md_ch04_a548", "md_file": "knowledge_base/chapters/ch04_general_assumptions.md", "md_atom_type": "SENTENCE", "md_parent_section": "§4.4.3.1 [Intervals of Time and Use of Duration]", "md_verbatim": "As defined by ISO 8601, an interval of time is the part of a time axis, limited by 2 time \"instants\" such as the times represented in SDTM by the variables --STDTC and --ENDTC.", "score": 0.4565, "match_basis": "verbatim_token+chapter_route:ch04"}, {"md_atom_id": "md_ch04_a015", "md_file": "knowledge_base/chapters/ch04_general_assumptions.md", "md_atom_type": "SENTENCE", "md_parent_section": "§4.1.3 [Additional Timing Variables]", "md_verbatim": "Timing variables cannot be added to SUPPQUAL datasets or to RELREC (described in Section 8, Representing Relationships and Data).", "score": 0.4531, "match_basis": "verbatim_token+chapter_route:ch04"}, {"md_atom_id": "md_ch04_a549", "md_file": "knowledge_base/chapters/ch04_general_assumptions.md", "md_atom_type": "SENTENCE", "md_parent_section": "§4.4.3.1 [Intervals of Time and Use of Duration]", "md_verbatim": "These variables represent the 2 instants that bound an interval of time; the duration is the quantity of time that is equal to the difference between these time points.", "score": 0.4469, "match_basis": "verbatim_token+chapter_route:ch04"}], "candidate_count": 5, "zero_candidate": false}
{"pdf_atom_id": "ig34_p0046_a010", "pdf_atom_type": "SENTENCE", "pdf_source": "SDTMIG_v3.4", "pdf_page": 46, "pdf_parent_section": "§4.4.10 [Representing Time Points]", "pdf_verbatim": "Note that time-point data will usually have an associated --DTC value.", "figure_ref": null, "candidates": [{"md_atom_id": "md_ch04_a706", "md_file": "knowledge_base/chapters/ch04_general_assumptions.md", "md_atom_type": "SENTENCE", "md_parent_section": "§4.4.10 [Representing Time Points]", "md_verbatim": "Time-point data will usually have an associated --DTC value.", "score": 0.825, "match_basis": "verbatim_token+chapter_route:ch04"}, {"md_atom_id": "md_ch04_a339", "md_file": "knowledge_base/chapters/ch04_general_assumptions.md", "md_atom_type": "SENTENCE", "md_parent_section": "§4.2.7.3 [\"Specify\" Values for Topic Variables]", "md_verbatim": "The value the investigator wrote for \"Other, specify\" was \"Prothrombin time\" with an associated result and units.", "score": 0.4183, "match_basis": "verbatim_token+chapter_route:ch04"}, {"md_atom_id": "md_ch04_a435", "md_file": "knowledge_base/chapters/ch04_general_assumptions.md", "md_atom_type": "SENTENCE", "md_parent_section": "§4.3.3 [Controlled Terminology Values]", "md_verbatim": "For example, --PRESP variables are associated with the NY codelist, but only the value \"Y\" is allowed in --PRESP variables.", "score": 0.4108, "match_basis": "verbatim_token+chapter_route:ch04"}, {"md_atom_id": "md_ch04_a238", "md_file": "knowledge_base/chapters/ch04_general_assumptions.md", "md_atom_type": "SENTENCE", "md_parent_section": "§4.2.6 [Grouping Variables and Categorization]", "md_verbatim": "Unlike --CAT and --SCAT, --GRPID values are not intended to have any meaning across subjects and are usually assigned during or after data collection.", "score": 0.4084, "match_basis": "verbatim_token+chapter_route:ch04"}, {"md_atom_id": "md_ch04_a544", "md_file": "knowledge_base/chapters/ch04_general_assumptions.md", "md_atom_type": "SENTENCE", "md_parent_section": "§4.4.2 [Date/Time Precision]", "md_verbatim": "Because most data are collected as part of a visit, when only a time appears on a CRF, it is expected that the date of the visit would usually be used as the date of collection.", "score": 0.4083, "match_basis": "verbatim_token+chapter_route:ch04"}], "candidate_count": 5, "zero_candidate": false}
{"pdf_atom_id": "ig34_p0046_a011", "pdf_atom_type": "SENTENCE", "pdf_source": "SDTMIG_v3.4", "pdf_page": 46, "pdf_parent_section": "§4.4.10 [Representing Time Points]", "pdf_verbatim": "The interrelationship of these variables is shown in the following figure.", "figure_ref": null, "candidates": [{"md_atom_id": "md_ch04_a241", "md_file": "knowledge_base/chapters/ch04_general_assumptions.md", "md_atom_type": "SENTENCE", "md_parent_section": "§4.2.6 [Grouping Variables and Categorization]", "md_verbatim": "As such, these variables are often used in IDVAR in a RELREC relationship when there is a dataset-to-dataset relationship.", "score": 0.4967, "match_basis": "verbatim_token+chapter_route:ch04"}, {"md_atom_id": "md_ch04_a898", "md_file": "knowledge_base/chapters/ch04_general_assumptions.md", "md_atom_type": "SENTENCE", "md_parent_section": "§4.5.3.1 [Test Name (--TEST) Greater than 40 Characters]", "md_verbatim": "Sponsors have the following options for including the full description for these variables in the study metadata:", "score": 0.4667, "match_basis": "verbatim_token+chapter_route:ch04"}, {"md_atom_id": "md_ch04_a1033", "md_file": "knowledge_base/chapters/ch04_general_assumptions.md", "md_atom_type": "SENTENCE", "md_parent_section": "§4.5.9 [Baseline Values]", "md_verbatim": "The following table shows a set of similar flag variables and their usage across the SDTM and ADaM.", "score": 0.4619, "match_basis": "verbatim_token+chapter_route:ch04"}, {"md_atom_id": "md_ch04_a455", "md_file": "knowledge_base/chapters/ch04_general_assumptions.md", "md_atom_type": "SENTENCE", "md_parent_section": "§4.3.6 [Storing Topic Variables for General Domain Models]", "md_verbatim": "For an Interventions domain, the topic variable is --TRT.", "score": 0.4472, "match_basis": "verbatim_token+chapter_route:ch04"}, {"md_atom_id": "md_ch04_a789", "md_file": "knowledge_base/chapters/ch04_general_assumptions.md", "md_atom_type": "SENTENCE", "md_parent_section": "§4.4.11 [Disease Milestones and Disease Milestone Timing Variables]", "md_verbatim": "For an observation triggered by the occurrence of a disease milestone, the relationship of the observation to the disease milestone can be represented using the disease milestone timing variables MIDS, RELMIDS, and MIDSDTC:", "score": 0.4435, "match_basis": "verbatim_token+chapter_route:ch04"}], "candidate_count": 5, "zero_candidate": false}
{"pdf_atom_id": "ig34_p0046_a012", "pdf_atom_type": "HEADING", "pdf_source": "SDTMIG_v3.4", "pdf_page": 46, "pdf_parent_section": "§4.4.10 [Representing Time Points]", "pdf_verbatim": "Figure. Representing Time Points", "figure_ref": "pdf_p0046+middle", "candidates": [{"md_atom_id": "md_ch04_a704", "md_file": "knowledge_base/chapters/ch04_general_assumptions.md", "md_atom_type": "HEADING", "md_parent_section": "§4.4 [Use of Timing Variables]", "md_verbatim": "### 4.4.10 Representing Time Points", "score": 0.78, "match_basis": "verbatim_token+chapter_route:ch04"}, {"md_atom_id": "md_ch04_a624", "md_file": "knowledge_base/chapters/ch04_general_assumptions.md", "md_atom_type": "HEADING", "md_parent_section": "§4.4 [Actual and Relative Time Assumptions]", "md_verbatim": "### 4.4.6 Representing Additional Study Days", "score": 0.4818, "match_basis": "verbatim_token+chapter_route:ch04"}, {"md_atom_id": "md_ch04_a987", "md_file": "knowledge_base/chapters/ch04_general_assumptions.md", "md_atom_type": "HEADING", "md_parent_section": "§4.5 [Other Assumptions]", "md_verbatim": "### 4.5.7 Presence or Absence of Prespecified Interventions and Events", "score": 0.4143, "match_basis": "verbatim_token+chapter_route:ch04"}, {"md_atom_id": "md_ch04_a447", "md_file": "knowledge_base/chapters/ch04_general_assumptions.md", "md_atom_type": "HEADING", "md_parent_section": "§4.3.5 [Storing Controlled Terminology for Synonym Qualifier Variables (MedDRA and WHODrug)]", "md_verbatim": "#### WHODrug Coding (Interventions)", "score": 0.3667, "match_basis": "verbatim_token+chapter_route:ch04"}, {"md_atom_id": "md_ch04_a509", "md_file": "knowledge_base/chapters/ch04_general_assumptions.md", "md_atom_type": "HEADING", "md_parent_section": "§4.4 [Actual and Relative Time Assumptions]", "md_verbatim": "### 4.4.2 Date/Time Precision", "score": 0.3643, "match_basis": "verbatim_token+chapter_route:ch04"}], "candidate_count": 5, "zero_candidate": false}
{"pdf_atom_id": "ig34_p0046_a013", "pdf_atom_type": "FIGURE", "pdf_source": "SDTMIG_v3.4", "pdf_page": 46, "pdf_parent_section": "§4.4.10 [Representing Time Points]", "pdf_verbatim": "[FIGURE: Timeline diagram with Reference Time Point (Usually a Dose) at left showing --TPTREF (Description) and --RFTDTC (Date/Time); arrow extends right to Collection Time Point showing --TPT (Descri [TRUNCATED:FIGURE]", "figure_ref": "pdf_p0046+middle", "candidates": [{"md_atom_id": "md_ch04_a714", "md_file": "knowledge_base/chapters/ch04_general_assumptions.md", "md_atom_type": "FIGURE", "md_parent_section": "§4.4.10 [Representing Time Points]", "md_verbatim": "```mermaid\ngraph LR\n    REF[\"Reference Time Point (Usually a Dose) --TPTREF (Description) --RFTDTC (Date/Time)\"]\n    CTP[\"Collection Time Point --TPT (Description) --TPTNUM (Number) --DTC (Date/Time)\" [TRUNCATED:FIGURE]", "score": 0.6071, "match_basis": "verbatim_token+global_figure"}, {"md_atom_id": "md_ch04_a661", "md_file": "knowledge_base/chapters/ch04_general_assumptions.md", "md_atom_type": "FIGURE", "md_parent_section": "§4.4.7 [Use of Relative Timing Variables]", "md_verbatim": "```mermaid\ngraph LR\n    REF[\"Reference Time Point 2006-11-02\"]\n    YEAR[\"2002 (MHSTDTC)\"]\n    CTP[\"MHDTC = 2006-11-02 MHSTDTC = 2002 MHENRTPT = ONGOING MHENTPT = 2006-11-02\"]\n\n    YEAR -->|\"Medical ev [TRUNCATED:FIGURE]", "score": 0.3622, "match_basis": "verbatim_token+global_figure"}, {"md_atom_id": "md_model01_a013", "md_file": "knowledge_base/model/01_concepts_and_terms.md", "md_atom_type": "FIGURE", "md_parent_section": "§2.1 [Model Concepts and Terms — Variables]", "md_verbatim": "```mermaid\ngraph TD\n    %% Key:\n    %% Plain rounded box = Group of individually specified datasets\n    %% Filled box (:::extensible) = Extensible set of domains based on a common model\n\n    SDTM[\"Stu [TRUNCATED:FIGURE]", "score": 0.3594, "match_basis": "verbatim_token+global_figure"}, {"md_atom_id": "md_dmDM_ex_a175", "md_file": "knowledge_base/domains/DM/examples.md", "md_atom_type": "FIGURE", "md_parent_section": "§DM.7 [Example 7]", "md_verbatim": "```mermaid\ngraph TD\n    Q[\"Which of the following five racial designations<br/>best describes you?<br/>(More than one choice is acceptable)<br/>RACE\"]\n    R1[\"☐ American Indian or Alaska Native\"]\n     [TRUNCATED:FIGURE]", "score": 0.349, "match_basis": "verbatim_token+global_figure"}, {"md_atom_id": "md_dmTV_ex_a009", "md_file": "knowledge_base/domains/TV/examples.md", "md_atom_type": "FIGURE", "md_parent_section": "§TV.1 [Example 1]", "md_verbatim": "```mermaid\ngraph TD\n    subgraph Epochs\n        direction LR\n        SE[\"Screening<br/>Epoch\"] --- RE[\"Run-In<br/>Epoch\"] --- TE[\"Treatment<br/>Epoch\"]\n    end\n\n    V1((\"V1\")) -.->|\"Start of<br/>Scree [TRUNCATED:FIGURE]", "score": 0.3443, "match_basis": "verbatim_token+global_figure"}], "candidate_count": 5, "zero_candidate": false}
{"pdf_atom_id": "ig34_p0046_a014", "pdf_atom_type": "SENTENCE", "pdf_source": "SDTMIG_v3.4", "pdf_page": 46, "pdf_parent_section": "§4.4.10 [Representing Time Points]", "pdf_verbatim": "Values for these variables for vital signs measurements taken at 30, 60, and 90 minutes after dosing would look like the following.", "figure_ref": null, "candidates": [{"md_atom_id": "md_ch04_a703", "md_file": "knowledge_base/chapters/ch04_general_assumptions.md", "md_atom_type": "SENTENCE", "md_parent_section": "§4.4.9 [Use of Dates as Result Variables]", "md_verbatim": "Remember, in most cases, these dates should be timing variables associated with a record in an Intervention or Events dataset.", "score": 0.42, "match_basis": "verbatim_token+chapter_route:ch04"}, {"md_atom_id": "md_ch04_a170", "md_file": "knowledge_base/chapters/ch04_general_assumptions.md", "md_atom_type": "SENTENCE", "md_parent_section": "§4.1.9 [Assigning Natural Keys in the Metadata]", "md_verbatim": "The following variables would be used to fully describe the test. The natural key for this domain includes both parent dataset variables and a supplemental qualifier variable that contribute to the natural key of each row and to describe the uniqueness of the test.", "score": 0.4191, "match_basis": "verbatim_token+chapter_route:ch04"}, {"md_atom_id": "md_ch04_a898", "md_file": "knowledge_base/chapters/ch04_general_assumptions.md", "md_atom_type": "SENTENCE", "md_parent_section": "§4.5.3.1 [Test Name (--TEST) Greater than 40 Characters]", "md_verbatim": "Sponsors have the following options for including the full description for these variables in the study metadata:", "score": 0.4137, "match_basis": "verbatim_token+chapter_route:ch04"}, {"md_atom_id": "md_ch04_a1033", "md_file": "knowledge_base/chapters/ch04_general_assumptions.md", "md_atom_type": "SENTENCE", "md_parent_section": "§4.5.9 [Baseline Values]", "md_verbatim": "The following table shows a set of similar flag variables and their usage across the SDTM and ADaM.", "score": 0.4129, "match_basis": "verbatim_token+chapter_route:ch04"}, {"md_atom_id": "md_ch04_a557", "md_file": "knowledge_base/chapters/ch04_general_assumptions.md", "md_atom_type": "SENTENCE", "md_parent_section": "§4.4.3.1 [Intervals of Time and Use of Duration]", "md_verbatim": "The values provided in --DUR should follow 1 of the following ISO 8601 duration formats:", "score": 0.4111, "match_basis": "verbatim_token+chapter_route:ch04"}], "candidate_count": 5, "zero_candidate": false}
{"pdf_atom_id": "ig34_p0046_a015", "pdf_atom_type": "TABLE_HEADER", "pdf_source": "SDTMIG_v3.4", "pdf_page": 46, "pdf_parent_section": "§4.4.10 [Representing Time Points]", "pdf_verbatim": "VSTPTNUM | VSTPT | VSELTM | VSTPTREF | VSRFTDTC | VSDTC", "figure_ref": null, "candidates": [{"md_atom_id": "md_ch04_a716", "md_file": "knowledge_base/chapters/ch04_general_assumptions.md", "md_atom_type": "TABLE_HEADER", "md_parent_section": "§4.4.10 [Representing Time Points]", "md_verbatim": "| VSTPTNUM | VSTPT | VSELTM | VSTPTREF | VSRFTDTC | VSDTC |\n|----------|-------|--------|----------|----------|-------|", "score": 0.9, "match_basis": "verbatim_token+chapter_route:ch04"}, {"md_atom_id": "md_ch04_a722", "md_file": "knowledge_base/chapters/ch04_general_assumptions.md", "md_atom_type": "TABLE_HEADER", "md_parent_section": "§4.4.10 [Representing Time Points]", "md_verbatim": "| LBTPTNUM | LBTPT | LBELTM | LBTPTREF | LBRFTDTC | LBDTC |\n|----------|-------|--------|----------|----------|-------|", "score": 0.569, "match_basis": "verbatim_token+chapter_route:ch04"}, {"md_atom_id": "md_ch04_a736", "md_file": "knowledge_base/chapters/ch04_general_assumptions.md", "md_atom_type": "TABLE_HEADER", "md_parent_section": "§4.4.10 [Representing Time Points]", "md_verbatim": "| VISIT | VISITNUM | --TPT | --TPTNUM | --TPTREF |\n|-------|----------|-------|----------|----------|", "score": 0.468, "match_basis": "verbatim_token+chapter_route:ch04"}, {"md_atom_id": "md_ch04_a756", "md_file": "knowledge_base/chapters/ch04_general_assumptions.md", "md_atom_type": "TABLE_HEADER", "md_parent_section": "§4.4.10 [Representing Time Points]", "md_verbatim": "| VISIT | VISITNUM | --TPT | --TPTNUM | --TPTREF |\n|-------|----------|-------|----------|----------|", "score": 0.468, "match_basis": "verbatim_token+chapter_route:ch04"}, {"md_atom_id": "md_ch04_a883", "md_file": "knowledge_base/chapters/ch04_general_assumptions.md", "md_atom_type": "TABLE_HEADER", "md_parent_section": "§4.5.1.3 [Examples of Original and Standard Units and Test Not Done]", "md_verbatim": "| Row | VSTESTCD | VSORRES | VSORRESU | VSSTRESC | VSSTRESN | VSSTRESU | VSSTAT | VSDRVFL | VISITNUM | VSDTC |\n|-----|----------|---------|----------|----------|----------|----------|--------|---------|----------|-------|", "score": 0.3875, "match_basis": "verbatim_token+chapter_route:ch04"}], "candidate_count": 5, "zero_candidate": false}
{"pdf_atom_id": "ig34_p0046_a016", "pdf_atom_type": "TABLE_ROW", "pdf_source": "SDTMIG_v3.4", "pdf_page": 46, "pdf_parent_section": "§4.4.10 [Representing Time Points]", "pdf_verbatim": "1 | 30 MIN | PT30M | DOSE ADMINISTRATION | 2006-08-01T08:00 | 2006-08-01T08:30", "figure_ref": null, "candidates": [{"md_atom_id": "md_ch04_a717", "md_file": "knowledge_base/chapters/ch04_general_assumptions.md", "md_atom_type": "TABLE_ROW", "md_parent_section": "§4.4.10 [Representing Time Points]", "md_verbatim": "| 1 | 30 MIN | PT30M | DOSE ADMINISTRATION | 2006-08-01T08:00 | 2006-08-01T08:30 |", "score": 0.9, "match_basis": "verbatim_token+chapter_route:ch04"}, {"md_atom_id": "md_ch04_a718", "md_file": "knowledge_base/chapters/ch04_general_assumptions.md", "md_atom_type": "TABLE_ROW", "md_parent_section": "§4.4.10 [Representing Time Points]", "md_verbatim": "| 2 | 60 MIN | PT1H | DOSE ADMINISTRATION | 2006-08-01T08:00 | 2006-08-01T09:01 |", "score": 0.756, "match_basis": "verbatim_token+chapter_route:ch04"}, {"md_atom_id": "md_ch04_a719", "md_file": "knowledge_base/chapters/ch04_general_assumptions.md", "md_atom_type": "TABLE_ROW", "md_parent_section": "§4.4.10 [Representing Time Points]", "md_verbatim": "| 3 | 90 MIN | PT1H30M | DOSE ADMINISTRATION | 2006-08-01T08:00 | 2006-08-01T09:32 |", "score": 0.7444, "match_basis": "verbatim_token+chapter_route:ch04"}, {"md_atom_id": "md_ch04_a723", "md_file": "knowledge_base/chapters/ch04_general_assumptions.md", "md_atom_type": "TABLE_ROW", "md_parent_section": "§4.4.10 [Representing Time Points]", "md_verbatim": "| 1 | 15 MIN PRE-DOSE | -PT15M | DOSE ADMINISTRATION | 2006-08-01T08:00 | 2006-08-01T07:45 |", "score": 0.7222, "match_basis": "verbatim_token+chapter_route:ch04"}, {"md_atom_id": "md_ch04_a724", "md_file": "knowledge_base/chapters/ch04_general_assumptions.md", "md_atom_type": "TABLE_ROW", "md_parent_section": "§4.4.10 [Representing Time Points]", "md_verbatim": "| 2 | 0-12 HOURS | PT12H | DOSE ADMINISTRATION | 2006-08-01T08:00 | 2006-08-01T20:35 |", "score": 0.68, "match_basis": "verbatim_token+chapter_route:ch04"}], "candidate_count": 5, "zero_candidate": false}
{"pdf_atom_id": "ig34_p0046_a017", "pdf_atom_type": "CODE_LITERAL", "pdf_source": "SDTMIG_v3.4", "pdf_page": 46, "pdf_parent_section": "§4.4.10 [Representing Time Points]", "pdf_verbatim": "PT30M", "figure_ref": null, "candidates": [{"md_atom_id": "md_ch04_a717", "md_file": "knowledge_base/chapters/ch04_general_assumptions.md", "md_atom_type": "TABLE_ROW", "md_parent_section": "§4.4.10 [Representing Time Points]", "md_verbatim": "| 1 | 30 MIN | PT30M | DOSE ADMINISTRATION | 2006-08-01T08:00 | 2006-08-01T08:30 |", "score": 0.1718, "match_basis": "verbatim_token+chapter_route:ch04"}, {"md_atom_id": "md_ch04_a719", "md_file": "knowledge_base/chapters/ch04_general_assumptions.md", "md_atom_type": "TABLE_ROW", "md_parent_section": "§4.4.10 [Representing Time Points]", "md_verbatim": "| 3 | 90 MIN | PT1H30M | DOSE ADMINISTRATION | 2006-08-01T08:00 | 2006-08-01T09:32 |", "score": 0.1122, "match_basis": "verbatim_token+chapter_route:ch04"}, {"md_atom_id": "md_ch04_a001", "md_file": "knowledge_base/chapters/ch04_general_assumptions.md", "md_atom_type": "HEADING", "md_parent_section": "§4 [Assumptions for Domain Models]", "md_verbatim": "# SDTMIG v3.4 — Chapter 4: Assumptions for Domain Models", "score": 0.09, "match_basis": "verbatim_token+chapter_route:ch04"}, {"md_atom_id": "md_ch04_a002", "md_file": "knowledge_base/chapters/ch04_general_assumptions.md", "md_atom_type": "SENTENCE", "md_parent_section": "§4 [Assumptions for Domain Models]", "md_verbatim": "Source: SDTMIG v3.4, Section 4 (Pages 22-59)", "score": 0.09, "match_basis": "verbatim_token+chapter_route:ch04"}, {"md_atom_id": "md_ch04_a003", "md_file": "knowledge_base/chapters/ch04_general_assumptions.md", "md_atom_type": "HEADING", "md_parent_section": "§4 [Assumptions for Domain Models]", "md_verbatim": "## Overview", "score": 0.09, "match_basis": "verbatim_token+chapter_route:ch04"}, {"md_atom_id": "md_ch04_a004", "md_file": "knowledge_base/chapters/ch04_general_assumptions.md", "md_atom_type": "SENTENCE", "md_parent_section": "§4.0 [Overview]", "md_verbatim": "This section describes basic concepts, business rules, and assumptions that should be taken into consideration before applying the domain models.", "score": 0.09, "match_basis": "verbatim_token+chapter_route:ch04"}, {"md_atom_id": "md_ch04_a005", "md_file": "knowledge_base/chapters/ch04_general_assumptions.md", "md_atom_type": "SENTENCE", "md_parent_section": "§4.0 [Overview]", "md_verbatim": "It covers general domain assumptions, general variable assumptions, coding and controlled terminology assumptions, actual and relative time assumptions, and other assumptions.", "score": 0.09, "match_basis": "verbatim_token+chapter_route:ch04"}, {"md_atom_id": "md_ch04_a006", "md_file": "knowledge_base/chapters/ch04_general_assumptions.md", "md_atom_type": "HEADING", "md_parent_section": "§4 [Assumptions for Domain Models]", "md_verbatim": "## 4.1 General Domain Assumptions", "score": 0.09, "match_basis": "verbatim_token+chapter_route:ch04"}, {"md_atom_id": "md_ch04_a007", "md_file": "knowledge_base/chapters/ch04_general_assumptions.md", "md_atom_type": "HEADING", "md_parent_section": "§4.1 [General Domain Assumptions]", "md_verbatim": "### 4.1.1 Review Study Data Tabulation Model and Implementation Guide", "score": 0.09, "match_basis": "verbatim_token+chapter_route:ch04"}, {"md_atom_id": "md_ch04_a008", "md_file": "knowledge_base/chapters/ch04_general_assumptions.md", "md_atom_type": "SENTENCE", "md_parent_section": "§4.1.1 [Review Study Data Tabulation Model and Implementation Guide]", "md_verbatim": "Review the SDTM as well as this complete implementation guide before attempting to use any of the individual domain models.", "score": 0.09, "match_basis": "verbatim_token+chapter_route:ch04"}], "candidate_count": 10, "zero_candidate": false}
{"pdf_atom_id": "ig34_p0046_a018", "pdf_atom_type": "TABLE_ROW", "pdf_source": "SDTMIG_v3.4", "pdf_page": 46, "pdf_parent_section": "§4.4.10 [Representing Time Points]", "pdf_verbatim": "2 | 60 MIN | PT1H | DOSE ADMINISTRATION | 2006-08-01T08:00 | 2006-08-01T09:01", "figure_ref": null, "candidates": [{"md_atom_id": "md_ch04_a718", "md_file": "knowledge_base/chapters/ch04_general_assumptions.md", "md_atom_type": "TABLE_ROW", "md_parent_section": "§4.4.10 [Representing Time Points]", "md_verbatim": "| 2 | 60 MIN | PT1H | DOSE ADMINISTRATION | 2006-08-01T08:00 | 2006-08-01T09:01 |", "score": 0.9, "match_basis": "verbatim_token+chapter_route:ch04"}, {"md_atom_id": "md_ch04_a719", "md_file": "knowledge_base/chapters/ch04_general_assumptions.md", "md_atom_type": "TABLE_ROW", "md_parent_section": "§4.4.10 [Representing Time Points]", "md_verbatim": "| 3 | 90 MIN | PT1H30M | DOSE ADMINISTRATION | 2006-08-01T08:00 | 2006-08-01T09:32 |", "score": 0.828, "match_basis": "verbatim_token+chapter_route:ch04"}, {"md_atom_id": "md_ch04_a723", "md_file": "knowledge_base/chapters/ch04_general_assumptions.md", "md_atom_type": "TABLE_ROW", "md_parent_section": "§4.4.10 [Representing Time Points]", "md_verbatim": "| 1 | 15 MIN PRE-DOSE | -PT15M | DOSE ADMINISTRATION | 2006-08-01T08:00 | 2006-08-01T07:45 |", "score": 0.7615, "match_basis": "verbatim_token+chapter_route:ch04"}, {"md_atom_id": "md_ch04_a717", "md_file": "knowledge_base/chapters/ch04_general_assumptions.md", "md_atom_type": "TABLE_ROW", "md_parent_section": "§4.4.10 [Representing Time Points]", "md_verbatim": "| 1 | 30 MIN | PT30M | DOSE ADMINISTRATION | 2006-08-01T08:00 | 2006-08-01T08:30 |", "score": 0.756, "match_basis": "verbatim_token+chapter_route:ch04"}, {"md_atom_id": "md_ch04_a724", "md_file": "knowledge_base/chapters/ch04_general_assumptions.md", "md_atom_type": "TABLE_ROW", "md_parent_section": "§4.4.10 [Representing Time Points]", "md_verbatim": "| 2 | 0-12 HOURS | PT12H | DOSE ADMINISTRATION | 2006-08-01T08:00 | 2006-08-01T20:35 |", "score": 0.7138, "match_basis": "verbatim_token+chapter_route:ch04"}], "candidate_count": 5, "zero_candidate": false}
{"pdf_atom_id": "ig34_p0046_a019", "pdf_atom_type": "CODE_LITERAL", "pdf_source": "SDTMIG_v3.4", "pdf_page": 46, "pdf_parent_section": "§4.4.10 [Representing Time Points]", "pdf_verbatim": "PT1H", "figure_ref": null, "candidates": [{"md_atom_id": "md_ch04_a718", "md_file": "knowledge_base/chapters/ch04_general_assumptions.md", "md_atom_type": "TABLE_ROW", "md_parent_section": "§4.4.10 [Representing Time Points]", "md_verbatim": "| 2 | 60 MIN | PT1H | DOSE ADMINISTRATION | 2006-08-01T08:00 | 2006-08-01T09:01 |", "score": 0.1445, "match_basis": "verbatim_token+chapter_route:ch04"}, {"md_atom_id": "md_ch04_a719", "md_file": "knowledge_base/chapters/ch04_general_assumptions.md", "md_atom_type": "TABLE_ROW", "md_parent_section": "§4.4.10 [Representing Time Points]", "md_verbatim": "| 3 | 90 MIN | PT1H30M | DOSE ADMINISTRATION | 2006-08-01T08:00 | 2006-08-01T09:32 |", "score": 0.138, "match_basis": "verbatim_token+chapter_route:ch04"}, {"md_atom_id": "md_ch04_a723", "md_file": "knowledge_base/chapters/ch04_general_assumptions.md", "md_atom_type": "TABLE_ROW", "md_parent_section": "§4.4.10 [Representing Time Points]", "md_verbatim": "| 1 | 15 MIN PRE-DOSE | -PT15M | DOSE ADMINISTRATION | 2006-08-01T08:00 | 2006-08-01T07:45 |", "score": 0.114, "match_basis": "verbatim_token+chapter_route:ch04"}, {"md_atom_id": "md_ch04_a724", "md_file": "knowledge_base/chapters/ch04_general_assumptions.md", "md_atom_type": "TABLE_ROW", "md_parent_section": "§4.4.10 [Representing Time Points]", "md_verbatim": "| 2 | 0-12 HOURS | PT12H | DOSE ADMINISTRATION | 2006-08-01T08:00 | 2006-08-01T20:35 |", "score": 0.1114, "match_basis": "verbatim_token+chapter_route:ch04"}, {"md_atom_id": "md_ch04_a001", "md_file": "knowledge_base/chapters/ch04_general_assumptions.md", "md_atom_type": "HEADING", "md_parent_section": "§4 [Assumptions for Domain Models]", "md_verbatim": "# SDTMIG v3.4 — Chapter 4: Assumptions for Domain Models", "score": 0.09, "match_basis": "verbatim_token+chapter_route:ch04"}, {"md_atom_id": "md_ch04_a002", "md_file": "knowledge_base/chapters/ch04_general_assumptions.md", "md_atom_type": "SENTENCE", "md_parent_section": "§4 [Assumptions for Domain Models]", "md_verbatim": "Source: SDTMIG v3.4, Section 4 (Pages 22-59)", "score": 0.09, "match_basis": "verbatim_token+chapter_route:ch04"}, {"md_atom_id": "md_ch04_a003", "md_file": "knowledge_base/chapters/ch04_general_assumptions.md", "md_atom_type": "HEADING", "md_parent_section": "§4 [Assumptions for Domain Models]", "md_verbatim": "## Overview", "score": 0.09, "match_basis": "verbatim_token+chapter_route:ch04"}, {"md_atom_id": "md_ch04_a004", "md_file": "knowledge_base/chapters/ch04_general_assumptions.md", "md_atom_type": "SENTENCE", "md_parent_section": "§4.0 [Overview]", "md_verbatim": "This section describes basic concepts, business rules, and assumptions that should be taken into consideration before applying the domain models.", "score": 0.09, "match_basis": "verbatim_token+chapter_route:ch04"}, {"md_atom_id": "md_ch04_a005", "md_file": "knowledge_base/chapters/ch04_general_assumptions.md", "md_atom_type": "SENTENCE", "md_parent_section": "§4.0 [Overview]", "md_verbatim": "It covers general domain assumptions, general variable assumptions, coding and controlled terminology assumptions, actual and relative time assumptions, and other assumptions.", "score": 0.09, "match_basis": "verbatim_token+chapter_route:ch04"}, {"md_atom_id": "md_ch04_a006", "md_file": "knowledge_base/chapters/ch04_general_assumptions.md", "md_atom_type": "HEADING", "md_parent_section": "§4 [Assumptions for Domain Models]", "md_verbatim": "## 4.1 General Domain Assumptions", "score": 0.09, "match_basis": "verbatim_token+chapter_route:ch04"}], "candidate_count": 10, "zero_candidate": false}
{"pdf_atom_id": "ig34_p0046_a020", "pdf_atom_type": "TABLE_ROW", "pdf_source": "SDTMIG_v3.4", "pdf_page": 46, "pdf_parent_section": "§4.4.10 [Representing Time Points]", "pdf_verbatim": "3 | 90 MIN | PT1H30M | DOSE ADMINISTRATION | 2006-08-01T08:00 | 2006-08-01T09:32", "figure_ref": null, "candidates": [{"md_atom_id": "md_ch04_a719", "md_file": "knowledge_base/chapters/ch04_general_assumptions.md", "md_atom_type": "TABLE_ROW", "md_parent_section": "§4.4.10 [Representing Time Points]", "md_verbatim": "| 3 | 90 MIN | PT1H30M | DOSE ADMINISTRATION | 2006-08-01T08:00 | 2006-08-01T09:32 |", "score": 0.9, "match_basis": "verbatim_token+chapter_route:ch04"}, {"md_atom_id": "md_ch04_a718", "md_file": "knowledge_base/chapters/ch04_general_assumptions.md", "md_atom_type": "TABLE_ROW", "md_parent_section": "§4.4.10 [Representing Time Points]", "md_verbatim": "| 2 | 60 MIN | PT1H | DOSE ADMINISTRATION | 2006-08-01T08:00 | 2006-08-01T09:01 |", "score": 0.828, "match_basis": "verbatim_token+chapter_route:ch04"}, {"md_atom_id": "md_ch04_a717", "md_file": "knowledge_base/chapters/ch04_general_assumptions.md", "md_atom_type": "TABLE_ROW", "md_parent_section": "§4.4.10 [Representing Time Points]", "md_verbatim": "| 1 | 30 MIN | PT30M | DOSE ADMINISTRATION | 2006-08-01T08:00 | 2006-08-01T08:30 |", "score": 0.7444, "match_basis": "verbatim_token+chapter_route:ch04"}, {"md_atom_id": "md_ch04_a723", "md_file": "knowledge_base/chapters/ch04_general_assumptions.md", "md_atom_type": "TABLE_ROW", "md_parent_section": "§4.4.10 [Representing Time Points]", "md_verbatim": "| 1 | 15 MIN PRE-DOSE | -PT15M | DOSE ADMINISTRATION | 2006-08-01T08:00 | 2006-08-01T07:45 |", "score": 0.7138, "match_basis": "verbatim_token+chapter_route:ch04"}, {"md_atom_id": "md_ch04_a724", "md_file": "knowledge_base/chapters/ch04_general_assumptions.md", "md_atom_type": "TABLE_ROW", "md_parent_section": "§4.4.10 [Representing Time Points]", "md_verbatim": "| 2 | 0-12 HOURS | PT12H | DOSE ADMINISTRATION | 2006-08-01T08:00 | 2006-08-01T20:35 |", "score": 0.675, "match_basis": "verbatim_token+chapter_route:ch04"}], "candidate_count": 5, "zero_candidate": false}
{"pdf_atom_id": "ig34_p0046_a021", "pdf_atom_type": "CODE_LITERAL", "pdf_source": "SDTMIG_v3.4", "pdf_page": 46, "pdf_parent_section": "§4.4.10 [Representing Time Points]", "pdf_verbatim": "PT1H30M", "figure_ref": null, "candidates": [{"md_atom_id": "md_ch04_a719", "md_file": "knowledge_base/chapters/ch04_general_assumptions.md", "md_atom_type": "TABLE_ROW", "md_parent_section": "§4.4.10 [Representing Time Points]", "md_verbatim": "| 3 | 90 MIN | PT1H30M | DOSE ADMINISTRATION | 2006-08-01T08:00 | 2006-08-01T09:32 |", "score": 0.21, "match_basis": "verbatim_token+chapter_route:ch04"}, {"md_atom_id": "md_ch04_a718", "md_file": "knowledge_base/chapters/ch04_general_assumptions.md", "md_atom_type": "TABLE_ROW", "md_parent_section": "§4.4.10 [Representing Time Points]", "md_verbatim": "| 2 | 60 MIN | PT1H | DOSE ADMINISTRATION | 2006-08-01T08:00 | 2006-08-01T09:01 |", "score": 0.138, "match_basis": "verbatim_token+chapter_route:ch04"}, {"md_atom_id": "md_ch04_a717", "md_file": "knowledge_base/chapters/ch04_general_assumptions.md", "md_atom_type": "TABLE_ROW", "md_parent_section": "§4.4.10 [Representing Time Points]", "md_verbatim": "| 1 | 30 MIN | PT30M | DOSE ADMINISTRATION | 2006-08-01T08:00 | 2006-08-01T08:30 |", "score": 0.1131, "match_basis": "verbatim_token+chapter_route:ch04"}, {"md_atom_id": "md_ch04_a723", "md_file": "knowledge_base/chapters/ch04_general_assumptions.md", "md_atom_type": "TABLE_ROW", "md_parent_section": "§4.4.10 [Representing Time Points]", "md_verbatim": "| 1 | 15 MIN PRE-DOSE | -PT15M | DOSE ADMINISTRATION | 2006-08-01T08:00 | 2006-08-01T07:45 |", "score": 0.1114, "match_basis": "verbatim_token+chapter_route:ch04"}, {"md_atom_id": "md_ch04_a724", "md_file": "knowledge_base/chapters/ch04_general_assumptions.md", "md_atom_type": "TABLE_ROW", "md_parent_section": "§4.4.10 [Representing Time Points]", "md_verbatim": "| 2 | 0-12 HOURS | PT12H | DOSE ADMINISTRATION | 2006-08-01T08:00 | 2006-08-01T20:35 |", "score": 0.1094, "match_basis": "verbatim_token+chapter_route:ch04"}, {"md_atom_id": "md_ch04_a001", "md_file": "knowledge_base/chapters/ch04_general_assumptions.md", "md_atom_type": "HEADING", "md_parent_section": "§4 [Assumptions for Domain Models]", "md_verbatim": "# SDTMIG v3.4 — Chapter 4: Assumptions for Domain Models", "score": 0.09, "match_basis": "verbatim_token+chapter_route:ch04"}, {"md_atom_id": "md_ch04_a002", "md_file": "knowledge_base/chapters/ch04_general_assumptions.md", "md_atom_type": "SENTENCE", "md_parent_section": "§4 [Assumptions for Domain Models]", "md_verbatim": "Source: SDTMIG v3.4, Section 4 (Pages 22-59)", "score": 0.09, "match_basis": "verbatim_token+chapter_route:ch04"}, {"md_atom_id": "md_ch04_a003", "md_file": "knowledge_base/chapters/ch04_general_assumptions.md", "md_atom_type": "HEADING", "md_parent_section": "§4 [Assumptions for Domain Models]", "md_verbatim": "## Overview", "score": 0.09, "match_basis": "verbatim_token+chapter_route:ch04"}, {"md_atom_id": "md_ch04_a004", "md_file": "knowledge_base/chapters/ch04_general_assumptions.md", "md_atom_type": "SENTENCE", "md_parent_section": "§4.0 [Overview]", "md_verbatim": "This section describes basic concepts, business rules, and assumptions that should be taken into consideration before applying the domain models.", "score": 0.09, "match_basis": "verbatim_token+chapter_route:ch04"}, {"md_atom_id": "md_ch04_a005", "md_file": "knowledge_base/chapters/ch04_general_assumptions.md", "md_atom_type": "SENTENCE", "md_parent_section": "§4.0 [Overview]", "md_verbatim": "It covers general domain assumptions, general variable assumptions, coding and controlled terminology assumptions, actual and relative time assumptions, and other assumptions.", "score": 0.09, "match_basis": "verbatim_token+chapter_route:ch04"}], "candidate_count": 10, "zero_candidate": false}
{"pdf_atom_id": "ig34_p0046_a022", "pdf_atom_type": "NOTE", "pdf_source": "SDTMIG_v3.4", "pdf_page": 46, "pdf_parent_section": "§4.4.10 [Representing Time Points]", "pdf_verbatim": "Note that VSELTM is the planned elapsed time, not the actual elapsed time. The actual elapsed time could be derived in an analysis dataset, if desired, as VSDTC-VSRFTDTC.", "figure_ref": null, "candidates": [{"md_atom_id": "md_ch04_a720", "md_file": "knowledge_base/chapters/ch04_general_assumptions.md", "md_atom_type": "NOTE", "md_parent_section": "§4.4.10 [Representing Time Points]", "md_verbatim": "> Note that VSELTM is the planned elapsed time, not the actual elapsed time. The actual elapsed time could be derived in an analysis dataset, if desired, as VSDTC−VSRFTDTC.", "score": 0.9, "match_basis": "verbatim_token+chapter_route:ch04"}, {"md_atom_id": "md_ch04_a692", "md_file": "knowledge_base/chapters/ch04_general_assumptions.md", "md_atom_type": "NOTE", "md_parent_section": "§4.4.8 [Date and Time Reported in a Domain Based on Findings]", "md_verbatim": "**Note:** --STDTC should not be used in the Findings general observation class and is therefore blank in this table.", "score": 0.3551, "match_basis": "verbatim_token+chapter_route:ch04"}, {"md_atom_id": "md_ch04_a726", "md_file": "knowledge_base/chapters/ch04_general_assumptions.md", "md_atom_type": "NOTE", "md_parent_section": "§4.4.10 [Representing Time Points]", "md_verbatim": "> Note that the value in LBELTM represents the end of the specimen collection interval.", "score": 0.3539, "match_basis": "verbatim_token+chapter_route:ch04"}, {"md_atom_id": "md_ch04_a649", "md_file": "knowledge_base/chapters/ch04_general_assumptions.md", "md_atom_type": "NOTE", "md_parent_section": "§4.4.7 [Use of Relative Timing Variables]", "md_verbatim": "**Note:** \"DURING\" and \"DURING/AFTER\" are in the STENRF codelist but describe timing relative to an interval of time rather than a point in time, so are **not allowable for use with --STRTPT and --ENRTPT** variables.", "score": 0.345, "match_basis": "verbatim_token+chapter_route:ch04"}, {"md_atom_id": "md_ch04_a473", "md_file": "knowledge_base/chapters/ch04_general_assumptions.md", "md_atom_type": "NOTE", "md_parent_section": "§4.3.7 [Use of \"Yes\" and \"No\" Values]", "md_verbatim": "> **Note:** Permissible values for variables with controlled terms of \"Y\" or \"N\" may be extended to include \"U\" or \"NA\" if it is the sponsor's practice to explicitly collect or derive values indicating \"Unknown\" or \"Not Applicable\" for that variable.", "score": 0.3435, "match_basis": "verbatim_token+chapter_route:ch04"}], "candidate_count": 5, "zero_candidate": false}
{"pdf_atom_id": "ig34_p0046_a023", "pdf_atom_type": "SENTENCE", "pdf_source": "SDTMIG_v3.4", "pdf_page": 46, "pdf_parent_section": "§4.4.10 [Representing Time Points]", "pdf_verbatim": "Values for these variables for urine collections taken pre-dose, and from 0-12 hours and 12-24 hours after dosing would look like the following.", "figure_ref": null, "candidates": [{"md_atom_id": "md_ch04_a721", "md_file": "knowledge_base/chapters/ch04_general_assumptions.md", "md_atom_type": "SENTENCE", "md_parent_section": "§4.4.10 [Representing Time Points]", "md_verbatim": "**Example: LB timed urine collections (pre-dose, 0-12 hours, 12-24 hours post-dose)**", "score": 0.4612, "match_basis": "verbatim_token+chapter_route:ch04"}, {"md_atom_id": "md_ch04_a688", "md_file": "knowledge_base/chapters/ch04_general_assumptions.md", "md_atom_type": "SENTENCE", "md_parent_section": "§4.4.8 [Date and Time Reported in a Domain Based on Findings]", "md_verbatim": "**Collection type and variable usage (--STDTC should not be used in Findings):**", "score": 0.4541, "match_basis": "verbatim_token+chapter_route:ch04"}, {"md_atom_id": "md_ch04_a557", "md_file": "knowledge_base/chapters/ch04_general_assumptions.md", "md_atom_type": "SENTENCE", "md_parent_section": "§4.4.3.1 [Intervals of Time and Use of Duration]", "md_verbatim": "The values provided in --DUR should follow 1 of the following ISO 8601 duration formats:", "score": 0.444, "match_basis": "verbatim_token+chapter_route:ch04"}, {"md_atom_id": "md_ch04_a898", "md_file": "knowledge_base/chapters/ch04_general_assumptions.md", "md_atom_type": "SENTENCE", "md_parent_section": "§4.5.3.1 [Test Name (--TEST) Greater than 40 Characters]", "md_verbatim": "Sponsors have the following options for including the full description for these variables in the study metadata:", "score": 0.4416, "match_basis": "verbatim_token+chapter_route:ch04"}, {"md_atom_id": "md_ch04_a904", "md_file": "knowledge_base/chapters/ch04_general_assumptions.md", "md_atom_type": "SENTENCE", "md_parent_section": "§4.5.3.2 [Text Strings Greater than 200 Characters in Other Variables]", "md_verbatim": "Some sponsors may collect data values longer than 200 characters for some variables.", "score": 0.4407, "match_basis": "verbatim_token+chapter_route:ch04"}], "candidate_count": 5, "zero_candidate": false}
{"pdf_atom_id": "ig34_p0046_a024", "pdf_atom_type": "TABLE_HEADER", "pdf_source": "SDTMIG_v3.4", "pdf_page": 46, "pdf_parent_section": "§4.4.10 [Representing Time Points]", "pdf_verbatim": "LBTPTNUM | LBTPT | LBELTM | LBTPTREF | LBRFTDTC | LBDTC", "figure_ref": null, "candidates": [{"md_atom_id": "md_ch04_a722", "md_file": "knowledge_base/chapters/ch04_general_assumptions.md", "md_atom_type": "TABLE_HEADER", "md_parent_section": "§4.4.10 [Representing Time Points]", "md_verbatim": "| LBTPTNUM | LBTPT | LBELTM | LBTPTREF | LBRFTDTC | LBDTC |\n|----------|-------|--------|----------|----------|-------|", "score": 0.9, "match_basis": "verbatim_token+chapter_route:ch04"}, {"md_atom_id": "md_ch04_a716", "md_file": "knowledge_base/chapters/ch04_general_assumptions.md", "md_atom_type": "TABLE_HEADER", "md_parent_section": "§4.4.10 [Representing Time Points]", "md_verbatim": "| VSTPTNUM | VSTPT | VSELTM | VSTPTREF | VSRFTDTC | VSDTC |\n|----------|-------|--------|----------|----------|-------|", "score": 0.569, "match_basis": "verbatim_token+chapter_route:ch04"}, {"md_atom_id": "md_ch04_a736", "md_file": "knowledge_base/chapters/ch04_general_assumptions.md", "md_atom_type": "TABLE_HEADER", "md_parent_section": "§4.4.10 [Representing Time Points]", "md_verbatim": "| VISIT | VISITNUM | --TPT | --TPTNUM | --TPTREF |\n|-------|----------|-------|----------|----------|", "score": 0.468, "match_basis": "verbatim_token+chapter_route:ch04"}, {"md_atom_id": "md_ch04_a756", "md_file": "knowledge_base/chapters/ch04_general_assumptions.md", "md_atom_type": "TABLE_HEADER", "md_parent_section": "§4.4.10 [Representing Time Points]", "md_verbatim": "| VISIT | VISITNUM | --TPT | --TPTNUM | --TPTREF |\n|-------|----------|-------|----------|----------|", "score": 0.468, "match_basis": "verbatim_token+chapter_route:ch04"}, {"md_atom_id": "md_ch04_a847", "md_file": "knowledge_base/chapters/ch04_general_assumptions.md", "md_atom_type": "TABLE_HEADER", "md_parent_section": "§4.5.1.3 [Examples of Original and Standard Units and Test Not Done]", "md_verbatim": "| Row | LBTESTCD | LBCAT | LBORRES | LBORRESU | LBSTRESC | LBSTRESN | LBSTRESU | LBSTAT | LBLOBXFL | VISITNUM | LBDTC |\n|-----|----------|-------|---------|----------|----------|----------|----------|--------|----------|----------|-------|", "score": 0.3792, "match_basis": "verbatim_token+chapter_route:ch04"}], "candidate_count": 5, "zero_candidate": false}
{"pdf_atom_id": "ig34_p0046_a025", "pdf_atom_type": "TABLE_ROW", "pdf_source": "SDTMIG_v3.4", "pdf_page": 46, "pdf_parent_section": "§4.4.10 [Representing Time Points]", "pdf_verbatim": "1 | 15 MIN PRE-DOSE | -PT15M | DOSE ADMINISTRATION | 2006-08-01T08:00 | 2006-08-01T07:45", "figure_ref": null, "candidates": [{"md_atom_id": "md_ch04_a723", "md_file": "knowledge_base/chapters/ch04_general_assumptions.md", "md_atom_type": "TABLE_ROW", "md_parent_section": "§4.4.10 [Representing Time Points]", "md_verbatim": "| 1 | 15 MIN PRE-DOSE | -PT15M | DOSE ADMINISTRATION | 2006-08-01T08:00 | 2006-08-01T07:45 |", "score": 0.9, "match_basis": "verbatim_token+chapter_route:ch04"}, {"md_atom_id": "md_ch04_a718", "md_file": "knowledge_base/chapters/ch04_general_assumptions.md", "md_atom_type": "TABLE_ROW", "md_parent_section": "§4.4.10 [Representing Time Points]", "md_verbatim": "| 2 | 60 MIN | PT1H | DOSE ADMINISTRATION | 2006-08-01T08:00 | 2006-08-01T09:01 |", "score": 0.7615, "match_basis": "verbatim_token+chapter_route:ch04"}, {"md_atom_id": "md_ch04_a717", "md_file": "knowledge_base/chapters/ch04_general_assumptions.md", "md_atom_type": "TABLE_ROW", "md_parent_section": "§4.4.10 [Representing Time Points]", "md_verbatim": "| 1 | 30 MIN | PT30M | DOSE ADMINISTRATION | 2006-08-01T08:00 | 2006-08-01T08:30 |", "score": 0.7222, "match_basis": "verbatim_token+chapter_route:ch04"}, {"md_atom_id": "md_ch04_a719", "md_file": "knowledge_base/chapters/ch04_general_assumptions.md", "md_atom_type": "TABLE_ROW", "md_parent_section": "§4.4.10 [Representing Time Points]", "md_verbatim": "| 3 | 90 MIN | PT1H30M | DOSE ADMINISTRATION | 2006-08-01T08:00 | 2006-08-01T09:32 |", "score": 0.7138, "match_basis": "verbatim_token+chapter_route:ch04"}, {"md_atom_id": "md_ch04_a724", "md_file": "knowledge_base/chapters/ch04_general_assumptions.md", "md_atom_type": "TABLE_ROW", "md_parent_section": "§4.4.10 [Representing Time Points]", "md_verbatim": "| 2 | 0-12 HOURS | PT12H | DOSE ADMINISTRATION | 2006-08-01T08:00 | 2006-08-01T20:35 |", "score": 0.6871, "match_basis": "verbatim_token+chapter_route:ch04"}], "candidate_count": 5, "zero_candidate": false}
{"pdf_atom_id": "ig34_p0046_a026", "pdf_atom_type": "CODE_LITERAL", "pdf_source": "SDTMIG_v3.4", "pdf_page": 46, "pdf_parent_section": "§4.4.10 [Representing Time Points]", "pdf_verbatim": "-PT15M", "figure_ref": null, "candidates": [{"md_atom_id": "md_ch04_a723", "md_file": "knowledge_base/chapters/ch04_general_assumptions.md", "md_atom_type": "TABLE_ROW", "md_parent_section": "§4.4.10 [Representing Time Points]", "md_verbatim": "| 1 | 15 MIN PRE-DOSE | -PT15M | DOSE ADMINISTRATION | 2006-08-01T08:00 | 2006-08-01T07:45 |", "score": 0.165, "match_basis": "verbatim_token+chapter_route:ch04"}, {"md_atom_id": "md_ch04_a718", "md_file": "knowledge_base/chapters/ch04_general_assumptions.md", "md_atom_type": "TABLE_ROW", "md_parent_section": "§4.4.10 [Representing Time Points]", "md_verbatim": "| 2 | 60 MIN | PT1H | DOSE ADMINISTRATION | 2006-08-01T08:00 | 2006-08-01T09:01 |", "score": 0.115, "match_basis": "verbatim_token+chapter_route:ch04"}, {"md_atom_id": "md_ch04_a719", "md_file": "knowledge_base/chapters/ch04_general_assumptions.md", "md_atom_type": "TABLE_ROW", "md_parent_section": "§4.4.10 [Representing Time Points]", "md_verbatim": "| 3 | 90 MIN | PT1H30M | DOSE ADMINISTRATION | 2006-08-01T08:00 | 2006-08-01T09:32 |", "score": 0.1122, "match_basis": "verbatim_token+chapter_route:ch04"}, {"md_atom_id": "md_ch04_a724", "md_file": "knowledge_base/chapters/ch04_general_assumptions.md", "md_atom_type": "TABLE_ROW", "md_parent_section": "§4.4.10 [Representing Time Points]", "md_verbatim": "| 2 | 0-12 HOURS | PT12H | DOSE ADMINISTRATION | 2006-08-01T08:00 | 2006-08-01T20:35 |", "score": 0.1107, "match_basis": "verbatim_token+chapter_route:ch04"}, {"md_atom_id": "md_ch04_a001", "md_file": "knowledge_base/chapters/ch04_general_assumptions.md", "md_atom_type": "HEADING", "md_parent_section": "§4 [Assumptions for Domain Models]", "md_verbatim": "# SDTMIG v3.4 — Chapter 4: Assumptions for Domain Models", "score": 0.09, "match_basis": "verbatim_token+chapter_route:ch04"}, {"md_atom_id": "md_ch04_a002", "md_file": "knowledge_base/chapters/ch04_general_assumptions.md", "md_atom_type": "SENTENCE", "md_parent_section": "§4 [Assumptions for Domain Models]", "md_verbatim": "Source: SDTMIG v3.4, Section 4 (Pages 22-59)", "score": 0.09, "match_basis": "verbatim_token+chapter_route:ch04"}, {"md_atom_id": "md_ch04_a003", "md_file": "knowledge_base/chapters/ch04_general_assumptions.md", "md_atom_type": "HEADING", "md_parent_section": "§4 [Assumptions for Domain Models]", "md_verbatim": "## Overview", "score": 0.09, "match_basis": "verbatim_token+chapter_route:ch04"}, {"md_atom_id": "md_ch04_a004", "md_file": "knowledge_base/chapters/ch04_general_assumptions.md", "md_atom_type": "SENTENCE", "md_parent_section": "§4.0 [Overview]", "md_verbatim": "This section describes basic concepts, business rules, and assumptions that should be taken into consideration before applying the domain models.", "score": 0.09, "match_basis": "verbatim_token+chapter_route:ch04"}, {"md_atom_id": "md_ch04_a005", "md_file": "knowledge_base/chapters/ch04_general_assumptions.md", "md_atom_type": "SENTENCE", "md_parent_section": "§4.0 [Overview]", "md_verbatim": "It covers general domain assumptions, general variable assumptions, coding and controlled terminology assumptions, actual and relative time assumptions, and other assumptions.", "score": 0.09, "match_basis": "verbatim_token+chapter_route:ch04"}, {"md_atom_id": "md_ch04_a006", "md_file": "knowledge_base/chapters/ch04_general_assumptions.md", "md_atom_type": "HEADING", "md_parent_section": "§4 [Assumptions for Domain Models]", "md_verbatim": "## 4.1 General Domain Assumptions", "score": 0.09, "match_basis": "verbatim_token+chapter_route:ch04"}], "candidate_count": 10, "zero_candidate": false}
{"pdf_atom_id": "ig34_p0046_a027", "pdf_atom_type": "TABLE_ROW", "pdf_source": "SDTMIG_v3.4", "pdf_page": 46, "pdf_parent_section": "§4.4.10 [Representing Time Points]", "pdf_verbatim": "2 | 0-12 HOURS | PT12H | DOSE ADMINISTRATION | 2006-08-01T08:00 | 2006-08-01T20:35", "figure_ref": null, "candidates": [{"md_atom_id": "md_ch04_a724", "md_file": "knowledge_base/chapters/ch04_general_assumptions.md", "md_atom_type": "TABLE_ROW", "md_parent_section": "§4.4.10 [Representing Time Points]", "md_verbatim": "| 2 | 0-12 HOURS | PT12H | DOSE ADMINISTRATION | 2006-08-01T08:00 | 2006-08-01T20:35 |", "score": 0.9, "match_basis": "verbatim_token+chapter_route:ch04"}, {"md_atom_id": "md_ch04_a718", "md_file": "knowledge_base/chapters/ch04_general_assumptions.md", "md_atom_type": "TABLE_ROW", "md_parent_section": "§4.4.10 [Representing Time Points]", "md_verbatim": "| 2 | 60 MIN | PT1H | DOSE ADMINISTRATION | 2006-08-01T08:00 | 2006-08-01T09:01 |", "score": 0.7138, "match_basis": "verbatim_token+chapter_route:ch04"}, {"md_atom_id": "md_ch04_a725", "md_file": "knowledge_base/chapters/ch04_general_assumptions.md", "md_atom_type": "TABLE_ROW", "md_parent_section": "§4.4.10 [Representing Time Points]", "md_verbatim": "| 3 | 12-24 HOURS | PT24H | DOSE ADMINISTRATION | 2006-08-01T08:00 | 2006-08-02T08:40 |", "score": 0.7125, "match_basis": "verbatim_token+chapter_route:ch04"}, {"md_atom_id": "md_ch04_a723", "md_file": "knowledge_base/chapters/ch04_general_assumptions.md", "md_atom_type": "TABLE_ROW", "md_parent_section": "§4.4.10 [Representing Time Points]", "md_verbatim": "| 1 | 15 MIN PRE-DOSE | -PT15M | DOSE ADMINISTRATION | 2006-08-01T08:00 | 2006-08-01T07:45 |", "score": 0.6871, "match_basis": "verbatim_token+chapter_route:ch04"}, {"md_atom_id": "md_ch04_a717", "md_file": "knowledge_base/chapters/ch04_general_assumptions.md", "md_atom_type": "TABLE_ROW", "md_parent_section": "§4.4.10 [Representing Time Points]", "md_verbatim": "| 1 | 30 MIN | PT30M | DOSE ADMINISTRATION | 2006-08-01T08:00 | 2006-08-01T08:30 |", "score": 0.68, "match_basis": "verbatim_token+chapter_route:ch04"}], "candidate_count": 5, "zero_candidate": false}
{"pdf_atom_id": "ig34_p0046_a028", "pdf_atom_type": "CODE_LITERAL", "pdf_source": "SDTMIG_v3.4", "pdf_page": 46, "pdf_parent_section": "§4.4.10 [Representing Time Points]", "pdf_verbatim": "PT12H", "figure_ref": null, "candidates": [{"md_atom_id": "md_ch04_a724", "md_file": "knowledge_base/chapters/ch04_general_assumptions.md", "md_atom_type": "TABLE_ROW", "md_parent_section": "§4.4.10 [Representing Time Points]", "md_verbatim": "| 2 | 0-12 HOURS | PT12H | DOSE ADMINISTRATION | 2006-08-01T08:00 | 2006-08-01T20:35 |", "score": 0.1567, "match_basis": "verbatim_token+chapter_route:ch04"}, {"md_atom_id": "md_ch04_a588", "md_file": "knowledge_base/chapters/ch04_general_assumptions.md", "md_atom_type": "TABLE_ROW", "md_parent_section": "§4.4.3.1 [Intervals of Time and Use of Duration]", "md_verbatim": "| 5 days 12 1/4 hours | P5DT12.25H |", "score": 0.14, "match_basis": "verbatim_token+chapter_route:ch04"}, {"md_atom_id": "md_ch04_a718", "md_file": "knowledge_base/chapters/ch04_general_assumptions.md", "md_atom_type": "TABLE_ROW", "md_parent_section": "§4.4.10 [Representing Time Points]", "md_verbatim": "| 2 | 60 MIN | PT1H | DOSE ADMINISTRATION | 2006-08-01T08:00 | 2006-08-01T09:01 |", "score": 0.115, "match_basis": "verbatim_token+chapter_route:ch04"}, {"md_atom_id": "md_ch04_a723", "md_file": "knowledge_base/chapters/ch04_general_assumptions.md", "md_atom_type": "TABLE_ROW", "md_parent_section": "§4.4.10 [Representing Time Points]", "md_verbatim": "| 1 | 15 MIN PRE-DOSE | -PT15M | DOSE ADMINISTRATION | 2006-08-01T08:00 | 2006-08-01T07:45 |", "score": 0.1131, "match_basis": "verbatim_token+chapter_route:ch04"}, {"md_atom_id": "md_ch04_a719", "md_file": "knowledge_base/chapters/ch04_general_assumptions.md", "md_atom_type": "TABLE_ROW", "md_parent_section": "§4.4.10 [Representing Time Points]", "md_verbatim": "| 3 | 90 MIN | PT1H30M | DOSE ADMINISTRATION | 2006-08-01T08:00 | 2006-08-01T09:32 |", "score": 0.1122, "match_basis": "verbatim_token+chapter_route:ch04"}, {"md_atom_id": "md_ch04_a001", "md_file": "knowledge_base/chapters/ch04_general_assumptions.md", "md_atom_type": "HEADING", "md_parent_section": "§4 [Assumptions for Domain Models]", "md_verbatim": "# SDTMIG v3.4 — Chapter 4: Assumptions for Domain Models", "score": 0.09, "match_basis": "verbatim_token+chapter_route:ch04"}, {"md_atom_id": "md_ch04_a002", "md_file": "knowledge_base/chapters/ch04_general_assumptions.md", "md_atom_type": "SENTENCE", "md_parent_section": "§4 [Assumptions for Domain Models]", "md_verbatim": "Source: SDTMIG v3.4, Section 4 (Pages 22-59)", "score": 0.09, "match_basis": "verbatim_token+chapter_route:ch04"}, {"md_atom_id": "md_ch04_a003", "md_file": "knowledge_base/chapters/ch04_general_assumptions.md", "md_atom_type": "HEADING", "md_parent_section": "§4 [Assumptions for Domain Models]", "md_verbatim": "## Overview", "score": 0.09, "match_basis": "verbatim_token+chapter_route:ch04"}, {"md_atom_id": "md_ch04_a004", "md_file": "knowledge_base/chapters/ch04_general_assumptions.md", "md_atom_type": "SENTENCE", "md_parent_section": "§4.0 [Overview]", "md_verbatim": "This section describes basic concepts, business rules, and assumptions that should be taken into consideration before applying the domain models.", "score": 0.09, "match_basis": "verbatim_token+chapter_route:ch04"}, {"md_atom_id": "md_ch04_a005", "md_file": "knowledge_base/chapters/ch04_general_assumptions.md", "md_atom_type": "SENTENCE", "md_parent_section": "§4.0 [Overview]", "md_verbatim": "It covers general domain assumptions, general variable assumptions, coding and controlled terminology assumptions, actual and relative time assumptions, and other assumptions.", "score": 0.09, "match_basis": "verbatim_token+chapter_route:ch04"}], "candidate_count": 10, "zero_candidate": false}
{"pdf_atom_id": "ig34_p0046_a029", "pdf_atom_type": "TABLE_ROW", "pdf_source": "SDTMIG_v3.4", "pdf_page": 46, "pdf_parent_section": "§4.4.10 [Representing Time Points]", "pdf_verbatim": "3 | 12-24 HOURS | PT24H | DOSE ADMINISTRATION | 2006-08-01T08:00 | 2006-08-02T08:40", "figure_ref": null, "candidates": [{"md_atom_id": "md_ch04_a725", "md_file": "knowledge_base/chapters/ch04_general_assumptions.md", "md_atom_type": "TABLE_ROW", "md_parent_section": "§4.4.10 [Representing Time Points]", "md_verbatim": "| 3 | 12-24 HOURS | PT24H | DOSE ADMINISTRATION | 2006-08-01T08:00 | 2006-08-02T08:40 |", "score": 0.9, "match_basis": "verbatim_token+chapter_route:ch04"}, {"md_atom_id": "md_ch04_a724", "md_file": "knowledge_base/chapters/ch04_general_assumptions.md", "md_atom_type": "TABLE_ROW", "md_parent_section": "§4.4.10 [Representing Time Points]", "md_verbatim": "| 2 | 0-12 HOURS | PT12H | DOSE ADMINISTRATION | 2006-08-01T08:00 | 2006-08-01T20:35 |", "score": 0.7125, "match_basis": "verbatim_token+chapter_route:ch04"}, {"md_atom_id": "md_ch04_a717", "md_file": "knowledge_base/chapters/ch04_general_assumptions.md", "md_atom_type": "TABLE_ROW", "md_parent_section": "§4.4.10 [Representing Time Points]", "md_verbatim": "| 1 | 30 MIN | PT30M | DOSE ADMINISTRATION | 2006-08-01T08:00 | 2006-08-01T08:30 |", "score": 0.68, "match_basis": "verbatim_token+chapter_route:ch04"}, {"md_atom_id": "md_ch04_a718", "md_file": "knowledge_base/chapters/ch04_general_assumptions.md", "md_atom_type": "TABLE_ROW", "md_parent_section": "§4.4.10 [Representing Time Points]", "md_verbatim": "| 2 | 60 MIN | PT1H | DOSE ADMINISTRATION | 2006-08-01T08:00 | 2006-08-01T09:01 |", "score": 0.68, "match_basis": "verbatim_token+chapter_route:ch04"}, {"md_atom_id": "md_ch04_a723", "md_file": "knowledge_base/chapters/ch04_general_assumptions.md", "md_atom_type": "TABLE_ROW", "md_parent_section": "§4.4.10 [Representing Time Points]", "md_verbatim": "| 1 | 15 MIN PRE-DOSE | -PT15M | DOSE ADMINISTRATION | 2006-08-01T08:00 | 2006-08-01T07:45 |", "score": 0.6562, "match_basis": "verbatim_token+chapter_route:ch04"}], "candidate_count": 5, "zero_candidate": false}
{"pdf_atom_id": "ig34_p0046_a030", "pdf_atom_type": "CODE_LITERAL", "pdf_source": "SDTMIG_v3.4", "pdf_page": 46, "pdf_parent_section": "§4.4.10 [Representing Time Points]", "pdf_verbatim": "PT24H", "figure_ref": null, "candidates": [{"md_atom_id": "md_ch04_a725", "md_file": "knowledge_base/chapters/ch04_general_assumptions.md", "md_atom_type": "TABLE_ROW", "md_parent_section": "§4.4.10 [Representing Time Points]", "md_verbatim": "| 3 | 12-24 HOURS | PT24H | DOSE ADMINISTRATION | 2006-08-01T08:00 | 2006-08-02T08:40 |", "score": 0.1567, "match_basis": "verbatim_token+chapter_route:ch04"}, {"md_atom_id": "md_ch04_a085", "md_file": "knowledge_base/chapters/ch04_general_assumptions.md", "md_atom_type": "TABLE_ROW", "md_parent_section": "§4.1.7.1 [Example of Splitting Questionnaires]", "md_verbatim": "| 2 | CDISC01 | QS | CDISC01.100008 | 2 | PI0101 | PI01-Pain Intensity | PI | FIBROMYALGIA | 50 | mm | 50 | 50 | mm | BACK | VISUAL ANALOG SCALE (100 MM) | | 2 | 2003-04-21 | 7 | -PT24H |", "score": 0.1267, "match_basis": "verbatim_token+chapter_route:ch04"}, {"md_atom_id": "md_ch04_a086", "md_file": "knowledge_base/chapters/ch04_general_assumptions.md", "md_atom_type": "TABLE_ROW", "md_parent_section": "§4.1.7.1 [Example of Splitting Questionnaires]", "md_verbatim": "| 3 | CDISC01 | QS | CDISC01.100008 | 3 | PI0101 | PI01-Pain Intensity | PI | FIBROMYALGIA | 60 | mm | 60 | 60 | mm | BACK | VISUAL ANALOG SCALE (100 MM) | | 3 | 2003-04-28 | 14 | -PT24H |", "score": 0.1267, "match_basis": "verbatim_token+chapter_route:ch04"}, {"md_atom_id": "md_ch04_a088", "md_file": "knowledge_base/chapters/ch04_general_assumptions.md", "md_atom_type": "TABLE_ROW", "md_parent_section": "§4.1.7.1 [Example of Splitting Questionnaires]", "md_verbatim": "| 5 | CDISC01 | QS | CDISC01.100014 | 5 | PI0101 | PI01-Pain Intensity | PI | FIBROMYALGIA | 50 | mm | 50 | 50 | mm | BACK | VISUAL ANALOG SCALE (100 MM) | | 2 | 2003-04-21 | 7 | -PT24H |", "score": 0.126, "match_basis": "verbatim_token+chapter_route:ch04"}, {"md_atom_id": "md_ch04_a089", "md_file": "knowledge_base/chapters/ch04_general_assumptions.md", "md_atom_type": "TABLE_ROW", "md_parent_section": "§4.1.7.1 [Example of Splitting Questionnaires]", "md_verbatim": "| 6 | CDISC01 | QS | CDISC01.100014 | 6 | PI0101 | PI01-Pain Intensity | PI | FIBROMYALGIA | 60 | mm | 60 | 60 | mm | BACK | VISUAL ANALOG SCALE (100 MM) | | 3 | 2003-04-28 | 14 | -PT24H |", "score": 0.126, "match_basis": "verbatim_token+chapter_route:ch04"}, {"md_atom_id": "md_ch04_a084", "md_file": "knowledge_base/chapters/ch04_general_assumptions.md", "md_atom_type": "TABLE_ROW", "md_parent_section": "§4.1.7.1 [Example of Splitting Questionnaires]", "md_verbatim": "| 1 | CDISC01 | QS | CDISC01.100008 | 1 | PI0101 | PI01-Pain Intensity | PI | FIBROMYALGIA | WORST PAIN IMAGINABLE | | 100 | 100 | | BACK | VISUAL ANALOG SCALE (100 MM) | Y | 1 | 2003-04-15 | 1 | -PT24H |", "score": 0.12, "match_basis": "verbatim_token+chapter_route:ch04"}, {"md_atom_id": "md_ch04_a087", "md_file": "knowledge_base/chapters/ch04_general_assumptions.md", "md_atom_type": "TABLE_ROW", "md_parent_section": "§4.1.7.1 [Example of Splitting Questionnaires]", "md_verbatim": "| 4 | CDISC01 | QS | CDISC01.100014 | 4 | PI0101 | PI01-Pain Intensity | PI | FIBROMYALGIA | WORST PAIN IMAGINABLE | | 100 | 100 | | BACK | VISUAL ANALOG SCALE (100 MM) | Y | 1 | 2003-04-15 | 1 | -PT24H |", "score": 0.1195, "match_basis": "verbatim_token+chapter_route:ch04"}, {"md_atom_id": "md_ch04_a001", "md_file": "knowledge_base/chapters/ch04_general_assumptions.md", "md_atom_type": "HEADING", "md_parent_section": "§4 [Assumptions for Domain Models]", "md_verbatim": "# SDTMIG v3.4 — Chapter 4: Assumptions for Domain Models", "score": 0.09, "match_basis": "verbatim_token+chapter_route:ch04"}, {"md_atom_id": "md_ch04_a002", "md_file": "knowledge_base/chapters/ch04_general_assumptions.md", "md_atom_type": "SENTENCE", "md_parent_section": "§4 [Assumptions for Domain Models]", "md_verbatim": "Source: SDTMIG v3.4, Section 4 (Pages 22-59)", "score": 0.09, "match_basis": "verbatim_token+chapter_route:ch04"}, {"md_atom_id": "md_ch04_a003", "md_file": "knowledge_base/chapters/ch04_general_assumptions.md", "md_atom_type": "HEADING", "md_parent_section": "§4 [Assumptions for Domain Models]", "md_verbatim": "## Overview", "score": 0.09, "match_basis": "verbatim_token+chapter_route:ch04"}], "candidate_count": 10, "zero_candidate": false}
{"pdf_atom_id": "ig34_p0046_a031", "pdf_atom_type": "NOTE", "pdf_source": "SDTMIG_v3.4", "pdf_page": 46, "pdf_parent_section": "§4.4.10 [Representing Time Points]", "pdf_verbatim": "Note that the value in LBELTM represents the end of the specimen collection interval.", "figure_ref": null, "candidates": [{"md_atom_id": "md_ch04_a726", "md_file": "knowledge_base/chapters/ch04_general_assumptions.md", "md_atom_type": "NOTE", "md_parent_section": "§4.4.10 [Representing Time Points]", "md_verbatim": "> Note that the value in LBELTM represents the end of the specimen collection interval.", "score": 0.9, "match_basis": "verbatim_token+chapter_route:ch04"}, {"md_atom_id": "md_ch04_a501", "md_file": "knowledge_base/chapters/ch04_general_assumptions.md", "md_atom_type": "NOTE", "md_parent_section": "§4.4.1 [Formats for Date/Time Variables]", "md_verbatim": "> **Spaces are not allowed in any ISO 8601 representations.**", "score": 0.4034, "match_basis": "verbatim_token+chapter_route:ch04"}, {"md_atom_id": "md_ch04_a683", "md_file": "knowledge_base/chapters/ch04_general_assumptions.md", "md_atom_type": "SENTENCE", "md_parent_section": "§4.4.8 [Date and Time Reported in a Domain Based on Findings]", "md_verbatim": "In order to ensure that the critical timing information is always represented in the same variable, the --DTC variable is used to represent the time of specimen collection.", "score": 0.3975, "match_basis": "verbatim_token+chapter_route:ch04"}, {"md_atom_id": "md_ch04_a713", "md_file": "knowledge_base/chapters/ch04_general_assumptions.md", "md_atom_type": "NOTE", "md_parent_section": "§4.4.10 [Representing Time Points]", "md_verbatim": "**Note:** When time points are represented in SDTMIG domains, both --TPT and --TPTNUM must be used. Time points may or may not have an associated --TPTREF.", "score": 0.3975, "match_basis": "verbatim_token+chapter_route:ch04"}, {"md_atom_id": "md_ch04_a317", "md_file": "knowledge_base/chapters/ch04_general_assumptions.md", "md_atom_type": "NOTE", "md_parent_section": "§4.2.7.3 [\"Specify\" Values for Topic Variables]", "md_verbatim": "**Interventions**", "score": 0.3955, "match_basis": "verbatim_token+chapter_route:ch04"}], "candidate_count": 5, "zero_candidate": false}
{"pdf_atom_id": "ig34_p0046_a032", "pdf_atom_type": "SENTENCE", "pdf_source": "SDTMIG_v3.4", "pdf_page": 46, "pdf_parent_section": "§4.4.10 [Representing Time Points]", "pdf_verbatim": "When time points are represented in SDTMIG domains, both --TPT and --TPTNUM must be used.", "figure_ref": null, "candidates": [{"md_atom_id": "md_ch04_a713", "md_file": "knowledge_base/chapters/ch04_general_assumptions.md", "md_atom_type": "NOTE", "md_parent_section": "§4.4.10 [Representing Time Points]", "md_verbatim": "**Note:** When time points are represented in SDTMIG domains, both --TPT and --TPTNUM must be used. Time points may or may not have an associated --TPTREF.", "score": 0.6402, "match_basis": "verbatim_token+chapter_route:ch04"}, {"md_atom_id": "md_ch04_a705", "md_file": "knowledge_base/chapters/ch04_general_assumptions.md", "md_atom_type": "SENTENCE", "md_parent_section": "§4.4.10 [Representing Time Points]", "md_verbatim": "Time points can be represented using the time point variables --TPT, --TPTNUM, --ELTM, and the time-point anchors --TPTREF (text description) and --RFTDTC (date/time).", "score": 0.4558, "match_basis": "verbatim_token+chapter_route:ch04"}, {"md_atom_id": "md_ch04_a072", "md_file": "knowledge_base/chapters/ch04_general_assumptions.md", "md_atom_type": "SENTENCE", "md_parent_section": "§4.1.7.1 [Example of Splitting Questionnaires]", "md_verbatim": "Each dataset represents a subset of the QS domain data and has only 1 value of QSCAT.", "score": 0.4345, "match_basis": "verbatim_token+chapter_route:ch04"}, {"md_atom_id": "md_ch04_a548", "md_file": "knowledge_base/chapters/ch04_general_assumptions.md", "md_atom_type": "SENTENCE", "md_parent_section": "§4.4.3.1 [Intervals of Time and Use of Duration]", "md_verbatim": "As defined by ISO 8601, an interval of time is the part of a time axis, limited by 2 time \"instants\" such as the times represented in SDTM by the variables --STDTC and --ENDTC.", "score": 0.4308, "match_basis": "verbatim_token+chapter_route:ch04"}, {"md_atom_id": "md_ch04_a533", "md_file": "knowledge_base/chapters/ch04_general_assumptions.md", "md_atom_type": "SENTENCE", "md_parent_section": "§4.4.2 [Date/Time Precision]", "md_verbatim": "Other uncertainty intervals may be represented by the omission of components of the date when these components are unknown or missing.", "score": 0.428, "match_basis": "verbatim_token+chapter_route:ch04"}], "candidate_count": 5, "zero_candidate": false}
{"pdf_atom_id": "ig34_p0046_a033", "pdf_atom_type": "SENTENCE", "pdf_source": "SDTMIG_v3.4", "pdf_page": 46, "pdf_parent_section": "§4.4.10 [Representing Time Points]", "pdf_verbatim": "Time points may or may not have an associated --TPTREF.", "figure_ref": null, "candidates": [{"md_atom_id": "md_ch04_a706", "md_file": "knowledge_base/chapters/ch04_general_assumptions.md", "md_atom_type": "SENTENCE", "md_parent_section": "§4.4.10 [Representing Time Points]", "md_verbatim": "Time-point data will usually have an associated --DTC value.", "score": 0.5571, "match_basis": "verbatim_token+chapter_route:ch04"}, {"md_atom_id": "md_ch04_a713", "md_file": "knowledge_base/chapters/ch04_general_assumptions.md", "md_atom_type": "NOTE", "md_parent_section": "§4.4.10 [Representing Time Points]", "md_verbatim": "**Note:** When time points are represented in SDTMIG domains, both --TPT and --TPTNUM must be used. Time points may or may not have an associated --TPTREF.", "score": 0.4591, "match_basis": "verbatim_token+chapter_route:ch04"}, {"md_atom_id": "md_ch04_a729", "md_file": "knowledge_base/chapters/ch04_general_assumptions.md", "md_atom_type": "SENTENCE", "md_parent_section": "§4.4.10 [Representing Time Points]", "md_verbatim": "In some cases a time point may be uniquely identified without the use of VISIT, or without the use of --TPTREF, or without the use of either:", "score": 0.4132, "match_basis": "verbatim_token+chapter_route:ch04"}, {"md_atom_id": "md_ch04_a705", "md_file": "knowledge_base/chapters/ch04_general_assumptions.md", "md_atom_type": "SENTENCE", "md_parent_section": "§4.4.10 [Representing Time Points]", "md_verbatim": "Time points can be represented using the time point variables --TPT, --TPTNUM, --ELTM, and the time-point anchors --TPTREF (text description) and --RFTDTC (date/time).", "score": 0.4043, "match_basis": "verbatim_token+chapter_route:ch04"}, {"md_atom_id": "md_ch04_a662", "md_file": "knowledge_base/chapters/ch04_general_assumptions.md", "md_atom_type": "SENTENCE", "md_parent_section": "§4.4.7 [Use of Relative Timing Variables]", "md_verbatim": "*Medical event began in 2002 and was ongoing at the reference time point of 2006-11-02. The event may or may not have ended at any time after that.*", "score": 0.4034, "match_basis": "verbatim_token+chapter_route:ch04"}], "candidate_count": 5, "zero_candidate": false}
{"pdf_atom_id": "ig34_p0046_a034", "pdf_atom_type": "SENTENCE", "pdf_source": "SDTMIG_v3.4", "pdf_page": 46, "pdf_parent_section": "§4.4.10 [Representing Time Points]", "pdf_verbatim": "Sometimes, --TPTNUM may be used as a key for multiple values collected for the same test within a visit; as such, there is no dependence upon an anchor such as --TPTREF, but there will be a dependency upon VISITNUM.", "figure_ref": null, "candidates": [{"md_atom_id": "md_ch04_a755", "md_file": "knowledge_base/chapters/ch04_general_assumptions.md", "md_atom_type": "SENTENCE", "md_parent_section": "§4.4.10 [Representing Time Points]", "md_verbatim": "Option 2 — VISITNUM designates period and day within period; --TPTREF designates dose within the day; --TPTNUM designates timing relative to reference time point:", "score": 0.4257, "match_basis": "verbatim_token+chapter_route:ch04"}, {"md_atom_id": "md_ch04_a478", "md_file": "knowledge_base/chapters/ch04_general_assumptions.md", "md_atom_type": "SENTENCE", "md_parent_section": "§4.4 [Actual and Relative Time Assumptions]", "md_verbatim": "In the Findings observation class, where data are usually collected at multiple visits, at least 1 timing variable must be used.", "score": 0.4179, "match_basis": "verbatim_token+chapter_route:ch04"}, {"md_atom_id": "md_ch04_a608", "md_file": "knowledge_base/chapters/ch04_general_assumptions.md", "md_atom_type": "SENTENCE", "md_parent_section": "§4.4.5 [Clinical Encounters and Visits]", "md_verbatim": "In the Findings observation class, where data are usually collected at multiple visits, at least 1 timing variable must be used.", "score": 0.4179, "match_basis": "verbatim_token+chapter_route:ch04"}, {"md_atom_id": "md_ch04_a783", "md_file": "knowledge_base/chapters/ch04_general_assumptions.md", "md_atom_type": "SENTENCE", "md_parent_section": "§4.4.11 [Disease Milestones and Disease Milestone Timing Variables]", "md_verbatim": "The name of a disease milestone is composed of a character string that depends on the disease milestone type (MIDSTYPE in TM and SM) and, if the type of disease milestone is one that may occur multiple times, a chronological sequence number for this disease milestone among other instances of the same type for the subject.", "score": 0.4175, "match_basis": "verbatim_token+chapter_route:ch04"}, {"md_atom_id": "md_ch04_a729", "md_file": "knowledge_base/chapters/ch04_general_assumptions.md", "md_atom_type": "SENTENCE", "md_parent_section": "§4.4.10 [Representing Time Points]", "md_verbatim": "In some cases a time point may be uniquely identified without the use of VISIT, or without the use of --TPTREF, or without the use of either:", "score": 0.4149, "match_basis": "verbatim_token+chapter_route:ch04"}], "candidate_count": 5, "zero_candidate": false}
{"pdf_atom_id": "ig34_p0046_a035", "pdf_atom_type": "SENTENCE", "pdf_source": "SDTMIG_v3.4", "pdf_page": 46, "pdf_parent_section": "§4.4.10 [Representing Time Points]", "pdf_verbatim": "In such cases, VISITNUM will be required to confer uniqueness to values of --TPTNUM.", "figure_ref": null, "candidates": [{"md_atom_id": "md_ch04_a728", "md_file": "knowledge_base/chapters/ch04_general_assumptions.md", "md_atom_type": "SENTENCE", "md_parent_section": "§4.4.10 [Representing Time Points]", "md_verbatim": "Not all time points will require all 3 variables to provide uniqueness.", "score": 0.4579, "match_basis": "verbatim_token+chapter_route:ch04"}, {"md_atom_id": "md_ch04_a727", "md_file": "knowledge_base/chapters/ch04_general_assumptions.md", "md_atom_type": "SENTENCE", "md_parent_section": "§4.4.10 [Representing Time Points]", "md_verbatim": "**Scenarios where not all 3 uniqueness variables (VISITNUM, --TPTREF, --TPTNUM) are needed:**", "score": 0.4524, "match_basis": "verbatim_token+chapter_route:ch04"}, {"md_atom_id": "md_ch04_a590", "md_file": "knowledge_base/chapters/ch04_general_assumptions.md", "md_atom_type": "SENTENCE", "md_parent_section": "§4.4.3.1 [Intervals of Time and Use of Duration]", "md_verbatim": "Note that a leading zero is required with decimal values less than 1.", "score": 0.4158, "match_basis": "verbatim_token+chapter_route:ch04"}, {"md_atom_id": "md_ch04_a609", "md_file": "knowledge_base/chapters/ch04_general_assumptions.md", "md_atom_type": "SENTENCE", "md_parent_section": "§4.4.5 [Clinical Encounters and Visits]", "md_verbatim": "For planned visits, values of VISIT, VISITNUM, and VISITDY must be those defined in the Trial Visits (TV) dataset.", "score": 0.4031, "match_basis": "verbatim_token+chapter_route:ch04"}, {"md_atom_id": "md_ch04_a729", "md_file": "knowledge_base/chapters/ch04_general_assumptions.md", "md_atom_type": "SENTENCE", "md_parent_section": "§4.4.10 [Representing Time Points]", "md_verbatim": "In some cases a time point may be uniquely identified without the use of VISIT, or without the use of --TPTREF, or without the use of either:", "score": 0.3985, "match_basis": "verbatim_token+chapter_route:ch04"}], "candidate_count": 5, "zero_candidate": false}
{"pdf_atom_id": "ig34_p0047_a001", "pdf_atom_type": "SENTENCE", "pdf_source": "SDTMIG_v3.4", "pdf_page": 47, "pdf_parent_section": "§4.4.10 [Representing Time Points]", "pdf_verbatim": "If the protocol describes the scheduling of a dose using a reference intervention or assessment, then --TPTREF should be populated, even if it does not contribute to uniqueness.", "figure_ref": null, "candidates": [{"md_atom_id": "md_ch04_a647", "md_file": "knowledge_base/chapters/ch04_general_assumptions.md", "md_atom_type": "SENTENCE", "md_parent_section": "§4.4.7 [Use of Relative Timing Variables]", "md_verbatim": "**Restriction on --STRTPT values:** If the reference time point corresponds to the date of collection or assessment, **AFTER is not a valid value** for --STRTPT because it would represent an event after the date of collection.", "score": 0.4359, "match_basis": "verbatim_token+chapter_route:ch04"}, {"md_atom_id": "md_ch04_a009", "md_file": "knowledge_base/chapters/ch04_general_assumptions.md", "md_atom_type": "SENTENCE", "md_parent_section": "§4.1.1 [Review Study Data Tabulation Model and Implementation Guide]", "md_verbatim": "The SDTM describes the general conceptual framework, including the general observation classes (Interventions, Events, Findings), special-purpose domains, trial design model datasets, relationship datasets, and study references.", "score": 0.4321, "match_basis": "verbatim_token+chapter_route:ch04"}, {"md_atom_id": "md_ch04_a648", "md_file": "knowledge_base/chapters/ch04_general_assumptions.md", "md_atom_type": "SENTENCE", "md_parent_section": "§4.4.7 [Use of Relative Timing Variables]", "md_verbatim": "If the reference time point is prior to the date of collection or assessment, AFTER is valid for --STRTPT.", "score": 0.4314, "match_basis": "verbatim_token+chapter_route:ch04"}, {"md_atom_id": "md_ch04_a694", "md_file": "knowledge_base/chapters/ch04_general_assumptions.md", "md_atom_type": "SENTENCE", "md_parent_section": "§4.4.9 [Use of Dates as Result Variables]", "md_verbatim": "Dates are generally used only as timing variables to describe the timing of an event, intervention, or collection activity, but there may be occasions when it may be preferable to model a date as a result (--ORRES) in a Findings dataset.", "score": 0.4159, "match_basis": "verbatim_token+chapter_route:ch04"}, {"md_atom_id": "md_ch04_a333", "md_file": "knowledge_base/chapters/ch04_general_assumptions.md", "md_atom_type": "SENTENCE", "md_parent_section": "§4.2.7.3 [\"Specify\" Values for Topic Variables]", "md_verbatim": "--TERM should be populated with the description of the event found in the specified text and --PRESP could be used to distinguish between prespecified and free-text responses.", "score": 0.4134, "match_basis": "verbatim_token+chapter_route:ch04"}], "candidate_count": 5, "zero_candidate": false}
{"pdf_atom_id": "ig34_p0047_a002", "pdf_atom_type": "SENTENCE", "pdf_source": "SDTMIG_v3.4", "pdf_page": 47, "pdf_parent_section": "§4.4.10 [Representing Time Points]", "pdf_verbatim": "The fact that time points are related to a reference time point, and what that reference time point is, are important for interpreting the data collected at the time point.", "figure_ref": null, "candidates": [{"md_atom_id": "md_ch04_a648", "md_file": "knowledge_base/chapters/ch04_general_assumptions.md", "md_atom_type": "SENTENCE", "md_parent_section": "§4.4.7 [Use of Relative Timing Variables]", "md_verbatim": "If the reference time point is prior to the date of collection or assessment, AFTER is valid for --STRTPT.", "score": 0.4784, "match_basis": "verbatim_token+chapter_route:ch04"}, {"md_atom_id": "md_ch04_a640", "md_file": "knowledge_base/chapters/ch04_general_assumptions.md", "md_atom_type": "SENTENCE", "md_parent_section": "§4.4.7 [Use of Relative Timing Variables]", "md_verbatim": "Although --STRF and --ENRF are useful when relative timing assessments are made coincident with the start and end of the study reference period, they may not be suitable for expressing relative timing assessments collected at other times of the study.", "score": 0.4373, "match_basis": "verbatim_token+chapter_route:ch04"}, {"md_atom_id": "md_ch04_a662", "md_file": "knowledge_base/chapters/ch04_general_assumptions.md", "md_atom_type": "SENTENCE", "md_parent_section": "§4.4.7 [Use of Relative Timing Variables]", "md_verbatim": "*Medical event began in 2002 and was ongoing at the reference time point of 2006-11-02. The event may or may not have ended at any time after that.*", "score": 0.4367, "match_basis": "verbatim_token+chapter_route:ch04"}, {"md_atom_id": "md_ch04_a647", "md_file": "knowledge_base/chapters/ch04_general_assumptions.md", "md_atom_type": "SENTENCE", "md_parent_section": "§4.4.7 [Use of Relative Timing Variables]", "md_verbatim": "**Restriction on --STRTPT values:** If the reference time point corresponds to the date of collection or assessment, **AFTER is not a valid value** for --STRTPT because it would represent an event after the date of collection.", "score": 0.4353, "match_basis": "verbatim_token+chapter_route:ch04"}, {"md_atom_id": "md_ch04_a573", "md_file": "knowledge_base/chapters/ch04_general_assumptions.md", "md_atom_type": "SENTENCE", "md_parent_section": "§4.4.3.1 [Intervals of Time and Use of Duration]", "md_verbatim": "As is the case with the date/time representation in --DTC, --STDTC, or --ENDTC, only the components of duration that are known or collected need to be represented.", "score": 0.4326, "match_basis": "verbatim_token+chapter_route:ch04"}], "candidate_count": 5, "zero_candidate": false}
{"pdf_atom_id": "ig34_p0047_a003", "pdf_atom_type": "SENTENCE", "pdf_source": "SDTMIG_v3.4", "pdf_page": 47, "pdf_parent_section": "§4.4.10 [Representing Time Points]", "pdf_verbatim": "Not all time points will require all 3 variables to provide uniqueness.", "figure_ref": null, "candidates": [{"md_atom_id": "md_ch04_a728", "md_file": "knowledge_base/chapters/ch04_general_assumptions.md", "md_atom_type": "SENTENCE", "md_parent_section": "§4.4.10 [Representing Time Points]", "md_verbatim": "Not all time points will require all 3 variables to provide uniqueness.", "score": 0.9, "match_basis": "verbatim_token+chapter_route:ch04"}, {"md_atom_id": "md_ch04_a727", "md_file": "knowledge_base/chapters/ch04_general_assumptions.md", "md_atom_type": "SENTENCE", "md_parent_section": "§4.4.10 [Representing Time Points]", "md_verbatim": "**Scenarios where not all 3 uniqueness variables (VISITNUM, --TPTREF, --TPTNUM) are needed:**", "score": 0.47, "match_basis": "verbatim_token+chapter_route:ch04"}, {"md_atom_id": "md_ch04_a343", "md_file": "knowledge_base/chapters/ch04_general_assumptions.md", "md_atom_type": "SENTENCE", "md_parent_section": "§4.2.7.4 [\"Specify\" Values for --OBJ]", "md_verbatim": "See also Section 6.4.3, Variables Unique to Findings About.", "score": 0.4269, "match_basis": "verbatim_token+chapter_route:ch04"}, {"md_atom_id": "md_ch04_a556", "md_file": "knowledge_base/chapters/ch04_general_assumptions.md", "md_atom_type": "SENTENCE", "md_parent_section": "§4.4.3.1 [Intervals of Time and Use of Duration]", "md_verbatim": "Both duration and duration units can be provided in the single --DUR variable, in accordance with the ISO 8601 standard.", "score": 0.4014, "match_basis": "verbatim_token+chapter_route:ch04"}, {"md_atom_id": "md_ch04_a549", "md_file": "knowledge_base/chapters/ch04_general_assumptions.md", "md_atom_type": "SENTENCE", "md_parent_section": "§4.4.3.1 [Intervals of Time and Use of Duration]", "md_verbatim": "These variables represent the 2 instants that bound an interval of time; the duration is the quantity of time that is equal to the difference between these time points.", "score": 0.4, "match_basis": "verbatim_token+chapter_route:ch04"}], "candidate_count": 5, "zero_candidate": false}
{"pdf_atom_id": "ig34_p0047_a004", "pdf_atom_type": "SENTENCE", "pdf_source": "SDTMIG_v3.4", "pdf_page": 47, "pdf_parent_section": "§4.4.10 [Representing Time Points]", "pdf_verbatim": "In fact, in some cases a time point may be uniquely identified without the use of VISIT, or without the use of --TPTREF, or without the use of either.", "figure_ref": null, "candidates": [{"md_atom_id": "md_ch04_a729", "md_file": "knowledge_base/chapters/ch04_general_assumptions.md", "md_atom_type": "SENTENCE", "md_parent_section": "§4.4.10 [Representing Time Points]", "md_verbatim": "In some cases a time point may be uniquely identified without the use of VISIT, or without the use of --TPTREF, or without the use of either:", "score": 0.8721, "match_basis": "verbatim_token+chapter_route:ch04"}, {"md_atom_id": "md_ch04_a239", "md_file": "knowledge_base/chapters/ch04_general_assumptions.md", "md_atom_type": "SENTENCE", "md_parent_section": "§4.2.6 [Grouping Variables and Categorization]", "md_verbatim": "Although --SPID and --REFID are Identifier variables, they may sometimes be used as grouping variables and may also have meaning across domains.", "score": 0.4146, "match_basis": "verbatim_token+chapter_route:ch04"}, {"md_atom_id": "md_ch04_a755", "md_file": "knowledge_base/chapters/ch04_general_assumptions.md", "md_atom_type": "SENTENCE", "md_parent_section": "§4.4.10 [Representing Time Points]", "md_verbatim": "Option 2 — VISITNUM designates period and day within period; --TPTREF designates dose within the day; --TPTNUM designates timing relative to reference time point:", "score": 0.4071, "match_basis": "verbatim_token+chapter_route:ch04"}, {"md_atom_id": "md_ch04_a727", "md_file": "knowledge_base/chapters/ch04_general_assumptions.md", "md_atom_type": "SENTENCE", "md_parent_section": "§4.4.10 [Representing Time Points]", "md_verbatim": "**Scenarios where not all 3 uniqueness variables (VISITNUM, --TPTREF, --TPTNUM) are needed:**", "score": 0.3986, "match_basis": "verbatim_token+chapter_route:ch04"}, {"md_atom_id": "md_ch04_a619", "md_file": "knowledge_base/chapters/ch04_general_assumptions.md", "md_atom_type": "SENTENCE", "md_parent_section": "§4.4.5 [Clinical Encounters and Visits]", "md_verbatim": "**Example** (lb.xpt sample rows showing how visit identifiers might be used for lab data):", "score": 0.3985, "match_basis": "verbatim_token+chapter_route:ch04"}], "candidate_count": 5, "zero_candidate": false}
{"pdf_atom_id": "ig34_p0047_a005", "pdf_atom_type": "SENTENCE", "pdf_source": "SDTMIG_v3.4", "pdf_page": 47, "pdf_parent_section": "§4.4.10 [Representing Time Points]", "pdf_verbatim": "For instance:", "figure_ref": null, "candidates": [{"md_atom_id": "md_ch04_a782", "md_file": "knowledge_base/chapters/ch04_general_assumptions.md", "md_atom_type": "SENTENCE", "md_parent_section": "§4.4.11 [Disease Milestones and Disease Milestone Timing Variables]", "md_verbatim": "Instances of disease milestones are given names at a subject level.", "score": 0.4, "match_basis": "verbatim_token+chapter_route:ch04"}, {"md_atom_id": "md_ch04_a785", "md_file": "knowledge_base/chapters/ch04_general_assumptions.md", "md_atom_type": "SENTENCE", "md_parent_section": "§4.4.11 [Disease Milestones and Disease Milestone Timing Variables]", "md_verbatim": "For example, if the type of disease milestone is \"EPISODE OF DISEASE UNDER STUDY\", the values of MIDS for instances of this type of event could include \"EPISODE1\", \"EPISODE2\"; or \"EPISODE01\", \"EPISODE02\", and so on.", "score": 0.3656, "match_basis": "verbatim_token+chapter_route:ch04"}, {"md_atom_id": "md_ch04_a320", "md_file": "knowledge_base/chapters/ch04_general_assumptions.md", "md_atom_type": "SENTENCE", "md_parent_section": "§4.2.7.3 [\"Specify\" Values for Topic Variables]", "md_verbatim": "For example:", "score": 0.35, "match_basis": "verbatim_token+chapter_route:ch04"}, {"md_atom_id": "md_ch04_a354", "md_file": "knowledge_base/chapters/ch04_general_assumptions.md", "md_atom_type": "SENTENCE", "md_parent_section": "§4.2.8.2 [Multiple Values for a Findings Result Variable]", "md_verbatim": "For example:", "score": 0.35, "match_basis": "verbatim_token+chapter_route:ch04"}, {"md_atom_id": "md_ch04_a402", "md_file": "knowledge_base/chapters/ch04_general_assumptions.md", "md_atom_type": "SENTENCE", "md_parent_section": "§4.2.8.4 [Multiple Values for a Parameter]", "md_verbatim": "For example:", "score": 0.35, "match_basis": "verbatim_token+chapter_route:ch04"}], "candidate_count": 5, "zero_candidate": false}
{"pdf_atom_id": "ig34_p0047_a006", "pdf_atom_type": "LIST_ITEM", "pdf_source": "SDTMIG_v3.4", "pdf_page": 47, "pdf_parent_section": "§4.4.10 [Representing Time Points]", "pdf_verbatim": "A trial might have time points only within 1 visit, so that the contribution of VISITNUM to uniqueness is trivial. (VISITNUM would be populated, but would not contribute to uniqueness.)", "figure_ref": null, "candidates": [{"md_atom_id": "md_ch04_a730", "md_file": "knowledge_base/chapters/ch04_general_assumptions.md", "md_atom_type": "LIST_ITEM", "md_parent_section": "§4.4.10 [Representing Time Points]", "md_verbatim": "1. A trial might have time points only within 1 visit, so that the contribution of VISITNUM to uniqueness is trivial. (VISITNUM would be populated, but would not contribute to uniqueness.)", "score": 0.9, "match_basis": "verbatim_token+chapter_route:ch04"}, {"md_atom_id": "md_ch04_a732", "md_file": "knowledge_base/chapters/ch04_general_assumptions.md", "md_atom_type": "LIST_ITEM", "md_parent_section": "§4.4.10 [Representing Time Points]", "md_verbatim": "3. A trial may have only 1 reference time point per visit, and all reference time points may be similar, so that only 1 value of --TPTREF (e.g., \"DOSE\") is needed. (--TPTREF would be populated, but would not contribute to uniqueness.)", "score": 0.5966, "match_basis": "verbatim_token+chapter_route:ch04"}, {"md_atom_id": "md_ch04_a731", "md_file": "knowledge_base/chapters/ch04_general_assumptions.md", "md_atom_type": "LIST_ITEM", "md_parent_section": "§4.4.10 [Representing Time Points]", "md_verbatim": "2. A trial might have time points that do not relate to any visit, such as time points relative to a dose of drug self-administered by the subject at home. (Visit variables would not be included, but --TPTREF and other time point variables would be populated.)", "score": 0.473, "match_basis": "verbatim_token+chapter_route:ch04"}, {"md_atom_id": "md_ch04_a840", "md_file": "knowledge_base/chapters/ch04_general_assumptions.md", "md_atom_type": "LIST_ITEM", "md_parent_section": "§4.5.1.3 [Examples of Original and Standard Units and Test Not Done]", "md_verbatim": "- **Row 6:** A result of \"BLQ\" was collected and copied to LBSTRESC. Note that the sponsor populated both LBORRESU and LBSTRESU with standard units, but these could have been left null.", "score": 0.4018, "match_basis": "verbatim_token+chapter_route:ch04"}, {"md_atom_id": "md_ch04_a806", "md_file": "knowledge_base/chapters/ch04_general_assumptions.md", "md_atom_type": "LIST_ITEM", "md_parent_section": "§4.4.11 [Disease Milestones and Disease Milestone Timing Variables]", "md_verbatim": "- The timing variables EPOCH and TAETORD may be populated for on-study observations associated with disease milestones; however, pre-study disease milestones do not have an associated EPOCH or TAETORD", "score": 0.3939, "match_basis": "verbatim_token+chapter_route:ch04"}], "candidate_count": 5, "zero_candidate": false}
{"pdf_atom_id": "ig34_p0047_a007", "pdf_atom_type": "LIST_ITEM", "pdf_source": "SDTMIG_v3.4", "pdf_page": 47, "pdf_parent_section": "§4.4.10 [Representing Time Points]", "pdf_verbatim": "A trial might have time points that do not relate to any visit, such as time points relative to a dose of drug self-administered by the subject at home. (Visit variables would not be included, but --TPTREF and other time point variables would be populated.)", "figure_ref": null, "candidates": [{"md_atom_id": "md_ch04_a731", "md_file": "knowledge_base/chapters/ch04_general_assumptions.md", "md_atom_type": "LIST_ITEM", "md_parent_section": "§4.4.10 [Representing Time Points]", "md_verbatim": "2. A trial might have time points that do not relate to any visit, such as time points relative to a dose of drug self-administered by the subject at home. (Visit variables would not be included, but --TPTREF and other time point variables would be populated.)", "score": 0.9, "match_basis": "verbatim_token+chapter_route:ch04"}, {"md_atom_id": "md_ch04_a732", "md_file": "knowledge_base/chapters/ch04_general_assumptions.md", "md_atom_type": "LIST_ITEM", "md_parent_section": "§4.4.10 [Representing Time Points]", "md_verbatim": "3. A trial may have only 1 reference time point per visit, and all reference time points may be similar, so that only 1 value of --TPTREF (e.g., \"DOSE\") is needed. (--TPTREF would be populated, but would not contribute to uniqueness.)", "score": 0.4897, "match_basis": "verbatim_token+chapter_route:ch04"}, {"md_atom_id": "md_ch04_a730", "md_file": "knowledge_base/chapters/ch04_general_assumptions.md", "md_atom_type": "LIST_ITEM", "md_parent_section": "§4.4.10 [Representing Time Points]", "md_verbatim": "1. A trial might have time points only within 1 visit, so that the contribution of VISITNUM to uniqueness is trivial. (VISITNUM would be populated, but would not contribute to uniqueness.)", "score": 0.473, "match_basis": "verbatim_token+chapter_route:ch04"}, {"md_atom_id": "md_ch04_a733", "md_file": "knowledge_base/chapters/ch04_general_assumptions.md", "md_atom_type": "LIST_ITEM", "md_parent_section": "§4.4.10 [Representing Time Points]", "md_verbatim": "4. A trial may have time points not related to a reference time point. For instance, --TPTNUM values could be used to distinguish first, second, and third repeats of a measurement scheduled without any relationship to dosing (--TPTREF and --ELTM would not be included.) In this case, where the protocol calls for repeated measurements but does not specify timing of the measurements, the --REPNUM variable could be used instead of time-point variables.", "score": 0.4541, "match_basis": "verbatim_token+chapter_route:ch04"}, {"md_atom_id": "md_ch04_a805", "md_file": "knowledge_base/chapters/ch04_general_assumptions.md", "md_atom_type": "LIST_ITEM", "md_parent_section": "§4.4.11 [Disease Milestones and Disease Milestone Timing Variables]", "md_verbatim": "- Study-day variables should be populated wherever complete actual date/times are populated, including negative study days for pre-study observations", "score": 0.4317, "match_basis": "verbatim_token+chapter_route:ch04"}], "candidate_count": 5, "zero_candidate": false}
{"pdf_atom_id": "ig34_p0047_a008", "pdf_atom_type": "LIST_ITEM", "pdf_source": "SDTMIG_v3.4", "pdf_page": 47, "pdf_parent_section": "§4.4.10 [Representing Time Points]", "pdf_verbatim": "A trial may have only 1 reference time point per visit, and all reference time points may be similar, so that only 1 value of --TPTREF (e.g., \"DOSE\") is needed. (--TPTREF would be populated, but would not contribute to uniqueness.)", "figure_ref": null, "candidates": [{"md_atom_id": "md_ch04_a732", "md_file": "knowledge_base/chapters/ch04_general_assumptions.md", "md_atom_type": "LIST_ITEM", "md_parent_section": "§4.4.10 [Representing Time Points]", "md_verbatim": "3. A trial may have only 1 reference time point per visit, and all reference time points may be similar, so that only 1 value of --TPTREF (e.g., \"DOSE\") is needed. (--TPTREF would be populated, but would not contribute to uniqueness.)", "score": 0.9, "match_basis": "verbatim_token+chapter_route:ch04"}, {"md_atom_id": "md_ch04_a730", "md_file": "knowledge_base/chapters/ch04_general_assumptions.md", "md_atom_type": "LIST_ITEM", "md_parent_section": "§4.4.10 [Representing Time Points]", "md_verbatim": "1. A trial might have time points only within 1 visit, so that the contribution of VISITNUM to uniqueness is trivial. (VISITNUM would be populated, but would not contribute to uniqueness.)", "score": 0.5966, "match_basis": "verbatim_token+chapter_route:ch04"}, {"md_atom_id": "md_ch04_a731", "md_file": "knowledge_base/chapters/ch04_general_assumptions.md", "md_atom_type": "LIST_ITEM", "md_parent_section": "§4.4.10 [Representing Time Points]", "md_verbatim": "2. A trial might have time points that do not relate to any visit, such as time points relative to a dose of drug self-administered by the subject at home. (Visit variables would not be included, but --TPTREF and other time point variables would be populated.)", "score": 0.4897, "match_basis": "verbatim_token+chapter_route:ch04"}, {"md_atom_id": "md_ch04_a733", "md_file": "knowledge_base/chapters/ch04_general_assumptions.md", "md_atom_type": "LIST_ITEM", "md_parent_section": "§4.4.10 [Representing Time Points]", "md_verbatim": "4. A trial may have time points not related to a reference time point. For instance, --TPTNUM values could be used to distinguish first, second, and third repeats of a measurement scheduled without any relationship to dosing (--TPTREF and --ELTM would not be included.) In this case, where the protocol calls for repeated measurements but does not specify timing of the measurements, the --REPNUM variable could be used instead of time-point variables.", "score": 0.4293, "match_basis": "verbatim_token+chapter_route:ch04"}, {"md_atom_id": "md_ch04_a617", "md_file": "knowledge_base/chapters/ch04_general_assumptions.md", "md_atom_type": "LIST_ITEM", "md_parent_section": "§4.4.5 [Clinical Encounters and Visits]", "md_verbatim": "- VISIT may be left null or may be populated with a generic value (e.g., \"Unscheduled\") for all unplanned visits, or individual values may be assigned to different unplanned visits.", "score": 0.3966, "match_basis": "verbatim_token+chapter_route:ch04"}], "candidate_count": 5, "zero_candidate": false}
{"pdf_atom_id": "ig34_p0047_a009", "pdf_atom_type": "LIST_ITEM", "pdf_source": "SDTMIG_v3.4", "pdf_page": 47, "pdf_parent_section": "§4.4.10 [Representing Time Points]", "pdf_verbatim": "A trial may have time points not related to a reference time point. For instance, --TPTNUM values could be used to distinguish first, second, and third repeats of a measurement scheduled without any relationship to dosing (--TPTREF and --ELTM would not be included.) In this case, where the protocol calls for repeated measurements but does not specify timing of the measurements, the --REPNUM variable could be used instead of time-point variables.", "figure_ref": null, "candidates": [{"md_atom_id": "md_ch04_a733", "md_file": "knowledge_base/chapters/ch04_general_assumptions.md", "md_atom_type": "LIST_ITEM", "md_parent_section": "§4.4.10 [Representing Time Points]", "md_verbatim": "4. A trial may have time points not related to a reference time point. For instance, --TPTNUM values could be used to distinguish first, second, and third repeats of a measurement scheduled without any relationship to dosing (--TPTREF and --ELTM would not be included.) In this case, where the protocol calls for repeated measurements but does not specify timing of the measurements, the --REPNUM variable could be used instead of time-point variables.", "score": 0.9, "match_basis": "verbatim_token+chapter_route:ch04"}, {"md_atom_id": "md_ch04_a731", "md_file": "knowledge_base/chapters/ch04_general_assumptions.md", "md_atom_type": "LIST_ITEM", "md_parent_section": "§4.4.10 [Representing Time Points]", "md_verbatim": "2. A trial might have time points that do not relate to any visit, such as time points relative to a dose of drug self-administered by the subject at home. (Visit variables would not be included, but --TPTREF and other time point variables would be populated.)", "score": 0.4541, "match_basis": "verbatim_token+chapter_route:ch04"}, {"md_atom_id": "md_ch04_a057", "md_file": "knowledge_base/chapters/ch04_general_assumptions.md", "md_atom_type": "LIST_ITEM", "md_parent_section": "§4.1.7 [Splitting Domains]", "md_verbatim": "4. When relationship datasets (e.g., SUPPxx, FAxx, CO, RELREC) relate back to split parent domains, IDVAR would generally be --SEQ. When IDVAR is a value other than --SEQ (e.g., --GRPID, --REFID, --SPID), care should be used to ensure that the parent records across the split datasets have unique values for the variable specified in IDVAR, so that related children records do not accidentally join back to incorrect parent records.", "score": 0.4316, "match_basis": "verbatim_token+chapter_route:ch04"}, {"md_atom_id": "md_ch04_a808", "md_file": "knowledge_base/chapters/ch04_general_assumptions.md", "md_atom_type": "LIST_ITEM", "md_parent_section": "§4.4.11 [Disease Milestones and Disease Milestone Timing Variables]", "md_verbatim": "- The timing variables for start and end of an event or intervention relative to the study reference period (--STRF and --ENRF) or relative to a reference time point (--STRTPT and --STTPT, --ENRTPT and --ENTPT) can be used in conjunction with disease milestone variables", "score": 0.4313, "match_basis": "verbatim_token+chapter_route:ch04"}, {"md_atom_id": "md_ch04_a732", "md_file": "knowledge_base/chapters/ch04_general_assumptions.md", "md_atom_type": "LIST_ITEM", "md_parent_section": "§4.4.10 [Representing Time Points]", "md_verbatim": "3. A trial may have only 1 reference time point per visit, and all reference time points may be similar, so that only 1 value of --TPTREF (e.g., \"DOSE\") is needed. (--TPTREF would be populated, but would not contribute to uniqueness.)", "score": 0.4293, "match_basis": "verbatim_token+chapter_route:ch04"}], "candidate_count": 5, "zero_candidate": false}
{"pdf_atom_id": "ig34_p0047_a010", "pdf_atom_type": "SENTENCE", "pdf_source": "SDTMIG_v3.4", "pdf_page": 47, "pdf_parent_section": "§4.4.10 [Representing Time Points]", "pdf_verbatim": "For trials with many time points, the requirement to provide uniqueness using only VISITNUM, --TPTREF, and --TPTNUM may lead to a scheme where multiple natural keys are combined into the values of one of these variables.", "figure_ref": null, "candidates": [{"md_atom_id": "md_ch04_a728", "md_file": "knowledge_base/chapters/ch04_general_assumptions.md", "md_atom_type": "SENTENCE", "md_parent_section": "§4.4.10 [Representing Time Points]", "md_verbatim": "Not all time points will require all 3 variables to provide uniqueness.", "score": 0.4824, "match_basis": "verbatim_token+chapter_route:ch04"}, {"md_atom_id": "md_ch04_a727", "md_file": "knowledge_base/chapters/ch04_general_assumptions.md", "md_atom_type": "SENTENCE", "md_parent_section": "§4.4.10 [Representing Time Points]", "md_verbatim": "**Scenarios where not all 3 uniqueness variables (VISITNUM, --TPTREF, --TPTNUM) are needed:**", "score": 0.4636, "match_basis": "verbatim_token+chapter_route:ch04"}, {"md_atom_id": "md_ch04_a205", "md_file": "knowledge_base/chapters/ch04_general_assumptions.md", "md_atom_type": "SENTENCE", "md_parent_section": "§4.2.3 [Use of \"Subject\" and USUBJID]", "md_verbatim": "CDISC does not recommend any specific format for the values of USUBJID, only that the values need to be unique for all subjects in the submission, and across multiple submissions for the same compound. Many sponsors concatenate values for the study, site, and subject into USUBJID, but this is not a requirement. It is acceptable to use any format for USUBJID, as long as the values are unique across all subjects.", "score": 0.4274, "match_basis": "verbatim_token+chapter_route:ch04"}, {"md_atom_id": "md_ch04_a705", "md_file": "knowledge_base/chapters/ch04_general_assumptions.md", "md_atom_type": "SENTENCE", "md_parent_section": "§4.4.10 [Representing Time Points]", "md_verbatim": "Time points can be represented using the time point variables --TPT, --TPTNUM, --ELTM, and the time-point anchors --TPTREF (text description) and --RFTDTC (date/time).", "score": 0.4246, "match_basis": "verbatim_token+chapter_route:ch04"}, {"md_atom_id": "md_ch04_a157", "md_file": "knowledge_base/chapters/ch04_general_assumptions.md", "md_atom_type": "SENTENCE", "md_parent_section": "§4.1.9 [Assigning Natural Keys in the Metadata]", "md_verbatim": "In studies where multiple repetitive tests or measurements are being made, for example in a rheumatoid arthritis study where repetitive measurements of bone erosion in the hands and wrists might be made using both X-ray and MRI equipment, the generic MKTEST \"Sharp/Genari Bone Erosion Score\" would be used in combination with other variables to fully identify the result.", "score": 0.4231, "match_basis": "verbatim_token+chapter_route:ch04"}], "candidate_count": 5, "zero_candidate": false}
{"pdf_atom_id": "ig34_p0047_a011", "pdf_atom_type": "SENTENCE", "pdf_source": "SDTMIG_v3.4", "pdf_page": 47, "pdf_parent_section": "§4.4.10 [Representing Time Points]", "pdf_verbatim": "For instance, in a crossover trial with multiple doses on multiple days within each period, either of the following options could be used.", "figure_ref": null, "candidates": [{"md_atom_id": "md_ch04_a734", "md_file": "knowledge_base/chapters/ch04_general_assumptions.md", "md_atom_type": "SENTENCE", "md_parent_section": "§4.4.10 [Representing Time Points]", "md_verbatim": "**Crossover trials with multiple doses on multiple days within each period:**", "score": 0.6153, "match_basis": "verbatim_token+chapter_route:ch04"}, {"md_atom_id": "md_ch04_a755", "md_file": "knowledge_base/chapters/ch04_general_assumptions.md", "md_atom_type": "SENTENCE", "md_parent_section": "§4.4.10 [Representing Time Points]", "md_verbatim": "Option 2 — VISITNUM designates period and day within period; --TPTREF designates dose within the day; --TPTNUM designates timing relative to reference time point:", "score": 0.4125, "match_basis": "verbatim_token+chapter_route:ch04"}, {"md_atom_id": "md_ch04_a361", "md_file": "knowledge_base/chapters/ch04_general_assumptions.md", "md_atom_type": "SENTENCE", "md_parent_section": "§4.2.8.3 [Multiple Values for a Non-result Qualifier Variable]", "md_verbatim": "If multiple values exist (e.g., due to a \"Check all that apply\" instruction on a CRF), then the value for the qualifier variable should be \"MULTIPLE\" and SUPP-- should be used to store the individual responses.", "score": 0.4, "match_basis": "verbatim_token+chapter_route:ch04"}, {"md_atom_id": "md_ch04_a557", "md_file": "knowledge_base/chapters/ch04_general_assumptions.md", "md_atom_type": "SENTENCE", "md_parent_section": "§4.4.3.1 [Intervals of Time and Use of Duration]", "md_verbatim": "The values provided in --DUR should follow 1 of the following ISO 8601 duration formats:", "score": 0.3963, "match_basis": "verbatim_token+chapter_route:ch04"}, {"md_atom_id": "md_ch04_a140", "md_file": "knowledge_base/chapters/ch04_general_assumptions.md", "md_atom_type": "SENTENCE", "md_parent_section": "§4.1.9 [Assigning Natural Keys in the Metadata]", "md_verbatim": "Sponsor A chooses the following natural key for the MK domain:", "score": 0.396, "match_basis": "verbatim_token+chapter_route:ch04"}], "candidate_count": 5, "zero_candidate": false}
{"pdf_atom_id": "ig34_p0047_a012", "pdf_atom_type": "LIST_ITEM", "pdf_source": "SDTMIG_v3.4", "pdf_page": 47, "pdf_parent_section": "§4.4.10 [Representing Time Points]", "pdf_verbatim": "VISITNUM might be used to designate period, --TPTREF might be used to designate the day and the dose, and --TPTNUM might be used to designate the timing relative to the reference time point.", "figure_ref": null, "candidates": [{"md_atom_id": "md_ch04_a735", "md_file": "knowledge_base/chapters/ch04_general_assumptions.md", "md_atom_type": "SENTENCE", "md_parent_section": "§4.4.10 [Representing Time Points]", "md_verbatim": "Option 1 — VISITNUM designates period; --TPTREF designates day and dose; --TPTNUM designates timing relative to reference time point:", "score": 0.6942, "match_basis": "verbatim_token+chapter_route:ch04"}, {"md_atom_id": "md_ch04_a755", "md_file": "knowledge_base/chapters/ch04_general_assumptions.md", "md_atom_type": "SENTENCE", "md_parent_section": "§4.4.10 [Representing Time Points]", "md_verbatim": "Option 2 — VISITNUM designates period and day within period; --TPTREF designates dose within the day; --TPTNUM designates timing relative to reference time point:", "score": 0.6723, "match_basis": "verbatim_token+chapter_route:ch04"}, {"md_atom_id": "md_ch04_a808", "md_file": "knowledge_base/chapters/ch04_general_assumptions.md", "md_atom_type": "LIST_ITEM", "md_parent_section": "§4.4.11 [Disease Milestones and Disease Milestone Timing Variables]", "md_verbatim": "- The timing variables for start and end of an event or intervention relative to the study reference period (--STRF and --ENRF) or relative to a reference time point (--STRTPT and --STTPT, --ENRTPT and --ENTPT) can be used in conjunction with disease milestone variables", "score": 0.4667, "match_basis": "verbatim_token+chapter_route:ch04"}, {"md_atom_id": "md_ch04_a731", "md_file": "knowledge_base/chapters/ch04_general_assumptions.md", "md_atom_type": "LIST_ITEM", "md_parent_section": "§4.4.10 [Representing Time Points]", "md_verbatim": "2. A trial might have time points that do not relate to any visit, such as time points relative to a dose of drug self-administered by the subject at home. (Visit variables would not be included, but --TPTREF and other time point variables would be populated.)", "score": 0.4585, "match_basis": "verbatim_token+chapter_route:ch04"}, {"md_atom_id": "md_ch04_a732", "md_file": "knowledge_base/chapters/ch04_general_assumptions.md", "md_atom_type": "LIST_ITEM", "md_parent_section": "§4.4.10 [Representing Time Points]", "md_verbatim": "3. A trial may have only 1 reference time point per visit, and all reference time points may be similar, so that only 1 value of --TPTREF (e.g., \"DOSE\") is needed. (--TPTREF would be populated, but would not contribute to uniqueness.)", "score": 0.4515, "match_basis": "verbatim_token+chapter_route:ch04"}], "candidate_count": 5, "zero_candidate": false}
{"pdf_atom_id": "ig34_p0047_a013", "pdf_atom_type": "LIST_ITEM", "pdf_source": "SDTMIG_v3.4", "pdf_page": 47, "pdf_parent_section": "§4.4.10 [Representing Time Points]", "pdf_verbatim": "VISITNUM might be used to designate period and day within period, --TPTREF might be used to designate the dose within the day, and --TPTNUM might be used to designate the timing relative to the reference time point.", "figure_ref": null, "candidates": [{"md_atom_id": "md_ch04_a755", "md_file": "knowledge_base/chapters/ch04_general_assumptions.md", "md_atom_type": "SENTENCE", "md_parent_section": "§4.4.10 [Representing Time Points]", "md_verbatim": "Option 2 — VISITNUM designates period and day within period; --TPTREF designates dose within the day; --TPTNUM designates timing relative to reference time point:", "score": 0.7116, "match_basis": "verbatim_token+chapter_route:ch04"}, {"md_atom_id": "md_ch04_a735", "md_file": "knowledge_base/chapters/ch04_general_assumptions.md", "md_atom_type": "SENTENCE", "md_parent_section": "§4.4.10 [Representing Time Points]", "md_verbatim": "Option 1 — VISITNUM designates period; --TPTREF designates day and dose; --TPTNUM designates timing relative to reference time point:", "score": 0.6625, "match_basis": "verbatim_token+chapter_route:ch04"}, {"md_atom_id": "md_ch04_a808", "md_file": "knowledge_base/chapters/ch04_general_assumptions.md", "md_atom_type": "LIST_ITEM", "md_parent_section": "§4.4.11 [Disease Milestones and Disease Milestone Timing Variables]", "md_verbatim": "- The timing variables for start and end of an event or intervention relative to the study reference period (--STRF and --ENRF) or relative to a reference time point (--STRTPT and --STTPT, --ENRTPT and --ENTPT) can be used in conjunction with disease milestone variables", "score": 0.4745, "match_basis": "verbatim_token+chapter_route:ch04"}, {"md_atom_id": "md_ch04_a731", "md_file": "knowledge_base/chapters/ch04_general_assumptions.md", "md_atom_type": "LIST_ITEM", "md_parent_section": "§4.4.10 [Representing Time Points]", "md_verbatim": "2. A trial might have time points that do not relate to any visit, such as time points relative to a dose of drug self-administered by the subject at home. (Visit variables would not be included, but --TPTREF and other time point variables would be populated.)", "score": 0.4527, "match_basis": "verbatim_token+chapter_route:ch04"}, {"md_atom_id": "md_ch04_a732", "md_file": "knowledge_base/chapters/ch04_general_assumptions.md", "md_atom_type": "LIST_ITEM", "md_parent_section": "§4.4.10 [Representing Time Points]", "md_verbatim": "3. A trial may have only 1 reference time point per visit, and all reference time points may be similar, so that only 1 value of --TPTREF (e.g., \"DOSE\") is needed. (--TPTREF would be populated, but would not contribute to uniqueness.)", "score": 0.4456, "match_basis": "verbatim_token+chapter_route:ch04"}], "candidate_count": 5, "zero_candidate": false}
{"pdf_atom_id": "ig34_p0047_a014", "pdf_atom_type": "HEADING", "pdf_source": "SDTMIG_v3.4", "pdf_page": 47, "pdf_parent_section": "§4.4.10 [Representing Time Points]", "pdf_verbatim": "Option 1", "figure_ref": null, "candidates": [{"md_atom_id": "md_ch04_a814", "md_file": "knowledge_base/chapters/ch04_general_assumptions.md", "md_atom_type": "HEADING", "md_parent_section": "§4 [General Assumptions]", "md_verbatim": "## 4.5 Other Assumptions", "score": 0.4385, "match_basis": "verbatim_token+chapter_route:ch04"}, {"md_atom_id": "md_ch04_a006", "md_file": "knowledge_base/chapters/ch04_general_assumptions.md", "md_atom_type": "HEADING", "md_parent_section": "§4 [Assumptions for Domain Models]", "md_verbatim": "## 4.1 General Domain Assumptions", "score": 0.3947, "match_basis": "verbatim_token+chapter_route:ch04"}, {"md_atom_id": "md_ch04_a172", "md_file": "knowledge_base/chapters/ch04_general_assumptions.md", "md_atom_type": "HEADING", "md_parent_section": "§4 [Assumptions for Domain Models]", "md_verbatim": "## 4.2 General Variable Assumptions", "score": 0.3857, "match_basis": "verbatim_token+chapter_route:ch04"}, {"md_atom_id": "md_ch04_a189", "md_file": "knowledge_base/chapters/ch04_general_assumptions.md", "md_atom_type": "HEADING", "md_parent_section": "§4.2.1 [Variable-Naming Conventions]", "md_verbatim": "#### 4.2.1.3 --TERM Conventions (Events)", "score": 0.38, "match_basis": "verbatim_token+chapter_route:ch04"}, {"md_atom_id": "md_ch04_a474", "md_file": "knowledge_base/chapters/ch04_general_assumptions.md", "md_atom_type": "HEADING", "md_parent_section": "§4 [General Assumptions]", "md_verbatim": "## 4.4 Actual and Relative Time Assumptions", "score": 0.3783, "match_basis": "verbatim_token+chapter_route:ch04"}, {"md_atom_id": "md_ch04_a032", "md_file": "knowledge_base/chapters/ch04_general_assumptions.md", "md_atom_type": "HEADING", "md_parent_section": "§4.1 [General Domain Assumptions]", "md_verbatim": "### 4.1.5 SDTM Core Designations", "score": 0.375, "match_basis": "verbatim_token+chapter_route:ch04"}, {"md_atom_id": "md_ch04_a186", "md_file": "knowledge_base/chapters/ch04_general_assumptions.md", "md_atom_type": "HEADING", "md_parent_section": "§4.2.1 [Variable-Naming Conventions]", "md_verbatim": "#### 4.2.1.2 --TRT Conventions (Interventions)", "score": 0.3706, "match_basis": "verbatim_token+chapter_route:ch04"}, {"md_atom_id": "md_ch04_a001", "md_file": "knowledge_base/chapters/ch04_general_assumptions.md", "md_atom_type": "HEADING", "md_parent_section": "§4 [Assumptions for Domain Models]", "md_verbatim": "# SDTMIG v3.4 — Chapter 4: Assumptions for Domain Models", "score": 0.3643, "match_basis": "verbatim_token+chapter_route:ch04"}, {"md_atom_id": "md_ch04_a547", "md_file": "knowledge_base/chapters/ch04_general_assumptions.md", "md_atom_type": "HEADING", "md_parent_section": "§4.4.3 [Intervals of Time and Use of Duration for --DUR Variables]", "md_verbatim": "#### 4.4.3.1 Intervals of Time and Use of Duration", "score": 0.3632, "match_basis": "verbatim_token+chapter_route:ch04"}, {"md_atom_id": "md_ch04_a215", "md_file": "knowledge_base/chapters/ch04_general_assumptions.md", "md_atom_type": "HEADING", "md_parent_section": "§4.2 [General Variable Assumptions]", "md_verbatim": "### 4.2.5 Convention for Missing Values", "score": 0.36, "match_basis": "verbatim_token+chapter_route:ch04"}], "candidate_count": 10, "zero_candidate": false}
{"pdf_atom_id": "ig34_p0047_a015", "pdf_atom_type": "TABLE_HEADER", "pdf_source": "SDTMIG_v3.4", "pdf_page": 47, "pdf_parent_section": "§4.4.10 [Representing Time Points]", "pdf_verbatim": "VISIT | VISITNUM | --TPT | --TPTNUM | --TPTREF", "figure_ref": null, "candidates": [{"md_atom_id": "md_ch04_a736", "md_file": "knowledge_base/chapters/ch04_general_assumptions.md", "md_atom_type": "TABLE_HEADER", "md_parent_section": "§4.4.10 [Representing Time Points]", "md_verbatim": "| VISIT | VISITNUM | --TPT | --TPTNUM | --TPTREF |\n|-------|----------|-------|----------|----------|", "score": 0.9, "match_basis": "verbatim_token+chapter_route:ch04"}, {"md_atom_id": "md_ch04_a756", "md_file": "knowledge_base/chapters/ch04_general_assumptions.md", "md_atom_type": "TABLE_HEADER", "md_parent_section": "§4.4.10 [Representing Time Points]", "md_verbatim": "| VISIT | VISITNUM | --TPT | --TPTNUM | --TPTREF |\n|-------|----------|-------|----------|----------|", "score": 0.9, "match_basis": "verbatim_token+chapter_route:ch04"}, {"md_atom_id": "md_ch04_a620", "md_file": "knowledge_base/chapters/ch04_general_assumptions.md", "md_atom_type": "TABLE_HEADER", "md_parent_section": "§4.4.5 [Clinical Encounters and Visits]", "md_verbatim": "| USUBJID | VISIT | VISITNUM | VISITDY | LBDY |\n|---------|-------|----------|---------|------|", "score": 0.48, "match_basis": "verbatim_token+chapter_route:ch04"}, {"md_atom_id": "md_ch04_a716", "md_file": "knowledge_base/chapters/ch04_general_assumptions.md", "md_atom_type": "TABLE_HEADER", "md_parent_section": "§4.4.10 [Representing Time Points]", "md_verbatim": "| VSTPTNUM | VSTPT | VSELTM | VSTPTREF | VSRFTDTC | VSDTC |\n|----------|-------|--------|----------|----------|-------|", "score": 0.468, "match_basis": "verbatim_token+chapter_route:ch04"}, {"md_atom_id": "md_ch04_a722", "md_file": "knowledge_base/chapters/ch04_general_assumptions.md", "md_atom_type": "TABLE_HEADER", "md_parent_section": "§4.4.10 [Representing Time Points]", "md_verbatim": "| LBTPTNUM | LBTPT | LBELTM | LBTPTREF | LBRFTDTC | LBDTC |\n|----------|-------|--------|----------|----------|-------|", "score": 0.468, "match_basis": "verbatim_token+chapter_route:ch04"}], "candidate_count": 5, "zero_candidate": false}
{"pdf_atom_id": "ig34_p0047_a016", "pdf_atom_type": "TABLE_ROW", "pdf_source": "SDTMIG_v3.4", "pdf_page": 47, "pdf_parent_section": "§4.4.10 [Representing Time Points]", "pdf_verbatim": "PERIOD 1 | 3 | PRE-DOSE | 1 | DAY 1, AM DOSE", "figure_ref": null, "candidates": [{"md_atom_id": "md_ch04_a737", "md_file": "knowledge_base/chapters/ch04_general_assumptions.md", "md_atom_type": "TABLE_ROW", "md_parent_section": "§4.4.10 [Representing Time Points]", "md_verbatim": "| PERIOD 1 | 3 | PRE-DOSE | 1 | DAY 1, AM DOSE |", "score": 0.9, "match_basis": "verbatim_token+chapter_route:ch04"}, {"md_atom_id": "md_ch04_a749", "md_file": "knowledge_base/chapters/ch04_general_assumptions.md", "md_atom_type": "TABLE_ROW", "md_parent_section": "§4.4.10 [Representing Time Points]", "md_verbatim": "| PERIOD 2 | 4 | PRE-DOSE | 1 | DAY 1, AM DOSE |", "score": 0.9, "match_basis": "verbatim_token+chapter_route:ch04"}, {"md_atom_id": "md_ch04_a757", "md_file": "knowledge_base/chapters/ch04_general_assumptions.md", "md_atom_type": "TABLE_ROW", "md_parent_section": "§4.4.10 [Representing Time Points]", "md_verbatim": "| PERIOD 1, DAY 1 | 3 | PRE-DOSE | 1 | AM DOSE |", "score": 0.9, "match_basis": "verbatim_token+chapter_route:ch04"}, {"md_atom_id": "md_ch04_a763", "md_file": "knowledge_base/chapters/ch04_general_assumptions.md", "md_atom_type": "TABLE_ROW", "md_parent_section": "§4.4.10 [Representing Time Points]", "md_verbatim": "| PERIOD 1, DAY 5 | 4 | PRE-DOSE | 1 | AM DOSE |", "score": 0.9, "match_basis": "verbatim_token+chapter_route:ch04"}, {"md_atom_id": "md_ch04_a769", "md_file": "knowledge_base/chapters/ch04_general_assumptions.md", "md_atom_type": "TABLE_ROW", "md_parent_section": "§4.4.10 [Representing Time Points]", "md_verbatim": "| PERIOD 2, DAY 1 | 5 | PRE-DOSE | 1 | AM DOSE |", "score": 0.9, "match_basis": "verbatim_token+chapter_route:ch04"}], "candidate_count": 5, "zero_candidate": false}
{"pdf_atom_id": "ig34_p0047_a017", "pdf_atom_type": "TABLE_ROW", "pdf_source": "SDTMIG_v3.4", "pdf_page": 47, "pdf_parent_section": "§4.4.10 [Representing Time Points]", "pdf_verbatim": "PERIOD 1 | 3 | 1H | 2 | DAY 1, AM DOSE", "figure_ref": null, "candidates": [{"md_atom_id": "md_ch04_a737", "md_file": "knowledge_base/chapters/ch04_general_assumptions.md", "md_atom_type": "TABLE_ROW", "md_parent_section": "§4.4.10 [Representing Time Points]", "md_verbatim": "| PERIOD 1 | 3 | PRE-DOSE | 1 | DAY 1, AM DOSE |", "score": 0.825, "match_basis": "verbatim_token+chapter_route:ch04"}, {"md_atom_id": "md_ch04_a749", "md_file": "knowledge_base/chapters/ch04_general_assumptions.md", "md_atom_type": "TABLE_ROW", "md_parent_section": "§4.4.10 [Representing Time Points]", "md_verbatim": "| PERIOD 2 | 4 | PRE-DOSE | 1 | DAY 1, AM DOSE |", "score": 0.825, "match_basis": "verbatim_token+chapter_route:ch04"}, {"md_atom_id": "md_ch04_a757", "md_file": "knowledge_base/chapters/ch04_general_assumptions.md", "md_atom_type": "TABLE_ROW", "md_parent_section": "§4.4.10 [Representing Time Points]", "md_verbatim": "| PERIOD 1, DAY 1 | 3 | PRE-DOSE | 1 | AM DOSE |", "score": 0.825, "match_basis": "verbatim_token+chapter_route:ch04"}, {"md_atom_id": "md_ch04_a763", "md_file": "knowledge_base/chapters/ch04_general_assumptions.md", "md_atom_type": "TABLE_ROW", "md_parent_section": "§4.4.10 [Representing Time Points]", "md_verbatim": "| PERIOD 1, DAY 5 | 4 | PRE-DOSE | 1 | AM DOSE |", "score": 0.825, "match_basis": "verbatim_token+chapter_route:ch04"}, {"md_atom_id": "md_ch04_a769", "md_file": "knowledge_base/chapters/ch04_general_assumptions.md", "md_atom_type": "TABLE_ROW", "md_parent_section": "§4.4.10 [Representing Time Points]", "md_verbatim": "| PERIOD 2, DAY 1 | 5 | PRE-DOSE | 1 | AM DOSE |", "score": 0.825, "match_basis": "verbatim_token+chapter_route:ch04"}], "candidate_count": 5, "zero_candidate": false}
{"pdf_atom_id": "ig34_p0047_a018", "pdf_atom_type": "TABLE_ROW", "pdf_source": "SDTMIG_v3.4", "pdf_page": 47, "pdf_parent_section": "§4.4.10 [Representing Time Points]", "pdf_verbatim": "PERIOD 1 | 3 | 4H | 3 | DAY 1, AM DOSE", "figure_ref": null, "candidates": [{"md_atom_id": "md_ch04_a737", "md_file": "knowledge_base/chapters/ch04_general_assumptions.md", "md_atom_type": "TABLE_ROW", "md_parent_section": "§4.4.10 [Representing Time Points]", "md_verbatim": "| PERIOD 1 | 3 | PRE-DOSE | 1 | DAY 1, AM DOSE |", "score": 0.825, "match_basis": "verbatim_token+chapter_route:ch04"}, {"md_atom_id": "md_ch04_a749", "md_file": "knowledge_base/chapters/ch04_general_assumptions.md", "md_atom_type": "TABLE_ROW", "md_parent_section": "§4.4.10 [Representing Time Points]", "md_verbatim": "| PERIOD 2 | 4 | PRE-DOSE | 1 | DAY 1, AM DOSE |", "score": 0.825, "match_basis": "verbatim_token+chapter_route:ch04"}, {"md_atom_id": "md_ch04_a757", "md_file": "knowledge_base/chapters/ch04_general_assumptions.md", "md_atom_type": "TABLE_ROW", "md_parent_section": "§4.4.10 [Representing Time Points]", "md_verbatim": "| PERIOD 1, DAY 1 | 3 | PRE-DOSE | 1 | AM DOSE |", "score": 0.825, "match_basis": "verbatim_token+chapter_route:ch04"}, {"md_atom_id": "md_ch04_a763", "md_file": "knowledge_base/chapters/ch04_general_assumptions.md", "md_atom_type": "TABLE_ROW", "md_parent_section": "§4.4.10 [Representing Time Points]", "md_verbatim": "| PERIOD 1, DAY 5 | 4 | PRE-DOSE | 1 | AM DOSE |", "score": 0.825, "match_basis": "verbatim_token+chapter_route:ch04"}, {"md_atom_id": "md_ch04_a769", "md_file": "knowledge_base/chapters/ch04_general_assumptions.md", "md_atom_type": "TABLE_ROW", "md_parent_section": "§4.4.10 [Representing Time Points]", "md_verbatim": "| PERIOD 2, DAY 1 | 5 | PRE-DOSE | 1 | AM DOSE |", "score": 0.825, "match_basis": "verbatim_token+chapter_route:ch04"}], "candidate_count": 5, "zero_candidate": false}
{"pdf_atom_id": "ig34_p0047_a019", "pdf_atom_type": "TABLE_ROW", "pdf_source": "SDTMIG_v3.4", "pdf_page": 47, "pdf_parent_section": "§4.4.10 [Representing Time Points]", "pdf_verbatim": "PERIOD 1 | 3 | PRE-DOSE | 1 | DAY 1, PM DOSE", "figure_ref": null, "candidates": [{"md_atom_id": "md_ch04_a737", "md_file": "knowledge_base/chapters/ch04_general_assumptions.md", "md_atom_type": "TABLE_ROW", "md_parent_section": "§4.4.10 [Representing Time Points]", "md_verbatim": "| PERIOD 1 | 3 | PRE-DOSE | 1 | DAY 1, AM DOSE |", "score": 0.9, "match_basis": "verbatim_token+chapter_route:ch04"}, {"md_atom_id": "md_ch04_a749", "md_file": "knowledge_base/chapters/ch04_general_assumptions.md", "md_atom_type": "TABLE_ROW", "md_parent_section": "§4.4.10 [Representing Time Points]", "md_verbatim": "| PERIOD 2 | 4 | PRE-DOSE | 1 | DAY 1, AM DOSE |", "score": 0.9, "match_basis": "verbatim_token+chapter_route:ch04"}, {"md_atom_id": "md_ch04_a757", "md_file": "knowledge_base/chapters/ch04_general_assumptions.md", "md_atom_type": "TABLE_ROW", "md_parent_section": "§4.4.10 [Representing Time Points]", "md_verbatim": "| PERIOD 1, DAY 1 | 3 | PRE-DOSE | 1 | AM DOSE |", "score": 0.9, "match_basis": "verbatim_token+chapter_route:ch04"}, {"md_atom_id": "md_ch04_a763", "md_file": "knowledge_base/chapters/ch04_general_assumptions.md", "md_atom_type": "TABLE_ROW", "md_parent_section": "§4.4.10 [Representing Time Points]", "md_verbatim": "| PERIOD 1, DAY 5 | 4 | PRE-DOSE | 1 | AM DOSE |", "score": 0.9, "match_basis": "verbatim_token+chapter_route:ch04"}, {"md_atom_id": "md_ch04_a769", "md_file": "knowledge_base/chapters/ch04_general_assumptions.md", "md_atom_type": "TABLE_ROW", "md_parent_section": "§4.4.10 [Representing Time Points]", "md_verbatim": "| PERIOD 2, DAY 1 | 5 | PRE-DOSE | 1 | AM DOSE |", "score": 0.9, "match_basis": "verbatim_token+chapter_route:ch04"}], "candidate_count": 5, "zero_candidate": false}
{"pdf_atom_id": "ig34_p0047_a020", "pdf_atom_type": "TABLE_ROW", "pdf_source": "SDTMIG_v3.4", "pdf_page": 47, "pdf_parent_section": "§4.4.10 [Representing Time Points]", "pdf_verbatim": "PERIOD 1 | 3 | 1H | 2 | DAY 1, PM DOSE", "figure_ref": null, "candidates": [{"md_atom_id": "md_ch04_a737", "md_file": "knowledge_base/chapters/ch04_general_assumptions.md", "md_atom_type": "TABLE_ROW", "md_parent_section": "§4.4.10 [Representing Time Points]", "md_verbatim": "| PERIOD 1 | 3 | PRE-DOSE | 1 | DAY 1, AM DOSE |", "score": 0.825, "match_basis": "verbatim_token+chapter_route:ch04"}, {"md_atom_id": "md_ch04_a749", "md_file": "knowledge_base/chapters/ch04_general_assumptions.md", "md_atom_type": "TABLE_ROW", "md_parent_section": "§4.4.10 [Representing Time Points]", "md_verbatim": "| PERIOD 2 | 4 | PRE-DOSE | 1 | DAY 1, AM DOSE |", "score": 0.825, "match_basis": "verbatim_token+chapter_route:ch04"}, {"md_atom_id": "md_ch04_a757", "md_file": "knowledge_base/chapters/ch04_general_assumptions.md", "md_atom_type": "TABLE_ROW", "md_parent_section": "§4.4.10 [Representing Time Points]", "md_verbatim": "| PERIOD 1, DAY 1 | 3 | PRE-DOSE | 1 | AM DOSE |", "score": 0.825, "match_basis": "verbatim_token+chapter_route:ch04"}, {"md_atom_id": "md_ch04_a763", "md_file": "knowledge_base/chapters/ch04_general_assumptions.md", "md_atom_type": "TABLE_ROW", "md_parent_section": "§4.4.10 [Representing Time Points]", "md_verbatim": "| PERIOD 1, DAY 5 | 4 | PRE-DOSE | 1 | AM DOSE |", "score": 0.825, "match_basis": "verbatim_token+chapter_route:ch04"}, {"md_atom_id": "md_ch04_a769", "md_file": "knowledge_base/chapters/ch04_general_assumptions.md", "md_atom_type": "TABLE_ROW", "md_parent_section": "§4.4.10 [Representing Time Points]", "md_verbatim": "| PERIOD 2, DAY 1 | 5 | PRE-DOSE | 1 | AM DOSE |", "score": 0.825, "match_basis": "verbatim_token+chapter_route:ch04"}], "candidate_count": 5, "zero_candidate": false}
{"pdf_atom_id": "ig34_p0047_a021", "pdf_atom_type": "TABLE_ROW", "pdf_source": "SDTMIG_v3.4", "pdf_page": 47, "pdf_parent_section": "§4.4.10 [Representing Time Points]", "pdf_verbatim": "PERIOD 1 | 3 | 4H | 3 | DAY 1, PM DOSE", "figure_ref": null, "candidates": [{"md_atom_id": "md_ch04_a737", "md_file": "knowledge_base/chapters/ch04_general_assumptions.md", "md_atom_type": "TABLE_ROW", "md_parent_section": "§4.4.10 [Representing Time Points]", "md_verbatim": "| PERIOD 1 | 3 | PRE-DOSE | 1 | DAY 1, AM DOSE |", "score": 0.825, "match_basis": "verbatim_token+chapter_route:ch04"}, {"md_atom_id": "md_ch04_a749", "md_file": "knowledge_base/chapters/ch04_general_assumptions.md", "md_atom_type": "TABLE_ROW", "md_parent_section": "§4.4.10 [Representing Time Points]", "md_verbatim": "| PERIOD 2 | 4 | PRE-DOSE | 1 | DAY 1, AM DOSE |", "score": 0.825, "match_basis": "verbatim_token+chapter_route:ch04"}, {"md_atom_id": "md_ch04_a757", "md_file": "knowledge_base/chapters/ch04_general_assumptions.md", "md_atom_type": "TABLE_ROW", "md_parent_section": "§4.4.10 [Representing Time Points]", "md_verbatim": "| PERIOD 1, DAY 1 | 3 | PRE-DOSE | 1 | AM DOSE |", "score": 0.825, "match_basis": "verbatim_token+chapter_route:ch04"}, {"md_atom_id": "md_ch04_a763", "md_file": "knowledge_base/chapters/ch04_general_assumptions.md", "md_atom_type": "TABLE_ROW", "md_parent_section": "§4.4.10 [Representing Time Points]", "md_verbatim": "| PERIOD 1, DAY 5 | 4 | PRE-DOSE | 1 | AM DOSE |", "score": 0.825, "match_basis": "verbatim_token+chapter_route:ch04"}, {"md_atom_id": "md_ch04_a769", "md_file": "knowledge_base/chapters/ch04_general_assumptions.md", "md_atom_type": "TABLE_ROW", "md_parent_section": "§4.4.10 [Representing Time Points]", "md_verbatim": "| PERIOD 2, DAY 1 | 5 | PRE-DOSE | 1 | AM DOSE |", "score": 0.825, "match_basis": "verbatim_token+chapter_route:ch04"}], "candidate_count": 5, "zero_candidate": false}
{"pdf_atom_id": "ig34_p0047_a022", "pdf_atom_type": "TABLE_ROW", "pdf_source": "SDTMIG_v3.4", "pdf_page": 47, "pdf_parent_section": "§4.4.10 [Representing Time Points]", "pdf_verbatim": "PERIOD 1 | 3 | PRE-DOSE | 1 | DAY 5, AM DOSE", "figure_ref": null, "candidates": [{"md_atom_id": "md_ch04_a737", "md_file": "knowledge_base/chapters/ch04_general_assumptions.md", "md_atom_type": "TABLE_ROW", "md_parent_section": "§4.4.10 [Representing Time Points]", "md_verbatim": "| PERIOD 1 | 3 | PRE-DOSE | 1 | DAY 1, AM DOSE |", "score": 0.9, "match_basis": "verbatim_token+chapter_route:ch04"}, {"md_atom_id": "md_ch04_a749", "md_file": "knowledge_base/chapters/ch04_general_assumptions.md", "md_atom_type": "TABLE_ROW", "md_parent_section": "§4.4.10 [Representing Time Points]", "md_verbatim": "| PERIOD 2 | 4 | PRE-DOSE | 1 | DAY 1, AM DOSE |", "score": 0.9, "match_basis": "verbatim_token+chapter_route:ch04"}, {"md_atom_id": "md_ch04_a757", "md_file": "knowledge_base/chapters/ch04_general_assumptions.md", "md_atom_type": "TABLE_ROW", "md_parent_section": "§4.4.10 [Representing Time Points]", "md_verbatim": "| PERIOD 1, DAY 1 | 3 | PRE-DOSE | 1 | AM DOSE |", "score": 0.9, "match_basis": "verbatim_token+chapter_route:ch04"}, {"md_atom_id": "md_ch04_a763", "md_file": "knowledge_base/chapters/ch04_general_assumptions.md", "md_atom_type": "TABLE_ROW", "md_parent_section": "§4.4.10 [Representing Time Points]", "md_verbatim": "| PERIOD 1, DAY 5 | 4 | PRE-DOSE | 1 | AM DOSE |", "score": 0.9, "match_basis": "verbatim_token+chapter_route:ch04"}, {"md_atom_id": "md_ch04_a769", "md_file": "knowledge_base/chapters/ch04_general_assumptions.md", "md_atom_type": "TABLE_ROW", "md_parent_section": "§4.4.10 [Representing Time Points]", "md_verbatim": "| PERIOD 2, DAY 1 | 5 | PRE-DOSE | 1 | AM DOSE |", "score": 0.9, "match_basis": "verbatim_token+chapter_route:ch04"}], "candidate_count": 5, "zero_candidate": false}
{"pdf_atom_id": "ig34_p0047_a023", "pdf_atom_type": "TABLE_ROW", "pdf_source": "SDTMIG_v3.4", "pdf_page": 47, "pdf_parent_section": "§4.4.10 [Representing Time Points]", "pdf_verbatim": "PERIOD 1 | 3 | 1H | 2 | DAY 5, AM DOSE", "figure_ref": null, "candidates": [{"md_atom_id": "md_ch04_a737", "md_file": "knowledge_base/chapters/ch04_general_assumptions.md", "md_atom_type": "TABLE_ROW", "md_parent_section": "§4.4.10 [Representing Time Points]", "md_verbatim": "| PERIOD 1 | 3 | PRE-DOSE | 1 | DAY 1, AM DOSE |", "score": 0.825, "match_basis": "verbatim_token+chapter_route:ch04"}, {"md_atom_id": "md_ch04_a749", "md_file": "knowledge_base/chapters/ch04_general_assumptions.md", "md_atom_type": "TABLE_ROW", "md_parent_section": "§4.4.10 [Representing Time Points]", "md_verbatim": "| PERIOD 2 | 4 | PRE-DOSE | 1 | DAY 1, AM DOSE |", "score": 0.825, "match_basis": "verbatim_token+chapter_route:ch04"}, {"md_atom_id": "md_ch04_a757", "md_file": "knowledge_base/chapters/ch04_general_assumptions.md", "md_atom_type": "TABLE_ROW", "md_parent_section": "§4.4.10 [Representing Time Points]", "md_verbatim": "| PERIOD 1, DAY 1 | 3 | PRE-DOSE | 1 | AM DOSE |", "score": 0.825, "match_basis": "verbatim_token+chapter_route:ch04"}, {"md_atom_id": "md_ch04_a763", "md_file": "knowledge_base/chapters/ch04_general_assumptions.md", "md_atom_type": "TABLE_ROW", "md_parent_section": "§4.4.10 [Representing Time Points]", "md_verbatim": "| PERIOD 1, DAY 5 | 4 | PRE-DOSE | 1 | AM DOSE |", "score": 0.825, "match_basis": "verbatim_token+chapter_route:ch04"}, {"md_atom_id": "md_ch04_a769", "md_file": "knowledge_base/chapters/ch04_general_assumptions.md", "md_atom_type": "TABLE_ROW", "md_parent_section": "§4.4.10 [Representing Time Points]", "md_verbatim": "| PERIOD 2, DAY 1 | 5 | PRE-DOSE | 1 | AM DOSE |", "score": 0.825, "match_basis": "verbatim_token+chapter_route:ch04"}], "candidate_count": 5, "zero_candidate": false}
