{"pdf_atom_id": "ig34_p0294_a013", "pdf_atom_type": "SENTENCE", "pdf_source": "SDTMIG_v3.4", "pdf_page": 294, "pdf_parent_section": "§6.3.7.4 Nervous System Findings (NV)", "pdf_verbatim": "A findings domain that contains physiological and morphological findings related to the nervous system, including the brain, spinal cord, the cranial and spinal nerves, autonomic ganglia and plexuses.", "figure_ref": null, "candidates": [{"md_atom_id": "md_dmNV_ex_a025", "md_file": "knowledge_base/domains/NV/examples.md", "md_atom_type": "SENTENCE", "md_parent_section": "§NV.1 [Example 1]", "md_verbatim": "The RELREC table displays the dataset relationship that links procedure to multiple NV domain records — specifically how an individual AG administration record related to a scan is linked to multiple NV domain records. The RELREC table uses --LNKID to relate the PR and AG domains to each other and to NV, and --REFID to relate NV and Device in Use (DU).", "score": 0.4812, "match_basis": "verbatim_token+domain_route:NV"}, {"md_atom_id": "md_dmNV_ex_a003", "md_file": "knowledge_base/domains/NV/examples.md", "md_atom_type": "SENTENCE", "md_parent_section": "§NV.1 [Example 1]", "md_verbatim": "This example demonstrates the SDTM-based modeling of nervous system information collected and generated from separate positron emission tomography (PET) or PET/computed tomography (PET/CT) procedures.", "score": 0.4611, "match_basis": "verbatim_token+domain_route:NV"}, {"md_atom_id": "md_dmNV_ex_a026", "md_file": "knowledge_base/domains/NV/examples.md", "md_atom_type": "SENTENCE", "md_parent_section": "§NV.1 [Example 1]", "md_verbatim": "In this example, the sponsor has maintained 2 sets of reference identifiers (REFID values) for the specific purpose of being able to relate records across multiple domains. Because the SDTMIG-MD advocates the use of --REFID to link a group of settings to the results obtained from the reading or interpretation of the test (see SDTMIG-MD, Device-in-Use (DU) domain assumptions), --LNKID has been used to establish the relationships between the procedure, the substance administered during the procedure, and the results obtained from the procedure. --LNKID is unique for each procedure for each subject, so datasets may be related to each other as a whole.", "score": 0.4515, "match_basis": "verbatim_token+domain_route:NV"}, {"md_atom_id": "md_dmNV_ex_a061", "md_file": "knowledge_base/domains/NV/examples.md", "md_atom_type": "SENTENCE", "md_parent_section": "§NV.2 [Example 2]", "md_verbatim": "Information about the VEP device is not shown. Identifying information would be represented using the DI domain, and any properties of the device that may change between assessments would be represented in the DO and DU domains. See the SDTMIG-MD for examples of these domains.", "score": 0.4512, "match_basis": "verbatim_token+domain_route:NV"}, {"md_atom_id": "md_dmNV_ex_a044", "md_file": "knowledge_base/domains/NV/examples.md", "md_atom_type": "SENTENCE", "md_parent_section": "§NV.2 [Example 2]", "md_verbatim": "The NV domain should be used to represent the VEP latencies, P100 peak-to-peak amplitude, and their interpretations. SPDEVID allows the results to be related to both the VEP testing device and the checkerboard size.", "score": 0.4479, "match_basis": "verbatim_token+domain_route:NV"}], "candidate_count": 5, "zero_candidate": false}
{"pdf_atom_id": "ig34_p0294_a014", "pdf_atom_type": "HEADING", "pdf_source": "SDTMIG_v3.4", "pdf_page": 294, "pdf_parent_section": "§6.3.7.4 Nervous System Findings (NV)", "pdf_verbatim": "NV – Specification", "figure_ref": null, "candidates": [{"md_atom_id": "md_dmNV_assn_a001", "md_file": "knowledge_base/domains/NV/assumptions.md", "md_atom_type": "HEADING", "md_parent_section": "§NV [NV — Assumptions]", "md_verbatim": "# NV — Assumptions", "score": 0.4667, "match_basis": "verbatim_token+domain_route:NV"}, {"md_atom_id": "md_dmNV_ex_a001", "md_file": "knowledge_base/domains/NV/examples.md", "md_atom_type": "HEADING", "md_parent_section": "§NV [NV — Examples]", "md_verbatim": "# NV — Examples", "score": 0.4, "match_basis": "verbatim_token+domain_route:NV"}, {"md_atom_id": "md_dmNV_ex_a002", "md_file": "knowledge_base/domains/NV/examples.md", "md_atom_type": "HEADING", "md_parent_section": "§NV [NV — Examples]", "md_verbatim": "## Example 1", "score": 0.4, "match_basis": "verbatim_token+domain_route:NV"}, {"md_atom_id": "md_dmNV_ex_a041", "md_file": "knowledge_base/domains/NV/examples.md", "md_atom_type": "HEADING", "md_parent_section": "§NV [NV — Examples]", "md_verbatim": "## Example 2", "score": 0.4, "match_basis": "verbatim_token+domain_route:NV"}], "candidate_count": 4, "zero_candidate": false}
{"pdf_atom_id": "ig34_p0294_a015", "pdf_atom_type": "SENTENCE", "pdf_source": "SDTMIG_v3.4", "pdf_page": 294, "pdf_parent_section": "§6.3.7.4 Nervous System Findings (NV)", "pdf_verbatim": "nv.xpt, Nervous System Findings — Findings. One record per finding per location per time point per visit per subject, Tabulation.", "figure_ref": null, "candidates": [{"md_atom_id": "md_dmNV_ex_a005", "md_file": "knowledge_base/domains/NV/examples.md", "md_atom_type": "SENTENCE", "md_parent_section": "§NV.1 [Example 1]", "md_verbatim": "**Rows 1-2:** Show the SUVR findings based on a PET/CT scan for a subject.", "score": 0.51, "match_basis": "verbatim_token+domain_route:NV"}, {"md_atom_id": "md_dmNV_ex_a006", "md_file": "knowledge_base/domains/NV/examples.md", "md_atom_type": "SENTENCE", "md_parent_section": "§NV.1 [Example 1]", "md_verbatim": "**Rows 3-4:** Show the SUVR findings based on a PET/CT scan for a subject.", "score": 0.51, "match_basis": "verbatim_token+domain_route:NV"}, {"md_atom_id": "md_dmNV_ex_a007", "md_file": "knowledge_base/domains/NV/examples.md", "md_atom_type": "SENTENCE", "md_parent_section": "§NV.1 [Example 1]", "md_verbatim": "**Rows 5-6:** Show the SUVR findings based on a fluorodeoxyglucose (FDG)-PET scan for a subject.", "score": 0.4857, "match_basis": "verbatim_token+domain_route:NV"}, {"md_atom_id": "md_dmNV_ex_a003", "md_file": "knowledge_base/domains/NV/examples.md", "md_atom_type": "SENTENCE", "md_parent_section": "§NV.1 [Example 1]", "md_verbatim": "This example demonstrates the SDTM-based modeling of nervous system information collected and generated from separate positron emission tomography (PET) or PET/computed tomography (PET/CT) procedures.", "score": 0.4703, "match_basis": "verbatim_token+domain_route:NV"}, {"md_atom_id": "md_dmNV_ex_a026", "md_file": "knowledge_base/domains/NV/examples.md", "md_atom_type": "SENTENCE", "md_parent_section": "§NV.1 [Example 1]", "md_verbatim": "In this example, the sponsor has maintained 2 sets of reference identifiers (REFID values) for the specific purpose of being able to relate records across multiple domains. Because the SDTMIG-MD advocates the use of --REFID to link a group of settings to the results obtained from the reading or interpretation of the test (see SDTMIG-MD, Device-in-Use (DU) domain assumptions), --LNKID has been used to establish the relationships between the procedure, the substance administered during the procedure, and the results obtained from the procedure. --LNKID is unique for each procedure for each subject, so datasets may be related to each other as a whole.", "score": 0.455, "match_basis": "verbatim_token+domain_route:NV"}], "candidate_count": 5, "zero_candidate": false}
{"pdf_atom_id": "ig34_p0294_a016", "pdf_atom_type": "CODE_LITERAL", "pdf_source": "SDTMIG_v3.4", "pdf_page": 294, "pdf_parent_section": "§6.3.7.4 Nervous System Findings (NV)", "pdf_verbatim": "nv.xpt", "figure_ref": null, "candidates": [{"md_atom_id": "md_dmNV_ex_a008", "md_file": "knowledge_base/domains/NV/examples.md", "md_atom_type": "SENTENCE", "md_parent_section": "§NV.1 [Example 1]", "md_verbatim": "**nv.xpt**", "score": 0.79, "match_basis": "verbatim_token+domain_route:NV"}, {"md_atom_id": "md_dmNV_ex_a049", "md_file": "knowledge_base/domains/NV/examples.md", "md_atom_type": "SENTENCE", "md_parent_section": "§NV.2 [Example 2]", "md_verbatim": "**nv.xpt**", "score": 0.79, "match_basis": "verbatim_token+domain_route:NV"}, {"md_atom_id": "md_dmNV_ex_a017", "md_file": "knowledge_base/domains/NV/examples.md", "md_atom_type": "SENTENCE", "md_parent_section": "§NV.1 [Example 1]", "md_verbatim": "**suppnv.xpt**", "score": 0.31, "match_basis": "verbatim_token+domain_route:NV"}, {"md_atom_id": "md_dmNV_ex_a031", "md_file": "knowledge_base/domains/NV/examples.md", "md_atom_type": "SENTENCE", "md_parent_section": "§NV.1 [Example 1]", "md_verbatim": "**relrec.xpt**", "score": 0.31, "match_basis": "verbatim_token+domain_route:NV"}, {"md_atom_id": "md_dmNV_assn_a001", "md_file": "knowledge_base/domains/NV/assumptions.md", "md_atom_type": "HEADING", "md_parent_section": "§NV [NV — Assumptions]", "md_verbatim": "# NV — Assumptions", "score": 0.19, "match_basis": "verbatim_token+domain_route:NV"}, {"md_atom_id": "md_dmNV_assn_a002", "md_file": "knowledge_base/domains/NV/assumptions.md", "md_atom_type": "LIST_ITEM", "md_parent_section": "§NV [NV — Assumptions]", "md_verbatim": "1. Methods of assessment for nervous system findings may include nerve conduction studies, electroencephalogram (EEG), electromyography (EMG), and imaging.", "score": 0.19, "match_basis": "verbatim_token+domain_route:NV"}, {"md_atom_id": "md_dmNV_assn_a003", "md_file": "knowledge_base/domains/NV/assumptions.md", "md_atom_type": "LIST_ITEM", "md_parent_section": "§NV [NV — Assumptions]", "md_verbatim": "2. Any Identifiers, Timing variables, or Findings general observation class qualifiers may be added to the NV domain, but the following qualifiers would not generally be used: --MODIFY, --BODSYS, --LOINC, --TOX, --TOXGR.", "score": 0.19, "match_basis": "verbatim_token+domain_route:NV"}, {"md_atom_id": "md_dmNV_ex_a001", "md_file": "knowledge_base/domains/NV/examples.md", "md_atom_type": "HEADING", "md_parent_section": "§NV [NV — Examples]", "md_verbatim": "# NV — Examples", "score": 0.19, "match_basis": "verbatim_token+domain_route:NV"}, {"md_atom_id": "md_dmNV_ex_a002", "md_file": "knowledge_base/domains/NV/examples.md", "md_atom_type": "HEADING", "md_parent_section": "§NV [NV — Examples]", "md_verbatim": "## Example 1", "score": 0.19, "match_basis": "verbatim_token+domain_route:NV"}, {"md_atom_id": "md_dmNV_ex_a003", "md_file": "knowledge_base/domains/NV/examples.md", "md_atom_type": "SENTENCE", "md_parent_section": "§NV.1 [Example 1]", "md_verbatim": "This example demonstrates the SDTM-based modeling of nervous system information collected and generated from separate positron emission tomography (PET) or PET/computed tomography (PET/CT) procedures.", "score": 0.19, "match_basis": "verbatim_token+domain_route:NV"}], "candidate_count": 10, "zero_candidate": false}
{"pdf_atom_id": "ig34_p0294_a017", "pdf_atom_type": "TABLE_HEADER", "pdf_source": "SDTMIG_v3.4", "pdf_page": 294, "pdf_parent_section": "§6.3.7.4 Nervous System Findings (NV)", "pdf_verbatim": "| Variable Name | Variable Label | Type | Controlled Terms, Codelist or Format1 | Role | CDISC Notes | Core |", "figure_ref": null, "candidates": [{"md_atom_id": "md_dmNV_ex_a018", "md_file": "knowledge_base/domains/NV/examples.md", "md_atom_type": "TABLE_HEADER", "md_parent_section": "§NV.1 [Example 1]", "md_verbatim": "| Row | STUDYID | RDOMAIN | USUBJID | IDVAR | IDVARVAL | QNAM | QLABEL | QVAL |\n|-----|---------|---------|---------|-------|----------|------|--------|------|", "score": 0.4441, "match_basis": "verbatim_token+domain_route:NV"}, {"md_atom_id": "md_dmNV_ex_a032", "md_file": "knowledge_base/domains/NV/examples.md", "md_atom_type": "TABLE_HEADER", "md_parent_section": "§NV.1 [Example 1]", "md_verbatim": "| Row | STUDYID | RDOMAIN | USUBJID | IDVAR | IDVARVAL | RELTYPE | RELID |\n|-----|---------|---------|---------|-------|----------|---------|-------|", "score": 0.4348, "match_basis": "verbatim_token+domain_route:NV"}, {"md_atom_id": "md_dmNV_ex_a009", "md_file": "knowledge_base/domains/NV/examples.md", "md_atom_type": "TABLE_HEADER", "md_parent_section": "§NV.1 [Example 1]", "md_verbatim": "| Row | STUDYID | DOMAIN | USUBJID | SPDEVID | NVSEQ | NVREFID | NVLNKID | NVTESTCD | NVTEST | NVORRES | NVORRESU | NVSTRESC | NVSTRESN | NVSTRESU | NVLOC | NVDIR | NVMETHOD | VISITNUM | NVDTC |\n|-----|---------|--------|---------|---------|-------|---------|---------|----------|--------|---------|----------|----------|----------|----------|-------|-------|----------|----------|-------|", "score": 0.4054, "match_basis": "verbatim_token+domain_route:NV"}, {"md_atom_id": "md_dmNV_ex_a050", "md_file": "knowledge_base/domains/NV/examples.md", "md_atom_type": "TABLE_HEADER", "md_parent_section": "§NV.2 [Example 2]", "md_verbatim": "| Row | STUDYID | DOMAIN | USUBJID | SPDEVID | FOCID | NVSEQ | NVGRPID | NVTESTCD | NVTEST | NVCAT | NVORRES | NVORRESU | NVSTRESC | NVSTRESN | NVSTRESU | NVORNRLO | NVORNRHI | NVNRIND | NVLOC | NVLAT | NVMETHOD | VISITNUM | NVDTC |\n|-----|---------|--------|---------|---------|-------|-------|---------|----------|--------|-------|---------|----------|----------|----------|----------|----------|----------|---------|-------|-------|----------|----------|-------|", "score": 0.4048, "match_basis": "verbatim_token+domain_route:NV"}, {"md_atom_id": "md_dmNV_ex_a060", "md_file": "knowledge_base/domains/NV/examples.md", "md_atom_type": "TABLE_ROW", "md_parent_section": "§NV.2 [Example 2]", "md_verbatim": "| 10 | MS123 | NV | MS01-01 | 123 | OS | 10 | 2 | INTP | Interpretation | VISUAL EVOKED POTENTIAL | ABNORMAL | | ABNORMAL | | | | | | EYE | LEFT | EEG | 1 | 2013-02-08 |", "score": 0.3682, "match_basis": "verbatim_token+domain_route:NV"}], "candidate_count": 5, "zero_candidate": false}
{"pdf_atom_id": "ig34_p0294_a018", "pdf_atom_type": "TABLE_ROW", "pdf_source": "SDTMIG_v3.4", "pdf_page": 294, "pdf_parent_section": "§6.3.7.4 Nervous System Findings (NV)", "pdf_verbatim": "| STUDYID | Study Identifier | Char | | Identifier | Unique identifier for a study. | Req |", "figure_ref": null, "candidates": [{"md_atom_id": "md_dmNV_ex_a059", "md_file": "knowledge_base/domains/NV/examples.md", "md_atom_type": "TABLE_ROW", "md_parent_section": "§NV.2 [Example 2]", "md_verbatim": "| 9 | MS123 | NV | MS01-01 | 123 | OS | 9 | 2 | P100AMP | P100 Amplitude | VISUAL EVOKED POTENTIAL | 4.37 | uV | 4.37 | 4.37 | uV | 4.78 | 12.7 | ABNORMAL | EYE | LEFT | EEG | 1 | 2013-02-08 |", "score": 0.4295, "match_basis": "verbatim_token+domain_route:NV"}, {"md_atom_id": "md_dmNV_ex_a054", "md_file": "knowledge_base/domains/NV/examples.md", "md_atom_type": "TABLE_ROW", "md_parent_section": "§NV.2 [Example 2]", "md_verbatim": "| 4 | MS123 | NV | MS01-01 | 123 | OD | 4 | 1 | P100AMP | P100 Amplitude | VISUAL EVOKED POTENTIAL | 5.02 | uV | 5.02 | 5.02 | uV | 5.26 | 12.64 | ABNORMAL | EYE | RIGHT | EEG | 1 | 2013-02-08 |", "score": 0.429, "match_basis": "verbatim_token+domain_route:NV"}, {"md_atom_id": "md_dmNV_ex_a056", "md_file": "knowledge_base/domains/NV/examples.md", "md_atom_type": "TABLE_ROW", "md_parent_section": "§NV.2 [Example 2]", "md_verbatim": "| 6 | MS123 | NV | MS01-01 | 123 | OS | 6 | 2 | N75LAT | N75 Latency | VISUAL EVOKED POTENTIAL | 83.8 | msec | 83.8 | 83.8 | msec | 54.42 | 95.1 | NORMAL | EYE | LEFT | EEG | 1 | 2013-02-08 |", "score": 0.4207, "match_basis": "verbatim_token+domain_route:NV"}, {"md_atom_id": "md_dmNV_ex_a051", "md_file": "knowledge_base/domains/NV/examples.md", "md_atom_type": "TABLE_ROW", "md_parent_section": "§NV.2 [Example 2]", "md_verbatim": "| 1 | MS123 | NV | MS01-01 | 123 | OD | 1 | 1 | N75LAT | N75 Latency | VISUAL EVOKED POTENTIAL | 79.8 | msec | 79.8 | 79.8 | msec | 54.68 | 94 | NORMAL | EYE | RIGHT | EEG | 1 | 2013-02-08 |", "score": 0.4203, "match_basis": "verbatim_token+domain_route:NV"}, {"md_atom_id": "md_dmNV_ex_a057", "md_file": "knowledge_base/domains/NV/examples.md", "md_atom_type": "TABLE_ROW", "md_parent_section": "§NV.2 [Example 2]", "md_verbatim": "| 7 | MS123 | NV | MS01-01 | 123 | OS | 7 | 2 | P100LAT | P100 Latency | VISUAL EVOKED POTENTIAL | 126 | msec | 126 | 126 | msec | 76.9 | 115.78 | ABNORMAL | EYE | LEFT | EEG | 1 | 2013-02-08 |", "score": 0.419, "match_basis": "verbatim_token+domain_route:NV"}], "candidate_count": 5, "zero_candidate": false}
{"pdf_atom_id": "ig34_p0294_a019", "pdf_atom_type": "TABLE_ROW", "pdf_source": "SDTMIG_v3.4", "pdf_page": 294, "pdf_parent_section": "§6.3.7.4 Nervous System Findings (NV)", "pdf_verbatim": "| DOMAIN | Domain Abbreviation | Char | NV | Identifier | Two-character abbreviation for the domain. | Req |", "figure_ref": null, "candidates": [{"md_atom_id": "md_dmNV_ex_a060", "md_file": "knowledge_base/domains/NV/examples.md", "md_atom_type": "TABLE_ROW", "md_parent_section": "§NV.2 [Example 2]", "md_verbatim": "| 10 | MS123 | NV | MS01-01 | 123 | OS | 10 | 2 | INTP | Interpretation | VISUAL EVOKED POTENTIAL | ABNORMAL | | ABNORMAL | | | | | | EYE | LEFT | EEG | 1 | 2013-02-08 |", "score": 0.45, "match_basis": "verbatim_token+domain_route:NV"}, {"md_atom_id": "md_dmNV_ex_a055", "md_file": "knowledge_base/domains/NV/examples.md", "md_atom_type": "TABLE_ROW", "md_parent_section": "§NV.2 [Example 2]", "md_verbatim": "| 5 | MS123 | NV | MS01-01 | 123 | OD | 5 | 1 | INTP | Interpretation | VISUAL EVOKED POTENTIAL | ABNORMAL | | ABNORMAL | | | | | | EYE | RIGHT | EEG | 1 | 2013-02-08 |", "score": 0.4493, "match_basis": "verbatim_token+domain_route:NV"}, {"md_atom_id": "md_dmNV_ex_a011", "md_file": "knowledge_base/domains/NV/examples.md", "md_atom_type": "TABLE_ROW", "md_parent_section": "§NV.1 [Example 1]", "md_verbatim": "| 2 | ABC123 | NV | AD01-101 | 22 | 2 | 1236 | 03 | SUVR | Standard Uptake Value Ratio | 1.17 | RATIO | 1.17 | 1.17 | RATIO | CINGULATE CORTEX | POSTERIOR | PET/CT SCAN | 1 | 2012-05-22 |", "score": 0.4228, "match_basis": "verbatim_token+domain_route:NV"}, {"md_atom_id": "md_dmNV_ex_a013", "md_file": "knowledge_base/domains/NV/examples.md", "md_atom_type": "TABLE_ROW", "md_parent_section": "§NV.1 [Example 1]", "md_verbatim": "| 4 | ABC123 | NV | AD01-102 | 22 | 2 | 1237 | 04 | SUVR | Standard Uptake Value Ratio | 1.78 | RATIO | 1.78 | 1.78 | RATIO | CINGULATE CORTEX | POSTERIOR | PET/CT SCAN | 1 | 2012-05-22 |", "score": 0.4228, "match_basis": "verbatim_token+domain_route:NV"}, {"md_atom_id": "md_dmNV_ex_a015", "md_file": "knowledge_base/domains/NV/examples.md", "md_atom_type": "TABLE_ROW", "md_parent_section": "§NV.1 [Example 1]", "md_verbatim": "| 6 | ABC123 | NV | AD01-103 | 44 | 2 | 1238 | 05 | SUVR | Standard Uptake Value Ratio | 1.63 | RATIO | 1.63 | 1.63 | RATIO | CINGULATE CORTEX | POSTERIOR | FDGPET | 1 | 2012-05-22 |", "score": 0.4225, "match_basis": "verbatim_token+domain_route:NV"}], "candidate_count": 5, "zero_candidate": false}
{"pdf_atom_id": "ig34_p0294_a020", "pdf_atom_type": "TABLE_ROW", "pdf_source": "SDTMIG_v3.4", "pdf_page": 294, "pdf_parent_section": "§6.3.7.4 Nervous System Findings (NV)", "pdf_verbatim": "| USUBJID | Unique Subject Identifier | Char | | Identifier | Identifier used to uniquely identify a subject across all studies for all applications or submissions involving the product. | Req |", "figure_ref": null, "candidates": [{"md_atom_id": "md_dmNV_ex_a060", "md_file": "knowledge_base/domains/NV/examples.md", "md_atom_type": "TABLE_ROW", "md_parent_section": "§NV.2 [Example 2]", "md_verbatim": "| 10 | MS123 | NV | MS01-01 | 123 | OS | 10 | 2 | INTP | Interpretation | VISUAL EVOKED POTENTIAL | ABNORMAL | | ABNORMAL | | | | | | EYE | LEFT | EEG | 1 | 2013-02-08 |", "score": 0.4278, "match_basis": "verbatim_token+domain_route:NV"}, {"md_atom_id": "md_dmNV_ex_a055", "md_file": "knowledge_base/domains/NV/examples.md", "md_atom_type": "TABLE_ROW", "md_parent_section": "§NV.2 [Example 2]", "md_verbatim": "| 5 | MS123 | NV | MS01-01 | 123 | OD | 5 | 1 | INTP | Interpretation | VISUAL EVOKED POTENTIAL | ABNORMAL | | ABNORMAL | | | | | | EYE | RIGHT | EEG | 1 | 2013-02-08 |", "score": 0.4275, "match_basis": "verbatim_token+domain_route:NV"}, {"md_atom_id": "md_dmNV_ex_a059", "md_file": "knowledge_base/domains/NV/examples.md", "md_atom_type": "TABLE_ROW", "md_parent_section": "§NV.2 [Example 2]", "md_verbatim": "| 9 | MS123 | NV | MS01-01 | 123 | OS | 9 | 2 | P100AMP | P100 Amplitude | VISUAL EVOKED POTENTIAL | 4.37 | uV | 4.37 | 4.37 | uV | 4.78 | 12.7 | ABNORMAL | EYE | LEFT | EEG | 1 | 2013-02-08 |", "score": 0.4224, "match_basis": "verbatim_token+domain_route:NV"}, {"md_atom_id": "md_dmNV_ex_a054", "md_file": "knowledge_base/domains/NV/examples.md", "md_atom_type": "TABLE_ROW", "md_parent_section": "§NV.2 [Example 2]", "md_verbatim": "| 4 | MS123 | NV | MS01-01 | 123 | OD | 4 | 1 | P100AMP | P100 Amplitude | VISUAL EVOKED POTENTIAL | 5.02 | uV | 5.02 | 5.02 | uV | 5.26 | 12.64 | ABNORMAL | EYE | RIGHT | EEG | 1 | 2013-02-08 |", "score": 0.4222, "match_basis": "verbatim_token+domain_route:NV"}, {"md_atom_id": "md_dmNV_ex_a011", "md_file": "knowledge_base/domains/NV/examples.md", "md_atom_type": "TABLE_ROW", "md_parent_section": "§NV.1 [Example 1]", "md_verbatim": "| 2 | ABC123 | NV | AD01-101 | 22 | 2 | 1236 | 03 | SUVR | Standard Uptake Value Ratio | 1.17 | RATIO | 1.17 | 1.17 | RATIO | CINGULATE CORTEX | POSTERIOR | PET/CT SCAN | 1 | 2012-05-22 |", "score": 0.4158, "match_basis": "verbatim_token+domain_route:NV"}], "candidate_count": 5, "zero_candidate": false}
{"pdf_atom_id": "ig34_p0294_a021", "pdf_atom_type": "TABLE_ROW", "pdf_source": "SDTMIG_v3.4", "pdf_page": 294, "pdf_parent_section": "§6.3.7.4 Nervous System Findings (NV)", "pdf_verbatim": "| FOCID | Focus of Study-Specific Interest | Char | | Identifier | Identification of a focus of study-specific interest on or within a subject or specimen as called out in the protocol for which a measurement, test, or examination was performed, such as a drug application site (e.g., \"Injection site 1\", \"Biopsy site 1\", \"Treated site 1\") or a more specific focus (e.g., \"OD\" (right eye), \"Upper left quadrant of the back\"). The value in this variable should have inherent semantic meaning. | Perm |", "figure_ref": null, "candidates": [{"md_atom_id": "md_dmNV_ex_a055", "md_file": "knowledge_base/domains/NV/examples.md", "md_atom_type": "TABLE_ROW", "md_parent_section": "§NV.2 [Example 2]", "md_verbatim": "| 5 | MS123 | NV | MS01-01 | 123 | OD | 5 | 1 | INTP | Interpretation | VISUAL EVOKED POTENTIAL | ABNORMAL | | ABNORMAL | | | | | | EYE | RIGHT | EEG | 1 | 2013-02-08 |", "score": 0.4422, "match_basis": "verbatim_token+domain_route:NV"}, {"md_atom_id": "md_dmNV_ex_a060", "md_file": "knowledge_base/domains/NV/examples.md", "md_atom_type": "TABLE_ROW", "md_parent_section": "§NV.2 [Example 2]", "md_verbatim": "| 10 | MS123 | NV | MS01-01 | 123 | OS | 10 | 2 | INTP | Interpretation | VISUAL EVOKED POTENTIAL | ABNORMAL | | ABNORMAL | | | | | | EYE | LEFT | EEG | 1 | 2013-02-08 |", "score": 0.4389, "match_basis": "verbatim_token+domain_route:NV"}, {"md_atom_id": "md_dmNV_ex_a054", "md_file": "knowledge_base/domains/NV/examples.md", "md_atom_type": "TABLE_ROW", "md_parent_section": "§NV.2 [Example 2]", "md_verbatim": "| 4 | MS123 | NV | MS01-01 | 123 | OD | 4 | 1 | P100AMP | P100 Amplitude | VISUAL EVOKED POTENTIAL | 5.02 | uV | 5.02 | 5.02 | uV | 5.26 | 12.64 | ABNORMAL | EYE | RIGHT | EEG | 1 | 2013-02-08 |", "score": 0.4289, "match_basis": "verbatim_token+domain_route:NV"}, {"md_atom_id": "md_dmNV_ex_a051", "md_file": "knowledge_base/domains/NV/examples.md", "md_atom_type": "TABLE_ROW", "md_parent_section": "§NV.2 [Example 2]", "md_verbatim": "| 1 | MS123 | NV | MS01-01 | 123 | OD | 1 | 1 | N75LAT | N75 Latency | VISUAL EVOKED POTENTIAL | 79.8 | msec | 79.8 | 79.8 | msec | 54.68 | 94 | NORMAL | EYE | RIGHT | EEG | 1 | 2013-02-08 |", "score": 0.4261, "match_basis": "verbatim_token+domain_route:NV"}, {"md_atom_id": "md_dmNV_ex_a059", "md_file": "knowledge_base/domains/NV/examples.md", "md_atom_type": "TABLE_ROW", "md_parent_section": "§NV.2 [Example 2]", "md_verbatim": "| 9 | MS123 | NV | MS01-01 | 123 | OS | 9 | 2 | P100AMP | P100 Amplitude | VISUAL EVOKED POTENTIAL | 4.37 | uV | 4.37 | 4.37 | uV | 4.78 | 12.7 | ABNORMAL | EYE | LEFT | EEG | 1 | 2013-02-08 |", "score": 0.4257, "match_basis": "verbatim_token+domain_route:NV"}], "candidate_count": 5, "zero_candidate": false}
{"pdf_atom_id": "ig34_p0294_a022", "pdf_atom_type": "TABLE_ROW", "pdf_source": "SDTMIG_v3.4", "pdf_page": 294, "pdf_parent_section": "§6.3.7.4 Nervous System Findings (NV)", "pdf_verbatim": "| NVSEQ | Sequence Number | Num | | Identifier | Sequence number given to ensure uniqueness of subject records within a domain. May be any valid number. | Req |", "figure_ref": null, "candidates": [{"md_atom_id": "md_dmNV_ex_a023", "md_file": "knowledge_base/domains/NV/examples.md", "md_atom_type": "TABLE_ROW", "md_parent_section": "§NV.1 [Example 1]", "md_verbatim": "| 5 | ABC123 | NV | AD01-103 | NVSEQ | 1 | REFREG | Reference Region | PONS |", "score": 0.439, "match_basis": "verbatim_token+domain_route:NV"}, {"md_atom_id": "md_dmNV_ex_a024", "md_file": "knowledge_base/domains/NV/examples.md", "md_atom_type": "TABLE_ROW", "md_parent_section": "§NV.1 [Example 1]", "md_verbatim": "| 6 | ABC123 | NV | AD01-103 | NVSEQ | 2 | REFREG | Reference Region | PONS |", "score": 0.439, "match_basis": "verbatim_token+domain_route:NV"}, {"md_atom_id": "md_dmNV_ex_a019", "md_file": "knowledge_base/domains/NV/examples.md", "md_atom_type": "TABLE_ROW", "md_parent_section": "§NV.1 [Example 1]", "md_verbatim": "| 1 | ABC123 | NV | AD01-101 | NVSEQ | 1 | REFREG | Reference Region | CEREBELLUM |", "score": 0.4366, "match_basis": "verbatim_token+domain_route:NV"}, {"md_atom_id": "md_dmNV_ex_a020", "md_file": "knowledge_base/domains/NV/examples.md", "md_atom_type": "TABLE_ROW", "md_parent_section": "§NV.1 [Example 1]", "md_verbatim": "| 2 | ABC123 | NV | AD01-101 | NVSEQ | 2 | REFREG | Reference Region | CEREBELLUM |", "score": 0.4366, "match_basis": "verbatim_token+domain_route:NV"}, {"md_atom_id": "md_dmNV_ex_a021", "md_file": "knowledge_base/domains/NV/examples.md", "md_atom_type": "TABLE_ROW", "md_parent_section": "§NV.1 [Example 1]", "md_verbatim": "| 3 | ABC123 | NV | AD01-102 | NVSEQ | 1 | REFREG | Reference Region | CEREBELLUM |", "score": 0.4366, "match_basis": "verbatim_token+domain_route:NV"}], "candidate_count": 5, "zero_candidate": false}
{"pdf_atom_id": "ig34_p0294_a023", "pdf_atom_type": "TABLE_ROW", "pdf_source": "SDTMIG_v3.4", "pdf_page": 294, "pdf_parent_section": "§6.3.7.4 Nervous System Findings (NV)", "pdf_verbatim": "| NVGRPID | Group ID | Char | | Identifier | Used to tie together a block of related records in a single domain for a subject. | Perm |", "figure_ref": null, "candidates": [{"md_atom_id": "md_dmNV_ex_a056", "md_file": "knowledge_base/domains/NV/examples.md", "md_atom_type": "TABLE_ROW", "md_parent_section": "§NV.2 [Example 2]", "md_verbatim": "| 6 | MS123 | NV | MS01-01 | 123 | OS | 6 | 2 | N75LAT | N75 Latency | VISUAL EVOKED POTENTIAL | 83.8 | msec | 83.8 | 83.8 | msec | 54.42 | 95.1 | NORMAL | EYE | LEFT | EEG | 1 | 2013-02-08 |", "score": 0.4264, "match_basis": "verbatim_token+domain_route:NV"}, {"md_atom_id": "md_dmNV_ex_a051", "md_file": "knowledge_base/domains/NV/examples.md", "md_atom_type": "TABLE_ROW", "md_parent_section": "§NV.2 [Example 2]", "md_verbatim": "| 1 | MS123 | NV | MS01-01 | 123 | OD | 1 | 1 | N75LAT | N75 Latency | VISUAL EVOKED POTENTIAL | 79.8 | msec | 79.8 | 79.8 | msec | 54.68 | 94 | NORMAL | EYE | RIGHT | EEG | 1 | 2013-02-08 |", "score": 0.4261, "match_basis": "verbatim_token+domain_route:NV"}, {"md_atom_id": "md_dmNV_ex_a057", "md_file": "knowledge_base/domains/NV/examples.md", "md_atom_type": "TABLE_ROW", "md_parent_section": "§NV.2 [Example 2]", "md_verbatim": "| 7 | MS123 | NV | MS01-01 | 123 | OS | 7 | 2 | P100LAT | P100 Latency | VISUAL EVOKED POTENTIAL | 126 | msec | 126 | 126 | msec | 76.9 | 115.78 | ABNORMAL | EYE | LEFT | EEG | 1 | 2013-02-08 |", "score": 0.425, "match_basis": "verbatim_token+domain_route:NV"}, {"md_atom_id": "md_dmNV_ex_a052", "md_file": "knowledge_base/domains/NV/examples.md", "md_atom_type": "TABLE_ROW", "md_parent_section": "§NV.2 [Example 2]", "md_verbatim": "| 2 | MS123 | NV | MS01-01 | 123 | OD | 2 | 1 | P100LAT | P100 Latency | VISUAL EVOKED POTENTIAL | 129 | msec | 129 | 129 | msec | 76.75 | 113.71 | ABNORMAL | EYE | RIGHT | EEG | 1 | 2013-02-08 |", "score": 0.4247, "match_basis": "verbatim_token+domain_route:NV"}, {"md_atom_id": "md_dmNV_ex_a058", "md_file": "knowledge_base/domains/NV/examples.md", "md_atom_type": "TABLE_ROW", "md_parent_section": "§NV.2 [Example 2]", "md_verbatim": "| 8 | MS123 | NV | MS01-01 | 123 | OS | 8 | 2 | N145LAT | N145 Latency | VISUAL EVOKED POTENTIAL | 160 | msec | 160 | 160 | msec | 115.65 | 157.65 | ABNORMAL | EYE | LEFT | EEG | 1 | 2013-02-08 |", "score": 0.4247, "match_basis": "verbatim_token+domain_route:NV"}], "candidate_count": 5, "zero_candidate": false}
{"pdf_atom_id": "ig34_p0294_a024", "pdf_atom_type": "TABLE_ROW", "pdf_source": "SDTMIG_v3.4", "pdf_page": 294, "pdf_parent_section": "§6.3.7.4 Nervous System Findings (NV)", "pdf_verbatim": "| NVREFID | Reference ID | Char | | Identifier | Internal or external procedure identifier. | Perm |", "figure_ref": null, "candidates": [{"md_atom_id": "md_dmNV_ex_a023", "md_file": "knowledge_base/domains/NV/examples.md", "md_atom_type": "TABLE_ROW", "md_parent_section": "§NV.1 [Example 1]", "md_verbatim": "| 5 | ABC123 | NV | AD01-103 | NVSEQ | 1 | REFREG | Reference Region | PONS |", "score": 0.475, "match_basis": "verbatim_token+domain_route:NV"}, {"md_atom_id": "md_dmNV_ex_a024", "md_file": "knowledge_base/domains/NV/examples.md", "md_atom_type": "TABLE_ROW", "md_parent_section": "§NV.1 [Example 1]", "md_verbatim": "| 6 | ABC123 | NV | AD01-103 | NVSEQ | 2 | REFREG | Reference Region | PONS |", "score": 0.475, "match_basis": "verbatim_token+domain_route:NV"}, {"md_atom_id": "md_dmNV_ex_a019", "md_file": "knowledge_base/domains/NV/examples.md", "md_atom_type": "TABLE_ROW", "md_parent_section": "§NV.1 [Example 1]", "md_verbatim": "| 1 | ABC123 | NV | AD01-101 | NVSEQ | 1 | REFREG | Reference Region | CEREBELLUM |", "score": 0.4689, "match_basis": "verbatim_token+domain_route:NV"}, {"md_atom_id": "md_dmNV_ex_a020", "md_file": "knowledge_base/domains/NV/examples.md", "md_atom_type": "TABLE_ROW", "md_parent_section": "§NV.1 [Example 1]", "md_verbatim": "| 2 | ABC123 | NV | AD01-101 | NVSEQ | 2 | REFREG | Reference Region | CEREBELLUM |", "score": 0.4689, "match_basis": "verbatim_token+domain_route:NV"}, {"md_atom_id": "md_dmNV_ex_a021", "md_file": "knowledge_base/domains/NV/examples.md", "md_atom_type": "TABLE_ROW", "md_parent_section": "§NV.1 [Example 1]", "md_verbatim": "| 3 | ABC123 | NV | AD01-102 | NVSEQ | 1 | REFREG | Reference Region | CEREBELLUM |", "score": 0.4689, "match_basis": "verbatim_token+domain_route:NV"}], "candidate_count": 5, "zero_candidate": false}
{"pdf_atom_id": "ig34_p0294_a025", "pdf_atom_type": "TABLE_ROW", "pdf_source": "SDTMIG_v3.4", "pdf_page": 294, "pdf_parent_section": "§6.3.7.4 Nervous System Findings (NV)", "pdf_verbatim": "| NVSPID | Sponsor-Defined Identifier | Char | | Identifier | Sponsor-defined reference number. May be preprinted on the CRF as an explicit line identifier or defined in the sponsor's operational database. Example: Line number from the Procedure or Test page. | Perm |", "figure_ref": null, "candidates": [{"md_atom_id": "md_dmNV_ex_a023", "md_file": "knowledge_base/domains/NV/examples.md", "md_atom_type": "TABLE_ROW", "md_parent_section": "§NV.1 [Example 1]", "md_verbatim": "| 5 | ABC123 | NV | AD01-103 | NVSEQ | 1 | REFREG | Reference Region | PONS |", "score": 0.4653, "match_basis": "verbatim_token+domain_route:NV"}, {"md_atom_id": "md_dmNV_ex_a024", "md_file": "knowledge_base/domains/NV/examples.md", "md_atom_type": "TABLE_ROW", "md_parent_section": "§NV.1 [Example 1]", "md_verbatim": "| 6 | ABC123 | NV | AD01-103 | NVSEQ | 2 | REFREG | Reference Region | PONS |", "score": 0.4653, "match_basis": "verbatim_token+domain_route:NV"}, {"md_atom_id": "md_dmNV_ex_a019", "md_file": "knowledge_base/domains/NV/examples.md", "md_atom_type": "TABLE_ROW", "md_parent_section": "§NV.1 [Example 1]", "md_verbatim": "| 1 | ABC123 | NV | AD01-101 | NVSEQ | 1 | REFREG | Reference Region | CEREBELLUM |", "score": 0.45, "match_basis": "verbatim_token+domain_route:NV"}, {"md_atom_id": "md_dmNV_ex_a020", "md_file": "knowledge_base/domains/NV/examples.md", "md_atom_type": "TABLE_ROW", "md_parent_section": "§NV.1 [Example 1]", "md_verbatim": "| 2 | ABC123 | NV | AD01-101 | NVSEQ | 2 | REFREG | Reference Region | CEREBELLUM |", "score": 0.45, "match_basis": "verbatim_token+domain_route:NV"}, {"md_atom_id": "md_dmNV_ex_a021", "md_file": "knowledge_base/domains/NV/examples.md", "md_atom_type": "TABLE_ROW", "md_parent_section": "§NV.1 [Example 1]", "md_verbatim": "| 3 | ABC123 | NV | AD01-102 | NVSEQ | 1 | REFREG | Reference Region | CEREBELLUM |", "score": 0.45, "match_basis": "verbatim_token+domain_route:NV"}], "candidate_count": 5, "zero_candidate": false}
{"pdf_atom_id": "ig34_p0294_a026", "pdf_atom_type": "TABLE_ROW", "pdf_source": "SDTMIG_v3.4", "pdf_page": 294, "pdf_parent_section": "§6.3.7.4 Nervous System Findings (NV)", "pdf_verbatim": "| NVLNKID | Link ID | Char | | Identifier | Identifier used to link a procedure to the assessment results over the course of the study. | Perm |", "figure_ref": null, "candidates": [{"md_atom_id": "md_dmNV_ex_a036", "md_file": "knowledge_base/domains/NV/examples.md", "md_atom_type": "TABLE_ROW", "md_parent_section": "§NV.1 [Example 1]", "md_verbatim": "| 4 | ABC123 | NV | | NVLNKID | | MANY | 7 |", "score": 0.4536, "match_basis": "verbatim_token+domain_route:NV"}, {"md_atom_id": "md_dmNV_ex_a038", "md_file": "knowledge_base/domains/NV/examples.md", "md_atom_type": "TABLE_ROW", "md_parent_section": "§NV.1 [Example 1]", "md_verbatim": "| 6 | ABC123 | NV | | NVLNKID | | MANY | 8 |", "score": 0.4536, "match_basis": "verbatim_token+domain_route:NV"}, {"md_atom_id": "md_dmNV_ex_a039", "md_file": "knowledge_base/domains/NV/examples.md", "md_atom_type": "TABLE_ROW", "md_parent_section": "§NV.1 [Example 1]", "md_verbatim": "| 7 | ABC123 | NV | | NVLNKID | | MANY | 9 |", "score": 0.4536, "match_basis": "verbatim_token+domain_route:NV"}, {"md_atom_id": "md_dmNV_ex_a033", "md_file": "knowledge_base/domains/NV/examples.md", "md_atom_type": "TABLE_ROW", "md_parent_section": "§NV.1 [Example 1]", "md_verbatim": "| 1 | ABC123 | PR | | PRLNKID | | ONE | 6 |", "score": 0.4316, "match_basis": "verbatim_token+domain_route:NV"}, {"md_atom_id": "md_dmNV_ex_a034", "md_file": "knowledge_base/domains/NV/examples.md", "md_atom_type": "TABLE_ROW", "md_parent_section": "§NV.1 [Example 1]", "md_verbatim": "| 2 | ABC123 | AG | | AGLNKID | | ONE | 6 |", "score": 0.4316, "match_basis": "verbatim_token+domain_route:NV"}], "candidate_count": 5, "zero_candidate": false}
{"pdf_atom_id": "ig34_p0294_a027", "pdf_atom_type": "TABLE_ROW", "pdf_source": "SDTMIG_v3.4", "pdf_page": 294, "pdf_parent_section": "§6.3.7.4 Nervous System Findings (NV)", "pdf_verbatim": "| NVLNKGRP | Link Group | Char | | Identifier | Identifier used to link related records across domains. This will usually be a many-to-one relationship. | Perm |", "figure_ref": null, "candidates": [{"md_atom_id": "md_dmNV_ex_a036", "md_file": "knowledge_base/domains/NV/examples.md", "md_atom_type": "TABLE_ROW", "md_parent_section": "§NV.1 [Example 1]", "md_verbatim": "| 4 | ABC123 | NV | | NVLNKID | | MANY | 7 |", "score": 0.4435, "match_basis": "verbatim_token+domain_route:NV"}, {"md_atom_id": "md_dmNV_ex_a038", "md_file": "knowledge_base/domains/NV/examples.md", "md_atom_type": "TABLE_ROW", "md_parent_section": "§NV.1 [Example 1]", "md_verbatim": "| 6 | ABC123 | NV | | NVLNKID | | MANY | 8 |", "score": 0.4435, "match_basis": "verbatim_token+domain_route:NV"}, {"md_atom_id": "md_dmNV_ex_a039", "md_file": "knowledge_base/domains/NV/examples.md", "md_atom_type": "TABLE_ROW", "md_parent_section": "§NV.1 [Example 1]", "md_verbatim": "| 7 | ABC123 | NV | | NVLNKID | | MANY | 9 |", "score": 0.4435, "match_basis": "verbatim_token+domain_route:NV"}, {"md_atom_id": "md_dmNV_ex_a060", "md_file": "knowledge_base/domains/NV/examples.md", "md_atom_type": "TABLE_ROW", "md_parent_section": "§NV.2 [Example 2]", "md_verbatim": "| 10 | MS123 | NV | MS01-01 | 123 | OS | 10 | 2 | INTP | Interpretation | VISUAL EVOKED POTENTIAL | ABNORMAL | | ABNORMAL | | | | | | EYE | LEFT | EEG | 1 | 2013-02-08 |", "score": 0.4416, "match_basis": "verbatim_token+domain_route:NV"}, {"md_atom_id": "md_dmNV_ex_a055", "md_file": "knowledge_base/domains/NV/examples.md", "md_atom_type": "TABLE_ROW", "md_parent_section": "§NV.2 [Example 2]", "md_verbatim": "| 5 | MS123 | NV | MS01-01 | 123 | OD | 5 | 1 | INTP | Interpretation | VISUAL EVOKED POTENTIAL | ABNORMAL | | ABNORMAL | | | | | | EYE | RIGHT | EEG | 1 | 2013-02-08 |", "score": 0.4412, "match_basis": "verbatim_token+domain_route:NV"}], "candidate_count": 5, "zero_candidate": false}
{"pdf_atom_id": "ig34_p0294_a028", "pdf_atom_type": "TABLE_ROW", "pdf_source": "SDTMIG_v3.4", "pdf_page": 294, "pdf_parent_section": "§6.3.7.4 Nervous System Findings (NV)", "pdf_verbatim": "| NVTESTCD | Short Name of Nervous System Test | Char | (NVTESTCD) | Topic | Short name of the measurement, test, or examination described in NVTEST. It can be used as a column name when converting a dataset from a vertical to a horizontal format. The value in NVTESTCD cannot be longer than 8 characters, nor can it start with a number (e.g., \"1TEST\" is not valid). NVTESTCD cannot contain characters other than letters, numbers, or underscores. Examples: \"SUVR\", \"N75LAT\", \"P100LAT\",\"N145LAT\". | Req |", "figure_ref": null, "candidates": [{"md_atom_id": "md_dmNV_ex_a011", "md_file": "knowledge_base/domains/NV/examples.md", "md_atom_type": "TABLE_ROW", "md_parent_section": "§NV.1 [Example 1]", "md_verbatim": "| 2 | ABC123 | NV | AD01-101 | 22 | 2 | 1236 | 03 | SUVR | Standard Uptake Value Ratio | 1.17 | RATIO | 1.17 | 1.17 | RATIO | CINGULATE CORTEX | POSTERIOR | PET/CT SCAN | 1 | 2012-05-22 |", "score": 0.4481, "match_basis": "verbatim_token+domain_route:NV"}, {"md_atom_id": "md_dmNV_ex_a013", "md_file": "knowledge_base/domains/NV/examples.md", "md_atom_type": "TABLE_ROW", "md_parent_section": "§NV.1 [Example 1]", "md_verbatim": "| 4 | ABC123 | NV | AD01-102 | 22 | 2 | 1237 | 04 | SUVR | Standard Uptake Value Ratio | 1.78 | RATIO | 1.78 | 1.78 | RATIO | CINGULATE CORTEX | POSTERIOR | PET/CT SCAN | 1 | 2012-05-22 |", "score": 0.4481, "match_basis": "verbatim_token+domain_route:NV"}, {"md_atom_id": "md_dmNV_ex_a015", "md_file": "knowledge_base/domains/NV/examples.md", "md_atom_type": "TABLE_ROW", "md_parent_section": "§NV.1 [Example 1]", "md_verbatim": "| 6 | ABC123 | NV | AD01-103 | 44 | 2 | 1238 | 05 | SUVR | Standard Uptake Value Ratio | 1.63 | RATIO | 1.63 | 1.63 | RATIO | CINGULATE CORTEX | POSTERIOR | FDGPET | 1 | 2012-05-22 |", "score": 0.4444, "match_basis": "verbatim_token+domain_route:NV"}, {"md_atom_id": "md_dmNV_ex_a010", "md_file": "knowledge_base/domains/NV/examples.md", "md_atom_type": "TABLE_ROW", "md_parent_section": "§NV.1 [Example 1]", "md_verbatim": "| 1 | ABC123 | NV | AD01-101 | 22 | 1 | 1236 | 03 | SUVR | Standard Uptake Value Ratio | 0.95 | RATIO | 0.95 | 0.95 | RATIO | PRECUNEUS | | PET/CT SCAN | 1 | 2012-05-22 |", "score": 0.4297, "match_basis": "verbatim_token+domain_route:NV"}, {"md_atom_id": "md_dmNV_ex_a012", "md_file": "knowledge_base/domains/NV/examples.md", "md_atom_type": "TABLE_ROW", "md_parent_section": "§NV.1 [Example 1]", "md_verbatim": "| 3 | ABC123 | NV | AD01-102 | 22 | 1 | 1237 | 04 | SUVR | Standard Uptake Value Ratio | 1.21 | RATIO | 1.21 | 1.21 | RATIO | PRECUNEUS | | PET/CT SCAN | 1 | 2012-05-22 |", "score": 0.4297, "match_basis": "verbatim_token+domain_route:NV"}], "candidate_count": 5, "zero_candidate": false}
{"pdf_atom_id": "ig34_p0295_a001", "pdf_atom_type": "TABLE_ROW", "pdf_source": "SDTMIG_v3.4", "pdf_page": 295, "pdf_parent_section": "§6.3.7.4 Nervous System Findings (NV)", "pdf_verbatim": "| NVTEST | Name of Nervous System Test | Char | (NVTEST) | Synonym Qualifier | Verbatim name of the test or examination used to obtain the measurement or finding. The value in NVTEST cannot be longer than 40 characters. Examples: \"Standard Uptake Value Ratio\", \"N75 Latency\", \"P100 Latency\", \"N145 Latency\". | Req |", "figure_ref": null, "candidates": [{"md_atom_id": "md_dmNV_ex_a011", "md_file": "knowledge_base/domains/NV/examples.md", "md_atom_type": "TABLE_ROW", "md_parent_section": "§NV.1 [Example 1]", "md_verbatim": "| 2 | ABC123 | NV | AD01-101 | 22 | 2 | 1236 | 03 | SUVR | Standard Uptake Value Ratio | 1.17 | RATIO | 1.17 | 1.17 | RATIO | CINGULATE CORTEX | POSTERIOR | PET/CT SCAN | 1 | 2012-05-22 |", "score": 0.4971, "match_basis": "verbatim_token+domain_route:NV"}, {"md_atom_id": "md_dmNV_ex_a013", "md_file": "knowledge_base/domains/NV/examples.md", "md_atom_type": "TABLE_ROW", "md_parent_section": "§NV.1 [Example 1]", "md_verbatim": "| 4 | ABC123 | NV | AD01-102 | 22 | 2 | 1237 | 04 | SUVR | Standard Uptake Value Ratio | 1.78 | RATIO | 1.78 | 1.78 | RATIO | CINGULATE CORTEX | POSTERIOR | PET/CT SCAN | 1 | 2012-05-22 |", "score": 0.4971, "match_basis": "verbatim_token+domain_route:NV"}, {"md_atom_id": "md_dmNV_ex_a015", "md_file": "knowledge_base/domains/NV/examples.md", "md_atom_type": "TABLE_ROW", "md_parent_section": "§NV.1 [Example 1]", "md_verbatim": "| 6 | ABC123 | NV | AD01-103 | 44 | 2 | 1238 | 05 | SUVR | Standard Uptake Value Ratio | 1.63 | RATIO | 1.63 | 1.63 | RATIO | CINGULATE CORTEX | POSTERIOR | FDGPET | 1 | 2012-05-22 |", "score": 0.4913, "match_basis": "verbatim_token+domain_route:NV"}, {"md_atom_id": "md_dmNV_ex_a010", "md_file": "knowledge_base/domains/NV/examples.md", "md_atom_type": "TABLE_ROW", "md_parent_section": "§NV.1 [Example 1]", "md_verbatim": "| 1 | ABC123 | NV | AD01-101 | 22 | 1 | 1236 | 03 | SUVR | Standard Uptake Value Ratio | 0.95 | RATIO | 0.95 | 0.95 | RATIO | PRECUNEUS | | PET/CT SCAN | 1 | 2012-05-22 |", "score": 0.4785, "match_basis": "verbatim_token+domain_route:NV"}, {"md_atom_id": "md_dmNV_ex_a012", "md_file": "knowledge_base/domains/NV/examples.md", "md_atom_type": "TABLE_ROW", "md_parent_section": "§NV.1 [Example 1]", "md_verbatim": "| 3 | ABC123 | NV | AD01-102 | 22 | 1 | 1237 | 04 | SUVR | Standard Uptake Value Ratio | 1.21 | RATIO | 1.21 | 1.21 | RATIO | PRECUNEUS | | PET/CT SCAN | 1 | 2012-05-22 |", "score": 0.4785, "match_basis": "verbatim_token+domain_route:NV"}], "candidate_count": 5, "zero_candidate": false}
{"pdf_atom_id": "ig34_p0295_a002", "pdf_atom_type": "TABLE_ROW", "pdf_source": "SDTMIG_v3.4", "pdf_page": 295, "pdf_parent_section": "§6.3.7.4 Nervous System Findings (NV)", "pdf_verbatim": "| NVCAT | Category for Nervous System Test | Char | | Grouping Qualifier | Used to define a category of topic-variable values. Example: \"VISUAL EVOKED POTENTIAL\". | Perm |", "figure_ref": null, "candidates": [{"md_atom_id": "md_dmNV_ex_a059", "md_file": "knowledge_base/domains/NV/examples.md", "md_atom_type": "TABLE_ROW", "md_parent_section": "§NV.2 [Example 2]", "md_verbatim": "| 9 | MS123 | NV | MS01-01 | 123 | OS | 9 | 2 | P100AMP | P100 Amplitude | VISUAL EVOKED POTENTIAL | 4.37 | uV | 4.37 | 4.37 | uV | 4.78 | 12.7 | ABNORMAL | EYE | LEFT | EEG | 1 | 2013-02-08 |", "score": 0.501, "match_basis": "verbatim_token+domain_route:NV"}, {"md_atom_id": "md_dmNV_ex_a054", "md_file": "knowledge_base/domains/NV/examples.md", "md_atom_type": "TABLE_ROW", "md_parent_section": "§NV.2 [Example 2]", "md_verbatim": "| 4 | MS123 | NV | MS01-01 | 123 | OD | 4 | 1 | P100AMP | P100 Amplitude | VISUAL EVOKED POTENTIAL | 5.02 | uV | 5.02 | 5.02 | uV | 5.26 | 12.64 | ABNORMAL | EYE | RIGHT | EEG | 1 | 2013-02-08 |", "score": 0.5, "match_basis": "verbatim_token+domain_route:NV"}, {"md_atom_id": "md_dmNV_ex_a056", "md_file": "knowledge_base/domains/NV/examples.md", "md_atom_type": "TABLE_ROW", "md_parent_section": "§NV.2 [Example 2]", "md_verbatim": "| 6 | MS123 | NV | MS01-01 | 123 | OS | 6 | 2 | N75LAT | N75 Latency | VISUAL EVOKED POTENTIAL | 83.8 | msec | 83.8 | 83.8 | msec | 54.42 | 95.1 | NORMAL | EYE | LEFT | EEG | 1 | 2013-02-08 |", "score": 0.498, "match_basis": "verbatim_token+domain_route:NV"}, {"md_atom_id": "md_dmNV_ex_a051", "md_file": "knowledge_base/domains/NV/examples.md", "md_atom_type": "TABLE_ROW", "md_parent_section": "§NV.2 [Example 2]", "md_verbatim": "| 1 | MS123 | NV | MS01-01 | 123 | OD | 1 | 1 | N75LAT | N75 Latency | VISUAL EVOKED POTENTIAL | 79.8 | msec | 79.8 | 79.8 | msec | 54.68 | 94 | NORMAL | EYE | RIGHT | EEG | 1 | 2013-02-08 |", "score": 0.497, "match_basis": "verbatim_token+domain_route:NV"}, {"md_atom_id": "md_dmNV_ex_a057", "md_file": "knowledge_base/domains/NV/examples.md", "md_atom_type": "TABLE_ROW", "md_parent_section": "§NV.2 [Example 2]", "md_verbatim": "| 7 | MS123 | NV | MS01-01 | 123 | OS | 7 | 2 | P100LAT | P100 Latency | VISUAL EVOKED POTENTIAL | 126 | msec | 126 | 126 | msec | 76.9 | 115.78 | ABNORMAL | EYE | LEFT | EEG | 1 | 2013-02-08 |", "score": 0.4932, "match_basis": "verbatim_token+domain_route:NV"}], "candidate_count": 5, "zero_candidate": false}
{"pdf_atom_id": "ig34_p0295_a003", "pdf_atom_type": "TABLE_ROW", "pdf_source": "SDTMIG_v3.4", "pdf_page": 295, "pdf_parent_section": "§6.3.7.4 Nervous System Findings (NV)", "pdf_verbatim": "| NVSCAT | Subcategory for Nervous System Test | Char | | Grouping Qualifier | Used to define a further categorization of NVCAT values. | Perm |", "figure_ref": null, "candidates": [{"md_atom_id": "md_dmNV_ex_a011", "md_file": "knowledge_base/domains/NV/examples.md", "md_atom_type": "TABLE_ROW", "md_parent_section": "§NV.1 [Example 1]", "md_verbatim": "| 2 | ABC123 | NV | AD01-101 | 22 | 2 | 1236 | 03 | SUVR | Standard Uptake Value Ratio | 1.17 | RATIO | 1.17 | 1.17 | RATIO | CINGULATE CORTEX | POSTERIOR | PET/CT SCAN | 1 | 2012-05-22 |", "score": 0.4514, "match_basis": "verbatim_token+domain_route:NV"}, {"md_atom_id": "md_dmNV_ex_a013", "md_file": "knowledge_base/domains/NV/examples.md", "md_atom_type": "TABLE_ROW", "md_parent_section": "§NV.1 [Example 1]", "md_verbatim": "| 4 | ABC123 | NV | AD01-102 | 22 | 2 | 1237 | 04 | SUVR | Standard Uptake Value Ratio | 1.78 | RATIO | 1.78 | 1.78 | RATIO | CINGULATE CORTEX | POSTERIOR | PET/CT SCAN | 1 | 2012-05-22 |", "score": 0.4514, "match_basis": "verbatim_token+domain_route:NV"}, {"md_atom_id": "md_dmNV_ex_a015", "md_file": "knowledge_base/domains/NV/examples.md", "md_atom_type": "TABLE_ROW", "md_parent_section": "§NV.1 [Example 1]", "md_verbatim": "| 6 | ABC123 | NV | AD01-103 | 44 | 2 | 1238 | 05 | SUVR | Standard Uptake Value Ratio | 1.63 | RATIO | 1.63 | 1.63 | RATIO | CINGULATE CORTEX | POSTERIOR | FDGPET | 1 | 2012-05-22 |", "score": 0.4449, "match_basis": "verbatim_token+domain_route:NV"}, {"md_atom_id": "md_dmNV_ex_a010", "md_file": "knowledge_base/domains/NV/examples.md", "md_atom_type": "TABLE_ROW", "md_parent_section": "§NV.1 [Example 1]", "md_verbatim": "| 1 | ABC123 | NV | AD01-101 | 22 | 1 | 1236 | 03 | SUVR | Standard Uptake Value Ratio | 0.95 | RATIO | 0.95 | 0.95 | RATIO | PRECUNEUS | | PET/CT SCAN | 1 | 2012-05-22 |", "score": 0.4371, "match_basis": "verbatim_token+domain_route:NV"}, {"md_atom_id": "md_dmNV_ex_a012", "md_file": "knowledge_base/domains/NV/examples.md", "md_atom_type": "TABLE_ROW", "md_parent_section": "§NV.1 [Example 1]", "md_verbatim": "| 3 | ABC123 | NV | AD01-102 | 22 | 1 | 1237 | 04 | SUVR | Standard Uptake Value Ratio | 1.21 | RATIO | 1.21 | 1.21 | RATIO | PRECUNEUS | | PET/CT SCAN | 1 | 2012-05-22 |", "score": 0.4371, "match_basis": "verbatim_token+domain_route:NV"}], "candidate_count": 5, "zero_candidate": false}
{"pdf_atom_id": "ig34_p0295_a004", "pdf_atom_type": "TABLE_ROW", "pdf_source": "SDTMIG_v3.4", "pdf_page": 295, "pdf_parent_section": "§6.3.7.4 Nervous System Findings (NV)", "pdf_verbatim": "| NVORRES | Result or Finding in Original Units | Char | | Result Qualifier | Result of the procedure measurement or finding as originally received or collected. | Exp |", "figure_ref": null, "candidates": [{"md_atom_id": "md_dmNV_ex_a051", "md_file": "knowledge_base/domains/NV/examples.md", "md_atom_type": "TABLE_ROW", "md_parent_section": "§NV.2 [Example 2]", "md_verbatim": "| 1 | MS123 | NV | MS01-01 | 123 | OD | 1 | 1 | N75LAT | N75 Latency | VISUAL EVOKED POTENTIAL | 79.8 | msec | 79.8 | 79.8 | msec | 54.68 | 94 | NORMAL | EYE | RIGHT | EEG | 1 | 2013-02-08 |", "score": 0.418, "match_basis": "verbatim_token+domain_route:NV"}, {"md_atom_id": "md_dmNV_ex_a054", "md_file": "knowledge_base/domains/NV/examples.md", "md_atom_type": "TABLE_ROW", "md_parent_section": "§NV.2 [Example 2]", "md_verbatim": "| 4 | MS123 | NV | MS01-01 | 123 | OD | 4 | 1 | P100AMP | P100 Amplitude | VISUAL EVOKED POTENTIAL | 5.02 | uV | 5.02 | 5.02 | uV | 5.26 | 12.64 | ABNORMAL | EYE | RIGHT | EEG | 1 | 2013-02-08 |", "score": 0.4173, "match_basis": "verbatim_token+domain_route:NV"}, {"md_atom_id": "md_dmNV_ex_a052", "md_file": "knowledge_base/domains/NV/examples.md", "md_atom_type": "TABLE_ROW", "md_parent_section": "§NV.2 [Example 2]", "md_verbatim": "| 2 | MS123 | NV | MS01-01 | 123 | OD | 2 | 1 | P100LAT | P100 Latency | VISUAL EVOKED POTENTIAL | 129 | msec | 129 | 129 | msec | 76.75 | 113.71 | ABNORMAL | EYE | RIGHT | EEG | 1 | 2013-02-08 |", "score": 0.4171, "match_basis": "verbatim_token+domain_route:NV"}, {"md_atom_id": "md_dmNV_ex_a053", "md_file": "knowledge_base/domains/NV/examples.md", "md_atom_type": "TABLE_ROW", "md_parent_section": "§NV.2 [Example 2]", "md_verbatim": "| 3 | MS123 | NV | MS01-01 | 123 | OD | 3 | 1 | N145LAT | N145 Latency | VISUAL EVOKED POTENTIAL | 181 | msec | 181 | 181 | msec | 114.27 | 156.03 | ABNORMAL | EYE | RIGHT | EEG | 1 | 2013-02-08 |", "score": 0.417, "match_basis": "verbatim_token+domain_route:NV"}, {"md_atom_id": "md_dmNV_ex_a055", "md_file": "knowledge_base/domains/NV/examples.md", "md_atom_type": "TABLE_ROW", "md_parent_section": "§NV.2 [Example 2]", "md_verbatim": "| 5 | MS123 | NV | MS01-01 | 123 | OD | 5 | 1 | INTP | Interpretation | VISUAL EVOKED POTENTIAL | ABNORMAL | | ABNORMAL | | | | | | EYE | RIGHT | EEG | 1 | 2013-02-08 |", "score": 0.417, "match_basis": "verbatim_token+domain_route:NV"}], "candidate_count": 5, "zero_candidate": false}
{"pdf_atom_id": "ig34_p0295_a005", "pdf_atom_type": "TABLE_ROW", "pdf_source": "SDTMIG_v3.4", "pdf_page": 295, "pdf_parent_section": "§6.3.7.4 Nervous System Findings (NV)", "pdf_verbatim": "| NVORRESU | Original Units | Char | (UNIT) | Variable Qualifier | Original units in which the data were collected. The unit for NVORRES. | Perm |", "figure_ref": null, "candidates": [{"md_atom_id": "md_dmNV_ex_a051", "md_file": "knowledge_base/domains/NV/examples.md", "md_atom_type": "TABLE_ROW", "md_parent_section": "§NV.2 [Example 2]", "md_verbatim": "| 1 | MS123 | NV | MS01-01 | 123 | OD | 1 | 1 | N75LAT | N75 Latency | VISUAL EVOKED POTENTIAL | 79.8 | msec | 79.8 | 79.8 | msec | 54.68 | 94 | NORMAL | EYE | RIGHT | EEG | 1 | 2013-02-08 |", "score": 0.414, "match_basis": "verbatim_token+domain_route:NV"}, {"md_atom_id": "md_dmNV_ex_a054", "md_file": "knowledge_base/domains/NV/examples.md", "md_atom_type": "TABLE_ROW", "md_parent_section": "§NV.2 [Example 2]", "md_verbatim": "| 4 | MS123 | NV | MS01-01 | 123 | OD | 4 | 1 | P100AMP | P100 Amplitude | VISUAL EVOKED POTENTIAL | 5.02 | uV | 5.02 | 5.02 | uV | 5.26 | 12.64 | ABNORMAL | EYE | RIGHT | EEG | 1 | 2013-02-08 |", "score": 0.4133, "match_basis": "verbatim_token+domain_route:NV"}, {"md_atom_id": "md_dmNV_ex_a052", "md_file": "knowledge_base/domains/NV/examples.md", "md_atom_type": "TABLE_ROW", "md_parent_section": "§NV.2 [Example 2]", "md_verbatim": "| 2 | MS123 | NV | MS01-01 | 123 | OD | 2 | 1 | P100LAT | P100 Latency | VISUAL EVOKED POTENTIAL | 129 | msec | 129 | 129 | msec | 76.75 | 113.71 | ABNORMAL | EYE | RIGHT | EEG | 1 | 2013-02-08 |", "score": 0.4132, "match_basis": "verbatim_token+domain_route:NV"}, {"md_atom_id": "md_dmNV_ex_a053", "md_file": "knowledge_base/domains/NV/examples.md", "md_atom_type": "TABLE_ROW", "md_parent_section": "§NV.2 [Example 2]", "md_verbatim": "| 3 | MS123 | NV | MS01-01 | 123 | OD | 3 | 1 | N145LAT | N145 Latency | VISUAL EVOKED POTENTIAL | 181 | msec | 181 | 181 | msec | 114.27 | 156.03 | ABNORMAL | EYE | RIGHT | EEG | 1 | 2013-02-08 |", "score": 0.413, "match_basis": "verbatim_token+domain_route:NV"}, {"md_atom_id": "md_dmNV_ex_a055", "md_file": "knowledge_base/domains/NV/examples.md", "md_atom_type": "TABLE_ROW", "md_parent_section": "§NV.2 [Example 2]", "md_verbatim": "| 5 | MS123 | NV | MS01-01 | 123 | OD | 5 | 1 | INTP | Interpretation | VISUAL EVOKED POTENTIAL | ABNORMAL | | ABNORMAL | | | | | | EYE | RIGHT | EEG | 1 | 2013-02-08 |", "score": 0.413, "match_basis": "verbatim_token+domain_route:NV"}], "candidate_count": 5, "zero_candidate": false}
{"pdf_atom_id": "ig34_p0295_a006", "pdf_atom_type": "TABLE_ROW", "pdf_source": "SDTMIG_v3.4", "pdf_page": 295, "pdf_parent_section": "§6.3.7.4 Nervous System Findings (NV)", "pdf_verbatim": "| NVSTRESC | Character Result/Finding in Std Format | Char | | Result Qualifier | Contains the result value for all findings copied or derived from NVORRES, in a standard format or standard units. NVSTRESC should store all results or findings in character format; if results are numeric, they should also be stored in numeric format in NVSTRESN. | Exp |", "figure_ref": null, "candidates": [{"md_atom_id": "md_dmNV_ex_a011", "md_file": "knowledge_base/domains/NV/examples.md", "md_atom_type": "TABLE_ROW", "md_parent_section": "§NV.1 [Example 1]", "md_verbatim": "| 2 | ABC123 | NV | AD01-101 | 22 | 2 | 1236 | 03 | SUVR | Standard Uptake Value Ratio | 1.17 | RATIO | 1.17 | 1.17 | RATIO | CINGULATE CORTEX | POSTERIOR | PET/CT SCAN | 1 | 2012-05-22 |", "score": 0.4576, "match_basis": "verbatim_token+domain_route:NV"}, {"md_atom_id": "md_dmNV_ex_a013", "md_file": "knowledge_base/domains/NV/examples.md", "md_atom_type": "TABLE_ROW", "md_parent_section": "§NV.1 [Example 1]", "md_verbatim": "| 4 | ABC123 | NV | AD01-102 | 22 | 2 | 1237 | 04 | SUVR | Standard Uptake Value Ratio | 1.78 | RATIO | 1.78 | 1.78 | RATIO | CINGULATE CORTEX | POSTERIOR | PET/CT SCAN | 1 | 2012-05-22 |", "score": 0.4576, "match_basis": "verbatim_token+domain_route:NV"}, {"md_atom_id": "md_dmNV_ex_a015", "md_file": "knowledge_base/domains/NV/examples.md", "md_atom_type": "TABLE_ROW", "md_parent_section": "§NV.1 [Example 1]", "md_verbatim": "| 6 | ABC123 | NV | AD01-103 | 44 | 2 | 1238 | 05 | SUVR | Standard Uptake Value Ratio | 1.63 | RATIO | 1.63 | 1.63 | RATIO | CINGULATE CORTEX | POSTERIOR | FDGPET | 1 | 2012-05-22 |", "score": 0.4571, "match_basis": "verbatim_token+domain_route:NV"}, {"md_atom_id": "md_dmNV_ex_a010", "md_file": "knowledge_base/domains/NV/examples.md", "md_atom_type": "TABLE_ROW", "md_parent_section": "§NV.1 [Example 1]", "md_verbatim": "| 1 | ABC123 | NV | AD01-101 | 22 | 1 | 1236 | 03 | SUVR | Standard Uptake Value Ratio | 0.95 | RATIO | 0.95 | 0.95 | RATIO | PRECUNEUS | | PET/CT SCAN | 1 | 2012-05-22 |", "score": 0.4462, "match_basis": "verbatim_token+domain_route:NV"}, {"md_atom_id": "md_dmNV_ex_a012", "md_file": "knowledge_base/domains/NV/examples.md", "md_atom_type": "TABLE_ROW", "md_parent_section": "§NV.1 [Example 1]", "md_verbatim": "| 3 | ABC123 | NV | AD01-102 | 22 | 1 | 1237 | 04 | SUVR | Standard Uptake Value Ratio | 1.21 | RATIO | 1.21 | 1.21 | RATIO | PRECUNEUS | | PET/CT SCAN | 1 | 2012-05-22 |", "score": 0.4462, "match_basis": "verbatim_token+domain_route:NV"}], "candidate_count": 5, "zero_candidate": false}
{"pdf_atom_id": "ig34_p0295_a007", "pdf_atom_type": "TABLE_ROW", "pdf_source": "SDTMIG_v3.4", "pdf_page": 295, "pdf_parent_section": "§6.3.7.4 Nervous System Findings (NV)", "pdf_verbatim": "| NVSTRESN | Numeric Result/Finding in Standard Units | Num | | Result Qualifier | Used for continuous or numeric results or findings in standard format; copied in numeric format from NVSTRESC. NVSTRESN should store all numeric test results or findings. | Perm |", "figure_ref": null, "candidates": [{"md_atom_id": "md_dmNV_ex_a011", "md_file": "knowledge_base/domains/NV/examples.md", "md_atom_type": "TABLE_ROW", "md_parent_section": "§NV.1 [Example 1]", "md_verbatim": "| 2 | ABC123 | NV | AD01-101 | 22 | 2 | 1236 | 03 | SUVR | Standard Uptake Value Ratio | 1.17 | RATIO | 1.17 | 1.17 | RATIO | CINGULATE CORTEX | POSTERIOR | PET/CT SCAN | 1 | 2012-05-22 |", "score": 0.4432, "match_basis": "verbatim_token+domain_route:NV"}, {"md_atom_id": "md_dmNV_ex_a013", "md_file": "knowledge_base/domains/NV/examples.md", "md_atom_type": "TABLE_ROW", "md_parent_section": "§NV.1 [Example 1]", "md_verbatim": "| 4 | ABC123 | NV | AD01-102 | 22 | 2 | 1237 | 04 | SUVR | Standard Uptake Value Ratio | 1.78 | RATIO | 1.78 | 1.78 | RATIO | CINGULATE CORTEX | POSTERIOR | PET/CT SCAN | 1 | 2012-05-22 |", "score": 0.4432, "match_basis": "verbatim_token+domain_route:NV"}, {"md_atom_id": "md_dmNV_ex_a015", "md_file": "knowledge_base/domains/NV/examples.md", "md_atom_type": "TABLE_ROW", "md_parent_section": "§NV.1 [Example 1]", "md_verbatim": "| 6 | ABC123 | NV | AD01-103 | 44 | 2 | 1238 | 05 | SUVR | Standard Uptake Value Ratio | 1.63 | RATIO | 1.63 | 1.63 | RATIO | CINGULATE CORTEX | POSTERIOR | FDGPET | 1 | 2012-05-22 |", "score": 0.4429, "match_basis": "verbatim_token+domain_route:NV"}, {"md_atom_id": "md_dmNV_ex_a010", "md_file": "knowledge_base/domains/NV/examples.md", "md_atom_type": "TABLE_ROW", "md_parent_section": "§NV.1 [Example 1]", "md_verbatim": "| 1 | ABC123 | NV | AD01-101 | 22 | 1 | 1236 | 03 | SUVR | Standard Uptake Value Ratio | 0.95 | RATIO | 0.95 | 0.95 | RATIO | PRECUNEUS | | PET/CT SCAN | 1 | 2012-05-22 |", "score": 0.4353, "match_basis": "verbatim_token+domain_route:NV"}, {"md_atom_id": "md_dmNV_ex_a012", "md_file": "knowledge_base/domains/NV/examples.md", "md_atom_type": "TABLE_ROW", "md_parent_section": "§NV.1 [Example 1]", "md_verbatim": "| 3 | ABC123 | NV | AD01-102 | 22 | 1 | 1237 | 04 | SUVR | Standard Uptake Value Ratio | 1.21 | RATIO | 1.21 | 1.21 | RATIO | PRECUNEUS | | PET/CT SCAN | 1 | 2012-05-22 |", "score": 0.4353, "match_basis": "verbatim_token+domain_route:NV"}], "candidate_count": 5, "zero_candidate": false}
{"pdf_atom_id": "ig34_p0295_a008", "pdf_atom_type": "TABLE_ROW", "pdf_source": "SDTMIG_v3.4", "pdf_page": 295, "pdf_parent_section": "§6.3.7.4 Nervous System Findings (NV)", "pdf_verbatim": "| NVSTRESU | Standard Units | Char | (UNIT) | Variable Qualifier | Standardized unit used for NVSTRESC or NVSTRESN. | Perm |", "figure_ref": null, "candidates": [{"md_atom_id": "md_dmNV_ex_a010", "md_file": "knowledge_base/domains/NV/examples.md", "md_atom_type": "TABLE_ROW", "md_parent_section": "§NV.1 [Example 1]", "md_verbatim": "| 1 | ABC123 | NV | AD01-101 | 22 | 1 | 1236 | 03 | SUVR | Standard Uptake Value Ratio | 0.95 | RATIO | 0.95 | 0.95 | RATIO | PRECUNEUS | | PET/CT SCAN | 1 | 2012-05-22 |", "score": 0.4493, "match_basis": "verbatim_token+domain_route:NV"}, {"md_atom_id": "md_dmNV_ex_a012", "md_file": "knowledge_base/domains/NV/examples.md", "md_atom_type": "TABLE_ROW", "md_parent_section": "§NV.1 [Example 1]", "md_verbatim": "| 3 | ABC123 | NV | AD01-102 | 22 | 1 | 1237 | 04 | SUVR | Standard Uptake Value Ratio | 1.21 | RATIO | 1.21 | 1.21 | RATIO | PRECUNEUS | | PET/CT SCAN | 1 | 2012-05-22 |", "score": 0.4493, "match_basis": "verbatim_token+domain_route:NV"}, {"md_atom_id": "md_dmNV_ex_a014", "md_file": "knowledge_base/domains/NV/examples.md", "md_atom_type": "TABLE_ROW", "md_parent_section": "§NV.1 [Example 1]", "md_verbatim": "| 5 | ABC123 | NV | AD01-103 | 44 | 1 | 1238 | 05 | SUVR | Standard Uptake Value Ratio | 1.52 | RATIO | 1.52 | 1.52 | RATIO | PRECUNEUS | | FDGPET | 1 | 2012-05-22 |", "score": 0.4486, "match_basis": "verbatim_token+domain_route:NV"}, {"md_atom_id": "md_dmNV_ex_a011", "md_file": "knowledge_base/domains/NV/examples.md", "md_atom_type": "TABLE_ROW", "md_parent_section": "§NV.1 [Example 1]", "md_verbatim": "| 2 | ABC123 | NV | AD01-101 | 22 | 2 | 1236 | 03 | SUVR | Standard Uptake Value Ratio | 1.17 | RATIO | 1.17 | 1.17 | RATIO | CINGULATE CORTEX | POSTERIOR | PET/CT SCAN | 1 | 2012-05-22 |", "score": 0.4429, "match_basis": "verbatim_token+domain_route:NV"}, {"md_atom_id": "md_dmNV_ex_a013", "md_file": "knowledge_base/domains/NV/examples.md", "md_atom_type": "TABLE_ROW", "md_parent_section": "§NV.1 [Example 1]", "md_verbatim": "| 4 | ABC123 | NV | AD01-102 | 22 | 2 | 1237 | 04 | SUVR | Standard Uptake Value Ratio | 1.78 | RATIO | 1.78 | 1.78 | RATIO | CINGULATE CORTEX | POSTERIOR | PET/CT SCAN | 1 | 2012-05-22 |", "score": 0.4429, "match_basis": "verbatim_token+domain_route:NV"}], "candidate_count": 5, "zero_candidate": false}
{"pdf_atom_id": "ig34_p0295_a009", "pdf_atom_type": "TABLE_ROW", "pdf_source": "SDTMIG_v3.4", "pdf_page": 295, "pdf_parent_section": "§6.3.7.4 Nervous System Findings (NV)", "pdf_verbatim": "| NVSTAT | Completion Status | Char | (ND) | Record Qualifier | Used to indicate a test was not done, or a measurement was not taken. Should be null if a result exists in NVORRES. | Perm |", "figure_ref": null, "candidates": [{"md_atom_id": "md_dmNV_ex_a011", "md_file": "knowledge_base/domains/NV/examples.md", "md_atom_type": "TABLE_ROW", "md_parent_section": "§NV.1 [Example 1]", "md_verbatim": "| 2 | ABC123 | NV | AD01-101 | 22 | 2 | 1236 | 03 | SUVR | Standard Uptake Value Ratio | 1.17 | RATIO | 1.17 | 1.17 | RATIO | CINGULATE CORTEX | POSTERIOR | PET/CT SCAN | 1 | 2012-05-22 |", "score": 0.431, "match_basis": "verbatim_token+domain_route:NV"}, {"md_atom_id": "md_dmNV_ex_a013", "md_file": "knowledge_base/domains/NV/examples.md", "md_atom_type": "TABLE_ROW", "md_parent_section": "§NV.1 [Example 1]", "md_verbatim": "| 4 | ABC123 | NV | AD01-102 | 22 | 2 | 1237 | 04 | SUVR | Standard Uptake Value Ratio | 1.78 | RATIO | 1.78 | 1.78 | RATIO | CINGULATE CORTEX | POSTERIOR | PET/CT SCAN | 1 | 2012-05-22 |", "score": 0.431, "match_basis": "verbatim_token+domain_route:NV"}, {"md_atom_id": "md_dmNV_ex_a015", "md_file": "knowledge_base/domains/NV/examples.md", "md_atom_type": "TABLE_ROW", "md_parent_section": "§NV.1 [Example 1]", "md_verbatim": "| 6 | ABC123 | NV | AD01-103 | 44 | 2 | 1238 | 05 | SUVR | Standard Uptake Value Ratio | 1.63 | RATIO | 1.63 | 1.63 | RATIO | CINGULATE CORTEX | POSTERIOR | FDGPET | 1 | 2012-05-22 |", "score": 0.4308, "match_basis": "verbatim_token+domain_route:NV"}, {"md_atom_id": "md_dmNV_ex_a010", "md_file": "knowledge_base/domains/NV/examples.md", "md_atom_type": "TABLE_ROW", "md_parent_section": "§NV.1 [Example 1]", "md_verbatim": "| 1 | ABC123 | NV | AD01-101 | 22 | 1 | 1236 | 03 | SUVR | Standard Uptake Value Ratio | 0.95 | RATIO | 0.95 | 0.95 | RATIO | PRECUNEUS | | PET/CT SCAN | 1 | 2012-05-22 |", "score": 0.4283, "match_basis": "verbatim_token+domain_route:NV"}, {"md_atom_id": "md_dmNV_ex_a012", "md_file": "knowledge_base/domains/NV/examples.md", "md_atom_type": "TABLE_ROW", "md_parent_section": "§NV.1 [Example 1]", "md_verbatim": "| 3 | ABC123 | NV | AD01-102 | 22 | 1 | 1237 | 04 | SUVR | Standard Uptake Value Ratio | 1.21 | RATIO | 1.21 | 1.21 | RATIO | PRECUNEUS | | PET/CT SCAN | 1 | 2012-05-22 |", "score": 0.4283, "match_basis": "verbatim_token+domain_route:NV"}], "candidate_count": 5, "zero_candidate": false}
{"pdf_atom_id": "ig34_p0295_a010", "pdf_atom_type": "TABLE_ROW", "pdf_source": "SDTMIG_v3.4", "pdf_page": 295, "pdf_parent_section": "§6.3.7.4 Nervous System Findings (NV)", "pdf_verbatim": "| NVREASND | Reason Not Done | Char | | Record Qualifier | Describes why a measurement or test was not performed. Examples: \"BROKEN EQUIPMENT\", \"SUBJECT REFUSED\". Used in conjunction with NVSTAT when value is \"NOT DONE\". | Perm |", "figure_ref": null, "candidates": [{"md_atom_id": "md_dmNV_ex_a060", "md_file": "knowledge_base/domains/NV/examples.md", "md_atom_type": "TABLE_ROW", "md_parent_section": "§NV.2 [Example 2]", "md_verbatim": "| 10 | MS123 | NV | MS01-01 | 123 | OS | 10 | 2 | INTP | Interpretation | VISUAL EVOKED POTENTIAL | ABNORMAL | | ABNORMAL | | | | | | EYE | LEFT | EEG | 1 | 2013-02-08 |", "score": 0.4313, "match_basis": "verbatim_token+domain_route:NV"}, {"md_atom_id": "md_dmNV_ex_a055", "md_file": "knowledge_base/domains/NV/examples.md", "md_atom_type": "TABLE_ROW", "md_parent_section": "§NV.2 [Example 2]", "md_verbatim": "| 5 | MS123 | NV | MS01-01 | 123 | OD | 5 | 1 | INTP | Interpretation | VISUAL EVOKED POTENTIAL | ABNORMAL | | ABNORMAL | | | | | | EYE | RIGHT | EEG | 1 | 2013-02-08 |", "score": 0.4311, "match_basis": "verbatim_token+domain_route:NV"}, {"md_atom_id": "md_dmNV_ex_a010", "md_file": "knowledge_base/domains/NV/examples.md", "md_atom_type": "TABLE_ROW", "md_parent_section": "§NV.1 [Example 1]", "md_verbatim": "| 1 | ABC123 | NV | AD01-101 | 22 | 1 | 1236 | 03 | SUVR | Standard Uptake Value Ratio | 0.95 | RATIO | 0.95 | 0.95 | RATIO | PRECUNEUS | | PET/CT SCAN | 1 | 2012-05-22 |", "score": 0.4281, "match_basis": "verbatim_token+domain_route:NV"}, {"md_atom_id": "md_dmNV_ex_a012", "md_file": "knowledge_base/domains/NV/examples.md", "md_atom_type": "TABLE_ROW", "md_parent_section": "§NV.1 [Example 1]", "md_verbatim": "| 3 | ABC123 | NV | AD01-102 | 22 | 1 | 1237 | 04 | SUVR | Standard Uptake Value Ratio | 1.21 | RATIO | 1.21 | 1.21 | RATIO | PRECUNEUS | | PET/CT SCAN | 1 | 2012-05-22 |", "score": 0.4281, "match_basis": "verbatim_token+domain_route:NV"}, {"md_atom_id": "md_dmNV_ex_a014", "md_file": "knowledge_base/domains/NV/examples.md", "md_atom_type": "TABLE_ROW", "md_parent_section": "§NV.1 [Example 1]", "md_verbatim": "| 5 | ABC123 | NV | AD01-103 | 44 | 1 | 1238 | 05 | SUVR | Standard Uptake Value Ratio | 1.52 | RATIO | 1.52 | 1.52 | RATIO | PRECUNEUS | | FDGPET | 1 | 2012-05-22 |", "score": 0.4279, "match_basis": "verbatim_token+domain_route:NV"}], "candidate_count": 5, "zero_candidate": false}
{"pdf_atom_id": "ig34_p0295_a011", "pdf_atom_type": "TABLE_ROW", "pdf_source": "SDTMIG_v3.4", "pdf_page": 295, "pdf_parent_section": "§6.3.7.4 Nervous System Findings (NV)", "pdf_verbatim": "| NVLOC | Location Used for the Measurement | Char | (LOC) | Record Qualifier | Anatomical location of the subject relevant to the collection of the measurement. Examples: \"BRAIN\", \"EYE\", \"PRECUNEUS\", \"CINGULATE CORTEX\". | Perm |", "figure_ref": null, "candidates": [{"md_atom_id": "md_dmNV_ex_a011", "md_file": "knowledge_base/domains/NV/examples.md", "md_atom_type": "TABLE_ROW", "md_parent_section": "§NV.1 [Example 1]", "md_verbatim": "| 2 | ABC123 | NV | AD01-101 | 22 | 2 | 1236 | 03 | SUVR | Standard Uptake Value Ratio | 1.17 | RATIO | 1.17 | 1.17 | RATIO | CINGULATE CORTEX | POSTERIOR | PET/CT SCAN | 1 | 2012-05-22 |", "score": 0.4639, "match_basis": "verbatim_token+domain_route:NV"}, {"md_atom_id": "md_dmNV_ex_a013", "md_file": "knowledge_base/domains/NV/examples.md", "md_atom_type": "TABLE_ROW", "md_parent_section": "§NV.1 [Example 1]", "md_verbatim": "| 4 | ABC123 | NV | AD01-102 | 22 | 2 | 1237 | 04 | SUVR | Standard Uptake Value Ratio | 1.78 | RATIO | 1.78 | 1.78 | RATIO | CINGULATE CORTEX | POSTERIOR | PET/CT SCAN | 1 | 2012-05-22 |", "score": 0.4639, "match_basis": "verbatim_token+domain_route:NV"}, {"md_atom_id": "md_dmNV_ex_a015", "md_file": "knowledge_base/domains/NV/examples.md", "md_atom_type": "TABLE_ROW", "md_parent_section": "§NV.1 [Example 1]", "md_verbatim": "| 6 | ABC123 | NV | AD01-103 | 44 | 2 | 1238 | 05 | SUVR | Standard Uptake Value Ratio | 1.63 | RATIO | 1.63 | 1.63 | RATIO | CINGULATE CORTEX | POSTERIOR | FDGPET | 1 | 2012-05-22 |", "score": 0.4634, "match_basis": "verbatim_token+domain_route:NV"}, {"md_atom_id": "md_dmNV_ex_a010", "md_file": "knowledge_base/domains/NV/examples.md", "md_atom_type": "TABLE_ROW", "md_parent_section": "§NV.1 [Example 1]", "md_verbatim": "| 1 | ABC123 | NV | AD01-101 | 22 | 1 | 1236 | 03 | SUVR | Standard Uptake Value Ratio | 0.95 | RATIO | 0.95 | 0.95 | RATIO | PRECUNEUS | | PET/CT SCAN | 1 | 2012-05-22 |", "score": 0.447, "match_basis": "verbatim_token+domain_route:NV"}, {"md_atom_id": "md_dmNV_ex_a012", "md_file": "knowledge_base/domains/NV/examples.md", "md_atom_type": "TABLE_ROW", "md_parent_section": "§NV.1 [Example 1]", "md_verbatim": "| 3 | ABC123 | NV | AD01-102 | 22 | 1 | 1237 | 04 | SUVR | Standard Uptake Value Ratio | 1.21 | RATIO | 1.21 | 1.21 | RATIO | PRECUNEUS | | PET/CT SCAN | 1 | 2012-05-22 |", "score": 0.447, "match_basis": "verbatim_token+domain_route:NV"}], "candidate_count": 5, "zero_candidate": false}
{"pdf_atom_id": "ig34_p0295_a012", "pdf_atom_type": "TABLE_ROW", "pdf_source": "SDTMIG_v3.4", "pdf_page": 295, "pdf_parent_section": "§6.3.7.4 Nervous System Findings (NV)", "pdf_verbatim": "| NVLAT | Laterality | Char | (LAT) | Variable Qualifier | Qualifier for anatomical location or specimen further detailing laterality. Examples: \"RIGHT\", \"LEFT\", \"BILATERAL\". | Perm |", "figure_ref": null, "candidates": [{"md_atom_id": "md_dmNV_ex_a055", "md_file": "knowledge_base/domains/NV/examples.md", "md_atom_type": "TABLE_ROW", "md_parent_section": "§NV.2 [Example 2]", "md_verbatim": "| 5 | MS123 | NV | MS01-01 | 123 | OD | 5 | 1 | INTP | Interpretation | VISUAL EVOKED POTENTIAL | ABNORMAL | | ABNORMAL | | | | | | EYE | RIGHT | EEG | 1 | 2013-02-08 |", "score": 0.4495, "match_basis": "verbatim_token+domain_route:NV"}, {"md_atom_id": "md_dmNV_ex_a060", "md_file": "knowledge_base/domains/NV/examples.md", "md_atom_type": "TABLE_ROW", "md_parent_section": "§NV.2 [Example 2]", "md_verbatim": "| 10 | MS123 | NV | MS01-01 | 123 | OS | 10 | 2 | INTP | Interpretation | VISUAL EVOKED POTENTIAL | ABNORMAL | | ABNORMAL | | | | | | EYE | LEFT | EEG | 1 | 2013-02-08 |", "score": 0.444, "match_basis": "verbatim_token+domain_route:NV"}, {"md_atom_id": "md_dmNV_ex_a054", "md_file": "knowledge_base/domains/NV/examples.md", "md_atom_type": "TABLE_ROW", "md_parent_section": "§NV.2 [Example 2]", "md_verbatim": "| 4 | MS123 | NV | MS01-01 | 123 | OD | 4 | 1 | P100AMP | P100 Amplitude | VISUAL EVOKED POTENTIAL | 5.02 | uV | 5.02 | 5.02 | uV | 5.26 | 12.64 | ABNORMAL | EYE | RIGHT | EEG | 1 | 2013-02-08 |", "score": 0.4385, "match_basis": "verbatim_token+domain_route:NV"}, {"md_atom_id": "md_dmNV_ex_a051", "md_file": "knowledge_base/domains/NV/examples.md", "md_atom_type": "TABLE_ROW", "md_parent_section": "§NV.2 [Example 2]", "md_verbatim": "| 1 | MS123 | NV | MS01-01 | 123 | OD | 1 | 1 | N75LAT | N75 Latency | VISUAL EVOKED POTENTIAL | 79.8 | msec | 79.8 | 79.8 | msec | 54.68 | 94 | NORMAL | EYE | RIGHT | EEG | 1 | 2013-02-08 |", "score": 0.434, "match_basis": "verbatim_token+domain_route:NV"}, {"md_atom_id": "md_dmNV_ex_a059", "md_file": "knowledge_base/domains/NV/examples.md", "md_atom_type": "TABLE_ROW", "md_parent_section": "§NV.2 [Example 2]", "md_verbatim": "| 9 | MS123 | NV | MS01-01 | 123 | OS | 9 | 2 | P100AMP | P100 Amplitude | VISUAL EVOKED POTENTIAL | 4.37 | uV | 4.37 | 4.37 | uV | 4.78 | 12.7 | ABNORMAL | EYE | LEFT | EEG | 1 | 2013-02-08 |", "score": 0.433, "match_basis": "verbatim_token+domain_route:NV"}], "candidate_count": 5, "zero_candidate": false}
{"pdf_atom_id": "ig34_p0295_a013", "pdf_atom_type": "TABLE_ROW", "pdf_source": "SDTMIG_v3.4", "pdf_page": 295, "pdf_parent_section": "§6.3.7.4 Nervous System Findings (NV)", "pdf_verbatim": "| NVDIR | Directionality | Char | (DIR) | Variable Qualifier | Qualifier for anatomical location or specimen further detailing directionality. Examples: \"ANTERIOR\", \"LOWER\", \"PROXIMAL\". | Perm |", "figure_ref": null, "candidates": [{"md_atom_id": "md_dmNV_ex_a060", "md_file": "knowledge_base/domains/NV/examples.md", "md_atom_type": "TABLE_ROW", "md_parent_section": "§NV.2 [Example 2]", "md_verbatim": "| 10 | MS123 | NV | MS01-01 | 123 | OS | 10 | 2 | INTP | Interpretation | VISUAL EVOKED POTENTIAL | ABNORMAL | | ABNORMAL | | | | | | EYE | LEFT | EEG | 1 | 2013-02-08 |", "score": 0.4403, "match_basis": "verbatim_token+domain_route:NV"}, {"md_atom_id": "md_dmNV_ex_a055", "md_file": "knowledge_base/domains/NV/examples.md", "md_atom_type": "TABLE_ROW", "md_parent_section": "§NV.2 [Example 2]", "md_verbatim": "| 5 | MS123 | NV | MS01-01 | 123 | OD | 5 | 1 | INTP | Interpretation | VISUAL EVOKED POTENTIAL | ABNORMAL | | ABNORMAL | | | | | | EYE | RIGHT | EEG | 1 | 2013-02-08 |", "score": 0.44, "match_basis": "verbatim_token+domain_route:NV"}, {"md_atom_id": "md_dmNV_ex_a011", "md_file": "knowledge_base/domains/NV/examples.md", "md_atom_type": "TABLE_ROW", "md_parent_section": "§NV.1 [Example 1]", "md_verbatim": "| 2 | ABC123 | NV | AD01-101 | 22 | 2 | 1236 | 03 | SUVR | Standard Uptake Value Ratio | 1.17 | RATIO | 1.17 | 1.17 | RATIO | CINGULATE CORTEX | POSTERIOR | PET/CT SCAN | 1 | 2012-05-22 |", "score": 0.4339, "match_basis": "verbatim_token+domain_route:NV"}, {"md_atom_id": "md_dmNV_ex_a013", "md_file": "knowledge_base/domains/NV/examples.md", "md_atom_type": "TABLE_ROW", "md_parent_section": "§NV.1 [Example 1]", "md_verbatim": "| 4 | ABC123 | NV | AD01-102 | 22 | 2 | 1237 | 04 | SUVR | Standard Uptake Value Ratio | 1.78 | RATIO | 1.78 | 1.78 | RATIO | CINGULATE CORTEX | POSTERIOR | PET/CT SCAN | 1 | 2012-05-22 |", "score": 0.4339, "match_basis": "verbatim_token+domain_route:NV"}, {"md_atom_id": "md_dmNV_ex_a015", "md_file": "knowledge_base/domains/NV/examples.md", "md_atom_type": "TABLE_ROW", "md_parent_section": "§NV.1 [Example 1]", "md_verbatim": "| 6 | ABC123 | NV | AD01-103 | 44 | 2 | 1238 | 05 | SUVR | Standard Uptake Value Ratio | 1.63 | RATIO | 1.63 | 1.63 | RATIO | CINGULATE CORTEX | POSTERIOR | FDGPET | 1 | 2012-05-22 |", "score": 0.4336, "match_basis": "verbatim_token+domain_route:NV"}], "candidate_count": 5, "zero_candidate": false}
{"pdf_atom_id": "ig34_p0295_a014", "pdf_atom_type": "TABLE_ROW", "pdf_source": "SDTMIG_v3.4", "pdf_page": 295, "pdf_parent_section": "§6.3.7.4 Nervous System Findings (NV)", "pdf_verbatim": "| NVMETHOD | Method of Test or Examination | Char | (METHOD) | Record Qualifier | Method of the test or examination. Examples: \"EEG\", \"PET/CT SCAN \", \"FDGPET\". | Perm |", "figure_ref": null, "candidates": [{"md_atom_id": "md_dmNV_ex_a014", "md_file": "knowledge_base/domains/NV/examples.md", "md_atom_type": "TABLE_ROW", "md_parent_section": "§NV.1 [Example 1]", "md_verbatim": "| 5 | ABC123 | NV | AD01-103 | 44 | 1 | 1238 | 05 | SUVR | Standard Uptake Value Ratio | 1.52 | RATIO | 1.52 | 1.52 | RATIO | PRECUNEUS | | FDGPET | 1 | 2012-05-22 |", "score": 0.4553, "match_basis": "verbatim_token+domain_route:NV"}, {"md_atom_id": "md_dmNV_ex_a015", "md_file": "knowledge_base/domains/NV/examples.md", "md_atom_type": "TABLE_ROW", "md_parent_section": "§NV.1 [Example 1]", "md_verbatim": "| 6 | ABC123 | NV | AD01-103 | 44 | 2 | 1238 | 05 | SUVR | Standard Uptake Value Ratio | 1.63 | RATIO | 1.63 | 1.63 | RATIO | CINGULATE CORTEX | POSTERIOR | FDGPET | 1 | 2012-05-22 |", "score": 0.4483, "match_basis": "verbatim_token+domain_route:NV"}, {"md_atom_id": "md_dmNV_ex_a010", "md_file": "knowledge_base/domains/NV/examples.md", "md_atom_type": "TABLE_ROW", "md_parent_section": "§NV.1 [Example 1]", "md_verbatim": "| 1 | ABC123 | NV | AD01-101 | 22 | 1 | 1236 | 03 | SUVR | Standard Uptake Value Ratio | 0.95 | RATIO | 0.95 | 0.95 | RATIO | PRECUNEUS | | PET/CT SCAN | 1 | 2012-05-22 |", "score": 0.4474, "match_basis": "verbatim_token+domain_route:NV"}, {"md_atom_id": "md_dmNV_ex_a012", "md_file": "knowledge_base/domains/NV/examples.md", "md_atom_type": "TABLE_ROW", "md_parent_section": "§NV.1 [Example 1]", "md_verbatim": "| 3 | ABC123 | NV | AD01-102 | 22 | 1 | 1237 | 04 | SUVR | Standard Uptake Value Ratio | 1.21 | RATIO | 1.21 | 1.21 | RATIO | PRECUNEUS | | PET/CT SCAN | 1 | 2012-05-22 |", "score": 0.4474, "match_basis": "verbatim_token+domain_route:NV"}, {"md_atom_id": "md_dmNV_ex_a011", "md_file": "knowledge_base/domains/NV/examples.md", "md_atom_type": "TABLE_ROW", "md_parent_section": "§NV.1 [Example 1]", "md_verbatim": "| 2 | ABC123 | NV | AD01-101 | 22 | 2 | 1236 | 03 | SUVR | Standard Uptake Value Ratio | 1.17 | RATIO | 1.17 | 1.17 | RATIO | CINGULATE CORTEX | POSTERIOR | PET/CT SCAN | 1 | 2012-05-22 |", "score": 0.4414, "match_basis": "verbatim_token+domain_route:NV"}], "candidate_count": 5, "zero_candidate": false}
{"pdf_atom_id": "ig34_p0295_a015", "pdf_atom_type": "TABLE_ROW", "pdf_source": "SDTMIG_v3.4", "pdf_page": 295, "pdf_parent_section": "§6.3.7.4 Nervous System Findings (NV)", "pdf_verbatim": "| NVLOBXFL | Last Observation Before Exposure Flag | Char | (NY) | Record Qualifier | Operationally derived indicator used to identify the last non-missing value prior to RFXSTDTC. The value should be \"Y\" or null. | Perm |", "figure_ref": null, "candidates": [{"md_atom_id": "md_dmNV_ex_a011", "md_file": "knowledge_base/domains/NV/examples.md", "md_atom_type": "TABLE_ROW", "md_parent_section": "§NV.1 [Example 1]", "md_verbatim": "| 2 | ABC123 | NV | AD01-101 | 22 | 2 | 1236 | 03 | SUVR | Standard Uptake Value Ratio | 1.17 | RATIO | 1.17 | 1.17 | RATIO | CINGULATE CORTEX | POSTERIOR | PET/CT SCAN | 1 | 2012-05-22 |", "score": 0.4541, "match_basis": "verbatim_token+domain_route:NV"}, {"md_atom_id": "md_dmNV_ex_a013", "md_file": "knowledge_base/domains/NV/examples.md", "md_atom_type": "TABLE_ROW", "md_parent_section": "§NV.1 [Example 1]", "md_verbatim": "| 4 | ABC123 | NV | AD01-102 | 22 | 2 | 1237 | 04 | SUVR | Standard Uptake Value Ratio | 1.78 | RATIO | 1.78 | 1.78 | RATIO | CINGULATE CORTEX | POSTERIOR | PET/CT SCAN | 1 | 2012-05-22 |", "score": 0.4541, "match_basis": "verbatim_token+domain_route:NV"}, {"md_atom_id": "md_dmNV_ex_a015", "md_file": "knowledge_base/domains/NV/examples.md", "md_atom_type": "TABLE_ROW", "md_parent_section": "§NV.1 [Example 1]", "md_verbatim": "| 6 | ABC123 | NV | AD01-103 | 44 | 2 | 1238 | 05 | SUVR | Standard Uptake Value Ratio | 1.63 | RATIO | 1.63 | 1.63 | RATIO | CINGULATE CORTEX | POSTERIOR | FDGPET | 1 | 2012-05-22 |", "score": 0.4537, "match_basis": "verbatim_token+domain_route:NV"}, {"md_atom_id": "md_dmNV_ex_a010", "md_file": "knowledge_base/domains/NV/examples.md", "md_atom_type": "TABLE_ROW", "md_parent_section": "§NV.1 [Example 1]", "md_verbatim": "| 1 | ABC123 | NV | AD01-101 | 22 | 1 | 1236 | 03 | SUVR | Standard Uptake Value Ratio | 0.95 | RATIO | 0.95 | 0.95 | RATIO | PRECUNEUS | | PET/CT SCAN | 1 | 2012-05-22 |", "score": 0.4331, "match_basis": "verbatim_token+domain_route:NV"}, {"md_atom_id": "md_dmNV_ex_a012", "md_file": "knowledge_base/domains/NV/examples.md", "md_atom_type": "TABLE_ROW", "md_parent_section": "§NV.1 [Example 1]", "md_verbatim": "| 3 | ABC123 | NV | AD01-102 | 22 | 1 | 1237 | 04 | SUVR | Standard Uptake Value Ratio | 1.21 | RATIO | 1.21 | 1.21 | RATIO | PRECUNEUS | | PET/CT SCAN | 1 | 2012-05-22 |", "score": 0.4331, "match_basis": "verbatim_token+domain_route:NV"}], "candidate_count": 5, "zero_candidate": false}
{"pdf_atom_id": "ig34_p0295_a016", "pdf_atom_type": "TABLE_ROW", "pdf_source": "SDTMIG_v3.4", "pdf_page": 295, "pdf_parent_section": "§6.3.7.4 Nervous System Findings (NV)", "pdf_verbatim": "| NVBLFL | Baseline Flag | Char | (NY) | Record Qualifier | Indicator used to identify a baseline value. Should be \"Y\" or null. Note that NVBLFL is retained for backward compatibility. The authoritative baseline flag for statistical analysis is in an ADaM dataset. | Perm |", "figure_ref": null, "candidates": [{"md_atom_id": "md_dmNV_ex_a060", "md_file": "knowledge_base/domains/NV/examples.md", "md_atom_type": "TABLE_ROW", "md_parent_section": "§NV.2 [Example 2]", "md_verbatim": "| 10 | MS123 | NV | MS01-01 | 123 | OS | 10 | 2 | INTP | Interpretation | VISUAL EVOKED POTENTIAL | ABNORMAL | | ABNORMAL | | | | | | EYE | LEFT | EEG | 1 | 2013-02-08 |", "score": 0.4333, "match_basis": "verbatim_token+domain_route:NV"}, {"md_atom_id": "md_dmNV_ex_a055", "md_file": "knowledge_base/domains/NV/examples.md", "md_atom_type": "TABLE_ROW", "md_parent_section": "§NV.2 [Example 2]", "md_verbatim": "| 5 | MS123 | NV | MS01-01 | 123 | OD | 5 | 1 | INTP | Interpretation | VISUAL EVOKED POTENTIAL | ABNORMAL | | ABNORMAL | | | | | | EYE | RIGHT | EEG | 1 | 2013-02-08 |", "score": 0.4331, "match_basis": "verbatim_token+domain_route:NV"}, {"md_atom_id": "md_dmNV_ex_a010", "md_file": "knowledge_base/domains/NV/examples.md", "md_atom_type": "TABLE_ROW", "md_parent_section": "§NV.1 [Example 1]", "md_verbatim": "| 1 | ABC123 | NV | AD01-101 | 22 | 1 | 1236 | 03 | SUVR | Standard Uptake Value Ratio | 0.95 | RATIO | 0.95 | 0.95 | RATIO | PRECUNEUS | | PET/CT SCAN | 1 | 2012-05-22 |", "score": 0.4304, "match_basis": "verbatim_token+domain_route:NV"}, {"md_atom_id": "md_dmNV_ex_a012", "md_file": "knowledge_base/domains/NV/examples.md", "md_atom_type": "TABLE_ROW", "md_parent_section": "§NV.1 [Example 1]", "md_verbatim": "| 3 | ABC123 | NV | AD01-102 | 22 | 1 | 1237 | 04 | SUVR | Standard Uptake Value Ratio | 1.21 | RATIO | 1.21 | 1.21 | RATIO | PRECUNEUS | | PET/CT SCAN | 1 | 2012-05-22 |", "score": 0.4304, "match_basis": "verbatim_token+domain_route:NV"}, {"md_atom_id": "md_dmNV_ex_a014", "md_file": "knowledge_base/domains/NV/examples.md", "md_atom_type": "TABLE_ROW", "md_parent_section": "§NV.1 [Example 1]", "md_verbatim": "| 5 | ABC123 | NV | AD01-103 | 44 | 1 | 1238 | 05 | SUVR | Standard Uptake Value Ratio | 1.52 | RATIO | 1.52 | 1.52 | RATIO | PRECUNEUS | | FDGPET | 1 | 2012-05-22 |", "score": 0.4302, "match_basis": "verbatim_token+domain_route:NV"}], "candidate_count": 5, "zero_candidate": false}
{"pdf_atom_id": "ig34_p0295_a017", "pdf_atom_type": "TABLE_ROW", "pdf_source": "SDTMIG_v3.4", "pdf_page": 295, "pdf_parent_section": "§6.3.7.4 Nervous System Findings (NV)", "pdf_verbatim": "| NVDRVFL | Derived Flag | Char | (NY) | Record Qualifier | Used to indicate a derived record (e.g., a record that represents the average of other records such as a computed baseline). Should be \"Y\" or null. | Perm |", "figure_ref": null, "candidates": [{"md_atom_id": "md_dmNV_ex_a056", "md_file": "knowledge_base/domains/NV/examples.md", "md_atom_type": "TABLE_ROW", "md_parent_section": "§NV.2 [Example 2]", "md_verbatim": "| 6 | MS123 | NV | MS01-01 | 123 | OS | 6 | 2 | N75LAT | N75 Latency | VISUAL EVOKED POTENTIAL | 83.8 | msec | 83.8 | 83.8 | msec | 54.42 | 95.1 | NORMAL | EYE | LEFT | EEG | 1 | 2013-02-08 |", "score": 0.4164, "match_basis": "verbatim_token+domain_route:NV"}, {"md_atom_id": "md_dmNV_ex_a051", "md_file": "knowledge_base/domains/NV/examples.md", "md_atom_type": "TABLE_ROW", "md_parent_section": "§NV.2 [Example 2]", "md_verbatim": "| 1 | MS123 | NV | MS01-01 | 123 | OD | 1 | 1 | N75LAT | N75 Latency | VISUAL EVOKED POTENTIAL | 79.8 | msec | 79.8 | 79.8 | msec | 54.68 | 94 | NORMAL | EYE | RIGHT | EEG | 1 | 2013-02-08 |", "score": 0.4162, "match_basis": "verbatim_token+domain_route:NV"}, {"md_atom_id": "md_dmNV_ex_a057", "md_file": "knowledge_base/domains/NV/examples.md", "md_atom_type": "TABLE_ROW", "md_parent_section": "§NV.2 [Example 2]", "md_verbatim": "| 7 | MS123 | NV | MS01-01 | 123 | OS | 7 | 2 | P100LAT | P100 Latency | VISUAL EVOKED POTENTIAL | 126 | msec | 126 | 126 | msec | 76.9 | 115.78 | ABNORMAL | EYE | LEFT | EEG | 1 | 2013-02-08 |", "score": 0.4157, "match_basis": "verbatim_token+domain_route:NV"}, {"md_atom_id": "md_dmNV_ex_a052", "md_file": "knowledge_base/domains/NV/examples.md", "md_atom_type": "TABLE_ROW", "md_parent_section": "§NV.2 [Example 2]", "md_verbatim": "| 2 | MS123 | NV | MS01-01 | 123 | OD | 2 | 1 | P100LAT | P100 Latency | VISUAL EVOKED POTENTIAL | 129 | msec | 129 | 129 | msec | 76.75 | 113.71 | ABNORMAL | EYE | RIGHT | EEG | 1 | 2013-02-08 |", "score": 0.4155, "match_basis": "verbatim_token+domain_route:NV"}, {"md_atom_id": "md_dmNV_ex_a058", "md_file": "knowledge_base/domains/NV/examples.md", "md_atom_type": "TABLE_ROW", "md_parent_section": "§NV.2 [Example 2]", "md_verbatim": "| 8 | MS123 | NV | MS01-01 | 123 | OS | 8 | 2 | N145LAT | N145 Latency | VISUAL EVOKED POTENTIAL | 160 | msec | 160 | 160 | msec | 115.65 | 157.65 | ABNORMAL | EYE | LEFT | EEG | 1 | 2013-02-08 |", "score": 0.4155, "match_basis": "verbatim_token+domain_route:NV"}], "candidate_count": 5, "zero_candidate": false}
{"pdf_atom_id": "ig34_p0295_a018", "pdf_atom_type": "TABLE_ROW", "pdf_source": "SDTMIG_v3.4", "pdf_page": 295, "pdf_parent_section": "§6.3.7.4 Nervous System Findings (NV)", "pdf_verbatim": "| NVEVAL | Evaluator | Char | (EVAL) | Record Qualifier | Role of the person who provided the evaluation. Used only for results that are subjective (e.g., assigned by a person or a group). Examples: \"ADJUDICATION COMMITTEE\", \"INDEPENDENT ASSESSOR\", \"RADIOLOGIST\". | Perm |", "figure_ref": null, "candidates": [{"md_atom_id": "md_dmNV_ex_a010", "md_file": "knowledge_base/domains/NV/examples.md", "md_atom_type": "TABLE_ROW", "md_parent_section": "§NV.1 [Example 1]", "md_verbatim": "| 1 | ABC123 | NV | AD01-101 | 22 | 1 | 1236 | 03 | SUVR | Standard Uptake Value Ratio | 0.95 | RATIO | 0.95 | 0.95 | RATIO | PRECUNEUS | | PET/CT SCAN | 1 | 2012-05-22 |", "score": 0.4207, "match_basis": "verbatim_token+domain_route:NV"}, {"md_atom_id": "md_dmNV_ex_a012", "md_file": "knowledge_base/domains/NV/examples.md", "md_atom_type": "TABLE_ROW", "md_parent_section": "§NV.1 [Example 1]", "md_verbatim": "| 3 | ABC123 | NV | AD01-102 | 22 | 1 | 1237 | 04 | SUVR | Standard Uptake Value Ratio | 1.21 | RATIO | 1.21 | 1.21 | RATIO | PRECUNEUS | | PET/CT SCAN | 1 | 2012-05-22 |", "score": 0.4207, "match_basis": "verbatim_token+domain_route:NV"}, {"md_atom_id": "md_dmNV_ex_a014", "md_file": "knowledge_base/domains/NV/examples.md", "md_atom_type": "TABLE_ROW", "md_parent_section": "§NV.1 [Example 1]", "md_verbatim": "| 5 | ABC123 | NV | AD01-103 | 44 | 1 | 1238 | 05 | SUVR | Standard Uptake Value Ratio | 1.52 | RATIO | 1.52 | 1.52 | RATIO | PRECUNEUS | | FDGPET | 1 | 2012-05-22 |", "score": 0.4205, "match_basis": "verbatim_token+domain_route:NV"}, {"md_atom_id": "md_dmNV_ex_a060", "md_file": "knowledge_base/domains/NV/examples.md", "md_atom_type": "TABLE_ROW", "md_parent_section": "§NV.2 [Example 2]", "md_verbatim": "| 10 | MS123 | NV | MS01-01 | 123 | OS | 10 | 2 | INTP | Interpretation | VISUAL EVOKED POTENTIAL | ABNORMAL | | ABNORMAL | | | | | | EYE | LEFT | EEG | 1 | 2013-02-08 |", "score": 0.4197, "match_basis": "verbatim_token+domain_route:NV"}, {"md_atom_id": "md_dmNV_ex_a055", "md_file": "knowledge_base/domains/NV/examples.md", "md_atom_type": "TABLE_ROW", "md_parent_section": "§NV.2 [Example 2]", "md_verbatim": "| 5 | MS123 | NV | MS01-01 | 123 | OD | 5 | 1 | INTP | Interpretation | VISUAL EVOKED POTENTIAL | ABNORMAL | | ABNORMAL | | | | | | EYE | RIGHT | EEG | 1 | 2013-02-08 |", "score": 0.4196, "match_basis": "verbatim_token+domain_route:NV"}], "candidate_count": 5, "zero_candidate": false}
{"pdf_atom_id": "ig34_p0295_a019", "pdf_atom_type": "TABLE_ROW", "pdf_source": "SDTMIG_v3.4", "pdf_page": 295, "pdf_parent_section": "§6.3.7.4 Nervous System Findings (NV)", "pdf_verbatim": "| NVEVALID | Evaluator Identifier | Char | (MEDEVAL) | Variable Qualifier | Used to distinguish multiple evaluators with the same role recorded in NVEVAL. Examples: \"RADIOLOGIST 1\", \"RADIOLOGIST 2\". | Perm |", "figure_ref": null, "candidates": [{"md_atom_id": "md_dmNV_ex_a059", "md_file": "knowledge_base/domains/NV/examples.md", "md_atom_type": "TABLE_ROW", "md_parent_section": "§NV.2 [Example 2]", "md_verbatim": "| 9 | MS123 | NV | MS01-01 | 123 | OS | 9 | 2 | P100AMP | P100 Amplitude | VISUAL EVOKED POTENTIAL | 4.37 | uV | 4.37 | 4.37 | uV | 4.78 | 12.7 | ABNORMAL | EYE | LEFT | EEG | 1 | 2013-02-08 |", "score": 0.4256, "match_basis": "verbatim_token+domain_route:NV"}, {"md_atom_id": "md_dmNV_ex_a054", "md_file": "knowledge_base/domains/NV/examples.md", "md_atom_type": "TABLE_ROW", "md_parent_section": "§NV.2 [Example 2]", "md_verbatim": "| 4 | MS123 | NV | MS01-01 | 123 | OD | 4 | 1 | P100AMP | P100 Amplitude | VISUAL EVOKED POTENTIAL | 5.02 | uV | 5.02 | 5.02 | uV | 5.26 | 12.64 | ABNORMAL | EYE | RIGHT | EEG | 1 | 2013-02-08 |", "score": 0.4254, "match_basis": "verbatim_token+domain_route:NV"}, {"md_atom_id": "md_dmNV_ex_a011", "md_file": "knowledge_base/domains/NV/examples.md", "md_atom_type": "TABLE_ROW", "md_parent_section": "§NV.1 [Example 1]", "md_verbatim": "| 2 | ABC123 | NV | AD01-101 | 22 | 2 | 1236 | 03 | SUVR | Standard Uptake Value Ratio | 1.17 | RATIO | 1.17 | 1.17 | RATIO | CINGULATE CORTEX | POSTERIOR | PET/CT SCAN | 1 | 2012-05-22 |", "score": 0.4244, "match_basis": "verbatim_token+domain_route:NV"}, {"md_atom_id": "md_dmNV_ex_a013", "md_file": "knowledge_base/domains/NV/examples.md", "md_atom_type": "TABLE_ROW", "md_parent_section": "§NV.1 [Example 1]", "md_verbatim": "| 4 | ABC123 | NV | AD01-102 | 22 | 2 | 1237 | 04 | SUVR | Standard Uptake Value Ratio | 1.78 | RATIO | 1.78 | 1.78 | RATIO | CINGULATE CORTEX | POSTERIOR | PET/CT SCAN | 1 | 2012-05-22 |", "score": 0.4244, "match_basis": "verbatim_token+domain_route:NV"}, {"md_atom_id": "md_dmNV_ex_a015", "md_file": "knowledge_base/domains/NV/examples.md", "md_atom_type": "TABLE_ROW", "md_parent_section": "§NV.1 [Example 1]", "md_verbatim": "| 6 | ABC123 | NV | AD01-103 | 44 | 2 | 1238 | 05 | SUVR | Standard Uptake Value Ratio | 1.63 | RATIO | 1.63 | 1.63 | RATIO | CINGULATE CORTEX | POSTERIOR | FDGPET | 1 | 2012-05-22 |", "score": 0.4242, "match_basis": "verbatim_token+domain_route:NV"}], "candidate_count": 5, "zero_candidate": false}
{"pdf_atom_id": "ig34_p0295_a020", "pdf_atom_type": "TABLE_ROW", "pdf_source": "SDTMIG_v3.4", "pdf_page": 295, "pdf_parent_section": "§6.3.7.4 Nervous System Findings (NV)", "pdf_verbatim": "| VISITNUM | Visit Number | Num | | Timing | Clinical encounter number. Numeric version of VISIT, used for sorting. | Exp |", "figure_ref": null, "candidates": [{"md_atom_id": "md_dmNV_ex_a060", "md_file": "knowledge_base/domains/NV/examples.md", "md_atom_type": "TABLE_ROW", "md_parent_section": "§NV.2 [Example 2]", "md_verbatim": "| 10 | MS123 | NV | MS01-01 | 123 | OS | 10 | 2 | INTP | Interpretation | VISUAL EVOKED POTENTIAL | ABNORMAL | | ABNORMAL | | | | | | EYE | LEFT | EEG | 1 | 2013-02-08 |", "score": 0.4286, "match_basis": "verbatim_token+domain_route:NV"}, {"md_atom_id": "md_dmNV_ex_a055", "md_file": "knowledge_base/domains/NV/examples.md", "md_atom_type": "TABLE_ROW", "md_parent_section": "§NV.2 [Example 2]", "md_verbatim": "| 5 | MS123 | NV | MS01-01 | 123 | OD | 5 | 1 | INTP | Interpretation | VISUAL EVOKED POTENTIAL | ABNORMAL | | ABNORMAL | | | | | | EYE | RIGHT | EEG | 1 | 2013-02-08 |", "score": 0.4282, "match_basis": "verbatim_token+domain_route:NV"}, {"md_atom_id": "md_dmNV_ex_a011", "md_file": "knowledge_base/domains/NV/examples.md", "md_atom_type": "TABLE_ROW", "md_parent_section": "§NV.1 [Example 1]", "md_verbatim": "| 2 | ABC123 | NV | AD01-101 | 22 | 2 | 1236 | 03 | SUVR | Standard Uptake Value Ratio | 1.17 | RATIO | 1.17 | 1.17 | RATIO | CINGULATE CORTEX | POSTERIOR | PET/CT SCAN | 1 | 2012-05-22 |", "score": 0.4273, "match_basis": "verbatim_token+domain_route:NV"}, {"md_atom_id": "md_dmNV_ex_a013", "md_file": "knowledge_base/domains/NV/examples.md", "md_atom_type": "TABLE_ROW", "md_parent_section": "§NV.1 [Example 1]", "md_verbatim": "| 4 | ABC123 | NV | AD01-102 | 22 | 2 | 1237 | 04 | SUVR | Standard Uptake Value Ratio | 1.78 | RATIO | 1.78 | 1.78 | RATIO | CINGULATE CORTEX | POSTERIOR | PET/CT SCAN | 1 | 2012-05-22 |", "score": 0.4273, "match_basis": "verbatim_token+domain_route:NV"}, {"md_atom_id": "md_dmNV_ex_a015", "md_file": "knowledge_base/domains/NV/examples.md", "md_atom_type": "TABLE_ROW", "md_parent_section": "§NV.1 [Example 1]", "md_verbatim": "| 6 | ABC123 | NV | AD01-103 | 44 | 2 | 1238 | 05 | SUVR | Standard Uptake Value Ratio | 1.63 | RATIO | 1.63 | 1.63 | RATIO | CINGULATE CORTEX | POSTERIOR | FDGPET | 1 | 2012-05-22 |", "score": 0.427, "match_basis": "verbatim_token+domain_route:NV"}], "candidate_count": 5, "zero_candidate": false}
{"pdf_atom_id": "ig34_p0295_a021", "pdf_atom_type": "TABLE_ROW", "pdf_source": "SDTMIG_v3.4", "pdf_page": 295, "pdf_parent_section": "§6.3.7.4 Nervous System Findings (NV)", "pdf_verbatim": "| VISIT | Visit Name | Char | | Timing | Protocol-defined description of clinical encounter. May be used in addition to VISITNUM and/or VISITDY. | Perm |", "figure_ref": null, "candidates": [{"md_atom_id": "md_dmNV_ex_a060", "md_file": "knowledge_base/domains/NV/examples.md", "md_atom_type": "TABLE_ROW", "md_parent_section": "§NV.2 [Example 2]", "md_verbatim": "| 10 | MS123 | NV | MS01-01 | 123 | OS | 10 | 2 | INTP | Interpretation | VISUAL EVOKED POTENTIAL | ABNORMAL | | ABNORMAL | | | | | | EYE | LEFT | EEG | 1 | 2013-02-08 |", "score": 0.4303, "match_basis": "verbatim_token+domain_route:NV"}, {"md_atom_id": "md_dmNV_ex_a055", "md_file": "knowledge_base/domains/NV/examples.md", "md_atom_type": "TABLE_ROW", "md_parent_section": "§NV.2 [Example 2]", "md_verbatim": "| 5 | MS123 | NV | MS01-01 | 123 | OD | 5 | 1 | INTP | Interpretation | VISUAL EVOKED POTENTIAL | ABNORMAL | | ABNORMAL | | | | | | EYE | RIGHT | EEG | 1 | 2013-02-08 |", "score": 0.43, "match_basis": "verbatim_token+domain_route:NV"}, {"md_atom_id": "md_dmNV_ex_a011", "md_file": "knowledge_base/domains/NV/examples.md", "md_atom_type": "TABLE_ROW", "md_parent_section": "§NV.1 [Example 1]", "md_verbatim": "| 2 | ABC123 | NV | AD01-101 | 22 | 2 | 1236 | 03 | SUVR | Standard Uptake Value Ratio | 1.17 | RATIO | 1.17 | 1.17 | RATIO | CINGULATE CORTEX | POSTERIOR | PET/CT SCAN | 1 | 2012-05-22 |", "score": 0.4231, "match_basis": "verbatim_token+domain_route:NV"}, {"md_atom_id": "md_dmNV_ex_a013", "md_file": "knowledge_base/domains/NV/examples.md", "md_atom_type": "TABLE_ROW", "md_parent_section": "§NV.1 [Example 1]", "md_verbatim": "| 4 | ABC123 | NV | AD01-102 | 22 | 2 | 1237 | 04 | SUVR | Standard Uptake Value Ratio | 1.78 | RATIO | 1.78 | 1.78 | RATIO | CINGULATE CORTEX | POSTERIOR | PET/CT SCAN | 1 | 2012-05-22 |", "score": 0.4231, "match_basis": "verbatim_token+domain_route:NV"}, {"md_atom_id": "md_dmNV_ex_a015", "md_file": "knowledge_base/domains/NV/examples.md", "md_atom_type": "TABLE_ROW", "md_parent_section": "§NV.1 [Example 1]", "md_verbatim": "| 6 | ABC123 | NV | AD01-103 | 44 | 2 | 1238 | 05 | SUVR | Standard Uptake Value Ratio | 1.63 | RATIO | 1.63 | 1.63 | RATIO | CINGULATE CORTEX | POSTERIOR | FDGPET | 1 | 2012-05-22 |", "score": 0.4229, "match_basis": "verbatim_token+domain_route:NV"}], "candidate_count": 5, "zero_candidate": false}
{"pdf_atom_id": "ig34_p0295_a022", "pdf_atom_type": "TABLE_ROW", "pdf_source": "SDTMIG_v3.4", "pdf_page": 295, "pdf_parent_section": "§6.3.7.4 Nervous System Findings (NV)", "pdf_verbatim": "| VISITDY | Planned Study Day of Visit | Num | | Timing | Planned study day of the visit based upon RFSTDTC in Demographics. | Perm |", "figure_ref": null, "candidates": [{"md_atom_id": "md_dmNV_ex_a059", "md_file": "knowledge_base/domains/NV/examples.md", "md_atom_type": "TABLE_ROW", "md_parent_section": "§NV.2 [Example 2]", "md_verbatim": "| 9 | MS123 | NV | MS01-01 | 123 | OS | 9 | 2 | P100AMP | P100 Amplitude | VISUAL EVOKED POTENTIAL | 4.37 | uV | 4.37 | 4.37 | uV | 4.78 | 12.7 | ABNORMAL | EYE | LEFT | EEG | 1 | 2013-02-08 |", "score": 0.4145, "match_basis": "verbatim_token+domain_route:NV"}, {"md_atom_id": "md_dmNV_ex_a054", "md_file": "knowledge_base/domains/NV/examples.md", "md_atom_type": "TABLE_ROW", "md_parent_section": "§NV.2 [Example 2]", "md_verbatim": "| 4 | MS123 | NV | MS01-01 | 123 | OD | 4 | 1 | P100AMP | P100 Amplitude | VISUAL EVOKED POTENTIAL | 5.02 | uV | 5.02 | 5.02 | uV | 5.26 | 12.64 | ABNORMAL | EYE | RIGHT | EEG | 1 | 2013-02-08 |", "score": 0.4143, "match_basis": "verbatim_token+domain_route:NV"}, {"md_atom_id": "md_dmNV_ex_a023", "md_file": "knowledge_base/domains/NV/examples.md", "md_atom_type": "TABLE_ROW", "md_parent_section": "§NV.1 [Example 1]", "md_verbatim": "| 5 | ABC123 | NV | AD01-103 | NVSEQ | 1 | REFREG | Reference Region | PONS |", "score": 0.4091, "match_basis": "verbatim_token+domain_route:NV"}, {"md_atom_id": "md_dmNV_ex_a024", "md_file": "knowledge_base/domains/NV/examples.md", "md_atom_type": "TABLE_ROW", "md_parent_section": "§NV.1 [Example 1]", "md_verbatim": "| 6 | ABC123 | NV | AD01-103 | NVSEQ | 2 | REFREG | Reference Region | PONS |", "score": 0.4091, "match_basis": "verbatim_token+domain_route:NV"}, {"md_atom_id": "md_dmNV_ex_a056", "md_file": "knowledge_base/domains/NV/examples.md", "md_atom_type": "TABLE_ROW", "md_parent_section": "§NV.2 [Example 2]", "md_verbatim": "| 6 | MS123 | NV | MS01-01 | 123 | OS | 6 | 2 | N75LAT | N75 Latency | VISUAL EVOKED POTENTIAL | 83.8 | msec | 83.8 | 83.8 | msec | 54.42 | 95.1 | NORMAL | EYE | LEFT | EEG | 1 | 2013-02-08 |", "score": 0.4075, "match_basis": "verbatim_token+domain_route:NV"}], "candidate_count": 5, "zero_candidate": false}
{"pdf_atom_id": "ig34_p0295_a023", "pdf_atom_type": "TABLE_ROW", "pdf_source": "SDTMIG_v3.4", "pdf_page": 295, "pdf_parent_section": "§6.3.7.4 Nervous System Findings (NV)", "pdf_verbatim": "| TAETORD | Planned Order of Element within Arm | Num | | Timing | Number that gives the planned order of the element within the arm for the element in which the assessment was made. | Perm |", "figure_ref": null, "candidates": [{"md_atom_id": "md_dmNV_ex_a056", "md_file": "knowledge_base/domains/NV/examples.md", "md_atom_type": "TABLE_ROW", "md_parent_section": "§NV.2 [Example 2]", "md_verbatim": "| 6 | MS123 | NV | MS01-01 | 123 | OS | 6 | 2 | N75LAT | N75 Latency | VISUAL EVOKED POTENTIAL | 83.8 | msec | 83.8 | 83.8 | msec | 54.42 | 95.1 | NORMAL | EYE | LEFT | EEG | 1 | 2013-02-08 |", "score": 0.4067, "match_basis": "verbatim_token+domain_route:NV"}, {"md_atom_id": "md_dmNV_ex_a051", "md_file": "knowledge_base/domains/NV/examples.md", "md_atom_type": "TABLE_ROW", "md_parent_section": "§NV.2 [Example 2]", "md_verbatim": "| 1 | MS123 | NV | MS01-01 | 123 | OD | 1 | 1 | N75LAT | N75 Latency | VISUAL EVOKED POTENTIAL | 79.8 | msec | 79.8 | 79.8 | msec | 54.68 | 94 | NORMAL | EYE | RIGHT | EEG | 1 | 2013-02-08 |", "score": 0.4067, "match_basis": "verbatim_token+domain_route:NV"}, {"md_atom_id": "md_dmNV_ex_a059", "md_file": "knowledge_base/domains/NV/examples.md", "md_atom_type": "TABLE_ROW", "md_parent_section": "§NV.2 [Example 2]", "md_verbatim": "| 9 | MS123 | NV | MS01-01 | 123 | OS | 9 | 2 | P100AMP | P100 Amplitude | VISUAL EVOKED POTENTIAL | 4.37 | uV | 4.37 | 4.37 | uV | 4.78 | 12.7 | ABNORMAL | EYE | LEFT | EEG | 1 | 2013-02-08 |", "score": 0.4065, "match_basis": "verbatim_token+domain_route:NV"}, {"md_atom_id": "md_dmNV_ex_a054", "md_file": "knowledge_base/domains/NV/examples.md", "md_atom_type": "TABLE_ROW", "md_parent_section": "§NV.2 [Example 2]", "md_verbatim": "| 4 | MS123 | NV | MS01-01 | 123 | OD | 4 | 1 | P100AMP | P100 Amplitude | VISUAL EVOKED POTENTIAL | 5.02 | uV | 5.02 | 5.02 | uV | 5.26 | 12.64 | ABNORMAL | EYE | RIGHT | EEG | 1 | 2013-02-08 |", "score": 0.4064, "match_basis": "verbatim_token+domain_route:NV"}, {"md_atom_id": "md_dmNV_ex_a057", "md_file": "knowledge_base/domains/NV/examples.md", "md_atom_type": "TABLE_ROW", "md_parent_section": "§NV.2 [Example 2]", "md_verbatim": "| 7 | MS123 | NV | MS01-01 | 123 | OS | 7 | 2 | P100LAT | P100 Latency | VISUAL EVOKED POTENTIAL | 126 | msec | 126 | 126 | msec | 76.9 | 115.78 | ABNORMAL | EYE | LEFT | EEG | 1 | 2013-02-08 |", "score": 0.4064, "match_basis": "verbatim_token+domain_route:NV"}], "candidate_count": 5, "zero_candidate": false}
{"pdf_atom_id": "ig34_p0295_a024", "pdf_atom_type": "TABLE_ROW", "pdf_source": "SDTMIG_v3.4", "pdf_page": 295, "pdf_parent_section": "§6.3.7.4 Nervous System Findings (NV)", "pdf_verbatim": "| EPOCH | Epoch | Char | (EPOCH) | Timing | Epoch associated with the date/time at which the assessment was made. | Perm |", "figure_ref": null, "candidates": [{"md_atom_id": "md_dmNV_ex_a056", "md_file": "knowledge_base/domains/NV/examples.md", "md_atom_type": "TABLE_ROW", "md_parent_section": "§NV.2 [Example 2]", "md_verbatim": "| 6 | MS123 | NV | MS01-01 | 123 | OS | 6 | 2 | N75LAT | N75 Latency | VISUAL EVOKED POTENTIAL | 83.8 | msec | 83.8 | 83.8 | msec | 54.42 | 95.1 | NORMAL | EYE | LEFT | EEG | 1 | 2013-02-08 |", "score": 0.4162, "match_basis": "verbatim_token+domain_route:NV"}, {"md_atom_id": "md_dmNV_ex_a051", "md_file": "knowledge_base/domains/NV/examples.md", "md_atom_type": "TABLE_ROW", "md_parent_section": "§NV.2 [Example 2]", "md_verbatim": "| 1 | MS123 | NV | MS01-01 | 123 | OD | 1 | 1 | N75LAT | N75 Latency | VISUAL EVOKED POTENTIAL | 79.8 | msec | 79.8 | 79.8 | msec | 54.68 | 94 | NORMAL | EYE | RIGHT | EEG | 1 | 2013-02-08 |", "score": 0.416, "match_basis": "verbatim_token+domain_route:NV"}, {"md_atom_id": "md_dmNV_ex_a057", "md_file": "knowledge_base/domains/NV/examples.md", "md_atom_type": "TABLE_ROW", "md_parent_section": "§NV.2 [Example 2]", "md_verbatim": "| 7 | MS123 | NV | MS01-01 | 123 | OS | 7 | 2 | P100LAT | P100 Latency | VISUAL EVOKED POTENTIAL | 126 | msec | 126 | 126 | msec | 76.9 | 115.78 | ABNORMAL | EYE | LEFT | EEG | 1 | 2013-02-08 |", "score": 0.4152, "match_basis": "verbatim_token+domain_route:NV"}, {"md_atom_id": "md_dmNV_ex_a052", "md_file": "knowledge_base/domains/NV/examples.md", "md_atom_type": "TABLE_ROW", "md_parent_section": "§NV.2 [Example 2]", "md_verbatim": "| 2 | MS123 | NV | MS01-01 | 123 | OD | 2 | 1 | P100LAT | P100 Latency | VISUAL EVOKED POTENTIAL | 129 | msec | 129 | 129 | msec | 76.75 | 113.71 | ABNORMAL | EYE | RIGHT | EEG | 1 | 2013-02-08 |", "score": 0.415, "match_basis": "verbatim_token+domain_route:NV"}, {"md_atom_id": "md_dmNV_ex_a058", "md_file": "knowledge_base/domains/NV/examples.md", "md_atom_type": "TABLE_ROW", "md_parent_section": "§NV.2 [Example 2]", "md_verbatim": "| 8 | MS123 | NV | MS01-01 | 123 | OS | 8 | 2 | N145LAT | N145 Latency | VISUAL EVOKED POTENTIAL | 160 | msec | 160 | 160 | msec | 115.65 | 157.65 | ABNORMAL | EYE | LEFT | EEG | 1 | 2013-02-08 |", "score": 0.415, "match_basis": "verbatim_token+domain_route:NV"}], "candidate_count": 5, "zero_candidate": false}
{"pdf_atom_id": "ig34_p0295_a025", "pdf_atom_type": "TABLE_ROW", "pdf_source": "SDTMIG_v3.4", "pdf_page": 295, "pdf_parent_section": "§6.3.7.4 Nervous System Findings (NV)", "pdf_verbatim": "| NVDTC | Date/Time of Collection | Char | ISO 8601 datetime or interval | Timing | Date of procedure or test. | Exp |", "figure_ref": null, "candidates": [{"md_atom_id": "md_dmNV_ex_a060", "md_file": "knowledge_base/domains/NV/examples.md", "md_atom_type": "TABLE_ROW", "md_parent_section": "§NV.2 [Example 2]", "md_verbatim": "| 10 | MS123 | NV | MS01-01 | 123 | OS | 10 | 2 | INTP | Interpretation | VISUAL EVOKED POTENTIAL | ABNORMAL | | ABNORMAL | | | | | | EYE | LEFT | EEG | 1 | 2013-02-08 |", "score": 0.437, "match_basis": "verbatim_token+domain_route:NV"}, {"md_atom_id": "md_dmNV_ex_a055", "md_file": "knowledge_base/domains/NV/examples.md", "md_atom_type": "TABLE_ROW", "md_parent_section": "§NV.2 [Example 2]", "md_verbatim": "| 5 | MS123 | NV | MS01-01 | 123 | OD | 5 | 1 | INTP | Interpretation | VISUAL EVOKED POTENTIAL | ABNORMAL | | ABNORMAL | | | | | | EYE | RIGHT | EEG | 1 | 2013-02-08 |", "score": 0.4366, "match_basis": "verbatim_token+domain_route:NV"}, {"md_atom_id": "md_dmNV_ex_a011", "md_file": "knowledge_base/domains/NV/examples.md", "md_atom_type": "TABLE_ROW", "md_parent_section": "§NV.1 [Example 1]", "md_verbatim": "| 2 | ABC123 | NV | AD01-101 | 22 | 2 | 1236 | 03 | SUVR | Standard Uptake Value Ratio | 1.17 | RATIO | 1.17 | 1.17 | RATIO | CINGULATE CORTEX | POSTERIOR | PET/CT SCAN | 1 | 2012-05-22 |", "score": 0.4353, "match_basis": "verbatim_token+domain_route:NV"}, {"md_atom_id": "md_dmNV_ex_a013", "md_file": "knowledge_base/domains/NV/examples.md", "md_atom_type": "TABLE_ROW", "md_parent_section": "§NV.1 [Example 1]", "md_verbatim": "| 4 | ABC123 | NV | AD01-102 | 22 | 2 | 1237 | 04 | SUVR | Standard Uptake Value Ratio | 1.78 | RATIO | 1.78 | 1.78 | RATIO | CINGULATE CORTEX | POSTERIOR | PET/CT SCAN | 1 | 2012-05-22 |", "score": 0.4353, "match_basis": "verbatim_token+domain_route:NV"}, {"md_atom_id": "md_dmNV_ex_a015", "md_file": "knowledge_base/domains/NV/examples.md", "md_atom_type": "TABLE_ROW", "md_parent_section": "§NV.1 [Example 1]", "md_verbatim": "| 6 | ABC123 | NV | AD01-103 | 44 | 2 | 1238 | 05 | SUVR | Standard Uptake Value Ratio | 1.63 | RATIO | 1.63 | 1.63 | RATIO | CINGULATE CORTEX | POSTERIOR | FDGPET | 1 | 2012-05-22 |", "score": 0.4349, "match_basis": "verbatim_token+domain_route:NV"}], "candidate_count": 5, "zero_candidate": false}
{"pdf_atom_id": "ig34_p0295_a026", "pdf_atom_type": "TABLE_ROW", "pdf_source": "SDTMIG_v3.4", "pdf_page": 295, "pdf_parent_section": "§6.3.7.4 Nervous System Findings (NV)", "pdf_verbatim": "| NVDY | Study Day of Visit/Collection/Exam | Num | | Timing | Study day of the procedure or test, measured as integer days. Algorithm for calculations must be relative to the sponsor-defined RFSTDTC variable in Demographics. | Perm |", "figure_ref": null, "candidates": [{"md_atom_id": "md_dmNV_ex_a060", "md_file": "knowledge_base/domains/NV/examples.md", "md_atom_type": "TABLE_ROW", "md_parent_section": "§NV.2 [Example 2]", "md_verbatim": "| 10 | MS123 | NV | MS01-01 | 123 | OS | 10 | 2 | INTP | Interpretation | VISUAL EVOKED POTENTIAL | ABNORMAL | | ABNORMAL | | | | | | EYE | LEFT | EEG | 1 | 2013-02-08 |", "score": 0.4261, "match_basis": "verbatim_token+domain_route:NV"}, {"md_atom_id": "md_dmNV_ex_a055", "md_file": "knowledge_base/domains/NV/examples.md", "md_atom_type": "TABLE_ROW", "md_parent_section": "§NV.2 [Example 2]", "md_verbatim": "| 5 | MS123 | NV | MS01-01 | 123 | OD | 5 | 1 | INTP | Interpretation | VISUAL EVOKED POTENTIAL | ABNORMAL | | ABNORMAL | | | | | | EYE | RIGHT | EEG | 1 | 2013-02-08 |", "score": 0.4259, "match_basis": "verbatim_token+domain_route:NV"}, {"md_atom_id": "md_dmNV_ex_a011", "md_file": "knowledge_base/domains/NV/examples.md", "md_atom_type": "TABLE_ROW", "md_parent_section": "§NV.1 [Example 1]", "md_verbatim": "| 2 | ABC123 | NV | AD01-101 | 22 | 2 | 1236 | 03 | SUVR | Standard Uptake Value Ratio | 1.17 | RATIO | 1.17 | 1.17 | RATIO | CINGULATE CORTEX | POSTERIOR | PET/CT SCAN | 1 | 2012-05-22 |", "score": 0.421, "match_basis": "verbatim_token+domain_route:NV"}, {"md_atom_id": "md_dmNV_ex_a013", "md_file": "knowledge_base/domains/NV/examples.md", "md_atom_type": "TABLE_ROW", "md_parent_section": "§NV.1 [Example 1]", "md_verbatim": "| 4 | ABC123 | NV | AD01-102 | 22 | 2 | 1237 | 04 | SUVR | Standard Uptake Value Ratio | 1.78 | RATIO | 1.78 | 1.78 | RATIO | CINGULATE CORTEX | POSTERIOR | PET/CT SCAN | 1 | 2012-05-22 |", "score": 0.421, "match_basis": "verbatim_token+domain_route:NV"}, {"md_atom_id": "md_dmNV_ex_a015", "md_file": "knowledge_base/domains/NV/examples.md", "md_atom_type": "TABLE_ROW", "md_parent_section": "§NV.1 [Example 1]", "md_verbatim": "| 6 | ABC123 | NV | AD01-103 | 44 | 2 | 1238 | 05 | SUVR | Standard Uptake Value Ratio | 1.63 | RATIO | 1.63 | 1.63 | RATIO | CINGULATE CORTEX | POSTERIOR | FDGPET | 1 | 2012-05-22 |", "score": 0.4208, "match_basis": "verbatim_token+domain_route:NV"}], "candidate_count": 5, "zero_candidate": false}
{"pdf_atom_id": "ig34_p0295_a027", "pdf_atom_type": "TABLE_ROW", "pdf_source": "SDTMIG_v3.4", "pdf_page": 295, "pdf_parent_section": "§6.3.7.4 Nervous System Findings (NV)", "pdf_verbatim": "| NVTPT | Planned Time Point Name | Char | | Timing | Text description of time when measurement should be taken. This may be represented as an elapsed time relative to a fixed reference point (e.g., \"TIME OF LAST DOSE\"). See NVTPTNUM and NVTPTREF. Examples: \"START\", \"5 MIN POST\". | Perm |", "figure_ref": null, "candidates": [{"md_atom_id": "md_dmNV_ex_a011", "md_file": "knowledge_base/domains/NV/examples.md", "md_atom_type": "TABLE_ROW", "md_parent_section": "§NV.1 [Example 1]", "md_verbatim": "| 2 | ABC123 | NV | AD01-101 | 22 | 2 | 1236 | 03 | SUVR | Standard Uptake Value Ratio | 1.17 | RATIO | 1.17 | 1.17 | RATIO | CINGULATE CORTEX | POSTERIOR | PET/CT SCAN | 1 | 2012-05-22 |", "score": 0.4465, "match_basis": "verbatim_token+domain_route:NV"}, {"md_atom_id": "md_dmNV_ex_a013", "md_file": "knowledge_base/domains/NV/examples.md", "md_atom_type": "TABLE_ROW", "md_parent_section": "§NV.1 [Example 1]", "md_verbatim": "| 4 | ABC123 | NV | AD01-102 | 22 | 2 | 1237 | 04 | SUVR | Standard Uptake Value Ratio | 1.78 | RATIO | 1.78 | 1.78 | RATIO | CINGULATE CORTEX | POSTERIOR | PET/CT SCAN | 1 | 2012-05-22 |", "score": 0.4465, "match_basis": "verbatim_token+domain_route:NV"}, {"md_atom_id": "md_dmNV_ex_a015", "md_file": "knowledge_base/domains/NV/examples.md", "md_atom_type": "TABLE_ROW", "md_parent_section": "§NV.1 [Example 1]", "md_verbatim": "| 6 | ABC123 | NV | AD01-103 | 44 | 2 | 1238 | 05 | SUVR | Standard Uptake Value Ratio | 1.63 | RATIO | 1.63 | 1.63 | RATIO | CINGULATE CORTEX | POSTERIOR | FDGPET | 1 | 2012-05-22 |", "score": 0.4462, "match_basis": "verbatim_token+domain_route:NV"}, {"md_atom_id": "md_dmNV_ex_a023", "md_file": "knowledge_base/domains/NV/examples.md", "md_atom_type": "TABLE_ROW", "md_parent_section": "§NV.1 [Example 1]", "md_verbatim": "| 5 | ABC123 | NV | AD01-103 | NVSEQ | 1 | REFREG | Reference Region | PONS |", "score": 0.4397, "match_basis": "verbatim_token+domain_route:NV"}, {"md_atom_id": "md_dmNV_ex_a024", "md_file": "knowledge_base/domains/NV/examples.md", "md_atom_type": "TABLE_ROW", "md_parent_section": "§NV.1 [Example 1]", "md_verbatim": "| 6 | ABC123 | NV | AD01-103 | NVSEQ | 2 | REFREG | Reference Region | PONS |", "score": 0.4397, "match_basis": "verbatim_token+domain_route:NV"}], "candidate_count": 5, "zero_candidate": false}
{"pdf_atom_id": "ig34_p0296_a001", "pdf_atom_type": "TABLE_ROW", "pdf_source": "SDTMIG_v3.4", "pdf_page": 296, "pdf_parent_section": "§6.3.7.4 Nervous System Findings (NV)", "pdf_verbatim": "| NVTPTNUM | Planned Time Point Number | Num |  | Timing | Numerical version of NVTPT to aid in sorting. | Perm |", "figure_ref": null, "candidates": [{"md_atom_id": "md_dmNV_ex_a011", "md_file": "knowledge_base/domains/NV/examples.md", "md_atom_type": "TABLE_ROW", "md_parent_section": "§NV.1 [Example 1]", "md_verbatim": "| 2 | ABC123 | NV | AD01-101 | 22 | 2 | 1236 | 03 | SUVR | Standard Uptake Value Ratio | 1.17 | RATIO | 1.17 | 1.17 | RATIO | CINGULATE CORTEX | POSTERIOR | PET/CT SCAN | 1 | 2012-05-22 |", "score": 0.4209, "match_basis": "verbatim_token+domain_route:NV"}, {"md_atom_id": "md_dmNV_ex_a013", "md_file": "knowledge_base/domains/NV/examples.md", "md_atom_type": "TABLE_ROW", "md_parent_section": "§NV.1 [Example 1]", "md_verbatim": "| 4 | ABC123 | NV | AD01-102 | 22 | 2 | 1237 | 04 | SUVR | Standard Uptake Value Ratio | 1.78 | RATIO | 1.78 | 1.78 | RATIO | CINGULATE CORTEX | POSTERIOR | PET/CT SCAN | 1 | 2012-05-22 |", "score": 0.4209, "match_basis": "verbatim_token+domain_route:NV"}, {"md_atom_id": "md_dmNV_ex_a015", "md_file": "knowledge_base/domains/NV/examples.md", "md_atom_type": "TABLE_ROW", "md_parent_section": "§NV.1 [Example 1]", "md_verbatim": "| 6 | ABC123 | NV | AD01-103 | 44 | 2 | 1238 | 05 | SUVR | Standard Uptake Value Ratio | 1.63 | RATIO | 1.63 | 1.63 | RATIO | CINGULATE CORTEX | POSTERIOR | FDGPET | 1 | 2012-05-22 |", "score": 0.4207, "match_basis": "verbatim_token+domain_route:NV"}, {"md_atom_id": "md_dmNV_ex_a060", "md_file": "knowledge_base/domains/NV/examples.md", "md_atom_type": "TABLE_ROW", "md_parent_section": "§NV.2 [Example 2]", "md_verbatim": "| 10 | MS123 | NV | MS01-01 | 123 | OS | 10 | 2 | INTP | Interpretation | VISUAL EVOKED POTENTIAL | ABNORMAL | | ABNORMAL | | | | | | EYE | LEFT | EEG | 1 | 2013-02-08 |", "score": 0.4145, "match_basis": "verbatim_token+domain_route:NV"}, {"md_atom_id": "md_dmNV_ex_a055", "md_file": "knowledge_base/domains/NV/examples.md", "md_atom_type": "TABLE_ROW", "md_parent_section": "§NV.2 [Example 2]", "md_verbatim": "| 5 | MS123 | NV | MS01-01 | 123 | OD | 5 | 1 | INTP | Interpretation | VISUAL EVOKED POTENTIAL | ABNORMAL | | ABNORMAL | | | | | | EYE | RIGHT | EEG | 1 | 2013-02-08 |", "score": 0.4143, "match_basis": "verbatim_token+domain_route:NV"}], "candidate_count": 5, "zero_candidate": false}
{"pdf_atom_id": "ig34_p0296_a002", "pdf_atom_type": "TABLE_ROW", "pdf_source": "SDTMIG_v3.4", "pdf_page": 296, "pdf_parent_section": "§6.3.7.4 Nervous System Findings (NV)", "pdf_verbatim": "| NVELTM | Planned Elapsed Time from Time Point Ref | Char | ISO 8601 duration | Timing | Planned elapsed time (in ISO 8601) relative to a fixed time point reference (NVTPTREF). Not a clock time or a date time variable. Represented as an ISO 8601 duration. Examples: \"-PT15M\" to represent the period of 15 minutes prior to the reference point indicated by NVTPTREF, \"PT8H\" to represent the period of 8 hours after the reference point indicated by NVTPTREF. | Perm |", "figure_ref": null, "candidates": [{"md_atom_id": "md_dmNV_ex_a011", "md_file": "knowledge_base/domains/NV/examples.md", "md_atom_type": "TABLE_ROW", "md_parent_section": "§NV.1 [Example 1]", "md_verbatim": "| 2 | ABC123 | NV | AD01-101 | 22 | 2 | 1236 | 03 | SUVR | Standard Uptake Value Ratio | 1.17 | RATIO | 1.17 | 1.17 | RATIO | CINGULATE CORTEX | POSTERIOR | PET/CT SCAN | 1 | 2012-05-22 |", "score": 0.4405, "match_basis": "verbatim_token+domain_route:NV"}, {"md_atom_id": "md_dmNV_ex_a013", "md_file": "knowledge_base/domains/NV/examples.md", "md_atom_type": "TABLE_ROW", "md_parent_section": "§NV.1 [Example 1]", "md_verbatim": "| 4 | ABC123 | NV | AD01-102 | 22 | 2 | 1237 | 04 | SUVR | Standard Uptake Value Ratio | 1.78 | RATIO | 1.78 | 1.78 | RATIO | CINGULATE CORTEX | POSTERIOR | PET/CT SCAN | 1 | 2012-05-22 |", "score": 0.4405, "match_basis": "verbatim_token+domain_route:NV"}, {"md_atom_id": "md_dmNV_ex_a015", "md_file": "knowledge_base/domains/NV/examples.md", "md_atom_type": "TABLE_ROW", "md_parent_section": "§NV.1 [Example 1]", "md_verbatim": "| 6 | ABC123 | NV | AD01-103 | 44 | 2 | 1238 | 05 | SUVR | Standard Uptake Value Ratio | 1.63 | RATIO | 1.63 | 1.63 | RATIO | CINGULATE CORTEX | POSTERIOR | FDGPET | 1 | 2012-05-22 |", "score": 0.4403, "match_basis": "verbatim_token+domain_route:NV"}, {"md_atom_id": "md_dmNV_ex_a023", "md_file": "knowledge_base/domains/NV/examples.md", "md_atom_type": "TABLE_ROW", "md_parent_section": "§NV.1 [Example 1]", "md_verbatim": "| 5 | ABC123 | NV | AD01-103 | NVSEQ | 1 | REFREG | Reference Region | PONS |", "score": 0.4381, "match_basis": "verbatim_token+domain_route:NV"}, {"md_atom_id": "md_dmNV_ex_a024", "md_file": "knowledge_base/domains/NV/examples.md", "md_atom_type": "TABLE_ROW", "md_parent_section": "§NV.1 [Example 1]", "md_verbatim": "| 6 | ABC123 | NV | AD01-103 | NVSEQ | 2 | REFREG | Reference Region | PONS |", "score": 0.4381, "match_basis": "verbatim_token+domain_route:NV"}], "candidate_count": 5, "zero_candidate": false}
{"pdf_atom_id": "ig34_p0296_a003", "pdf_atom_type": "TABLE_ROW", "pdf_source": "SDTMIG_v3.4", "pdf_page": 296, "pdf_parent_section": "§6.3.7.4 Nervous System Findings (NV)", "pdf_verbatim": "| NVTPTREF | Time Point Reference | Char |  | Timing | Name of the fixed reference point referred to by NVELTM, NVTPTNUM, and NVTPT. Examples: \"PREVIOUS DOSE\", \"PREVIOUS MEAL\". | Perm |", "figure_ref": null, "candidates": [{"md_atom_id": "md_dmNV_ex_a023", "md_file": "knowledge_base/domains/NV/examples.md", "md_atom_type": "TABLE_ROW", "md_parent_section": "§NV.1 [Example 1]", "md_verbatim": "| 5 | ABC123 | NV | AD01-103 | NVSEQ | 1 | REFREG | Reference Region | PONS |", "score": 0.456, "match_basis": "verbatim_token+domain_route:NV"}, {"md_atom_id": "md_dmNV_ex_a024", "md_file": "knowledge_base/domains/NV/examples.md", "md_atom_type": "TABLE_ROW", "md_parent_section": "§NV.1 [Example 1]", "md_verbatim": "| 6 | ABC123 | NV | AD01-103 | NVSEQ | 2 | REFREG | Reference Region | PONS |", "score": 0.456, "match_basis": "verbatim_token+domain_route:NV"}, {"md_atom_id": "md_dmNV_ex_a019", "md_file": "knowledge_base/domains/NV/examples.md", "md_atom_type": "TABLE_ROW", "md_parent_section": "§NV.1 [Example 1]", "md_verbatim": "| 1 | ABC123 | NV | AD01-101 | NVSEQ | 1 | REFREG | Reference Region | CEREBELLUM |", "score": 0.4525, "match_basis": "verbatim_token+domain_route:NV"}, {"md_atom_id": "md_dmNV_ex_a020", "md_file": "knowledge_base/domains/NV/examples.md", "md_atom_type": "TABLE_ROW", "md_parent_section": "§NV.1 [Example 1]", "md_verbatim": "| 2 | ABC123 | NV | AD01-101 | NVSEQ | 2 | REFREG | Reference Region | CEREBELLUM |", "score": 0.4525, "match_basis": "verbatim_token+domain_route:NV"}, {"md_atom_id": "md_dmNV_ex_a021", "md_file": "knowledge_base/domains/NV/examples.md", "md_atom_type": "TABLE_ROW", "md_parent_section": "§NV.1 [Example 1]", "md_verbatim": "| 3 | ABC123 | NV | AD01-102 | NVSEQ | 1 | REFREG | Reference Region | CEREBELLUM |", "score": 0.4525, "match_basis": "verbatim_token+domain_route:NV"}], "candidate_count": 5, "zero_candidate": false}
{"pdf_atom_id": "ig34_p0296_a004", "pdf_atom_type": "TABLE_ROW", "pdf_source": "SDTMIG_v3.4", "pdf_page": 296, "pdf_parent_section": "§6.3.7.4 Nervous System Findings (NV)", "pdf_verbatim": "| NVRFTDTC | Date/Time of Reference Time Point | Char | ISO 8601 datetime or interval | Timing | Date/time for a fixed reference time point defined by --TPTREF in ISO 8601 character format. | Perm |", "figure_ref": null, "candidates": [{"md_atom_id": "md_dmNV_ex_a023", "md_file": "knowledge_base/domains/NV/examples.md", "md_atom_type": "TABLE_ROW", "md_parent_section": "§NV.1 [Example 1]", "md_verbatim": "| 5 | ABC123 | NV | AD01-103 | NVSEQ | 1 | REFREG | Reference Region | PONS |", "score": 0.4568, "match_basis": "verbatim_token+domain_route:NV"}, {"md_atom_id": "md_dmNV_ex_a024", "md_file": "knowledge_base/domains/NV/examples.md", "md_atom_type": "TABLE_ROW", "md_parent_section": "§NV.1 [Example 1]", "md_verbatim": "| 6 | ABC123 | NV | AD01-103 | NVSEQ | 2 | REFREG | Reference Region | PONS |", "score": 0.4568, "match_basis": "verbatim_token+domain_route:NV"}, {"md_atom_id": "md_dmNV_ex_a019", "md_file": "knowledge_base/domains/NV/examples.md", "md_atom_type": "TABLE_ROW", "md_parent_section": "§NV.1 [Example 1]", "md_verbatim": "| 1 | ABC123 | NV | AD01-101 | NVSEQ | 1 | REFREG | Reference Region | CEREBELLUM |", "score": 0.4532, "match_basis": "verbatim_token+domain_route:NV"}, {"md_atom_id": "md_dmNV_ex_a020", "md_file": "knowledge_base/domains/NV/examples.md", "md_atom_type": "TABLE_ROW", "md_parent_section": "§NV.1 [Example 1]", "md_verbatim": "| 2 | ABC123 | NV | AD01-101 | NVSEQ | 2 | REFREG | Reference Region | CEREBELLUM |", "score": 0.4532, "match_basis": "verbatim_token+domain_route:NV"}, {"md_atom_id": "md_dmNV_ex_a021", "md_file": "knowledge_base/domains/NV/examples.md", "md_atom_type": "TABLE_ROW", "md_parent_section": "§NV.1 [Example 1]", "md_verbatim": "| 3 | ABC123 | NV | AD01-102 | NVSEQ | 1 | REFREG | Reference Region | CEREBELLUM |", "score": 0.4532, "match_basis": "verbatim_token+domain_route:NV"}], "candidate_count": 5, "zero_candidate": false}
{"pdf_atom_id": "ig34_p0296_a005", "pdf_atom_type": "NOTE", "pdf_source": "SDTMIG_v3.4", "pdf_page": 296, "pdf_parent_section": "§6.3.7.4 Nervous System Findings (NV)", "pdf_verbatim": "1In this column, an asterisk (*) indicates that the variable may be subject to controlled terminology. CDISC/NCI codelist values are enclosed in parentheses.", "figure_ref": null, "candidates": [{"md_atom_id": "md_dmNV_ex_a042", "md_file": "knowledge_base/domains/NV/examples.md", "md_atom_type": "SENTENCE", "md_parent_section": "§NV.2 [Example 2]", "md_verbatim": "This example shows how to represent components of a pattern-reversal visual evoked-potential (VEP) test elicited by checkerboard stimuli for a subject with optic neuritis. VEPs are detected via an EEG using leads that are placed on the back of the subject's head. It is important to note that the nature of VEP testing is such that NVMETHOD should be equal to \"EEG\", and that NVCAT should be equal to \"VISUAL EVOKED POTENTIAL\". Several latencies from each eye — including N75, P100, and N145, as well as the P100 peak-to-peak amplitude (75-100) — are collected and should be represented in NVTESTCD/NVTEST. Details about the VEP equipment including the checkerboard size should be represented in the appropriate device domains. To interpret, each VEP component is compared against normative values established by the laboratory using healthy controls.", "score": 0.3828, "match_basis": "verbatim_token+domain_route:NV"}, {"md_atom_id": "md_dmNV_ex_a026", "md_file": "knowledge_base/domains/NV/examples.md", "md_atom_type": "SENTENCE", "md_parent_section": "§NV.1 [Example 1]", "md_verbatim": "In this example, the sponsor has maintained 2 sets of reference identifiers (REFID values) for the specific purpose of being able to relate records across multiple domains. Because the SDTMIG-MD advocates the use of --REFID to link a group of settings to the results obtained from the reading or interpretation of the test (see SDTMIG-MD, Device-in-Use (DU) domain assumptions), --LNKID has been used to establish the relationships between the procedure, the substance administered during the procedure, and the results obtained from the procedure. --LNKID is unique for each procedure for each subject, so datasets may be related to each other as a whole.", "score": 0.3759, "match_basis": "verbatim_token+domain_route:NV"}, {"md_atom_id": "md_dmNV_ex_a003", "md_file": "knowledge_base/domains/NV/examples.md", "md_atom_type": "SENTENCE", "md_parent_section": "§NV.1 [Example 1]", "md_verbatim": "This example demonstrates the SDTM-based modeling of nervous system information collected and generated from separate positron emission tomography (PET) or PET/computed tomography (PET/CT) procedures.", "score": 0.37, "match_basis": "verbatim_token+domain_route:NV"}, {"md_atom_id": "md_dmNV_ex_a007", "md_file": "knowledge_base/domains/NV/examples.md", "md_atom_type": "SENTENCE", "md_parent_section": "§NV.1 [Example 1]", "md_verbatim": "**Rows 5-6:** Show the SUVR findings based on a fluorodeoxyglucose (FDG)-PET scan for a subject.", "score": 0.37, "match_basis": "verbatim_token+domain_route:NV"}, {"md_atom_id": "md_dmNV_ex_a005", "md_file": "knowledge_base/domains/NV/examples.md", "md_atom_type": "SENTENCE", "md_parent_section": "§NV.1 [Example 1]", "md_verbatim": "**Rows 1-2:** Show the SUVR findings based on a PET/CT scan for a subject.", "score": 0.3668, "match_basis": "verbatim_token+domain_route:NV"}], "candidate_count": 5, "zero_candidate": false}
{"pdf_atom_id": "ig34_p0296_a006", "pdf_atom_type": "HEADING", "pdf_source": "SDTMIG_v3.4", "pdf_page": 296, "pdf_parent_section": "§6.3.7.4 Nervous System Findings (NV)", "pdf_verbatim": "NV – Assumptions", "figure_ref": null, "candidates": [{"md_atom_id": "md_dmNV_assn_a001", "md_file": "knowledge_base/domains/NV/assumptions.md", "md_atom_type": "HEADING", "md_parent_section": "§NV [NV — Assumptions]", "md_verbatim": "# NV — Assumptions", "score": 1.0, "match_basis": "verbatim_token+domain_route:NV"}, {"md_atom_id": "md_dmNV_ex_a001", "md_file": "knowledge_base/domains/NV/examples.md", "md_atom_type": "HEADING", "md_parent_section": "§NV [NV — Examples]", "md_verbatim": "# NV — Examples", "score": 0.4, "match_basis": "verbatim_token+domain_route:NV"}, {"md_atom_id": "md_dmNV_ex_a002", "md_file": "knowledge_base/domains/NV/examples.md", "md_atom_type": "HEADING", "md_parent_section": "§NV [NV — Examples]", "md_verbatim": "## Example 1", "score": 0.4, "match_basis": "verbatim_token+domain_route:NV"}, {"md_atom_id": "md_dmNV_ex_a041", "md_file": "knowledge_base/domains/NV/examples.md", "md_atom_type": "HEADING", "md_parent_section": "§NV [NV — Examples]", "md_verbatim": "## Example 2", "score": 0.4, "match_basis": "verbatim_token+domain_route:NV"}], "candidate_count": 4, "zero_candidate": false}
{"pdf_atom_id": "ig34_p0296_a007", "pdf_atom_type": "LIST_ITEM", "pdf_source": "SDTMIG_v3.4", "pdf_page": 296, "pdf_parent_section": "§6.3.7.4 Nervous System Findings (NV)", "pdf_verbatim": "1.  Methods of assessment for nervous system findings may include nerve conduction studies, electroencephalogram (EEG), electromyography (EMG), and imaging.", "figure_ref": null, "candidates": [{"md_atom_id": "md_dmNV_assn_a002", "md_file": "knowledge_base/domains/NV/assumptions.md", "md_atom_type": "LIST_ITEM", "md_parent_section": "§NV [NV — Assumptions]", "md_verbatim": "1. Methods of assessment for nervous system findings may include nerve conduction studies, electroencephalogram (EEG), electromyography (EMG), and imaging.", "score": 1.0, "match_basis": "verbatim_token+domain_route:NV"}, {"md_atom_id": "md_dmNV_assn_a003", "md_file": "knowledge_base/domains/NV/assumptions.md", "md_atom_type": "LIST_ITEM", "md_parent_section": "§NV [NV — Assumptions]", "md_verbatim": "2. Any Identifiers, Timing variables, or Findings general observation class qualifiers may be added to the NV domain, but the following qualifiers would not generally be used: --MODIFY, --BODSYS, --LOINC, --TOX, --TOXGR.", "score": 0.464, "match_basis": "verbatim_token+domain_route:NV"}, {"md_atom_id": "md_dmNV_ex_a003", "md_file": "knowledge_base/domains/NV/examples.md", "md_atom_type": "SENTENCE", "md_parent_section": "§NV.1 [Example 1]", "md_verbatim": "This example demonstrates the SDTM-based modeling of nervous system information collected and generated from separate positron emission tomography (PET) or PET/computed tomography (PET/CT) procedures.", "score": 0.399, "match_basis": "verbatim_token+domain_route:NV"}, {"md_atom_id": "md_dmNV_ex_a061", "md_file": "knowledge_base/domains/NV/examples.md", "md_atom_type": "SENTENCE", "md_parent_section": "§NV.2 [Example 2]", "md_verbatim": "Information about the VEP device is not shown. Identifying information would be represented using the DI domain, and any properties of the device that may change between assessments would be represented in the DO and DU domains. See the SDTMIG-MD for examples of these domains.", "score": 0.3673, "match_basis": "verbatim_token+domain_route:NV"}, {"md_atom_id": "md_dmNV_ex_a004", "md_file": "knowledge_base/domains/NV/examples.md", "md_atom_type": "SENTENCE", "md_parent_section": "§NV.1 [Example 1]", "md_verbatim": "For this study, measures for standard uptake value ratios (SUVRs) were taken from 3 PET or PET/CT scans. SPDEVID shows the scanner used. NVLNKID can be used to link to the imaging procedure record in the Procedures domain (PRLNKID), as well as to the tracer administration record in the Procedure Agents domain (AGLNKID). AGLNKID would be used to determine which tracer uptake is being measured (SUVR), and therefore to which biomarker the findings pertain. NVDTC corresponds to the date of the PET or PET/CT procedure from which these results were obtained.", "score": 0.3648, "match_basis": "verbatim_token+domain_route:NV"}], "candidate_count": 5, "zero_candidate": false}
{"pdf_atom_id": "ig34_p0296_a008", "pdf_atom_type": "LIST_ITEM", "pdf_source": "SDTMIG_v3.4", "pdf_page": 296, "pdf_parent_section": "§6.3.7.4 Nervous System Findings (NV)", "pdf_verbatim": "2.  Any Identifiers, Timing variables, or Findings general observation class qualifiers may be added to the NV domain, but the following qualifiers would not generally be used: --MODIFY, --BODSYS, --LOINC, --TOX, --TOXGR.", "figure_ref": null, "candidates": [{"md_atom_id": "md_dmNV_assn_a003", "md_file": "knowledge_base/domains/NV/assumptions.md", "md_atom_type": "LIST_ITEM", "md_parent_section": "§NV [NV — Assumptions]", "md_verbatim": "2. Any Identifiers, Timing variables, or Findings general observation class qualifiers may be added to the NV domain, but the following qualifiers would not generally be used: --MODIFY, --BODSYS, --LOINC, --TOX, --TOXGR.", "score": 1.0, "match_basis": "verbatim_token+domain_route:NV"}, {"md_atom_id": "md_dmNV_assn_a002", "md_file": "knowledge_base/domains/NV/assumptions.md", "md_atom_type": "LIST_ITEM", "md_parent_section": "§NV [NV — Assumptions]", "md_verbatim": "1. Methods of assessment for nervous system findings may include nerve conduction studies, electroencephalogram (EEG), electromyography (EMG), and imaging.", "score": 0.464, "match_basis": "verbatim_token+domain_route:NV"}, {"md_atom_id": "md_dmNV_ex_a061", "md_file": "knowledge_base/domains/NV/examples.md", "md_atom_type": "SENTENCE", "md_parent_section": "§NV.2 [Example 2]", "md_verbatim": "Information about the VEP device is not shown. Identifying information would be represented using the DI domain, and any properties of the device that may change between assessments would be represented in the DO and DU domains. See the SDTMIG-MD for examples of these domains.", "score": 0.4002, "match_basis": "verbatim_token+domain_route:NV"}, {"md_atom_id": "md_dmNV_ex_a044", "md_file": "knowledge_base/domains/NV/examples.md", "md_atom_type": "SENTENCE", "md_parent_section": "§NV.2 [Example 2]", "md_verbatim": "The NV domain should be used to represent the VEP latencies, P100 peak-to-peak amplitude, and their interpretations. SPDEVID allows the results to be related to both the VEP testing device and the checkerboard size.", "score": 0.375, "match_basis": "verbatim_token+domain_route:NV"}, {"md_atom_id": "md_dmNV_ex_a004", "md_file": "knowledge_base/domains/NV/examples.md", "md_atom_type": "SENTENCE", "md_parent_section": "§NV.1 [Example 1]", "md_verbatim": "For this study, measures for standard uptake value ratios (SUVRs) were taken from 3 PET or PET/CT scans. SPDEVID shows the scanner used. NVLNKID can be used to link to the imaging procedure record in the Procedures domain (PRLNKID), as well as to the tracer administration record in the Procedure Agents domain (AGLNKID). AGLNKID would be used to determine which tracer uptake is being measured (SUVR), and therefore to which biomarker the findings pertain. NVDTC corresponds to the date of the PET or PET/CT procedure from which these results were obtained.", "score": 0.3727, "match_basis": "verbatim_token+domain_route:NV"}], "candidate_count": 5, "zero_candidate": false}
{"pdf_atom_id": "ig34_p0296_a009", "pdf_atom_type": "HEADING", "pdf_source": "SDTMIG_v3.4", "pdf_page": 296, "pdf_parent_section": "§6.3.7.4 Nervous System Findings (NV)", "pdf_verbatim": "NV – Examples", "figure_ref": null, "candidates": [{"md_atom_id": "md_dmNV_ex_a001", "md_file": "knowledge_base/domains/NV/examples.md", "md_atom_type": "HEADING", "md_parent_section": "§NV [NV — Examples]", "md_verbatim": "# NV — Examples", "score": 1.0, "match_basis": "verbatim_token+domain_route:NV"}, {"md_atom_id": "md_dmNV_ex_a002", "md_file": "knowledge_base/domains/NV/examples.md", "md_atom_type": "HEADING", "md_parent_section": "§NV [NV — Examples]", "md_verbatim": "## Example 1", "score": 0.9, "match_basis": "verbatim_token+domain_route:NV"}, {"md_atom_id": "md_dmNV_ex_a041", "md_file": "knowledge_base/domains/NV/examples.md", "md_atom_type": "HEADING", "md_parent_section": "§NV [NV — Examples]", "md_verbatim": "## Example 2", "score": 0.9, "match_basis": "verbatim_token+domain_route:NV"}, {"md_atom_id": "md_dmNV_assn_a001", "md_file": "knowledge_base/domains/NV/assumptions.md", "md_atom_type": "HEADING", "md_parent_section": "§NV [NV — Assumptions]", "md_verbatim": "# NV — Assumptions", "score": 0.4, "match_basis": "verbatim_token+domain_route:NV"}], "candidate_count": 4, "zero_candidate": false}
{"pdf_atom_id": "ig34_p0296_a010", "pdf_atom_type": "HEADING", "pdf_source": "SDTMIG_v3.4", "pdf_page": 296, "pdf_parent_section": "§6.3.7.4 Nervous System Findings (NV)", "pdf_verbatim": "Example 1", "figure_ref": null, "candidates": [{"md_atom_id": "md_dmNV_ex_a002", "md_file": "knowledge_base/domains/NV/examples.md", "md_atom_type": "HEADING", "md_parent_section": "§NV [NV — Examples]", "md_verbatim": "## Example 1", "score": 1.0, "match_basis": "verbatim_token+domain_route:NV"}, {"md_atom_id": "md_dmNV_ex_a041", "md_file": "knowledge_base/domains/NV/examples.md", "md_atom_type": "HEADING", "md_parent_section": "§NV [NV — Examples]", "md_verbatim": "## Example 2", "score": 1.0, "match_basis": "verbatim_token+domain_route:NV"}, {"md_atom_id": "md_dmNV_ex_a001", "md_file": "knowledge_base/domains/NV/examples.md", "md_atom_type": "HEADING", "md_parent_section": "§NV [NV — Examples]", "md_verbatim": "# NV — Examples", "score": 0.9, "match_basis": "verbatim_token+domain_route:NV"}, {"md_atom_id": "md_dmNV_assn_a001", "md_file": "knowledge_base/domains/NV/assumptions.md", "md_atom_type": "HEADING", "md_parent_section": "§NV [NV — Assumptions]", "md_verbatim": "# NV — Assumptions", "score": 0.4, "match_basis": "verbatim_token+domain_route:NV"}], "candidate_count": 4, "zero_candidate": false}
{"pdf_atom_id": "ig34_p0296_a011", "pdf_atom_type": "SENTENCE", "pdf_source": "SDTMIG_v3.4", "pdf_page": 296, "pdf_parent_section": "§6.3.7.4 Nervous System Findings (NV)", "pdf_verbatim": "This example demonstrates the SDTM-based modeling of nervous system information collected and generated from separate positron emission tomography (PET) or PET/computed tomography (PET/CT) procedures.", "figure_ref": null, "candidates": [{"md_atom_id": "md_dmNV_ex_a003", "md_file": "knowledge_base/domains/NV/examples.md", "md_atom_type": "SENTENCE", "md_parent_section": "§NV.1 [Example 1]", "md_verbatim": "This example demonstrates the SDTM-based modeling of nervous system information collected and generated from separate positron emission tomography (PET) or PET/computed tomography (PET/CT) procedures.", "score": 1.0, "match_basis": "verbatim_token+domain_route:NV"}, {"md_atom_id": "md_dmNV_ex_a026", "md_file": "knowledge_base/domains/NV/examples.md", "md_atom_type": "SENTENCE", "md_parent_section": "§NV.1 [Example 1]", "md_verbatim": "In this example, the sponsor has maintained 2 sets of reference identifiers (REFID values) for the specific purpose of being able to relate records across multiple domains. Because the SDTMIG-MD advocates the use of --REFID to link a group of settings to the results obtained from the reading or interpretation of the test (see SDTMIG-MD, Device-in-Use (DU) domain assumptions), --LNKID has been used to establish the relationships between the procedure, the substance administered during the procedure, and the results obtained from the procedure. --LNKID is unique for each procedure for each subject, so datasets may be related to each other as a whole.", "score": 0.4815, "match_basis": "verbatim_token+domain_route:NV"}, {"md_atom_id": "md_dmNV_ex_a061", "md_file": "knowledge_base/domains/NV/examples.md", "md_atom_type": "SENTENCE", "md_parent_section": "§NV.2 [Example 2]", "md_verbatim": "Information about the VEP device is not shown. Identifying information would be represented using the DI domain, and any properties of the device that may change between assessments would be represented in the DO and DU domains. See the SDTMIG-MD for examples of these domains.", "score": 0.4795, "match_basis": "verbatim_token+domain_route:NV"}, {"md_atom_id": "md_dmNV_ex_a043", "md_file": "knowledge_base/domains/NV/examples.md", "md_atom_type": "SENTENCE", "md_parent_section": "§NV.2 [Example 2]", "md_verbatim": "In this example, a VEP component is considered abnormal if it falls outside of 3 standard deviations from the normative lab mean. These low and high values are stored in NVORNRLO and NVORNRHI, respectively, and the interpretation of each VEP component is represented in NVNRIND. In addition to interpreting each VEP component as normal or abnormal, the overall test for each eye may have an interpretation. In this scenario, NVTESTCD/NVTEST should be equal to \"INTP\" (Interpretation) and NVORRES should represent whether the overall test in each eye is normal or abnormal. NVGRPID links the each VEP component to the overall interpretation.", "score": 0.4747, "match_basis": "verbatim_token+domain_route:NV"}, {"md_atom_id": "md_dmNV_ex_a004", "md_file": "knowledge_base/domains/NV/examples.md", "md_atom_type": "SENTENCE", "md_parent_section": "§NV.1 [Example 1]", "md_verbatim": "For this study, measures for standard uptake value ratios (SUVRs) were taken from 3 PET or PET/CT scans. SPDEVID shows the scanner used. NVLNKID can be used to link to the imaging procedure record in the Procedures domain (PRLNKID), as well as to the tracer administration record in the Procedure Agents domain (AGLNKID). AGLNKID would be used to determine which tracer uptake is being measured (SUVR), and therefore to which biomarker the findings pertain. NVDTC corresponds to the date of the PET or PET/CT procedure from which these results were obtained.", "score": 0.474, "match_basis": "verbatim_token+domain_route:NV"}], "candidate_count": 5, "zero_candidate": false}
{"pdf_atom_id": "ig34_p0296_a012", "pdf_atom_type": "SENTENCE", "pdf_source": "SDTMIG_v3.4", "pdf_page": 296, "pdf_parent_section": "§6.3.7.4 Nervous System Findings (NV)", "pdf_verbatim": "For this study, measures for standard uptake value ratios (SUVRs) were taken from 3 PET or PET/CT scans.", "figure_ref": null, "candidates": [{"md_atom_id": "md_dmNV_ex_a004", "md_file": "knowledge_base/domains/NV/examples.md", "md_atom_type": "SENTENCE", "md_parent_section": "§NV.1 [Example 1]", "md_verbatim": "For this study, measures for standard uptake value ratios (SUVRs) were taken from 3 PET or PET/CT scans. SPDEVID shows the scanner used. NVLNKID can be used to link to the imaging procedure record in the Procedures domain (PRLNKID), as well as to the tracer administration record in the Procedure Agents domain (AGLNKID). AGLNKID would be used to determine which tracer uptake is being measured (SUVR), and therefore to which biomarker the findings pertain. NVDTC corresponds to the date of the PET or PET/CT procedure from which these results were obtained.", "score": 0.5557, "match_basis": "verbatim_token+domain_route:NV"}, {"md_atom_id": "md_dmNV_ex_a028", "md_file": "knowledge_base/domains/NV/examples.md", "md_atom_type": "SENTENCE", "md_parent_section": "§NV.1 [Example 1]", "md_verbatim": "**Rows 3-4:** Show the relationship between the scan, represented in PR, and the SUVR results obtained from the scan, represented in NV. Each scan yields 2 results, so the relationship is one-to-many.", "score": 0.4698, "match_basis": "verbatim_token+domain_route:NV"}, {"md_atom_id": "md_dmNV_ex_a030", "md_file": "knowledge_base/domains/NV/examples.md", "md_atom_type": "SENTENCE", "md_parent_section": "§NV.1 [Example 1]", "md_verbatim": "**Rows 7-8:** Show the relationship between the SUVR results and the specific settings for the device used for each scan. There is more than 1 result from each scan, and more than 1 setting for each scan, so the relationship is many-to-many. This relationship is unusual and challenging to manage in a join/merge, and only represents the concept of this relationship.", "score": 0.4672, "match_basis": "verbatim_token+domain_route:NV"}, {"md_atom_id": "md_dmNV_ex_a047", "md_file": "knowledge_base/domains/NV/examples.md", "md_atom_type": "SENTENCE", "md_parent_section": "§NV.2 [Example 2]", "md_verbatim": "**Rows 6-9:** Show the VEP measurements for the left eye.", "score": 0.4655, "match_basis": "verbatim_token+domain_route:NV"}, {"md_atom_id": "md_dmNV_ex_a045", "md_file": "knowledge_base/domains/NV/examples.md", "md_atom_type": "SENTENCE", "md_parent_section": "§NV.2 [Example 2]", "md_verbatim": "**Rows 1-4:** Show the VEP measurements for the right eye.", "score": 0.4643, "match_basis": "verbatim_token+domain_route:NV"}], "candidate_count": 5, "zero_candidate": false}
{"pdf_atom_id": "ig34_p0296_a013", "pdf_atom_type": "SENTENCE", "pdf_source": "SDTMIG_v3.4", "pdf_page": 296, "pdf_parent_section": "§6.3.7.4 Nervous System Findings (NV)", "pdf_verbatim": "SPDEVID shows the scanner used.", "figure_ref": null, "candidates": [{"md_atom_id": "md_dmNV_ex_a005", "md_file": "knowledge_base/domains/NV/examples.md", "md_atom_type": "SENTENCE", "md_parent_section": "§NV.1 [Example 1]", "md_verbatim": "**Rows 1-2:** Show the SUVR findings based on a PET/CT scan for a subject.", "score": 0.5235, "match_basis": "verbatim_token+domain_route:NV"}, {"md_atom_id": "md_dmNV_ex_a006", "md_file": "knowledge_base/domains/NV/examples.md", "md_atom_type": "SENTENCE", "md_parent_section": "§NV.1 [Example 1]", "md_verbatim": "**Rows 3-4:** Show the SUVR findings based on a PET/CT scan for a subject.", "score": 0.5235, "match_basis": "verbatim_token+domain_route:NV"}, {"md_atom_id": "md_dmNV_ex_a007", "md_file": "knowledge_base/domains/NV/examples.md", "md_atom_type": "SENTENCE", "md_parent_section": "§NV.1 [Example 1]", "md_verbatim": "**Rows 5-6:** Show the SUVR findings based on a fluorodeoxyglucose (FDG)-PET scan for a subject.", "score": 0.4824, "match_basis": "verbatim_token+domain_route:NV"}, {"md_atom_id": "md_dmNV_ex_a047", "md_file": "knowledge_base/domains/NV/examples.md", "md_atom_type": "SENTENCE", "md_parent_section": "§NV.2 [Example 2]", "md_verbatim": "**Rows 6-9:** Show the VEP measurements for the left eye.", "score": 0.475, "match_basis": "verbatim_token+domain_route:NV"}, {"md_atom_id": "md_dmNV_ex_a045", "md_file": "knowledge_base/domains/NV/examples.md", "md_atom_type": "SENTENCE", "md_parent_section": "§NV.2 [Example 2]", "md_verbatim": "**Rows 1-4:** Show the VEP measurements for the right eye.", "score": 0.4727, "match_basis": "verbatim_token+domain_route:NV"}], "candidate_count": 5, "zero_candidate": false}
{"pdf_atom_id": "ig34_p0296_a014", "pdf_atom_type": "SENTENCE", "pdf_source": "SDTMIG_v3.4", "pdf_page": 296, "pdf_parent_section": "§6.3.7.4 Nervous System Findings (NV)", "pdf_verbatim": "NVLNKID can be used to link to the imaging procedure record in the Procedures domain (PRLNKID), as well as to the tracer administration record in the Procedure Agents domain (AGLNKID).", "figure_ref": null, "candidates": [{"md_atom_id": "md_dmNV_ex_a004", "md_file": "knowledge_base/domains/NV/examples.md", "md_atom_type": "SENTENCE", "md_parent_section": "§NV.1 [Example 1]", "md_verbatim": "For this study, measures for standard uptake value ratios (SUVRs) were taken from 3 PET or PET/CT scans. SPDEVID shows the scanner used. NVLNKID can be used to link to the imaging procedure record in the Procedures domain (PRLNKID), as well as to the tracer administration record in the Procedure Agents domain (AGLNKID). AGLNKID would be used to determine which tracer uptake is being measured (SUVR), and therefore to which biomarker the findings pertain. NVDTC corresponds to the date of the PET or PET/CT procedure from which these results were obtained.", "score": 0.6165, "match_basis": "verbatim_token+domain_route:NV"}, {"md_atom_id": "md_dmNV_ex_a025", "md_file": "knowledge_base/domains/NV/examples.md", "md_atom_type": "SENTENCE", "md_parent_section": "§NV.1 [Example 1]", "md_verbatim": "The RELREC table displays the dataset relationship that links procedure to multiple NV domain records — specifically how an individual AG administration record related to a scan is linked to multiple NV domain records. The RELREC table uses --LNKID to relate the PR and AG domains to each other and to NV, and --REFID to relate NV and Device in Use (DU).", "score": 0.5641, "match_basis": "verbatim_token+domain_route:NV"}, {"md_atom_id": "md_dmNV_ex_a027", "md_file": "knowledge_base/domains/NV/examples.md", "md_atom_type": "SENTENCE", "md_parent_section": "§NV.1 [Example 1]", "md_verbatim": "**Rows 1-2:** Show the relationship between the scan, represented in PR, and the radiolabel tracer used, represented in AG. There is only 1 tracer administration for each scan, and only 1 scan for each tracer administration, so the relationship is one-to-one.", "score": 0.5286, "match_basis": "verbatim_token+domain_route:NV"}, {"md_atom_id": "md_dmNV_ex_a026", "md_file": "knowledge_base/domains/NV/examples.md", "md_atom_type": "SENTENCE", "md_parent_section": "§NV.1 [Example 1]", "md_verbatim": "In this example, the sponsor has maintained 2 sets of reference identifiers (REFID values) for the specific purpose of being able to relate records across multiple domains. Because the SDTMIG-MD advocates the use of --REFID to link a group of settings to the results obtained from the reading or interpretation of the test (see SDTMIG-MD, Device-in-Use (DU) domain assumptions), --LNKID has been used to establish the relationships between the procedure, the substance administered during the procedure, and the results obtained from the procedure. --LNKID is unique for each procedure for each subject, so datasets may be related to each other as a whole.", "score": 0.4929, "match_basis": "verbatim_token+domain_route:NV"}, {"md_atom_id": "md_dmNV_ex_a003", "md_file": "knowledge_base/domains/NV/examples.md", "md_atom_type": "SENTENCE", "md_parent_section": "§NV.1 [Example 1]", "md_verbatim": "This example demonstrates the SDTM-based modeling of nervous system information collected and generated from separate positron emission tomography (PET) or PET/computed tomography (PET/CT) procedures.", "score": 0.4844, "match_basis": "verbatim_token+domain_route:NV"}], "candidate_count": 5, "zero_candidate": false}
{"pdf_atom_id": "ig34_p0296_a015", "pdf_atom_type": "SENTENCE", "pdf_source": "SDTMIG_v3.4", "pdf_page": 296, "pdf_parent_section": "§6.3.7.4 Nervous System Findings (NV)", "pdf_verbatim": "AGLNKID would be used to determine which tracer uptake is being measured (SUVR), and therefore to which biomarker the findings pertain.", "figure_ref": null, "candidates": [{"md_atom_id": "md_dmNV_ex_a004", "md_file": "knowledge_base/domains/NV/examples.md", "md_atom_type": "SENTENCE", "md_parent_section": "§NV.1 [Example 1]", "md_verbatim": "For this study, measures for standard uptake value ratios (SUVRs) were taken from 3 PET or PET/CT scans. SPDEVID shows the scanner used. NVLNKID can be used to link to the imaging procedure record in the Procedures domain (PRLNKID), as well as to the tracer administration record in the Procedure Agents domain (AGLNKID). AGLNKID would be used to determine which tracer uptake is being measured (SUVR), and therefore to which biomarker the findings pertain. NVDTC corresponds to the date of the PET or PET/CT procedure from which these results were obtained.", "score": 0.643, "match_basis": "verbatim_token+domain_route:NV"}, {"md_atom_id": "md_dmNV_ex_a005", "md_file": "knowledge_base/domains/NV/examples.md", "md_atom_type": "SENTENCE", "md_parent_section": "§NV.1 [Example 1]", "md_verbatim": "**Rows 1-2:** Show the SUVR findings based on a PET/CT scan for a subject.", "score": 0.4846, "match_basis": "verbatim_token+domain_route:NV"}, {"md_atom_id": "md_dmNV_ex_a006", "md_file": "knowledge_base/domains/NV/examples.md", "md_atom_type": "SENTENCE", "md_parent_section": "§NV.1 [Example 1]", "md_verbatim": "**Rows 3-4:** Show the SUVR findings based on a PET/CT scan for a subject.", "score": 0.4846, "match_basis": "verbatim_token+domain_route:NV"}, {"md_atom_id": "md_dmNV_ex_a029", "md_file": "knowledge_base/domains/NV/examples.md", "md_atom_type": "SENTENCE", "md_parent_section": "§NV.1 [Example 1]", "md_verbatim": "**Rows 5-6:** Show the relationship between the radiolabel tracer used and the SUVR results for each scan. This relationship may seem indirect, but it is not: The choice of radiolabel has the potential to affect the results obtained. Because the relationship between PR and AG is one-to-one and the relationship between PR and NV is one-to-many, the relationship between AG and NV must be one-to-many.", "score": 0.4696, "match_basis": "verbatim_token+domain_route:NV"}, {"md_atom_id": "md_dmNV_ex_a007", "md_file": "knowledge_base/domains/NV/examples.md", "md_atom_type": "SENTENCE", "md_parent_section": "§NV.1 [Example 1]", "md_verbatim": "**Rows 5-6:** Show the SUVR findings based on a fluorodeoxyglucose (FDG)-PET scan for a subject.", "score": 0.4695, "match_basis": "verbatim_token+domain_route:NV"}], "candidate_count": 5, "zero_candidate": false}
{"pdf_atom_id": "ig34_p0296_a016", "pdf_atom_type": "SENTENCE", "pdf_source": "SDTMIG_v3.4", "pdf_page": 296, "pdf_parent_section": "§6.3.7.4 Nervous System Findings (NV)", "pdf_verbatim": "NVDTC corresponds to the date of the PET or PET/CT procedure from which these results were obtained.", "figure_ref": null, "candidates": [{"md_atom_id": "md_dmNV_ex_a004", "md_file": "knowledge_base/domains/NV/examples.md", "md_atom_type": "SENTENCE", "md_parent_section": "§NV.1 [Example 1]", "md_verbatim": "For this study, measures for standard uptake value ratios (SUVRs) were taken from 3 PET or PET/CT scans. SPDEVID shows the scanner used. NVLNKID can be used to link to the imaging procedure record in the Procedures domain (PRLNKID), as well as to the tracer administration record in the Procedure Agents domain (AGLNKID). AGLNKID would be used to determine which tracer uptake is being measured (SUVR), and therefore to which biomarker the findings pertain. NVDTC corresponds to the date of the PET or PET/CT procedure from which these results were obtained.", "score": 0.5595, "match_basis": "verbatim_token+domain_route:NV"}, {"md_atom_id": "md_dmNV_ex_a028", "md_file": "knowledge_base/domains/NV/examples.md", "md_atom_type": "SENTENCE", "md_parent_section": "§NV.1 [Example 1]", "md_verbatim": "**Rows 3-4:** Show the relationship between the scan, represented in PR, and the SUVR results obtained from the scan, represented in NV. Each scan yields 2 results, so the relationship is one-to-many.", "score": 0.5098, "match_basis": "verbatim_token+domain_route:NV"}, {"md_atom_id": "md_dmNV_ex_a026", "md_file": "knowledge_base/domains/NV/examples.md", "md_atom_type": "SENTENCE", "md_parent_section": "§NV.1 [Example 1]", "md_verbatim": "In this example, the sponsor has maintained 2 sets of reference identifiers (REFID values) for the specific purpose of being able to relate records across multiple domains. Because the SDTMIG-MD advocates the use of --REFID to link a group of settings to the results obtained from the reading or interpretation of the test (see SDTMIG-MD, Device-in-Use (DU) domain assumptions), --LNKID has been used to establish the relationships between the procedure, the substance administered during the procedure, and the results obtained from the procedure. --LNKID is unique for each procedure for each subject, so datasets may be related to each other as a whole.", "score": 0.474, "match_basis": "verbatim_token+domain_route:NV"}, {"md_atom_id": "md_dmNV_ex_a003", "md_file": "knowledge_base/domains/NV/examples.md", "md_atom_type": "SENTENCE", "md_parent_section": "§NV.1 [Example 1]", "md_verbatim": "This example demonstrates the SDTM-based modeling of nervous system information collected and generated from separate positron emission tomography (PET) or PET/computed tomography (PET/CT) procedures.", "score": 0.4619, "match_basis": "verbatim_token+domain_route:NV"}, {"md_atom_id": "md_dmNV_ex_a029", "md_file": "knowledge_base/domains/NV/examples.md", "md_atom_type": "SENTENCE", "md_parent_section": "§NV.1 [Example 1]", "md_verbatim": "**Rows 5-6:** Show the relationship between the radiolabel tracer used and the SUVR results for each scan. This relationship may seem indirect, but it is not: The choice of radiolabel has the potential to affect the results obtained. Because the relationship between PR and AG is one-to-one and the relationship between PR and NV is one-to-many, the relationship between AG and NV must be one-to-many.", "score": 0.46, "match_basis": "verbatim_token+domain_route:NV"}], "candidate_count": 5, "zero_candidate": false}
{"pdf_atom_id": "ig34_p0296_a017", "pdf_atom_type": "LIST_ITEM", "pdf_source": "SDTMIG_v3.4", "pdf_page": 296, "pdf_parent_section": "§6.3.7.4 Nervous System Findings (NV)", "pdf_verbatim": "Rows 1-2:   Show the SUVR findings based on a PET/CT scan for a subject.", "figure_ref": null, "candidates": [{"md_atom_id": "md_dmNV_ex_a005", "md_file": "knowledge_base/domains/NV/examples.md", "md_atom_type": "SENTENCE", "md_parent_section": "§NV.1 [Example 1]", "md_verbatim": "**Rows 1-2:** Show the SUVR findings based on a PET/CT scan for a subject.", "score": 0.91, "match_basis": "verbatim_token+domain_route:NV"}, {"md_atom_id": "md_dmNV_ex_a006", "md_file": "knowledge_base/domains/NV/examples.md", "md_atom_type": "SENTENCE", "md_parent_section": "§NV.1 [Example 1]", "md_verbatim": "**Rows 3-4:** Show the SUVR findings based on a PET/CT scan for a subject.", "score": 0.91, "match_basis": "verbatim_token+domain_route:NV"}, {"md_atom_id": "md_dmNV_ex_a007", "md_file": "knowledge_base/domains/NV/examples.md", "md_atom_type": "SENTENCE", "md_parent_section": "§NV.1 [Example 1]", "md_verbatim": "**Rows 5-6:** Show the SUVR findings based on a fluorodeoxyglucose (FDG)-PET scan for a subject.", "score": 0.6671, "match_basis": "verbatim_token+domain_route:NV"}, {"md_atom_id": "md_dmNV_assn_a002", "md_file": "knowledge_base/domains/NV/assumptions.md", "md_atom_type": "LIST_ITEM", "md_parent_section": "§NV [NV — Assumptions]", "md_verbatim": "1. Methods of assessment for nervous system findings may include nerve conduction studies, electroencephalogram (EEG), electromyography (EMG), and imaging.", "score": 0.449, "match_basis": "verbatim_token+domain_route:NV"}, {"md_atom_id": "md_dmNV_assn_a003", "md_file": "knowledge_base/domains/NV/assumptions.md", "md_atom_type": "LIST_ITEM", "md_parent_section": "§NV [NV — Assumptions]", "md_verbatim": "2. Any Identifiers, Timing variables, or Findings general observation class qualifiers may be added to the NV domain, but the following qualifiers would not generally be used: --MODIFY, --BODSYS, --LOINC, --TOX, --TOXGR.", "score": 0.4471, "match_basis": "verbatim_token+domain_route:NV"}], "candidate_count": 5, "zero_candidate": false}
{"pdf_atom_id": "ig34_p0296_a018", "pdf_atom_type": "LIST_ITEM", "pdf_source": "SDTMIG_v3.4", "pdf_page": 296, "pdf_parent_section": "§6.3.7.4 Nervous System Findings (NV)", "pdf_verbatim": "Rows 3-4:   Show the SUVR findings based on a PET/CT scan for a subject.", "figure_ref": null, "candidates": [{"md_atom_id": "md_dmNV_ex_a005", "md_file": "knowledge_base/domains/NV/examples.md", "md_atom_type": "SENTENCE", "md_parent_section": "§NV.1 [Example 1]", "md_verbatim": "**Rows 1-2:** Show the SUVR findings based on a PET/CT scan for a subject.", "score": 0.91, "match_basis": "verbatim_token+domain_route:NV"}, {"md_atom_id": "md_dmNV_ex_a006", "md_file": "knowledge_base/domains/NV/examples.md", "md_atom_type": "SENTENCE", "md_parent_section": "§NV.1 [Example 1]", "md_verbatim": "**Rows 3-4:** Show the SUVR findings based on a PET/CT scan for a subject.", "score": 0.91, "match_basis": "verbatim_token+domain_route:NV"}, {"md_atom_id": "md_dmNV_ex_a007", "md_file": "knowledge_base/domains/NV/examples.md", "md_atom_type": "SENTENCE", "md_parent_section": "§NV.1 [Example 1]", "md_verbatim": "**Rows 5-6:** Show the SUVR findings based on a fluorodeoxyglucose (FDG)-PET scan for a subject.", "score": 0.6671, "match_basis": "verbatim_token+domain_route:NV"}, {"md_atom_id": "md_dmNV_assn_a002", "md_file": "knowledge_base/domains/NV/assumptions.md", "md_atom_type": "LIST_ITEM", "md_parent_section": "§NV [NV — Assumptions]", "md_verbatim": "1. Methods of assessment for nervous system findings may include nerve conduction studies, electroencephalogram (EEG), electromyography (EMG), and imaging.", "score": 0.449, "match_basis": "verbatim_token+domain_route:NV"}, {"md_atom_id": "md_dmNV_assn_a003", "md_file": "knowledge_base/domains/NV/assumptions.md", "md_atom_type": "LIST_ITEM", "md_parent_section": "§NV [NV — Assumptions]", "md_verbatim": "2. Any Identifiers, Timing variables, or Findings general observation class qualifiers may be added to the NV domain, but the following qualifiers would not generally be used: --MODIFY, --BODSYS, --LOINC, --TOX, --TOXGR.", "score": 0.4471, "match_basis": "verbatim_token+domain_route:NV"}], "candidate_count": 5, "zero_candidate": false}
{"pdf_atom_id": "ig34_p0296_a019", "pdf_atom_type": "LIST_ITEM", "pdf_source": "SDTMIG_v3.4", "pdf_page": 296, "pdf_parent_section": "§6.3.7.4 Nervous System Findings (NV)", "pdf_verbatim": "Rows 5-6:   Show the SUVR findings based on an fluorodeoxyglucose (FDG)-PET scan for a subject.", "figure_ref": null, "candidates": [{"md_atom_id": "md_dmNV_ex_a007", "md_file": "knowledge_base/domains/NV/examples.md", "md_atom_type": "SENTENCE", "md_parent_section": "§NV.1 [Example 1]", "md_verbatim": "**Rows 5-6:** Show the SUVR findings based on a fluorodeoxyglucose (FDG)-PET scan for a subject.", "score": 0.91, "match_basis": "verbatim_token+domain_route:NV"}, {"md_atom_id": "md_dmNV_ex_a005", "md_file": "knowledge_base/domains/NV/examples.md", "md_atom_type": "SENTENCE", "md_parent_section": "§NV.1 [Example 1]", "md_verbatim": "**Rows 1-2:** Show the SUVR findings based on a PET/CT scan for a subject.", "score": 0.6671, "match_basis": "verbatim_token+domain_route:NV"}, {"md_atom_id": "md_dmNV_ex_a006", "md_file": "knowledge_base/domains/NV/examples.md", "md_atom_type": "SENTENCE", "md_parent_section": "§NV.1 [Example 1]", "md_verbatim": "**Rows 3-4:** Show the SUVR findings based on a PET/CT scan for a subject.", "score": 0.6671, "match_basis": "verbatim_token+domain_route:NV"}, {"md_atom_id": "md_dmNV_assn_a002", "md_file": "knowledge_base/domains/NV/assumptions.md", "md_atom_type": "LIST_ITEM", "md_parent_section": "§NV [NV — Assumptions]", "md_verbatim": "1. Methods of assessment for nervous system findings may include nerve conduction studies, electroencephalogram (EEG), electromyography (EMG), and imaging.", "score": 0.4417, "match_basis": "verbatim_token+domain_route:NV"}, {"md_atom_id": "md_dmNV_assn_a003", "md_file": "knowledge_base/domains/NV/assumptions.md", "md_atom_type": "LIST_ITEM", "md_parent_section": "§NV [NV — Assumptions]", "md_verbatim": "2. Any Identifiers, Timing variables, or Findings general observation class qualifiers may be added to the NV domain, but the following qualifiers would not generally be used: --MODIFY, --BODSYS, --LOINC, --TOX, --TOXGR.", "score": 0.4403, "match_basis": "verbatim_token+domain_route:NV"}], "candidate_count": 5, "zero_candidate": false}
{"pdf_atom_id": "ig34_p0296_a020", "pdf_atom_type": "CODE_LITERAL", "pdf_source": "SDTMIG_v3.4", "pdf_page": 296, "pdf_parent_section": "§6.3.7.4 Nervous System Findings (NV)", "pdf_verbatim": "nv.xpt", "figure_ref": null, "candidates": [{"md_atom_id": "md_dmNV_ex_a008", "md_file": "knowledge_base/domains/NV/examples.md", "md_atom_type": "SENTENCE", "md_parent_section": "§NV.1 [Example 1]", "md_verbatim": "**nv.xpt**", "score": 0.79, "match_basis": "verbatim_token+domain_route:NV"}, {"md_atom_id": "md_dmNV_ex_a049", "md_file": "knowledge_base/domains/NV/examples.md", "md_atom_type": "SENTENCE", "md_parent_section": "§NV.2 [Example 2]", "md_verbatim": "**nv.xpt**", "score": 0.79, "match_basis": "verbatim_token+domain_route:NV"}, {"md_atom_id": "md_dmNV_ex_a017", "md_file": "knowledge_base/domains/NV/examples.md", "md_atom_type": "SENTENCE", "md_parent_section": "§NV.1 [Example 1]", "md_verbatim": "**suppnv.xpt**", "score": 0.31, "match_basis": "verbatim_token+domain_route:NV"}, {"md_atom_id": "md_dmNV_ex_a031", "md_file": "knowledge_base/domains/NV/examples.md", "md_atom_type": "SENTENCE", "md_parent_section": "§NV.1 [Example 1]", "md_verbatim": "**relrec.xpt**", "score": 0.31, "match_basis": "verbatim_token+domain_route:NV"}, {"md_atom_id": "md_dmNV_assn_a001", "md_file": "knowledge_base/domains/NV/assumptions.md", "md_atom_type": "HEADING", "md_parent_section": "§NV [NV — Assumptions]", "md_verbatim": "# NV — Assumptions", "score": 0.19, "match_basis": "verbatim_token+domain_route:NV"}, {"md_atom_id": "md_dmNV_assn_a002", "md_file": "knowledge_base/domains/NV/assumptions.md", "md_atom_type": "LIST_ITEM", "md_parent_section": "§NV [NV — Assumptions]", "md_verbatim": "1. Methods of assessment for nervous system findings may include nerve conduction studies, electroencephalogram (EEG), electromyography (EMG), and imaging.", "score": 0.19, "match_basis": "verbatim_token+domain_route:NV"}, {"md_atom_id": "md_dmNV_assn_a003", "md_file": "knowledge_base/domains/NV/assumptions.md", "md_atom_type": "LIST_ITEM", "md_parent_section": "§NV [NV — Assumptions]", "md_verbatim": "2. Any Identifiers, Timing variables, or Findings general observation class qualifiers may be added to the NV domain, but the following qualifiers would not generally be used: --MODIFY, --BODSYS, --LOINC, --TOX, --TOXGR.", "score": 0.19, "match_basis": "verbatim_token+domain_route:NV"}, {"md_atom_id": "md_dmNV_ex_a001", "md_file": "knowledge_base/domains/NV/examples.md", "md_atom_type": "HEADING", "md_parent_section": "§NV [NV — Examples]", "md_verbatim": "# NV — Examples", "score": 0.19, "match_basis": "verbatim_token+domain_route:NV"}, {"md_atom_id": "md_dmNV_ex_a002", "md_file": "knowledge_base/domains/NV/examples.md", "md_atom_type": "HEADING", "md_parent_section": "§NV [NV — Examples]", "md_verbatim": "## Example 1", "score": 0.19, "match_basis": "verbatim_token+domain_route:NV"}, {"md_atom_id": "md_dmNV_ex_a003", "md_file": "knowledge_base/domains/NV/examples.md", "md_atom_type": "SENTENCE", "md_parent_section": "§NV.1 [Example 1]", "md_verbatim": "This example demonstrates the SDTM-based modeling of nervous system information collected and generated from separate positron emission tomography (PET) or PET/computed tomography (PET/CT) procedures.", "score": 0.19, "match_basis": "verbatim_token+domain_route:NV"}], "candidate_count": 10, "zero_candidate": false}
{"pdf_atom_id": "ig34_p0296_a021", "pdf_atom_type": "TABLE_HEADER", "pdf_source": "SDTMIG_v3.4", "pdf_page": 296, "pdf_parent_section": "§6.3.7.4 Nervous System Findings (NV)", "pdf_verbatim": "| Row | STUDYID | DOMAIN | USUBJID | SPDEVID | NVSEQ | NVREFID | NVLNKID | NVTESTCD | NVTEST | NVORRES | NVORRESU | NVSTRESC | NVSTRESN | NVSTRESU | NVLOC | NVDIR | NVMETHOD | VISITNUM | NVDTC |", "figure_ref": null, "candidates": [{"md_atom_id": "md_dmNV_ex_a009", "md_file": "knowledge_base/domains/NV/examples.md", "md_atom_type": "TABLE_HEADER", "md_parent_section": "§NV.1 [Example 1]", "md_verbatim": "| Row | STUDYID | DOMAIN | USUBJID | SPDEVID | NVSEQ | NVREFID | NVLNKID | NVTESTCD | NVTEST | NVORRES | NVORRESU | NVSTRESC | NVSTRESN | NVSTRESU | NVLOC | NVDIR | NVMETHOD | VISITNUM | NVDTC |\n|-----|---------|--------|---------|---------|-------|---------|---------|----------|--------|---------|----------|----------|----------|----------|-------|-------|----------|----------|-------|", "score": 1.0, "match_basis": "verbatim_token+domain_route:NV"}, {"md_atom_id": "md_dmNV_ex_a050", "md_file": "knowledge_base/domains/NV/examples.md", "md_atom_type": "TABLE_HEADER", "md_parent_section": "§NV.2 [Example 2]", "md_verbatim": "| Row | STUDYID | DOMAIN | USUBJID | SPDEVID | FOCID | NVSEQ | NVGRPID | NVTESTCD | NVTEST | NVCAT | NVORRES | NVORRESU | NVSTRESC | NVSTRESN | NVSTRESU | NVORNRLO | NVORNRHI | NVNRIND | NVLOC | NVLAT | NVMETHOD | VISITNUM | NVDTC |\n|-----|---------|--------|---------|---------|-------|-------|---------|----------|--------|-------|---------|----------|----------|----------|----------|----------|----------|---------|-------|-------|----------|----------|-------|", "score": 0.7742, "match_basis": "verbatim_token+domain_route:NV"}, {"md_atom_id": "md_dmNV_ex_a018", "md_file": "knowledge_base/domains/NV/examples.md", "md_atom_type": "TABLE_HEADER", "md_parent_section": "§NV.1 [Example 1]", "md_verbatim": "| Row | STUDYID | RDOMAIN | USUBJID | IDVAR | IDVARVAL | QNAM | QLABEL | QVAL |\n|-----|---------|---------|---------|-------|----------|------|--------|------|", "score": 0.5084, "match_basis": "verbatim_token+domain_route:NV"}, {"md_atom_id": "md_dmNV_ex_a032", "md_file": "knowledge_base/domains/NV/examples.md", "md_atom_type": "TABLE_HEADER", "md_parent_section": "§NV.1 [Example 1]", "md_verbatim": "| Row | STUDYID | RDOMAIN | USUBJID | IDVAR | IDVARVAL | RELTYPE | RELID |\n|-----|---------|---------|---------|-------|----------|---------|-------|", "score": 0.5084, "match_basis": "verbatim_token+domain_route:NV"}, {"md_atom_id": "md_dmNV_ex_a036", "md_file": "knowledge_base/domains/NV/examples.md", "md_atom_type": "TABLE_ROW", "md_parent_section": "§NV.1 [Example 1]", "md_verbatim": "| 4 | ABC123 | NV | | NVLNKID | | MANY | 7 |", "score": 0.38, "match_basis": "verbatim_token+domain_route:NV"}], "candidate_count": 5, "zero_candidate": false}
{"pdf_atom_id": "ig34_p0296_a022", "pdf_atom_type": "TABLE_ROW", "pdf_source": "SDTMIG_v3.4", "pdf_page": 296, "pdf_parent_section": "§6.3.7.4 Nervous System Findings (NV)", "pdf_verbatim": "| 1 | ABC123 | NV | AD01-101 | 22 | 1 | 1236 | 03 | SUVR | Standard Uptake Value Ratio | .95 | RATIO | .95 | .95 | RATIO | PRECUNEUS |  | PET/CT SCAN | 1 | 2012-05-22 |", "figure_ref": null, "candidates": [{"md_atom_id": "md_dmNV_ex_a010", "md_file": "knowledge_base/domains/NV/examples.md", "md_atom_type": "TABLE_ROW", "md_parent_section": "§NV.1 [Example 1]", "md_verbatim": "| 1 | ABC123 | NV | AD01-101 | 22 | 1 | 1236 | 03 | SUVR | Standard Uptake Value Ratio | 0.95 | RATIO | 0.95 | 0.95 | RATIO | PRECUNEUS | | PET/CT SCAN | 1 | 2012-05-22 |", "score": 1.0, "match_basis": "verbatim_token+domain_route:NV"}, {"md_atom_id": "md_dmNV_ex_a012", "md_file": "knowledge_base/domains/NV/examples.md", "md_atom_type": "TABLE_ROW", "md_parent_section": "§NV.1 [Example 1]", "md_verbatim": "| 3 | ABC123 | NV | AD01-102 | 22 | 1 | 1237 | 04 | SUVR | Standard Uptake Value Ratio | 1.21 | RATIO | 1.21 | 1.21 | RATIO | PRECUNEUS | | PET/CT SCAN | 1 | 2012-05-22 |", "score": 0.94, "match_basis": "verbatim_token+domain_route:NV"}, {"md_atom_id": "md_dmNV_ex_a014", "md_file": "knowledge_base/domains/NV/examples.md", "md_atom_type": "TABLE_ROW", "md_parent_section": "§NV.1 [Example 1]", "md_verbatim": "| 5 | ABC123 | NV | AD01-103 | 44 | 1 | 1238 | 05 | SUVR | Standard Uptake Value Ratio | 1.52 | RATIO | 1.52 | 1.52 | RATIO | PRECUNEUS | | FDGPET | 1 | 2012-05-22 |", "score": 0.8744, "match_basis": "verbatim_token+domain_route:NV"}, {"md_atom_id": "md_dmNV_ex_a011", "md_file": "knowledge_base/domains/NV/examples.md", "md_atom_type": "TABLE_ROW", "md_parent_section": "§NV.1 [Example 1]", "md_verbatim": "| 2 | ABC123 | NV | AD01-101 | 22 | 2 | 1236 | 03 | SUVR | Standard Uptake Value Ratio | 1.17 | RATIO | 1.17 | 1.17 | RATIO | CINGULATE CORTEX | POSTERIOR | PET/CT SCAN | 1 | 2012-05-22 |", "score": 0.7321, "match_basis": "verbatim_token+domain_route:NV"}, {"md_atom_id": "md_dmNV_ex_a013", "md_file": "knowledge_base/domains/NV/examples.md", "md_atom_type": "TABLE_ROW", "md_parent_section": "§NV.1 [Example 1]", "md_verbatim": "| 4 | ABC123 | NV | AD01-102 | 22 | 2 | 1237 | 04 | SUVR | Standard Uptake Value Ratio | 1.78 | RATIO | 1.78 | 1.78 | RATIO | CINGULATE CORTEX | POSTERIOR | PET/CT SCAN | 1 | 2012-05-22 |", "score": 0.7, "match_basis": "verbatim_token+domain_route:NV"}], "candidate_count": 5, "zero_candidate": false}
{"pdf_atom_id": "ig34_p0296_a023", "pdf_atom_type": "TABLE_ROW", "pdf_source": "SDTMIG_v3.4", "pdf_page": 296, "pdf_parent_section": "§6.3.7.4 Nervous System Findings (NV)", "pdf_verbatim": "| 2 | ABC123 | NV | AD01-101 | 22 | 2 | 1236 | 03 | SUVR | Standard Uptake Value Ratio | 1.17 | RATIO | 1.17 |  | RATIO | CINGULATE CORTEX | POSTERIOR | PET/CT SCAN | 1 | 2012-05-22 |", "figure_ref": null, "candidates": [{"md_atom_id": "md_dmNV_ex_a011", "md_file": "knowledge_base/domains/NV/examples.md", "md_atom_type": "TABLE_ROW", "md_parent_section": "§NV.1 [Example 1]", "md_verbatim": "| 2 | ABC123 | NV | AD01-101 | 22 | 2 | 1236 | 03 | SUVR | Standard Uptake Value Ratio | 1.17 | RATIO | 1.17 | 1.17 | RATIO | CINGULATE CORTEX | POSTERIOR | PET/CT SCAN | 1 | 2012-05-22 |", "score": 1.0, "match_basis": "verbatim_token+domain_route:NV"}, {"md_atom_id": "md_dmNV_ex_a013", "md_file": "knowledge_base/domains/NV/examples.md", "md_atom_type": "TABLE_ROW", "md_parent_section": "§NV.1 [Example 1]", "md_verbatim": "| 4 | ABC123 | NV | AD01-102 | 22 | 2 | 1237 | 04 | SUVR | Standard Uptake Value Ratio | 1.78 | RATIO | 1.78 | 1.78 | RATIO | CINGULATE CORTEX | POSTERIOR | PET/CT SCAN | 1 | 2012-05-22 |", "score": 0.9529, "match_basis": "verbatim_token+domain_route:NV"}, {"md_atom_id": "md_dmNV_ex_a015", "md_file": "knowledge_base/domains/NV/examples.md", "md_atom_type": "TABLE_ROW", "md_parent_section": "§NV.1 [Example 1]", "md_verbatim": "| 6 | ABC123 | NV | AD01-103 | 44 | 2 | 1238 | 05 | SUVR | Standard Uptake Value Ratio | 1.63 | RATIO | 1.63 | 1.63 | RATIO | CINGULATE CORTEX | POSTERIOR | FDGPET | 1 | 2012-05-22 |", "score": 0.9, "match_basis": "verbatim_token+domain_route:NV"}, {"md_atom_id": "md_dmNV_ex_a010", "md_file": "knowledge_base/domains/NV/examples.md", "md_atom_type": "TABLE_ROW", "md_parent_section": "§NV.1 [Example 1]", "md_verbatim": "| 1 | ABC123 | NV | AD01-101 | 22 | 1 | 1236 | 03 | SUVR | Standard Uptake Value Ratio | 0.95 | RATIO | 0.95 | 0.95 | RATIO | PRECUNEUS | | PET/CT SCAN | 1 | 2012-05-22 |", "score": 0.7321, "match_basis": "verbatim_token+domain_route:NV"}, {"md_atom_id": "md_dmNV_ex_a012", "md_file": "knowledge_base/domains/NV/examples.md", "md_atom_type": "TABLE_ROW", "md_parent_section": "§NV.1 [Example 1]", "md_verbatim": "| 3 | ABC123 | NV | AD01-102 | 22 | 1 | 1237 | 04 | SUVR | Standard Uptake Value Ratio | 1.21 | RATIO | 1.21 | 1.21 | RATIO | PRECUNEUS | | PET/CT SCAN | 1 | 2012-05-22 |", "score": 0.7, "match_basis": "verbatim_token+domain_route:NV"}], "candidate_count": 5, "zero_candidate": false}
{"pdf_atom_id": "ig34_p0296_a024", "pdf_atom_type": "TABLE_ROW", "pdf_source": "SDTMIG_v3.4", "pdf_page": 296, "pdf_parent_section": "§6.3.7.4 Nervous System Findings (NV)", "pdf_verbatim": "| 3 | ABC123 | NV | AD01-102 | 22 | 1 | 1237 | 04 | SUVR | Standard Uptake Value Ratio | 1.21 | RATIO | 1.21 | 1.21 | RATIO | PRECUNEUS |  | PET/CT SCAN | 1 | 2012-05-22 |", "figure_ref": null, "candidates": [{"md_atom_id": "md_dmNV_ex_a012", "md_file": "knowledge_base/domains/NV/examples.md", "md_atom_type": "TABLE_ROW", "md_parent_section": "§NV.1 [Example 1]", "md_verbatim": "| 3 | ABC123 | NV | AD01-102 | 22 | 1 | 1237 | 04 | SUVR | Standard Uptake Value Ratio | 1.21 | RATIO | 1.21 | 1.21 | RATIO | PRECUNEUS | | PET/CT SCAN | 1 | 2012-05-22 |", "score": 1.0, "match_basis": "verbatim_token+domain_route:NV"}, {"md_atom_id": "md_dmNV_ex_a010", "md_file": "knowledge_base/domains/NV/examples.md", "md_atom_type": "TABLE_ROW", "md_parent_section": "§NV.1 [Example 1]", "md_verbatim": "| 1 | ABC123 | NV | AD01-101 | 22 | 1 | 1236 | 03 | SUVR | Standard Uptake Value Ratio | 0.95 | RATIO | 0.95 | 0.95 | RATIO | PRECUNEUS | | PET/CT SCAN | 1 | 2012-05-22 |", "score": 0.94, "match_basis": "verbatim_token+domain_route:NV"}, {"md_atom_id": "md_dmNV_ex_a014", "md_file": "knowledge_base/domains/NV/examples.md", "md_atom_type": "TABLE_ROW", "md_parent_section": "§NV.1 [Example 1]", "md_verbatim": "| 5 | ABC123 | NV | AD01-103 | 44 | 1 | 1238 | 05 | SUVR | Standard Uptake Value Ratio | 1.52 | RATIO | 1.52 | 1.52 | RATIO | PRECUNEUS | | FDGPET | 1 | 2012-05-22 |", "score": 0.8744, "match_basis": "verbatim_token+domain_route:NV"}, {"md_atom_id": "md_dmNV_ex_a013", "md_file": "knowledge_base/domains/NV/examples.md", "md_atom_type": "TABLE_ROW", "md_parent_section": "§NV.1 [Example 1]", "md_verbatim": "| 4 | ABC123 | NV | AD01-102 | 22 | 2 | 1237 | 04 | SUVR | Standard Uptake Value Ratio | 1.78 | RATIO | 1.78 | 1.78 | RATIO | CINGULATE CORTEX | POSTERIOR | PET/CT SCAN | 1 | 2012-05-22 |", "score": 0.7321, "match_basis": "verbatim_token+domain_route:NV"}, {"md_atom_id": "md_dmNV_ex_a011", "md_file": "knowledge_base/domains/NV/examples.md", "md_atom_type": "TABLE_ROW", "md_parent_section": "§NV.1 [Example 1]", "md_verbatim": "| 2 | ABC123 | NV | AD01-101 | 22 | 2 | 1236 | 03 | SUVR | Standard Uptake Value Ratio | 1.17 | RATIO | 1.17 | 1.17 | RATIO | CINGULATE CORTEX | POSTERIOR | PET/CT SCAN | 1 | 2012-05-22 |", "score": 0.7, "match_basis": "verbatim_token+domain_route:NV"}], "candidate_count": 5, "zero_candidate": false}
{"pdf_atom_id": "ig34_p0296_a025", "pdf_atom_type": "TABLE_ROW", "pdf_source": "SDTMIG_v3.4", "pdf_page": 296, "pdf_parent_section": "§6.3.7.4 Nervous System Findings (NV)", "pdf_verbatim": "| 4 | ABC123 | NV | AD01-102 | 22 | 2 | 1237 | 04 | SUVR | Standard Uptake Value Ratio | 1.78 | RATIO | 1.78 | 1.78 | RATIO | CINGULATE CORTEX | POSTERIOR | PET/CT SCAN | 1 | 2012-05-22 |", "figure_ref": null, "candidates": [{"md_atom_id": "md_dmNV_ex_a013", "md_file": "knowledge_base/domains/NV/examples.md", "md_atom_type": "TABLE_ROW", "md_parent_section": "§NV.1 [Example 1]", "md_verbatim": "| 4 | ABC123 | NV | AD01-102 | 22 | 2 | 1237 | 04 | SUVR | Standard Uptake Value Ratio | 1.78 | RATIO | 1.78 | 1.78 | RATIO | CINGULATE CORTEX | POSTERIOR | PET/CT SCAN | 1 | 2012-05-22 |", "score": 1.0, "match_basis": "verbatim_token+domain_route:NV"}, {"md_atom_id": "md_dmNV_ex_a011", "md_file": "knowledge_base/domains/NV/examples.md", "md_atom_type": "TABLE_ROW", "md_parent_section": "§NV.1 [Example 1]", "md_verbatim": "| 2 | ABC123 | NV | AD01-101 | 22 | 2 | 1236 | 03 | SUVR | Standard Uptake Value Ratio | 1.17 | RATIO | 1.17 | 1.17 | RATIO | CINGULATE CORTEX | POSTERIOR | PET/CT SCAN | 1 | 2012-05-22 |", "score": 0.9529, "match_basis": "verbatim_token+domain_route:NV"}, {"md_atom_id": "md_dmNV_ex_a015", "md_file": "knowledge_base/domains/NV/examples.md", "md_atom_type": "TABLE_ROW", "md_parent_section": "§NV.1 [Example 1]", "md_verbatim": "| 6 | ABC123 | NV | AD01-103 | 44 | 2 | 1238 | 05 | SUVR | Standard Uptake Value Ratio | 1.63 | RATIO | 1.63 | 1.63 | RATIO | CINGULATE CORTEX | POSTERIOR | FDGPET | 1 | 2012-05-22 |", "score": 0.9, "match_basis": "verbatim_token+domain_route:NV"}, {"md_atom_id": "md_dmNV_ex_a012", "md_file": "knowledge_base/domains/NV/examples.md", "md_atom_type": "TABLE_ROW", "md_parent_section": "§NV.1 [Example 1]", "md_verbatim": "| 3 | ABC123 | NV | AD01-102 | 22 | 1 | 1237 | 04 | SUVR | Standard Uptake Value Ratio | 1.21 | RATIO | 1.21 | 1.21 | RATIO | PRECUNEUS | | PET/CT SCAN | 1 | 2012-05-22 |", "score": 0.7321, "match_basis": "verbatim_token+domain_route:NV"}, {"md_atom_id": "md_dmNV_ex_a010", "md_file": "knowledge_base/domains/NV/examples.md", "md_atom_type": "TABLE_ROW", "md_parent_section": "§NV.1 [Example 1]", "md_verbatim": "| 1 | ABC123 | NV | AD01-101 | 22 | 1 | 1236 | 03 | SUVR | Standard Uptake Value Ratio | 0.95 | RATIO | 0.95 | 0.95 | RATIO | PRECUNEUS | | PET/CT SCAN | 1 | 2012-05-22 |", "score": 0.7, "match_basis": "verbatim_token+domain_route:NV"}], "candidate_count": 5, "zero_candidate": false}
{"pdf_atom_id": "ig34_p0296_a026", "pdf_atom_type": "TABLE_ROW", "pdf_source": "SDTMIG_v3.4", "pdf_page": 296, "pdf_parent_section": "§6.3.7.4 Nervous System Findings (NV)", "pdf_verbatim": "| 5 | ABC123 | NV | AD01-103 | 44 | 1 | 1238 | 05 | SUVR | Standard Uptake Value Ratio | 1.52 | RATIO | 1.52 | 1.52 | RATIO | PRECUNEUS |  | FDGPET | 1 | 2012-05-22 |", "figure_ref": null, "candidates": [{"md_atom_id": "md_dmNV_ex_a014", "md_file": "knowledge_base/domains/NV/examples.md", "md_atom_type": "TABLE_ROW", "md_parent_section": "§NV.1 [Example 1]", "md_verbatim": "| 5 | ABC123 | NV | AD01-103 | 44 | 1 | 1238 | 05 | SUVR | Standard Uptake Value Ratio | 1.52 | RATIO | 1.52 | 1.52 | RATIO | PRECUNEUS | | FDGPET | 1 | 2012-05-22 |", "score": 1.0, "match_basis": "verbatim_token+domain_route:NV"}, {"md_atom_id": "md_dmNV_ex_a010", "md_file": "knowledge_base/domains/NV/examples.md", "md_atom_type": "TABLE_ROW", "md_parent_section": "§NV.1 [Example 1]", "md_verbatim": "| 1 | ABC123 | NV | AD01-101 | 22 | 1 | 1236 | 03 | SUVR | Standard Uptake Value Ratio | 0.95 | RATIO | 0.95 | 0.95 | RATIO | PRECUNEUS | | PET/CT SCAN | 1 | 2012-05-22 |", "score": 0.8744, "match_basis": "verbatim_token+domain_route:NV"}, {"md_atom_id": "md_dmNV_ex_a012", "md_file": "knowledge_base/domains/NV/examples.md", "md_atom_type": "TABLE_ROW", "md_parent_section": "§NV.1 [Example 1]", "md_verbatim": "| 3 | ABC123 | NV | AD01-102 | 22 | 1 | 1237 | 04 | SUVR | Standard Uptake Value Ratio | 1.21 | RATIO | 1.21 | 1.21 | RATIO | PRECUNEUS | | PET/CT SCAN | 1 | 2012-05-22 |", "score": 0.8744, "match_basis": "verbatim_token+domain_route:NV"}, {"md_atom_id": "md_dmNV_ex_a015", "md_file": "knowledge_base/domains/NV/examples.md", "md_atom_type": "TABLE_ROW", "md_parent_section": "§NV.1 [Example 1]", "md_verbatim": "| 6 | ABC123 | NV | AD01-103 | 44 | 2 | 1238 | 05 | SUVR | Standard Uptake Value Ratio | 1.63 | RATIO | 1.63 | 1.63 | RATIO | CINGULATE CORTEX | POSTERIOR | FDGPET | 1 | 2012-05-22 |", "score": 0.7368, "match_basis": "verbatim_token+domain_route:NV"}, {"md_atom_id": "md_dmNV_ex_a011", "md_file": "knowledge_base/domains/NV/examples.md", "md_atom_type": "TABLE_ROW", "md_parent_section": "§NV.1 [Example 1]", "md_verbatim": "| 2 | ABC123 | NV | AD01-101 | 22 | 2 | 1236 | 03 | SUVR | Standard Uptake Value Ratio | 1.17 | RATIO | 1.17 | 1.17 | RATIO | CINGULATE CORTEX | POSTERIOR | PET/CT SCAN | 1 | 2012-05-22 |", "score": 0.6656, "match_basis": "verbatim_token+domain_route:NV"}], "candidate_count": 5, "zero_candidate": false}
{"pdf_atom_id": "ig34_p0296_a027", "pdf_atom_type": "TABLE_ROW", "pdf_source": "SDTMIG_v3.4", "pdf_page": 296, "pdf_parent_section": "§6.3.7.4 Nervous System Findings (NV)", "pdf_verbatim": "| 6 | ABC123 | NV | AD01-103 | 44 | 2 | 1238 | 05 | SUVR | Standard Uptake Value Ratio | 1.63 | RATIO | 1.63 | 1.63 | RATIO | CINGULATE CORTEX | POSTERIOR | FDGPET | 1 | 2012-05-22 |", "figure_ref": null, "candidates": [{"md_atom_id": "md_dmNV_ex_a015", "md_file": "knowledge_base/domains/NV/examples.md", "md_atom_type": "TABLE_ROW", "md_parent_section": "§NV.1 [Example 1]", "md_verbatim": "| 6 | ABC123 | NV | AD01-103 | 44 | 2 | 1238 | 05 | SUVR | Standard Uptake Value Ratio | 1.63 | RATIO | 1.63 | 1.63 | RATIO | CINGULATE CORTEX | POSTERIOR | FDGPET | 1 | 2012-05-22 |", "score": 1.0, "match_basis": "verbatim_token+domain_route:NV"}, {"md_atom_id": "md_dmNV_ex_a011", "md_file": "knowledge_base/domains/NV/examples.md", "md_atom_type": "TABLE_ROW", "md_parent_section": "§NV.1 [Example 1]", "md_verbatim": "| 2 | ABC123 | NV | AD01-101 | 22 | 2 | 1236 | 03 | SUVR | Standard Uptake Value Ratio | 1.17 | RATIO | 1.17 | 1.17 | RATIO | CINGULATE CORTEX | POSTERIOR | PET/CT SCAN | 1 | 2012-05-22 |", "score": 0.9, "match_basis": "verbatim_token+domain_route:NV"}, {"md_atom_id": "md_dmNV_ex_a013", "md_file": "knowledge_base/domains/NV/examples.md", "md_atom_type": "TABLE_ROW", "md_parent_section": "§NV.1 [Example 1]", "md_verbatim": "| 4 | ABC123 | NV | AD01-102 | 22 | 2 | 1237 | 04 | SUVR | Standard Uptake Value Ratio | 1.78 | RATIO | 1.78 | 1.78 | RATIO | CINGULATE CORTEX | POSTERIOR | PET/CT SCAN | 1 | 2012-05-22 |", "score": 0.9, "match_basis": "verbatim_token+domain_route:NV"}, {"md_atom_id": "md_dmNV_ex_a014", "md_file": "knowledge_base/domains/NV/examples.md", "md_atom_type": "TABLE_ROW", "md_parent_section": "§NV.1 [Example 1]", "md_verbatim": "| 5 | ABC123 | NV | AD01-103 | 44 | 1 | 1238 | 05 | SUVR | Standard Uptake Value Ratio | 1.52 | RATIO | 1.52 | 1.52 | RATIO | PRECUNEUS | | FDGPET | 1 | 2012-05-22 |", "score": 0.7368, "match_basis": "verbatim_token+domain_route:NV"}, {"md_atom_id": "md_dmNV_ex_a010", "md_file": "knowledge_base/domains/NV/examples.md", "md_atom_type": "TABLE_ROW", "md_parent_section": "§NV.1 [Example 1]", "md_verbatim": "| 1 | ABC123 | NV | AD01-101 | 22 | 1 | 1236 | 03 | SUVR | Standard Uptake Value Ratio | 0.95 | RATIO | 0.95 | 0.95 | RATIO | PRECUNEUS | | PET/CT SCAN | 1 | 2012-05-22 |", "score": 0.6656, "match_basis": "verbatim_token+domain_route:NV"}], "candidate_count": 5, "zero_candidate": false}
{"pdf_atom_id": "ig34_p0296_a028", "pdf_atom_type": "SENTENCE", "pdf_source": "SDTMIG_v3.4", "pdf_page": 296, "pdf_parent_section": "§6.3.7.4 Nervous System Findings (NV)", "pdf_verbatim": "The reference region used for the SUVR tests shown is represented in a supplemental qualifiers dataset.", "figure_ref": null, "candidates": [{"md_atom_id": "md_dmNV_ex_a016", "md_file": "knowledge_base/domains/NV/examples.md", "md_atom_type": "SENTENCE", "md_parent_section": "§NV.1 [Example 1]", "md_verbatim": "The reference region used for the SUVR tests shown is represented in a supplemental qualifiers dataset.", "score": 1.0, "match_basis": "verbatim_token+domain_route:NV"}, {"md_atom_id": "md_dmNV_ex_a027", "md_file": "knowledge_base/domains/NV/examples.md", "md_atom_type": "SENTENCE", "md_parent_section": "§NV.1 [Example 1]", "md_verbatim": "**Rows 1-2:** Show the relationship between the scan, represented in PR, and the radiolabel tracer used, represented in AG. There is only 1 tracer administration for each scan, and only 1 scan for each tracer administration, so the relationship is one-to-one.", "score": 0.503, "match_basis": "verbatim_token+domain_route:NV"}, {"md_atom_id": "md_dmNV_ex_a030", "md_file": "knowledge_base/domains/NV/examples.md", "md_atom_type": "SENTENCE", "md_parent_section": "§NV.1 [Example 1]", "md_verbatim": "**Rows 7-8:** Show the relationship between the SUVR results and the specific settings for the device used for each scan. There is more than 1 result from each scan, and more than 1 setting for each scan, so the relationship is many-to-many. This relationship is unusual and challenging to manage in a join/merge, and only represents the concept of this relationship.", "score": 0.4962, "match_basis": "verbatim_token+domain_route:NV"}, {"md_atom_id": "md_dmNV_ex_a028", "md_file": "knowledge_base/domains/NV/examples.md", "md_atom_type": "SENTENCE", "md_parent_section": "§NV.1 [Example 1]", "md_verbatim": "**Rows 3-4:** Show the relationship between the scan, represented in PR, and the SUVR results obtained from the scan, represented in NV. Each scan yields 2 results, so the relationship is one-to-many.", "score": 0.4957, "match_basis": "verbatim_token+domain_route:NV"}, {"md_atom_id": "md_dmNV_ex_a044", "md_file": "knowledge_base/domains/NV/examples.md", "md_atom_type": "SENTENCE", "md_parent_section": "§NV.2 [Example 2]", "md_verbatim": "The NV domain should be used to represent the VEP latencies, P100 peak-to-peak amplitude, and their interpretations. SPDEVID allows the results to be related to both the VEP testing device and the checkerboard size.", "score": 0.481, "match_basis": "verbatim_token+domain_route:NV"}], "candidate_count": 5, "zero_candidate": false}
{"pdf_atom_id": "ig34_p0297_a001", "pdf_atom_type": "CODE_LITERAL", "pdf_source": "SDTMIG_v3.4", "pdf_page": 297, "pdf_parent_section": "§6.3.7.4 Nervous System Findings (NV)", "pdf_verbatim": "suppnv.xpt", "figure_ref": null, "candidates": [{"md_atom_id": "md_dmNV_ex_a017", "md_file": "knowledge_base/domains/NV/examples.md", "md_atom_type": "SENTENCE", "md_parent_section": "§NV.1 [Example 1]", "md_verbatim": "**suppnv.xpt**", "score": 0.79, "match_basis": "verbatim_token+domain_route:NV"}, {"md_atom_id": "md_dmNV_ex_a008", "md_file": "knowledge_base/domains/NV/examples.md", "md_atom_type": "SENTENCE", "md_parent_section": "§NV.1 [Example 1]", "md_verbatim": "**nv.xpt**", "score": 0.31, "match_basis": "verbatim_token+domain_route:NV"}, {"md_atom_id": "md_dmNV_ex_a049", "md_file": "knowledge_base/domains/NV/examples.md", "md_atom_type": "SENTENCE", "md_parent_section": "§NV.2 [Example 2]", "md_verbatim": "**nv.xpt**", "score": 0.31, "match_basis": "verbatim_token+domain_route:NV"}, {"md_atom_id": "md_dmNV_ex_a031", "md_file": "knowledge_base/domains/NV/examples.md", "md_atom_type": "SENTENCE", "md_parent_section": "§NV.1 [Example 1]", "md_verbatim": "**relrec.xpt**", "score": 0.2567, "match_basis": "verbatim_token+domain_route:NV"}, {"md_atom_id": "md_dmNV_ex_a016", "md_file": "knowledge_base/domains/NV/examples.md", "md_atom_type": "SENTENCE", "md_parent_section": "§NV.1 [Example 1]", "md_verbatim": "The reference region used for the SUVR tests shown is represented in a supplemental qualifiers dataset.", "score": 0.2111, "match_basis": "verbatim_token+domain_route:NV"}, {"md_atom_id": "md_dmNV_assn_a001", "md_file": "knowledge_base/domains/NV/assumptions.md", "md_atom_type": "HEADING", "md_parent_section": "§NV [NV — Assumptions]", "md_verbatim": "# NV — Assumptions", "score": 0.19, "match_basis": "verbatim_token+domain_route:NV"}, {"md_atom_id": "md_dmNV_assn_a002", "md_file": "knowledge_base/domains/NV/assumptions.md", "md_atom_type": "LIST_ITEM", "md_parent_section": "§NV [NV — Assumptions]", "md_verbatim": "1. Methods of assessment for nervous system findings may include nerve conduction studies, electroencephalogram (EEG), electromyography (EMG), and imaging.", "score": 0.19, "match_basis": "verbatim_token+domain_route:NV"}, {"md_atom_id": "md_dmNV_assn_a003", "md_file": "knowledge_base/domains/NV/assumptions.md", "md_atom_type": "LIST_ITEM", "md_parent_section": "§NV [NV — Assumptions]", "md_verbatim": "2. Any Identifiers, Timing variables, or Findings general observation class qualifiers may be added to the NV domain, but the following qualifiers would not generally be used: --MODIFY, --BODSYS, --LOINC, --TOX, --TOXGR.", "score": 0.19, "match_basis": "verbatim_token+domain_route:NV"}, {"md_atom_id": "md_dmNV_ex_a001", "md_file": "knowledge_base/domains/NV/examples.md", "md_atom_type": "HEADING", "md_parent_section": "§NV [NV — Examples]", "md_verbatim": "# NV — Examples", "score": 0.19, "match_basis": "verbatim_token+domain_route:NV"}, {"md_atom_id": "md_dmNV_ex_a002", "md_file": "knowledge_base/domains/NV/examples.md", "md_atom_type": "HEADING", "md_parent_section": "§NV [NV — Examples]", "md_verbatim": "## Example 1", "score": 0.19, "match_basis": "verbatim_token+domain_route:NV"}], "candidate_count": 10, "zero_candidate": false}
{"pdf_atom_id": "ig34_p0297_a002", "pdf_atom_type": "TABLE_HEADER", "pdf_source": "SDTMIG_v3.4", "pdf_page": 297, "pdf_parent_section": "§6.3.7.4 Nervous System Findings (NV)", "pdf_verbatim": "| Row | STUDYID | RDOMAIN | USUBJID | IDVAR | IDVARVAL | QNAM | QLABEL | QVAL |", "figure_ref": null, "candidates": [{"md_atom_id": "md_dmNV_ex_a018", "md_file": "knowledge_base/domains/NV/examples.md", "md_atom_type": "TABLE_HEADER", "md_parent_section": "§NV.1 [Example 1]", "md_verbatim": "| Row | STUDYID | RDOMAIN | USUBJID | IDVAR | IDVARVAL | QNAM | QLABEL | QVAL |\n|-----|---------|---------|---------|-------|----------|------|--------|------|", "score": 1.0, "match_basis": "verbatim_token+domain_route:NV"}, {"md_atom_id": "md_dmNV_ex_a032", "md_file": "knowledge_base/domains/NV/examples.md", "md_atom_type": "TABLE_HEADER", "md_parent_section": "§NV.1 [Example 1]", "md_verbatim": "| Row | STUDYID | RDOMAIN | USUBJID | IDVAR | IDVARVAL | RELTYPE | RELID |\n|-----|---------|---------|---------|-------|----------|---------|-------|", "score": 0.7667, "match_basis": "verbatim_token+domain_route:NV"}, {"md_atom_id": "md_dmNV_ex_a009", "md_file": "knowledge_base/domains/NV/examples.md", "md_atom_type": "TABLE_HEADER", "md_parent_section": "§NV.1 [Example 1]", "md_verbatim": "| Row | STUDYID | DOMAIN | USUBJID | SPDEVID | NVSEQ | NVREFID | NVLNKID | NVTESTCD | NVTEST | NVORRES | NVORRESU | NVSTRESC | NVSTRESN | NVSTRESU | NVLOC | NVDIR | NVMETHOD | VISITNUM | NVDTC |\n|-----|---------|--------|---------|---------|-------|---------|---------|----------|--------|---------|----------|----------|----------|----------|-------|-------|----------|----------|-------|", "score": 0.5084, "match_basis": "verbatim_token+domain_route:NV"}, {"md_atom_id": "md_dmNV_ex_a050", "md_file": "knowledge_base/domains/NV/examples.md", "md_atom_type": "TABLE_HEADER", "md_parent_section": "§NV.2 [Example 2]", "md_verbatim": "| Row | STUDYID | DOMAIN | USUBJID | SPDEVID | FOCID | NVSEQ | NVGRPID | NVTESTCD | NVTEST | NVCAT | NVORRES | NVORRESU | NVSTRESC | NVSTRESN | NVSTRESU | NVORNRLO | NVORNRHI | NVNRIND | NVLOC | NVLAT | NVMETHOD | VISITNUM | NVDTC |\n|-----|---------|--------|---------|---------|-------|-------|---------|----------|--------|-------|---------|----------|----------|----------|----------|----------|----------|---------|-------|-------|----------|----------|-------|", "score": 0.4938, "match_basis": "verbatim_token+domain_route:NV"}, {"md_atom_id": "md_dmNV_ex_a019", "md_file": "knowledge_base/domains/NV/examples.md", "md_atom_type": "TABLE_ROW", "md_parent_section": "§NV.1 [Example 1]", "md_verbatim": "| 1 | ABC123 | NV | AD01-101 | NVSEQ | 1 | REFREG | Reference Region | CEREBELLUM |", "score": 0.3503, "match_basis": "verbatim_token+domain_route:NV"}], "candidate_count": 5, "zero_candidate": false}
{"pdf_atom_id": "ig34_p0297_a003", "pdf_atom_type": "TABLE_ROW", "pdf_source": "SDTMIG_v3.4", "pdf_page": 297, "pdf_parent_section": "§6.3.7.4 Nervous System Findings (NV)", "pdf_verbatim": "| 1 | ABC123 | NV | AD01-101 | NVSEQ | 1 | REFREG | Reference Region | CEREBELLUM |", "figure_ref": null, "candidates": [{"md_atom_id": "md_dmNV_ex_a019", "md_file": "knowledge_base/domains/NV/examples.md", "md_atom_type": "TABLE_ROW", "md_parent_section": "§NV.1 [Example 1]", "md_verbatim": "| 1 | ABC123 | NV | AD01-101 | NVSEQ | 1 | REFREG | Reference Region | CEREBELLUM |", "score": 1.0, "match_basis": "verbatim_token+domain_route:NV"}, {"md_atom_id": "md_dmNV_ex_a020", "md_file": "knowledge_base/domains/NV/examples.md", "md_atom_type": "TABLE_ROW", "md_parent_section": "§NV.1 [Example 1]", "md_verbatim": "| 2 | ABC123 | NV | AD01-101 | NVSEQ | 2 | REFREG | Reference Region | CEREBELLUM |", "score": 1.0, "match_basis": "verbatim_token+domain_route:NV"}, {"md_atom_id": "md_dmNV_ex_a021", "md_file": "knowledge_base/domains/NV/examples.md", "md_atom_type": "TABLE_ROW", "md_parent_section": "§NV.1 [Example 1]", "md_verbatim": "| 3 | ABC123 | NV | AD01-102 | NVSEQ | 1 | REFREG | Reference Region | CEREBELLUM |", "score": 0.9613, "match_basis": "verbatim_token+domain_route:NV"}, {"md_atom_id": "md_dmNV_ex_a022", "md_file": "knowledge_base/domains/NV/examples.md", "md_atom_type": "TABLE_ROW", "md_parent_section": "§NV.1 [Example 1]", "md_verbatim": "| 4 | ABC123 | NV | AD01-102 | NVSEQ | 2 | REFREG | Reference Region | CEREBELLUM |", "score": 0.9613, "match_basis": "verbatim_token+domain_route:NV"}, {"md_atom_id": "md_dmNV_ex_a023", "md_file": "knowledge_base/domains/NV/examples.md", "md_atom_type": "TABLE_ROW", "md_parent_section": "§NV.1 [Example 1]", "md_verbatim": "| 5 | ABC123 | NV | AD01-103 | NVSEQ | 1 | REFREG | Reference Region | PONS |", "score": 0.8, "match_basis": "verbatim_token+domain_route:NV"}], "candidate_count": 5, "zero_candidate": false}
{"pdf_atom_id": "ig34_p0297_a004", "pdf_atom_type": "TABLE_ROW", "pdf_source": "SDTMIG_v3.4", "pdf_page": 297, "pdf_parent_section": "§6.3.7.4 Nervous System Findings (NV)", "pdf_verbatim": "| 2 | ABC123 | NV | AD01-101 | NVSEQ | 2 | REFREG | Reference Region | CEREBELLUM |", "figure_ref": null, "candidates": [{"md_atom_id": "md_dmNV_ex_a019", "md_file": "knowledge_base/domains/NV/examples.md", "md_atom_type": "TABLE_ROW", "md_parent_section": "§NV.1 [Example 1]", "md_verbatim": "| 1 | ABC123 | NV | AD01-101 | NVSEQ | 1 | REFREG | Reference Region | CEREBELLUM |", "score": 1.0, "match_basis": "verbatim_token+domain_route:NV"}, {"md_atom_id": "md_dmNV_ex_a020", "md_file": "knowledge_base/domains/NV/examples.md", "md_atom_type": "TABLE_ROW", "md_parent_section": "§NV.1 [Example 1]", "md_verbatim": "| 2 | ABC123 | NV | AD01-101 | NVSEQ | 2 | REFREG | Reference Region | CEREBELLUM |", "score": 1.0, "match_basis": "verbatim_token+domain_route:NV"}, {"md_atom_id": "md_dmNV_ex_a021", "md_file": "knowledge_base/domains/NV/examples.md", "md_atom_type": "TABLE_ROW", "md_parent_section": "§NV.1 [Example 1]", "md_verbatim": "| 3 | ABC123 | NV | AD01-102 | NVSEQ | 1 | REFREG | Reference Region | CEREBELLUM |", "score": 0.9613, "match_basis": "verbatim_token+domain_route:NV"}, {"md_atom_id": "md_dmNV_ex_a022", "md_file": "knowledge_base/domains/NV/examples.md", "md_atom_type": "TABLE_ROW", "md_parent_section": "§NV.1 [Example 1]", "md_verbatim": "| 4 | ABC123 | NV | AD01-102 | NVSEQ | 2 | REFREG | Reference Region | CEREBELLUM |", "score": 0.9613, "match_basis": "verbatim_token+domain_route:NV"}, {"md_atom_id": "md_dmNV_ex_a023", "md_file": "knowledge_base/domains/NV/examples.md", "md_atom_type": "TABLE_ROW", "md_parent_section": "§NV.1 [Example 1]", "md_verbatim": "| 5 | ABC123 | NV | AD01-103 | NVSEQ | 1 | REFREG | Reference Region | PONS |", "score": 0.8, "match_basis": "verbatim_token+domain_route:NV"}], "candidate_count": 5, "zero_candidate": false}
{"pdf_atom_id": "ig34_p0297_a005", "pdf_atom_type": "TABLE_ROW", "pdf_source": "SDTMIG_v3.4", "pdf_page": 297, "pdf_parent_section": "§6.3.7.4 Nervous System Findings (NV)", "pdf_verbatim": "| 3 | ABC123 | NV | AD01-102 | NVSEQ | 1 | REFREG | Reference Region | CEREBELLUM |", "figure_ref": null, "candidates": [{"md_atom_id": "md_dmNV_ex_a021", "md_file": "knowledge_base/domains/NV/examples.md", "md_atom_type": "TABLE_ROW", "md_parent_section": "§NV.1 [Example 1]", "md_verbatim": "| 3 | ABC123 | NV | AD01-102 | NVSEQ | 1 | REFREG | Reference Region | CEREBELLUM |", "score": 1.0, "match_basis": "verbatim_token+domain_route:NV"}, {"md_atom_id": "md_dmNV_ex_a022", "md_file": "knowledge_base/domains/NV/examples.md", "md_atom_type": "TABLE_ROW", "md_parent_section": "§NV.1 [Example 1]", "md_verbatim": "| 4 | ABC123 | NV | AD01-102 | NVSEQ | 2 | REFREG | Reference Region | CEREBELLUM |", "score": 1.0, "match_basis": "verbatim_token+domain_route:NV"}, {"md_atom_id": "md_dmNV_ex_a019", "md_file": "knowledge_base/domains/NV/examples.md", "md_atom_type": "TABLE_ROW", "md_parent_section": "§NV.1 [Example 1]", "md_verbatim": "| 1 | ABC123 | NV | AD01-101 | NVSEQ | 1 | REFREG | Reference Region | CEREBELLUM |", "score": 0.9613, "match_basis": "verbatim_token+domain_route:NV"}, {"md_atom_id": "md_dmNV_ex_a020", "md_file": "knowledge_base/domains/NV/examples.md", "md_atom_type": "TABLE_ROW", "md_parent_section": "§NV.1 [Example 1]", "md_verbatim": "| 2 | ABC123 | NV | AD01-101 | NVSEQ | 2 | REFREG | Reference Region | CEREBELLUM |", "score": 0.9613, "match_basis": "verbatim_token+domain_route:NV"}, {"md_atom_id": "md_dmNV_ex_a023", "md_file": "knowledge_base/domains/NV/examples.md", "md_atom_type": "TABLE_ROW", "md_parent_section": "§NV.1 [Example 1]", "md_verbatim": "| 5 | ABC123 | NV | AD01-103 | NVSEQ | 1 | REFREG | Reference Region | PONS |", "score": 0.8, "match_basis": "verbatim_token+domain_route:NV"}], "candidate_count": 5, "zero_candidate": false}
{"pdf_atom_id": "ig34_p0297_a006", "pdf_atom_type": "TABLE_ROW", "pdf_source": "SDTMIG_v3.4", "pdf_page": 297, "pdf_parent_section": "§6.3.7.4 Nervous System Findings (NV)", "pdf_verbatim": "| 4 | ABC123 | NV | AD01-102 | NVSEQ | 2 | REFREG | Reference Region | CEREBELLUM |", "figure_ref": null, "candidates": [{"md_atom_id": "md_dmNV_ex_a021", "md_file": "knowledge_base/domains/NV/examples.md", "md_atom_type": "TABLE_ROW", "md_parent_section": "§NV.1 [Example 1]", "md_verbatim": "| 3 | ABC123 | NV | AD01-102 | NVSEQ | 1 | REFREG | Reference Region | CEREBELLUM |", "score": 1.0, "match_basis": "verbatim_token+domain_route:NV"}, {"md_atom_id": "md_dmNV_ex_a022", "md_file": "knowledge_base/domains/NV/examples.md", "md_atom_type": "TABLE_ROW", "md_parent_section": "§NV.1 [Example 1]", "md_verbatim": "| 4 | ABC123 | NV | AD01-102 | NVSEQ | 2 | REFREG | Reference Region | CEREBELLUM |", "score": 1.0, "match_basis": "verbatim_token+domain_route:NV"}, {"md_atom_id": "md_dmNV_ex_a019", "md_file": "knowledge_base/domains/NV/examples.md", "md_atom_type": "TABLE_ROW", "md_parent_section": "§NV.1 [Example 1]", "md_verbatim": "| 1 | ABC123 | NV | AD01-101 | NVSEQ | 1 | REFREG | Reference Region | CEREBELLUM |", "score": 0.9613, "match_basis": "verbatim_token+domain_route:NV"}, {"md_atom_id": "md_dmNV_ex_a020", "md_file": "knowledge_base/domains/NV/examples.md", "md_atom_type": "TABLE_ROW", "md_parent_section": "§NV.1 [Example 1]", "md_verbatim": "| 2 | ABC123 | NV | AD01-101 | NVSEQ | 2 | REFREG | Reference Region | CEREBELLUM |", "score": 0.9613, "match_basis": "verbatim_token+domain_route:NV"}, {"md_atom_id": "md_dmNV_ex_a023", "md_file": "knowledge_base/domains/NV/examples.md", "md_atom_type": "TABLE_ROW", "md_parent_section": "§NV.1 [Example 1]", "md_verbatim": "| 5 | ABC123 | NV | AD01-103 | NVSEQ | 1 | REFREG | Reference Region | PONS |", "score": 0.8, "match_basis": "verbatim_token+domain_route:NV"}], "candidate_count": 5, "zero_candidate": false}
{"pdf_atom_id": "ig34_p0297_a007", "pdf_atom_type": "TABLE_ROW", "pdf_source": "SDTMIG_v3.4", "pdf_page": 297, "pdf_parent_section": "§6.3.7.4 Nervous System Findings (NV)", "pdf_verbatim": "| 5 | ABC123 | NV | AD01-103 | NVSEQ | 1 | REFREG | Reference Region | PONS |", "figure_ref": null, "candidates": [{"md_atom_id": "md_dmNV_ex_a023", "md_file": "knowledge_base/domains/NV/examples.md", "md_atom_type": "TABLE_ROW", "md_parent_section": "§NV.1 [Example 1]", "md_verbatim": "| 5 | ABC123 | NV | AD01-103 | NVSEQ | 1 | REFREG | Reference Region | PONS |", "score": 1.0, "match_basis": "verbatim_token+domain_route:NV"}, {"md_atom_id": "md_dmNV_ex_a024", "md_file": "knowledge_base/domains/NV/examples.md", "md_atom_type": "TABLE_ROW", "md_parent_section": "§NV.1 [Example 1]", "md_verbatim": "| 6 | ABC123 | NV | AD01-103 | NVSEQ | 2 | REFREG | Reference Region | PONS |", "score": 1.0, "match_basis": "verbatim_token+domain_route:NV"}, {"md_atom_id": "md_dmNV_ex_a019", "md_file": "knowledge_base/domains/NV/examples.md", "md_atom_type": "TABLE_ROW", "md_parent_section": "§NV.1 [Example 1]", "md_verbatim": "| 1 | ABC123 | NV | AD01-101 | NVSEQ | 1 | REFREG | Reference Region | CEREBELLUM |", "score": 0.8, "match_basis": "verbatim_token+domain_route:NV"}, {"md_atom_id": "md_dmNV_ex_a020", "md_file": "knowledge_base/domains/NV/examples.md", "md_atom_type": "TABLE_ROW", "md_parent_section": "§NV.1 [Example 1]", "md_verbatim": "| 2 | ABC123 | NV | AD01-101 | NVSEQ | 2 | REFREG | Reference Region | CEREBELLUM |", "score": 0.8, "match_basis": "verbatim_token+domain_route:NV"}, {"md_atom_id": "md_dmNV_ex_a021", "md_file": "knowledge_base/domains/NV/examples.md", "md_atom_type": "TABLE_ROW", "md_parent_section": "§NV.1 [Example 1]", "md_verbatim": "| 3 | ABC123 | NV | AD01-102 | NVSEQ | 1 | REFREG | Reference Region | CEREBELLUM |", "score": 0.8, "match_basis": "verbatim_token+domain_route:NV"}], "candidate_count": 5, "zero_candidate": false}
