{"pdf_atom_id": "ig34_p0297_a030", "pdf_atom_type": "SENTENCE", "pdf_source": "SDTMIG_v3.4", "pdf_page": 297, "pdf_parent_section": "§6.3.7.4 Nervous System Findings (NV)", "pdf_verbatim": "VEPs are detected via an EEG using leads that are placed on the back of the subject's head.", "figure_ref": null, "candidates": [{"md_atom_id": "md_dmNV_ex_a005", "md_file": "knowledge_base/domains/NV/examples.md", "md_atom_type": "SENTENCE", "md_parent_section": "§NV.1 [Example 1]", "md_verbatim": "**Rows 1-2:** Show the SUVR findings based on a PET/CT scan for a subject.", "score": 0.4857, "match_basis": "verbatim_token+domain_route:NV"}, {"md_atom_id": "md_dmNV_ex_a006", "md_file": "knowledge_base/domains/NV/examples.md", "md_atom_type": "SENTENCE", "md_parent_section": "§NV.1 [Example 1]", "md_verbatim": "**Rows 3-4:** Show the SUVR findings based on a PET/CT scan for a subject.", "score": 0.4857, "match_basis": "verbatim_token+domain_route:NV"}, {"md_atom_id": "md_dmNV_ex_a042", "md_file": "knowledge_base/domains/NV/examples.md", "md_atom_type": "SENTENCE", "md_parent_section": "§NV.2 [Example 2]", "md_verbatim": "This example shows how to represent components of a pattern-reversal visual evoked-potential (VEP) test elicited by checkerboard stimuli for a subject with optic neuritis. VEPs are detected via an EEG using leads that are placed on the back of the subject's head. It is important to note that the nature of VEP testing is such that NVMETHOD should be equal to \"EEG\", and that NVCAT should be equal to \"VISUAL EVOKED POTENTIAL\". Several latencies from each eye — including N75, P100, and N145, as well as the P100 peak-to-peak amplitude (75-100) — are collected and should be represented in NVTESTCD/NVTEST. Details about the VEP equipment including the checkerboard size should be represented in the appropriate device domains. To interpret, each VEP component is compared against normative values established by the laboratory using healthy controls.", "score": 0.4707, "match_basis": "verbatim_token+domain_route:NV"}, {"md_atom_id": "md_dmNV_ex_a007", "md_file": "knowledge_base/domains/NV/examples.md", "md_atom_type": "SENTENCE", "md_parent_section": "§NV.1 [Example 1]", "md_verbatim": "**Rows 5-6:** Show the SUVR findings based on a fluorodeoxyglucose (FDG)-PET scan for a subject.", "score": 0.4636, "match_basis": "verbatim_token+domain_route:NV"}, {"md_atom_id": "md_dmNV_ex_a048", "md_file": "knowledge_base/domains/NV/examples.md", "md_atom_type": "SENTENCE", "md_parent_section": "§NV.2 [Example 2]", "md_verbatim": "**Row 10:** Shows that when all the components of left eye VEP are considered together (NVGRPID=2), the overall test is interpreted as abnormal.", "score": 0.4488, "match_basis": "verbatim_token+domain_route:NV"}], "candidate_count": 5, "zero_candidate": false}
{"pdf_atom_id": "ig34_p0297_a031", "pdf_atom_type": "SENTENCE", "pdf_source": "SDTMIG_v3.4", "pdf_page": 297, "pdf_parent_section": "§6.3.7.4 Nervous System Findings (NV)", "pdf_verbatim": "It is important to note that the nature of VEP testing is such that NVMETHOD should be equal to \"EEG\", and that NVCAT should be equal to \"VISUAL EVOKED POTENTIAL\".", "figure_ref": null, "candidates": [{"md_atom_id": "md_dmNV_ex_a042", "md_file": "knowledge_base/domains/NV/examples.md", "md_atom_type": "SENTENCE", "md_parent_section": "§NV.2 [Example 2]", "md_verbatim": "This example shows how to represent components of a pattern-reversal visual evoked-potential (VEP) test elicited by checkerboard stimuli for a subject with optic neuritis. VEPs are detected via an EEG using leads that are placed on the back of the subject's head. It is important to note that the nature of VEP testing is such that NVMETHOD should be equal to \"EEG\", and that NVCAT should be equal to \"VISUAL EVOKED POTENTIAL\". Several latencies from each eye — including N75, P100, and N145, as well as the P100 peak-to-peak amplitude (75-100) — are collected and should be represented in NVTESTCD/NVTEST. Details about the VEP equipment including the checkerboard size should be represented in the appropriate device domains. To interpret, each VEP component is compared against normative values established by the laboratory using healthy controls.", "score": 0.5255, "match_basis": "verbatim_token+domain_route:NV"}, {"md_atom_id": "md_dmNV_ex_a044", "md_file": "knowledge_base/domains/NV/examples.md", "md_atom_type": "SENTENCE", "md_parent_section": "§NV.2 [Example 2]", "md_verbatim": "The NV domain should be used to represent the VEP latencies, P100 peak-to-peak amplitude, and their interpretations. SPDEVID allows the results to be related to both the VEP testing device and the checkerboard size.", "score": 0.4646, "match_basis": "verbatim_token+domain_route:NV"}, {"md_atom_id": "md_dmNV_ex_a048", "md_file": "knowledge_base/domains/NV/examples.md", "md_atom_type": "SENTENCE", "md_parent_section": "§NV.2 [Example 2]", "md_verbatim": "**Row 10:** Shows that when all the components of left eye VEP are considered together (NVGRPID=2), the overall test is interpreted as abnormal.", "score": 0.4561, "match_basis": "verbatim_token+domain_route:NV"}, {"md_atom_id": "md_dmNV_ex_a043", "md_file": "knowledge_base/domains/NV/examples.md", "md_atom_type": "SENTENCE", "md_parent_section": "§NV.2 [Example 2]", "md_verbatim": "In this example, a VEP component is considered abnormal if it falls outside of 3 standard deviations from the normative lab mean. These low and high values are stored in NVORNRLO and NVORNRHI, respectively, and the interpretation of each VEP component is represented in NVNRIND. In addition to interpreting each VEP component as normal or abnormal, the overall test for each eye may have an interpretation. In this scenario, NVTESTCD/NVTEST should be equal to \"INTP\" (Interpretation) and NVORRES should represent whether the overall test in each eye is normal or abnormal. NVGRPID links the each VEP component to the overall interpretation.", "score": 0.456, "match_basis": "verbatim_token+domain_route:NV"}, {"md_atom_id": "md_dmNV_ex_a046", "md_file": "knowledge_base/domains/NV/examples.md", "md_atom_type": "SENTENCE", "md_parent_section": "§NV.2 [Example 2]", "md_verbatim": "**Row 5:** Shows that when all the components of right eye VEP are considered together (NVGRPID=1), the overall test is interpreted as abnormal.", "score": 0.4556, "match_basis": "verbatim_token+domain_route:NV"}], "candidate_count": 5, "zero_candidate": false}
{"pdf_atom_id": "ig34_p0297_a032", "pdf_atom_type": "SENTENCE", "pdf_source": "SDTMIG_v3.4", "pdf_page": 297, "pdf_parent_section": "§6.3.7.4 Nervous System Findings (NV)", "pdf_verbatim": "Several latencies from each eye—including N75, P100, and N145, as well as the P100 peak-to-peak amplitude (75-100)—are collected and should be represented in NVTESTCD/NVTEST.", "figure_ref": null, "candidates": [{"md_atom_id": "md_dmNV_ex_a044", "md_file": "knowledge_base/domains/NV/examples.md", "md_atom_type": "SENTENCE", "md_parent_section": "§NV.2 [Example 2]", "md_verbatim": "The NV domain should be used to represent the VEP latencies, P100 peak-to-peak amplitude, and their interpretations. SPDEVID allows the results to be related to both the VEP testing device and the checkerboard size.", "score": 0.5785, "match_basis": "verbatim_token+domain_route:NV"}, {"md_atom_id": "md_dmNV_ex_a042", "md_file": "knowledge_base/domains/NV/examples.md", "md_atom_type": "SENTENCE", "md_parent_section": "§NV.2 [Example 2]", "md_verbatim": "This example shows how to represent components of a pattern-reversal visual evoked-potential (VEP) test elicited by checkerboard stimuli for a subject with optic neuritis. VEPs are detected via an EEG using leads that are placed on the back of the subject's head. It is important to note that the nature of VEP testing is such that NVMETHOD should be equal to \"EEG\", and that NVCAT should be equal to \"VISUAL EVOKED POTENTIAL\". Several latencies from each eye — including N75, P100, and N145, as well as the P100 peak-to-peak amplitude (75-100) — are collected and should be represented in NVTESTCD/NVTEST. Details about the VEP equipment including the checkerboard size should be represented in the appropriate device domains. To interpret, each VEP component is compared against normative values established by the laboratory using healthy controls.", "score": 0.5551, "match_basis": "verbatim_token+domain_route:NV"}, {"md_atom_id": "md_dmNV_ex_a043", "md_file": "knowledge_base/domains/NV/examples.md", "md_atom_type": "SENTENCE", "md_parent_section": "§NV.2 [Example 2]", "md_verbatim": "In this example, a VEP component is considered abnormal if it falls outside of 3 standard deviations from the normative lab mean. These low and high values are stored in NVORNRLO and NVORNRHI, respectively, and the interpretation of each VEP component is represented in NVNRIND. In addition to interpreting each VEP component as normal or abnormal, the overall test for each eye may have an interpretation. In this scenario, NVTESTCD/NVTEST should be equal to \"INTP\" (Interpretation) and NVORRES should represent whether the overall test in each eye is normal or abnormal. NVGRPID links the each VEP component to the overall interpretation.", "score": 0.5074, "match_basis": "verbatim_token+domain_route:NV"}, {"md_atom_id": "md_dmNV_ex_a028", "md_file": "knowledge_base/domains/NV/examples.md", "md_atom_type": "SENTENCE", "md_parent_section": "§NV.1 [Example 1]", "md_verbatim": "**Rows 3-4:** Show the relationship between the scan, represented in PR, and the SUVR results obtained from the scan, represented in NV. Each scan yields 2 results, so the relationship is one-to-many.", "score": 0.4962, "match_basis": "verbatim_token+domain_route:NV"}, {"md_atom_id": "md_dmNV_ex_a027", "md_file": "knowledge_base/domains/NV/examples.md", "md_atom_type": "SENTENCE", "md_parent_section": "§NV.1 [Example 1]", "md_verbatim": "**Rows 1-2:** Show the relationship between the scan, represented in PR, and the radiolabel tracer used, represented in AG. There is only 1 tracer administration for each scan, and only 1 scan for each tracer administration, so the relationship is one-to-one.", "score": 0.4783, "match_basis": "verbatim_token+domain_route:NV"}], "candidate_count": 5, "zero_candidate": false}
{"pdf_atom_id": "ig34_p0297_a033", "pdf_atom_type": "SENTENCE", "pdf_source": "SDTMIG_v3.4", "pdf_page": 297, "pdf_parent_section": "§6.3.7.4 Nervous System Findings (NV)", "pdf_verbatim": "Details about the VEP equipment including the checkerboard size should be represented in the appropriate device domains.", "figure_ref": null, "candidates": [{"md_atom_id": "md_dmNV_ex_a044", "md_file": "knowledge_base/domains/NV/examples.md", "md_atom_type": "SENTENCE", "md_parent_section": "§NV.2 [Example 2]", "md_verbatim": "The NV domain should be used to represent the VEP latencies, P100 peak-to-peak amplitude, and their interpretations. SPDEVID allows the results to be related to both the VEP testing device and the checkerboard size.", "score": 0.5949, "match_basis": "verbatim_token+domain_route:NV"}, {"md_atom_id": "md_dmNV_ex_a042", "md_file": "knowledge_base/domains/NV/examples.md", "md_atom_type": "SENTENCE", "md_parent_section": "§NV.2 [Example 2]", "md_verbatim": "This example shows how to represent components of a pattern-reversal visual evoked-potential (VEP) test elicited by checkerboard stimuli for a subject with optic neuritis. VEPs are detected via an EEG using leads that are placed on the back of the subject's head. It is important to note that the nature of VEP testing is such that NVMETHOD should be equal to \"EEG\", and that NVCAT should be equal to \"VISUAL EVOKED POTENTIAL\". Several latencies from each eye — including N75, P100, and N145, as well as the P100 peak-to-peak amplitude (75-100) — are collected and should be represented in NVTESTCD/NVTEST. Details about the VEP equipment including the checkerboard size should be represented in the appropriate device domains. To interpret, each VEP component is compared against normative values established by the laboratory using healthy controls.", "score": 0.5506, "match_basis": "verbatim_token+domain_route:NV"}, {"md_atom_id": "md_dmNV_ex_a061", "md_file": "knowledge_base/domains/NV/examples.md", "md_atom_type": "SENTENCE", "md_parent_section": "§NV.2 [Example 2]", "md_verbatim": "Information about the VEP device is not shown. Identifying information would be represented using the DI domain, and any properties of the device that may change between assessments would be represented in the DO and DU domains. See the SDTMIG-MD for examples of these domains.", "score": 0.5417, "match_basis": "verbatim_token+domain_route:NV"}, {"md_atom_id": "md_dmNV_ex_a028", "md_file": "knowledge_base/domains/NV/examples.md", "md_atom_type": "SENTENCE", "md_parent_section": "§NV.1 [Example 1]", "md_verbatim": "**Rows 3-4:** Show the relationship between the scan, represented in PR, and the SUVR results obtained from the scan, represented in NV. Each scan yields 2 results, so the relationship is one-to-many.", "score": 0.4722, "match_basis": "verbatim_token+domain_route:NV"}, {"md_atom_id": "md_dmNV_ex_a043", "md_file": "knowledge_base/domains/NV/examples.md", "md_atom_type": "SENTENCE", "md_parent_section": "§NV.2 [Example 2]", "md_verbatim": "In this example, a VEP component is considered abnormal if it falls outside of 3 standard deviations from the normative lab mean. These low and high values are stored in NVORNRLO and NVORNRHI, respectively, and the interpretation of each VEP component is represented in NVNRIND. In addition to interpreting each VEP component as normal or abnormal, the overall test for each eye may have an interpretation. In this scenario, NVTESTCD/NVTEST should be equal to \"INTP\" (Interpretation) and NVORRES should represent whether the overall test in each eye is normal or abnormal. NVGRPID links the each VEP component to the overall interpretation.", "score": 0.4693, "match_basis": "verbatim_token+domain_route:NV"}], "candidate_count": 5, "zero_candidate": false}
{"pdf_atom_id": "ig34_p0297_a034", "pdf_atom_type": "SENTENCE", "pdf_source": "SDTMIG_v3.4", "pdf_page": 297, "pdf_parent_section": "§6.3.7.4 Nervous System Findings (NV)", "pdf_verbatim": "To interpret, each VEP component is compared against normative values established by the laboratory using healthy controls.", "figure_ref": null, "candidates": [{"md_atom_id": "md_dmNV_ex_a042", "md_file": "knowledge_base/domains/NV/examples.md", "md_atom_type": "SENTENCE", "md_parent_section": "§NV.2 [Example 2]", "md_verbatim": "This example shows how to represent components of a pattern-reversal visual evoked-potential (VEP) test elicited by checkerboard stimuli for a subject with optic neuritis. VEPs are detected via an EEG using leads that are placed on the back of the subject's head. It is important to note that the nature of VEP testing is such that NVMETHOD should be equal to \"EEG\", and that NVCAT should be equal to \"VISUAL EVOKED POTENTIAL\". Several latencies from each eye — including N75, P100, and N145, as well as the P100 peak-to-peak amplitude (75-100) — are collected and should be represented in NVTESTCD/NVTEST. Details about the VEP equipment including the checkerboard size should be represented in the appropriate device domains. To interpret, each VEP component is compared against normative values established by the laboratory using healthy controls.", "score": 0.5574, "match_basis": "verbatim_token+domain_route:NV"}, {"md_atom_id": "md_dmNV_ex_a048", "md_file": "knowledge_base/domains/NV/examples.md", "md_atom_type": "SENTENCE", "md_parent_section": "§NV.2 [Example 2]", "md_verbatim": "**Row 10:** Shows that when all the components of left eye VEP are considered together (NVGRPID=2), the overall test is interpreted as abnormal.", "score": 0.5278, "match_basis": "verbatim_token+domain_route:NV"}, {"md_atom_id": "md_dmNV_ex_a046", "md_file": "knowledge_base/domains/NV/examples.md", "md_atom_type": "SENTENCE", "md_parent_section": "§NV.2 [Example 2]", "md_verbatim": "**Row 5:** Shows that when all the components of right eye VEP are considered together (NVGRPID=1), the overall test is interpreted as abnormal.", "score": 0.5266, "match_basis": "verbatim_token+domain_route:NV"}, {"md_atom_id": "md_dmNV_ex_a043", "md_file": "knowledge_base/domains/NV/examples.md", "md_atom_type": "SENTENCE", "md_parent_section": "§NV.2 [Example 2]", "md_verbatim": "In this example, a VEP component is considered abnormal if it falls outside of 3 standard deviations from the normative lab mean. These low and high values are stored in NVORNRLO and NVORNRHI, respectively, and the interpretation of each VEP component is represented in NVNRIND. In addition to interpreting each VEP component as normal or abnormal, the overall test for each eye may have an interpretation. In this scenario, NVTESTCD/NVTEST should be equal to \"INTP\" (Interpretation) and NVORRES should represent whether the overall test in each eye is normal or abnormal. NVGRPID links the each VEP component to the overall interpretation.", "score": 0.5181, "match_basis": "verbatim_token+domain_route:NV"}, {"md_atom_id": "md_dmNV_ex_a026", "md_file": "knowledge_base/domains/NV/examples.md", "md_atom_type": "SENTENCE", "md_parent_section": "§NV.1 [Example 1]", "md_verbatim": "In this example, the sponsor has maintained 2 sets of reference identifiers (REFID values) for the specific purpose of being able to relate records across multiple domains. Because the SDTMIG-MD advocates the use of --REFID to link a group of settings to the results obtained from the reading or interpretation of the test (see SDTMIG-MD, Device-in-Use (DU) domain assumptions), --LNKID has been used to establish the relationships between the procedure, the substance administered during the procedure, and the results obtained from the procedure. --LNKID is unique for each procedure for each subject, so datasets may be related to each other as a whole.", "score": 0.4686, "match_basis": "verbatim_token+domain_route:NV"}], "candidate_count": 5, "zero_candidate": false}
{"pdf_atom_id": "ig34_p0297_a035", "pdf_atom_type": "SENTENCE", "pdf_source": "SDTMIG_v3.4", "pdf_page": 297, "pdf_parent_section": "§6.3.7.4 Nervous System Findings (NV)", "pdf_verbatim": "In this example, a VEP component is considered abnormal if it falls outside of 3 standard deviations from the normative lab mean.", "figure_ref": null, "candidates": [{"md_atom_id": "md_dmNV_ex_a043", "md_file": "knowledge_base/domains/NV/examples.md", "md_atom_type": "SENTENCE", "md_parent_section": "§NV.2 [Example 2]", "md_verbatim": "In this example, a VEP component is considered abnormal if it falls outside of 3 standard deviations from the normative lab mean. These low and high values are stored in NVORNRLO and NVORNRHI, respectively, and the interpretation of each VEP component is represented in NVNRIND. In addition to interpreting each VEP component as normal or abnormal, the overall test for each eye may have an interpretation. In this scenario, NVTESTCD/NVTEST should be equal to \"INTP\" (Interpretation) and NVORRES should represent whether the overall test in each eye is normal or abnormal. NVGRPID links the each VEP component to the overall interpretation.", "score": 0.6192, "match_basis": "verbatim_token+domain_route:NV"}, {"md_atom_id": "md_dmNV_ex_a048", "md_file": "knowledge_base/domains/NV/examples.md", "md_atom_type": "SENTENCE", "md_parent_section": "§NV.2 [Example 2]", "md_verbatim": "**Row 10:** Shows that when all the components of left eye VEP are considered together (NVGRPID=2), the overall test is interpreted as abnormal.", "score": 0.5516, "match_basis": "verbatim_token+domain_route:NV"}, {"md_atom_id": "md_dmNV_ex_a046", "md_file": "knowledge_base/domains/NV/examples.md", "md_atom_type": "SENTENCE", "md_parent_section": "§NV.2 [Example 2]", "md_verbatim": "**Row 5:** Shows that when all the components of right eye VEP are considered together (NVGRPID=1), the overall test is interpreted as abnormal.", "score": 0.55, "match_basis": "verbatim_token+domain_route:NV"}, {"md_atom_id": "md_dmNV_ex_a003", "md_file": "knowledge_base/domains/NV/examples.md", "md_atom_type": "SENTENCE", "md_parent_section": "§NV.1 [Example 1]", "md_verbatim": "This example demonstrates the SDTM-based modeling of nervous system information collected and generated from separate positron emission tomography (PET) or PET/computed tomography (PET/CT) procedures.", "score": 0.4896, "match_basis": "verbatim_token+domain_route:NV"}, {"md_atom_id": "md_dmNV_ex_a061", "md_file": "knowledge_base/domains/NV/examples.md", "md_atom_type": "SENTENCE", "md_parent_section": "§NV.2 [Example 2]", "md_verbatim": "Information about the VEP device is not shown. Identifying information would be represented using the DI domain, and any properties of the device that may change between assessments would be represented in the DO and DU domains. See the SDTMIG-MD for examples of these domains.", "score": 0.4884, "match_basis": "verbatim_token+domain_route:NV"}], "candidate_count": 5, "zero_candidate": false}
{"pdf_atom_id": "ig34_p0297_a036", "pdf_atom_type": "SENTENCE", "pdf_source": "SDTMIG_v3.4", "pdf_page": 297, "pdf_parent_section": "§6.3.7.4 Nervous System Findings (NV)", "pdf_verbatim": "These low and high values are stored in NVORNRLO and NVORNRHI, respectively, and the interpretation of each VEP component is represented in NVNRIND.", "figure_ref": null, "candidates": [{"md_atom_id": "md_dmNV_ex_a043", "md_file": "knowledge_base/domains/NV/examples.md", "md_atom_type": "SENTENCE", "md_parent_section": "§NV.2 [Example 2]", "md_verbatim": "In this example, a VEP component is considered abnormal if it falls outside of 3 standard deviations from the normative lab mean. These low and high values are stored in NVORNRLO and NVORNRHI, respectively, and the interpretation of each VEP component is represented in NVNRIND. In addition to interpreting each VEP component as normal or abnormal, the overall test for each eye may have an interpretation. In this scenario, NVTESTCD/NVTEST should be equal to \"INTP\" (Interpretation) and NVORRES should represent whether the overall test in each eye is normal or abnormal. NVGRPID links the each VEP component to the overall interpretation.", "score": 0.65, "match_basis": "verbatim_token+domain_route:NV"}, {"md_atom_id": "md_dmNV_ex_a046", "md_file": "knowledge_base/domains/NV/examples.md", "md_atom_type": "SENTENCE", "md_parent_section": "§NV.2 [Example 2]", "md_verbatim": "**Row 5:** Shows that when all the components of right eye VEP are considered together (NVGRPID=1), the overall test is interpreted as abnormal.", "score": 0.5111, "match_basis": "verbatim_token+domain_route:NV"}, {"md_atom_id": "md_dmNV_ex_a048", "md_file": "knowledge_base/domains/NV/examples.md", "md_atom_type": "SENTENCE", "md_parent_section": "§NV.2 [Example 2]", "md_verbatim": "**Row 10:** Shows that when all the components of left eye VEP are considered together (NVGRPID=2), the overall test is interpreted as abnormal.", "score": 0.5056, "match_basis": "verbatim_token+domain_route:NV"}, {"md_atom_id": "md_dmNV_ex_a044", "md_file": "knowledge_base/domains/NV/examples.md", "md_atom_type": "SENTENCE", "md_parent_section": "§NV.2 [Example 2]", "md_verbatim": "The NV domain should be used to represent the VEP latencies, P100 peak-to-peak amplitude, and their interpretations. SPDEVID allows the results to be related to both the VEP testing device and the checkerboard size.", "score": 0.5053, "match_basis": "verbatim_token+domain_route:NV"}, {"md_atom_id": "md_dmNV_ex_a028", "md_file": "knowledge_base/domains/NV/examples.md", "md_atom_type": "SENTENCE", "md_parent_section": "§NV.1 [Example 1]", "md_verbatim": "**Rows 3-4:** Show the relationship between the scan, represented in PR, and the SUVR results obtained from the scan, represented in NV. Each scan yields 2 results, so the relationship is one-to-many.", "score": 0.499, "match_basis": "verbatim_token+domain_route:NV"}], "candidate_count": 5, "zero_candidate": false}
{"pdf_atom_id": "ig34_p0297_a037", "pdf_atom_type": "SENTENCE", "pdf_source": "SDTMIG_v3.4", "pdf_page": 297, "pdf_parent_section": "§6.3.7.4 Nervous System Findings (NV)", "pdf_verbatim": "In addition to interpreting each VEP component as normal or abnormal, the overall test for each eye may have an [TRUNCATED_AT_PAGE_BOUNDARY]", "figure_ref": null, "candidates": [{"md_atom_id": "md_dmNV_ex_a048", "md_file": "knowledge_base/domains/NV/examples.md", "md_atom_type": "SENTENCE", "md_parent_section": "§NV.2 [Example 2]", "md_verbatim": "**Row 10:** Shows that when all the components of left eye VEP are considered together (NVGRPID=2), the overall test is interpreted as abnormal.", "score": 0.6044, "match_basis": "verbatim_token+domain_route:NV"}, {"md_atom_id": "md_dmNV_ex_a046", "md_file": "knowledge_base/domains/NV/examples.md", "md_atom_type": "SENTENCE", "md_parent_section": "§NV.2 [Example 2]", "md_verbatim": "**Row 5:** Shows that when all the components of right eye VEP are considered together (NVGRPID=1), the overall test is interpreted as abnormal.", "score": 0.6022, "match_basis": "verbatim_token+domain_route:NV"}, {"md_atom_id": "md_dmNV_ex_a043", "md_file": "knowledge_base/domains/NV/examples.md", "md_atom_type": "SENTENCE", "md_parent_section": "§NV.2 [Example 2]", "md_verbatim": "In this example, a VEP component is considered abnormal if it falls outside of 3 standard deviations from the normative lab mean. These low and high values are stored in NVORNRLO and NVORNRHI, respectively, and the interpretation of each VEP component is represented in NVNRIND. In addition to interpreting each VEP component as normal or abnormal, the overall test for each eye may have an interpretation. In this scenario, NVTESTCD/NVTEST should be equal to \"INTP\" (Interpretation) and NVORRES should represent whether the overall test in each eye is normal or abnormal. NVGRPID links the each VEP component to the overall interpretation.", "score": 0.5714, "match_basis": "verbatim_token+domain_route:NV"}, {"md_atom_id": "md_dmNV_ex_a044", "md_file": "knowledge_base/domains/NV/examples.md", "md_atom_type": "SENTENCE", "md_parent_section": "§NV.2 [Example 2]", "md_verbatim": "The NV domain should be used to represent the VEP latencies, P100 peak-to-peak amplitude, and their interpretations. SPDEVID allows the results to be related to both the VEP testing device and the checkerboard size.", "score": 0.4877, "match_basis": "verbatim_token+domain_route:NV"}, {"md_atom_id": "md_dmNV_ex_a042", "md_file": "knowledge_base/domains/NV/examples.md", "md_atom_type": "SENTENCE", "md_parent_section": "§NV.2 [Example 2]", "md_verbatim": "This example shows how to represent components of a pattern-reversal visual evoked-potential (VEP) test elicited by checkerboard stimuli for a subject with optic neuritis. VEPs are detected via an EEG using leads that are placed on the back of the subject's head. It is important to note that the nature of VEP testing is such that NVMETHOD should be equal to \"EEG\", and that NVCAT should be equal to \"VISUAL EVOKED POTENTIAL\". Several latencies from each eye — including N75, P100, and N145, as well as the P100 peak-to-peak amplitude (75-100) — are collected and should be represented in NVTESTCD/NVTEST. Details about the VEP equipment including the checkerboard size should be represented in the appropriate device domains. To interpret, each VEP component is compared against normative values established by the laboratory using healthy controls.", "score": 0.4729, "match_basis": "verbatim_token+domain_route:NV"}], "candidate_count": 5, "zero_candidate": false}
{"pdf_atom_id": "ig34_p0298_a001", "pdf_atom_type": "SENTENCE", "pdf_source": "SDTMIG_v3.4", "pdf_page": 298, "pdf_parent_section": "§6.3.7.4 Nervous System Findings (NV)", "pdf_verbatim": "interpretation. In this scenario, NVTESTCD/NVTEST should be equal to \"INTP\" (Interpretation) and NVORRES should represent whether the overall test in each eye is normal or abnormal. NVGRPID links the each VEP component to the overall interpretation.", "figure_ref": null, "candidates": [{"md_atom_id": "md_dmNV_ex_a043", "md_file": "knowledge_base/domains/NV/examples.md", "md_atom_type": "SENTENCE", "md_parent_section": "§NV.2 [Example 2]", "md_verbatim": "In this example, a VEP component is considered abnormal if it falls outside of 3 standard deviations from the normative lab mean. These low and high values are stored in NVORNRLO and NVORNRHI, respectively, and the interpretation of each VEP component is represented in NVNRIND. In addition to interpreting each VEP component as normal or abnormal, the overall test for each eye may have an interpretation. In this scenario, NVTESTCD/NVTEST should be equal to \"INTP\" (Interpretation) and NVORRES should represent whether the overall test in each eye is normal or abnormal. NVGRPID links the each VEP component to the overall interpretation.", "score": 0.7038, "match_basis": "verbatim_token+domain_route:NV"}, {"md_atom_id": "md_dmNV_ex_a048", "md_file": "knowledge_base/domains/NV/examples.md", "md_atom_type": "SENTENCE", "md_parent_section": "§NV.2 [Example 2]", "md_verbatim": "**Row 10:** Shows that when all the components of left eye VEP are considered together (NVGRPID=2), the overall test is interpreted as abnormal.", "score": 0.6294, "match_basis": "verbatim_token+domain_route:NV"}, {"md_atom_id": "md_dmNV_ex_a046", "md_file": "knowledge_base/domains/NV/examples.md", "md_atom_type": "SENTENCE", "md_parent_section": "§NV.2 [Example 2]", "md_verbatim": "**Row 5:** Shows that when all the components of right eye VEP are considered together (NVGRPID=1), the overall test is interpreted as abnormal.", "score": 0.6272, "match_basis": "verbatim_token+domain_route:NV"}, {"md_atom_id": "md_dmNV_ex_a044", "md_file": "knowledge_base/domains/NV/examples.md", "md_atom_type": "SENTENCE", "md_parent_section": "§NV.2 [Example 2]", "md_verbatim": "The NV domain should be used to represent the VEP latencies, P100 peak-to-peak amplitude, and their interpretations. SPDEVID allows the results to be related to both the VEP testing device and the checkerboard size.", "score": 0.52, "match_basis": "verbatim_token+domain_route:NV"}, {"md_atom_id": "md_dmNV_ex_a042", "md_file": "knowledge_base/domains/NV/examples.md", "md_atom_type": "SENTENCE", "md_parent_section": "§NV.2 [Example 2]", "md_verbatim": "This example shows how to represent components of a pattern-reversal visual evoked-potential (VEP) test elicited by checkerboard stimuli for a subject with optic neuritis. VEPs are detected via an EEG using leads that are placed on the back of the subject's head. It is important to note that the nature of VEP testing is such that NVMETHOD should be equal to \"EEG\", and that NVCAT should be equal to \"VISUAL EVOKED POTENTIAL\". Several latencies from each eye — including N75, P100, and N145, as well as the P100 peak-to-peak amplitude (75-100) — are collected and should be represented in NVTESTCD/NVTEST. Details about the VEP equipment including the checkerboard size should be represented in the appropriate device domains. To interpret, each VEP component is compared against normative values established by the laboratory using healthy controls.", "score": 0.5003, "match_basis": "verbatim_token+domain_route:NV"}], "candidate_count": 5, "zero_candidate": false}
{"pdf_atom_id": "ig34_p0298_a002", "pdf_atom_type": "SENTENCE", "pdf_source": "SDTMIG_v3.4", "pdf_page": 298, "pdf_parent_section": "§6.3.7.4 Nervous System Findings (NV)", "pdf_verbatim": "The NV domain should be used to represent the VEP latencies, P100 peak-to-peak amplitude, and their interpretations.", "figure_ref": null, "candidates": [{"md_atom_id": "md_dmNV_ex_a044", "md_file": "knowledge_base/domains/NV/examples.md", "md_atom_type": "SENTENCE", "md_parent_section": "§NV.2 [Example 2]", "md_verbatim": "The NV domain should be used to represent the VEP latencies, P100 peak-to-peak amplitude, and their interpretations. SPDEVID allows the results to be related to both the VEP testing device and the checkerboard size.", "score": 0.7506, "match_basis": "verbatim_token+domain_route:NV"}, {"md_atom_id": "md_dmNV_ex_a061", "md_file": "knowledge_base/domains/NV/examples.md", "md_atom_type": "SENTENCE", "md_parent_section": "§NV.2 [Example 2]", "md_verbatim": "Information about the VEP device is not shown. Identifying information would be represented using the DI domain, and any properties of the device that may change between assessments would be represented in the DO and DU domains. See the SDTMIG-MD for examples of these domains.", "score": 0.521, "match_basis": "verbatim_token+domain_route:NV"}, {"md_atom_id": "md_dmNV_ex_a028", "md_file": "knowledge_base/domains/NV/examples.md", "md_atom_type": "SENTENCE", "md_parent_section": "§NV.1 [Example 1]", "md_verbatim": "**Rows 3-4:** Show the relationship between the scan, represented in PR, and the SUVR results obtained from the scan, represented in NV. Each scan yields 2 results, so the relationship is one-to-many.", "score": 0.5133, "match_basis": "verbatim_token+domain_route:NV"}, {"md_atom_id": "md_dmNV_ex_a027", "md_file": "knowledge_base/domains/NV/examples.md", "md_atom_type": "SENTENCE", "md_parent_section": "§NV.1 [Example 1]", "md_verbatim": "**Rows 1-2:** Show the relationship between the scan, represented in PR, and the radiolabel tracer used, represented in AG. There is only 1 tracer administration for each scan, and only 1 scan for each tracer administration, so the relationship is one-to-one.", "score": 0.5125, "match_basis": "verbatim_token+domain_route:NV"}, {"md_atom_id": "md_dmNV_ex_a042", "md_file": "knowledge_base/domains/NV/examples.md", "md_atom_type": "SENTENCE", "md_parent_section": "§NV.2 [Example 2]", "md_verbatim": "This example shows how to represent components of a pattern-reversal visual evoked-potential (VEP) test elicited by checkerboard stimuli for a subject with optic neuritis. VEPs are detected via an EEG using leads that are placed on the back of the subject's head. It is important to note that the nature of VEP testing is such that NVMETHOD should be equal to \"EEG\", and that NVCAT should be equal to \"VISUAL EVOKED POTENTIAL\". Several latencies from each eye — including N75, P100, and N145, as well as the P100 peak-to-peak amplitude (75-100) — are collected and should be represented in NVTESTCD/NVTEST. Details about the VEP equipment including the checkerboard size should be represented in the appropriate device domains. To interpret, each VEP component is compared against normative values established by the laboratory using healthy controls.", "score": 0.4974, "match_basis": "verbatim_token+domain_route:NV"}], "candidate_count": 5, "zero_candidate": false}
{"pdf_atom_id": "ig34_p0298_a003", "pdf_atom_type": "SENTENCE", "pdf_source": "SDTMIG_v3.4", "pdf_page": 298, "pdf_parent_section": "§6.3.7.4 Nervous System Findings (NV)", "pdf_verbatim": "SPDEVID allows the results to be related to both the VEP testing device and the checkerboard size.", "figure_ref": null, "candidates": [{"md_atom_id": "md_dmNV_ex_a044", "md_file": "knowledge_base/domains/NV/examples.md", "md_atom_type": "SENTENCE", "md_parent_section": "§NV.2 [Example 2]", "md_verbatim": "The NV domain should be used to represent the VEP latencies, P100 peak-to-peak amplitude, and their interpretations. SPDEVID allows the results to be related to both the VEP testing device and the checkerboard size.", "score": 0.6899, "match_basis": "verbatim_token+domain_route:NV"}, {"md_atom_id": "md_dmNV_ex_a030", "md_file": "knowledge_base/domains/NV/examples.md", "md_atom_type": "SENTENCE", "md_parent_section": "§NV.1 [Example 1]", "md_verbatim": "**Rows 7-8:** Show the relationship between the SUVR results and the specific settings for the device used for each scan. There is more than 1 result from each scan, and more than 1 setting for each scan, so the relationship is many-to-many. This relationship is unusual and challenging to manage in a join/merge, and only represents the concept of this relationship.", "score": 0.4878, "match_basis": "verbatim_token+domain_route:NV"}, {"md_atom_id": "md_dmNV_ex_a028", "md_file": "knowledge_base/domains/NV/examples.md", "md_atom_type": "SENTENCE", "md_parent_section": "§NV.1 [Example 1]", "md_verbatim": "**Rows 3-4:** Show the relationship between the scan, represented in PR, and the SUVR results obtained from the scan, represented in NV. Each scan yields 2 results, so the relationship is one-to-many.", "score": 0.4837, "match_basis": "verbatim_token+domain_route:NV"}, {"md_atom_id": "md_dmNV_ex_a025", "md_file": "knowledge_base/domains/NV/examples.md", "md_atom_type": "SENTENCE", "md_parent_section": "§NV.1 [Example 1]", "md_verbatim": "The RELREC table displays the dataset relationship that links procedure to multiple NV domain records — specifically how an individual AG administration record related to a scan is linked to multiple NV domain records. The RELREC table uses --LNKID to relate the PR and AG domains to each other and to NV, and --REFID to relate NV and Device in Use (DU).", "score": 0.4672, "match_basis": "verbatim_token+domain_route:NV"}, {"md_atom_id": "md_dmNV_ex_a042", "md_file": "knowledge_base/domains/NV/examples.md", "md_atom_type": "SENTENCE", "md_parent_section": "§NV.2 [Example 2]", "md_verbatim": "This example shows how to represent components of a pattern-reversal visual evoked-potential (VEP) test elicited by checkerboard stimuli for a subject with optic neuritis. VEPs are detected via an EEG using leads that are placed on the back of the subject's head. It is important to note that the nature of VEP testing is such that NVMETHOD should be equal to \"EEG\", and that NVCAT should be equal to \"VISUAL EVOKED POTENTIAL\". Several latencies from each eye — including N75, P100, and N145, as well as the P100 peak-to-peak amplitude (75-100) — are collected and should be represented in NVTESTCD/NVTEST. Details about the VEP equipment including the checkerboard size should be represented in the appropriate device domains. To interpret, each VEP component is compared against normative values established by the laboratory using healthy controls.", "score": 0.4628, "match_basis": "verbatim_token+domain_route:NV"}], "candidate_count": 5, "zero_candidate": false}
{"pdf_atom_id": "ig34_p0298_a004", "pdf_atom_type": "LIST_ITEM", "pdf_source": "SDTMIG_v3.4", "pdf_page": 298, "pdf_parent_section": "§6.3.7.4 Nervous System Findings (NV)", "pdf_verbatim": "Rows 1-4:   Show the VEP measurements for the right eye.", "figure_ref": null, "candidates": [{"md_atom_id": "md_dmNV_ex_a045", "md_file": "knowledge_base/domains/NV/examples.md", "md_atom_type": "SENTENCE", "md_parent_section": "§NV.2 [Example 2]", "md_verbatim": "**Rows 1-4:** Show the VEP measurements for the right eye.", "score": 0.91, "match_basis": "verbatim_token+domain_route:NV"}, {"md_atom_id": "md_dmNV_ex_a047", "md_file": "knowledge_base/domains/NV/examples.md", "md_atom_type": "SENTENCE", "md_parent_section": "§NV.2 [Example 2]", "md_verbatim": "**Rows 6-9:** Show the VEP measurements for the left eye.", "score": 0.7796, "match_basis": "verbatim_token+domain_route:NV"}, {"md_atom_id": "md_dmNV_assn_a002", "md_file": "knowledge_base/domains/NV/assumptions.md", "md_atom_type": "LIST_ITEM", "md_parent_section": "§NV [NV — Assumptions]", "md_verbatim": "1. Methods of assessment for nervous system findings may include nerve conduction studies, electroencephalogram (EEG), electromyography (EMG), and imaging.", "score": 0.4182, "match_basis": "verbatim_token+domain_route:NV"}, {"md_atom_id": "md_dmNV_assn_a003", "md_file": "knowledge_base/domains/NV/assumptions.md", "md_atom_type": "LIST_ITEM", "md_parent_section": "§NV [NV — Assumptions]", "md_verbatim": "2. Any Identifiers, Timing variables, or Findings general observation class qualifiers may be added to the NV domain, but the following qualifiers would not generally be used: --MODIFY, --BODSYS, --LOINC, --TOX, --TOXGR.", "score": 0.4115, "match_basis": "verbatim_token+domain_route:NV"}, {"md_atom_id": "md_dmNV_ex_a046", "md_file": "knowledge_base/domains/NV/examples.md", "md_atom_type": "SENTENCE", "md_parent_section": "§NV.2 [Example 2]", "md_verbatim": "**Row 5:** Shows that when all the components of right eye VEP are considered together (NVGRPID=1), the overall test is interpreted as abnormal.", "score": 0.41, "match_basis": "verbatim_token+domain_route:NV"}], "candidate_count": 5, "zero_candidate": false}
{"pdf_atom_id": "ig34_p0298_a005", "pdf_atom_type": "LIST_ITEM", "pdf_source": "SDTMIG_v3.4", "pdf_page": 298, "pdf_parent_section": "§6.3.7.4 Nervous System Findings (NV)", "pdf_verbatim": "Row 5:      Shows that when all the components of right eye VEP are considered together (NVGRPID=1), the overall test is interpreted as abnormal.", "figure_ref": null, "candidates": [{"md_atom_id": "md_dmNV_ex_a046", "md_file": "knowledge_base/domains/NV/examples.md", "md_atom_type": "SENTENCE", "md_parent_section": "§NV.2 [Example 2]", "md_verbatim": "**Row 5:** Shows that when all the components of right eye VEP are considered together (NVGRPID=1), the overall test is interpreted as abnormal.", "score": 0.91, "match_basis": "verbatim_token+domain_route:NV"}, {"md_atom_id": "md_dmNV_ex_a048", "md_file": "knowledge_base/domains/NV/examples.md", "md_atom_type": "SENTENCE", "md_parent_section": "§NV.2 [Example 2]", "md_verbatim": "**Row 10:** Shows that when all the components of left eye VEP are considered together (NVGRPID=2), the overall test is interpreted as abnormal.", "score": 0.8638, "match_basis": "verbatim_token+domain_route:NV"}, {"md_atom_id": "md_dmNV_ex_a043", "md_file": "knowledge_base/domains/NV/examples.md", "md_atom_type": "SENTENCE", "md_parent_section": "§NV.2 [Example 2]", "md_verbatim": "In this example, a VEP component is considered abnormal if it falls outside of 3 standard deviations from the normative lab mean. These low and high values are stored in NVORNRLO and NVORNRHI, respectively, and the interpretation of each VEP component is represented in NVNRIND. In addition to interpreting each VEP component as normal or abnormal, the overall test for each eye may have an interpretation. In this scenario, NVTESTCD/NVTEST should be equal to \"INTP\" (Interpretation) and NVORRES should represent whether the overall test in each eye is normal or abnormal. NVGRPID links the each VEP component to the overall interpretation.", "score": 0.4875, "match_basis": "verbatim_token+domain_route:NV"}, {"md_atom_id": "md_dmNV_assn_a003", "md_file": "knowledge_base/domains/NV/assumptions.md", "md_atom_type": "LIST_ITEM", "md_parent_section": "§NV [NV — Assumptions]", "md_verbatim": "2. Any Identifiers, Timing variables, or Findings general observation class qualifiers may be added to the NV domain, but the following qualifiers would not generally be used: --MODIFY, --BODSYS, --LOINC, --TOX, --TOXGR.", "score": 0.4254, "match_basis": "verbatim_token+domain_route:NV"}, {"md_atom_id": "md_dmNV_assn_a002", "md_file": "knowledge_base/domains/NV/assumptions.md", "md_atom_type": "LIST_ITEM", "md_parent_section": "§NV [NV — Assumptions]", "md_verbatim": "1. Methods of assessment for nervous system findings may include nerve conduction studies, electroencephalogram (EEG), electromyography (EMG), and imaging.", "score": 0.4128, "match_basis": "verbatim_token+domain_route:NV"}], "candidate_count": 5, "zero_candidate": false}
{"pdf_atom_id": "ig34_p0298_a006", "pdf_atom_type": "LIST_ITEM", "pdf_source": "SDTMIG_v3.4", "pdf_page": 298, "pdf_parent_section": "§6.3.7.4 Nervous System Findings (NV)", "pdf_verbatim": "Rows 6-9:   Show the VEP measurements for the left eye.", "figure_ref": null, "candidates": [{"md_atom_id": "md_dmNV_ex_a047", "md_file": "knowledge_base/domains/NV/examples.md", "md_atom_type": "SENTENCE", "md_parent_section": "§NV.2 [Example 2]", "md_verbatim": "**Rows 6-9:** Show the VEP measurements for the left eye.", "score": 0.91, "match_basis": "verbatim_token+domain_route:NV"}, {"md_atom_id": "md_dmNV_ex_a045", "md_file": "knowledge_base/domains/NV/examples.md", "md_atom_type": "SENTENCE", "md_parent_section": "§NV.2 [Example 2]", "md_verbatim": "**Rows 1-4:** Show the VEP measurements for the right eye.", "score": 0.7796, "match_basis": "verbatim_token+domain_route:NV"}, {"md_atom_id": "md_dmNV_assn_a002", "md_file": "knowledge_base/domains/NV/assumptions.md", "md_atom_type": "LIST_ITEM", "md_parent_section": "§NV [NV — Assumptions]", "md_verbatim": "1. Methods of assessment for nervous system findings may include nerve conduction studies, electroencephalogram (EEG), electromyography (EMG), and imaging.", "score": 0.4184, "match_basis": "verbatim_token+domain_route:NV"}, {"md_atom_id": "md_dmNV_assn_a003", "md_file": "knowledge_base/domains/NV/assumptions.md", "md_atom_type": "LIST_ITEM", "md_parent_section": "§NV [NV — Assumptions]", "md_verbatim": "2. Any Identifiers, Timing variables, or Findings general observation class qualifiers may be added to the NV domain, but the following qualifiers would not generally be used: --MODIFY, --BODSYS, --LOINC, --TOX, --TOXGR.", "score": 0.4117, "match_basis": "verbatim_token+domain_route:NV"}, {"md_atom_id": "md_dmNV_ex_a048", "md_file": "knowledge_base/domains/NV/examples.md", "md_atom_type": "SENTENCE", "md_parent_section": "§NV.2 [Example 2]", "md_verbatim": "**Row 10:** Shows that when all the components of left eye VEP are considered together (NVGRPID=2), the overall test is interpreted as abnormal.", "score": 0.403, "match_basis": "verbatim_token+domain_route:NV"}], "candidate_count": 5, "zero_candidate": false}
{"pdf_atom_id": "ig34_p0298_a007", "pdf_atom_type": "LIST_ITEM", "pdf_source": "SDTMIG_v3.4", "pdf_page": 298, "pdf_parent_section": "§6.3.7.4 Nervous System Findings (NV)", "pdf_verbatim": "Row 10:     Shows that when all the components of left eye VEP are considered together (NVGRPID=2), the overall test is interpreted as abnormal.", "figure_ref": null, "candidates": [{"md_atom_id": "md_dmNV_ex_a048", "md_file": "knowledge_base/domains/NV/examples.md", "md_atom_type": "SENTENCE", "md_parent_section": "§NV.2 [Example 2]", "md_verbatim": "**Row 10:** Shows that when all the components of left eye VEP are considered together (NVGRPID=2), the overall test is interpreted as abnormal.", "score": 0.91, "match_basis": "verbatim_token+domain_route:NV"}, {"md_atom_id": "md_dmNV_ex_a046", "md_file": "knowledge_base/domains/NV/examples.md", "md_atom_type": "SENTENCE", "md_parent_section": "§NV.2 [Example 2]", "md_verbatim": "**Row 5:** Shows that when all the components of right eye VEP are considered together (NVGRPID=1), the overall test is interpreted as abnormal.", "score": 0.8638, "match_basis": "verbatim_token+domain_route:NV"}, {"md_atom_id": "md_dmNV_ex_a043", "md_file": "knowledge_base/domains/NV/examples.md", "md_atom_type": "SENTENCE", "md_parent_section": "§NV.2 [Example 2]", "md_verbatim": "In this example, a VEP component is considered abnormal if it falls outside of 3 standard deviations from the normative lab mean. These low and high values are stored in NVORNRLO and NVORNRHI, respectively, and the interpretation of each VEP component is represented in NVNRIND. In addition to interpreting each VEP component as normal or abnormal, the overall test for each eye may have an interpretation. In this scenario, NVTESTCD/NVTEST should be equal to \"INTP\" (Interpretation) and NVORRES should represent whether the overall test in each eye is normal or abnormal. NVGRPID links the each VEP component to the overall interpretation.", "score": 0.484, "match_basis": "verbatim_token+domain_route:NV"}, {"md_atom_id": "md_dmNV_assn_a003", "md_file": "knowledge_base/domains/NV/assumptions.md", "md_atom_type": "LIST_ITEM", "md_parent_section": "§NV [NV — Assumptions]", "md_verbatim": "2. Any Identifiers, Timing variables, or Findings general observation class qualifiers may be added to the NV domain, but the following qualifiers would not generally be used: --MODIFY, --BODSYS, --LOINC, --TOX, --TOXGR.", "score": 0.4255, "match_basis": "verbatim_token+domain_route:NV"}, {"md_atom_id": "md_dmNV_assn_a002", "md_file": "knowledge_base/domains/NV/assumptions.md", "md_atom_type": "LIST_ITEM", "md_parent_section": "§NV [NV — Assumptions]", "md_verbatim": "1. Methods of assessment for nervous system findings may include nerve conduction studies, electroencephalogram (EEG), electromyography (EMG), and imaging.", "score": 0.4129, "match_basis": "verbatim_token+domain_route:NV"}], "candidate_count": 5, "zero_candidate": false}
{"pdf_atom_id": "ig34_p0298_a008", "pdf_atom_type": "CODE_LITERAL", "pdf_source": "SDTMIG_v3.4", "pdf_page": 298, "pdf_parent_section": "§6.3.7.4 Nervous System Findings (NV)", "pdf_verbatim": "nv.xpt", "figure_ref": null, "candidates": [{"md_atom_id": "md_dmNV_ex_a008", "md_file": "knowledge_base/domains/NV/examples.md", "md_atom_type": "SENTENCE", "md_parent_section": "§NV.1 [Example 1]", "md_verbatim": "**nv.xpt**", "score": 0.79, "match_basis": "verbatim_token+domain_route:NV"}, {"md_atom_id": "md_dmNV_ex_a049", "md_file": "knowledge_base/domains/NV/examples.md", "md_atom_type": "SENTENCE", "md_parent_section": "§NV.2 [Example 2]", "md_verbatim": "**nv.xpt**", "score": 0.79, "match_basis": "verbatim_token+domain_route:NV"}, {"md_atom_id": "md_dmNV_ex_a017", "md_file": "knowledge_base/domains/NV/examples.md", "md_atom_type": "SENTENCE", "md_parent_section": "§NV.1 [Example 1]", "md_verbatim": "**suppnv.xpt**", "score": 0.31, "match_basis": "verbatim_token+domain_route:NV"}, {"md_atom_id": "md_dmNV_ex_a031", "md_file": "knowledge_base/domains/NV/examples.md", "md_atom_type": "SENTENCE", "md_parent_section": "§NV.1 [Example 1]", "md_verbatim": "**relrec.xpt**", "score": 0.31, "match_basis": "verbatim_token+domain_route:NV"}, {"md_atom_id": "md_dmNV_assn_a001", "md_file": "knowledge_base/domains/NV/assumptions.md", "md_atom_type": "HEADING", "md_parent_section": "§NV [NV — Assumptions]", "md_verbatim": "# NV — Assumptions", "score": 0.19, "match_basis": "verbatim_token+domain_route:NV"}, {"md_atom_id": "md_dmNV_assn_a002", "md_file": "knowledge_base/domains/NV/assumptions.md", "md_atom_type": "LIST_ITEM", "md_parent_section": "§NV [NV — Assumptions]", "md_verbatim": "1. Methods of assessment for nervous system findings may include nerve conduction studies, electroencephalogram (EEG), electromyography (EMG), and imaging.", "score": 0.19, "match_basis": "verbatim_token+domain_route:NV"}, {"md_atom_id": "md_dmNV_assn_a003", "md_file": "knowledge_base/domains/NV/assumptions.md", "md_atom_type": "LIST_ITEM", "md_parent_section": "§NV [NV — Assumptions]", "md_verbatim": "2. Any Identifiers, Timing variables, or Findings general observation class qualifiers may be added to the NV domain, but the following qualifiers would not generally be used: --MODIFY, --BODSYS, --LOINC, --TOX, --TOXGR.", "score": 0.19, "match_basis": "verbatim_token+domain_route:NV"}, {"md_atom_id": "md_dmNV_ex_a001", "md_file": "knowledge_base/domains/NV/examples.md", "md_atom_type": "HEADING", "md_parent_section": "§NV [NV — Examples]", "md_verbatim": "# NV — Examples", "score": 0.19, "match_basis": "verbatim_token+domain_route:NV"}, {"md_atom_id": "md_dmNV_ex_a002", "md_file": "knowledge_base/domains/NV/examples.md", "md_atom_type": "HEADING", "md_parent_section": "§NV [NV — Examples]", "md_verbatim": "## Example 1", "score": 0.19, "match_basis": "verbatim_token+domain_route:NV"}, {"md_atom_id": "md_dmNV_ex_a003", "md_file": "knowledge_base/domains/NV/examples.md", "md_atom_type": "SENTENCE", "md_parent_section": "§NV.1 [Example 1]", "md_verbatim": "This example demonstrates the SDTM-based modeling of nervous system information collected and generated from separate positron emission tomography (PET) or PET/computed tomography (PET/CT) procedures.", "score": 0.19, "match_basis": "verbatim_token+domain_route:NV"}], "candidate_count": 10, "zero_candidate": false}
{"pdf_atom_id": "ig34_p0298_a009", "pdf_atom_type": "TABLE_HEADER", "pdf_source": "SDTMIG_v3.4", "pdf_page": 298, "pdf_parent_section": "§6.3.7.4 Nervous System Findings (NV)", "pdf_verbatim": "| Row | STUDYID | DOMAIN | USUBJID | SPDEVID | FOCID | NVSEQ | NVGRPID | NVTESTCD | NVTEST | NVCAT | NVORRES | NVORRESU | NVSTRESC | NVSTRESN | NVSTRESU | NVORNRLO | NVORNRHI | NVNRIND | NVLOC | NVLAT | NVMETHOD | VISITNUM | NVDTC |", "figure_ref": null, "candidates": [{"md_atom_id": "md_dmNV_ex_a050", "md_file": "knowledge_base/domains/NV/examples.md", "md_atom_type": "TABLE_HEADER", "md_parent_section": "§NV.2 [Example 2]", "md_verbatim": "| Row | STUDYID | DOMAIN | USUBJID | SPDEVID | FOCID | NVSEQ | NVGRPID | NVTESTCD | NVTEST | NVCAT | NVORRES | NVORRESU | NVSTRESC | NVSTRESN | NVSTRESU | NVORNRLO | NVORNRHI | NVNRIND | NVLOC | NVLAT | NVMETHOD | VISITNUM | NVDTC |\n|-----|---------|--------|---------|---------|-------|-------|---------|----------|--------|-------|---------|----------|----------|----------|----------|----------|----------|---------|-------|-------|----------|----------|-------|", "score": 1.0, "match_basis": "verbatim_token+domain_route:NV"}, {"md_atom_id": "md_dmNV_ex_a009", "md_file": "knowledge_base/domains/NV/examples.md", "md_atom_type": "TABLE_HEADER", "md_parent_section": "§NV.1 [Example 1]", "md_verbatim": "| Row | STUDYID | DOMAIN | USUBJID | SPDEVID | NVSEQ | NVREFID | NVLNKID | NVTESTCD | NVTEST | NVORRES | NVORRESU | NVSTRESC | NVSTRESN | NVSTRESU | NVLOC | NVDIR | NVMETHOD | VISITNUM | NVDTC |\n|-----|---------|--------|---------|---------|-------|---------|---------|----------|--------|---------|----------|----------|----------|----------|-------|-------|----------|----------|-------|", "score": 0.7742, "match_basis": "verbatim_token+domain_route:NV"}, {"md_atom_id": "md_dmNV_ex_a018", "md_file": "knowledge_base/domains/NV/examples.md", "md_atom_type": "TABLE_HEADER", "md_parent_section": "§NV.1 [Example 1]", "md_verbatim": "| Row | STUDYID | RDOMAIN | USUBJID | IDVAR | IDVARVAL | QNAM | QLABEL | QVAL |\n|-----|---------|---------|---------|-------|----------|------|--------|------|", "score": 0.4938, "match_basis": "verbatim_token+domain_route:NV"}, {"md_atom_id": "md_dmNV_ex_a032", "md_file": "knowledge_base/domains/NV/examples.md", "md_atom_type": "TABLE_HEADER", "md_parent_section": "§NV.1 [Example 1]", "md_verbatim": "| Row | STUDYID | RDOMAIN | USUBJID | IDVAR | IDVARVAL | RELTYPE | RELID |\n|-----|---------|---------|---------|-------|----------|---------|-------|", "score": 0.4938, "match_basis": "verbatim_token+domain_route:NV"}, {"md_atom_id": "md_dmNV_ex_a023", "md_file": "knowledge_base/domains/NV/examples.md", "md_atom_type": "TABLE_ROW", "md_parent_section": "§NV.1 [Example 1]", "md_verbatim": "| 5 | ABC123 | NV | AD01-103 | NVSEQ | 1 | REFREG | Reference Region | PONS |", "score": 0.3573, "match_basis": "verbatim_token+domain_route:NV"}], "candidate_count": 5, "zero_candidate": false}
{"pdf_atom_id": "ig34_p0298_a010", "pdf_atom_type": "TABLE_ROW", "pdf_source": "SDTMIG_v3.4", "pdf_page": 298, "pdf_parent_section": "§6.3.7.4 Nervous System Findings (NV)", "pdf_verbatim": "| 1 | MS123 | NV | MS01-01 | 123 | OD | 1 | 1 | N75LAT | N75 Latency | VISUAL EVOKED POTENTIAL | 79.8 | msec | 79.8 | 79.8 | msec | 54.68 | 94 | NORMAL | EYE | RIGHT | EEG | 1 | 2013-02-08 |", "figure_ref": null, "candidates": [{"md_atom_id": "md_dmNV_ex_a051", "md_file": "knowledge_base/domains/NV/examples.md", "md_atom_type": "TABLE_ROW", "md_parent_section": "§NV.2 [Example 2]", "md_verbatim": "| 1 | MS123 | NV | MS01-01 | 123 | OD | 1 | 1 | N75LAT | N75 Latency | VISUAL EVOKED POTENTIAL | 79.8 | msec | 79.8 | 79.8 | msec | 54.68 | 94 | NORMAL | EYE | RIGHT | EEG | 1 | 2013-02-08 |", "score": 1.0, "match_basis": "verbatim_token+domain_route:NV"}, {"md_atom_id": "md_dmNV_ex_a056", "md_file": "knowledge_base/domains/NV/examples.md", "md_atom_type": "TABLE_ROW", "md_parent_section": "§NV.2 [Example 2]", "md_verbatim": "| 6 | MS123 | NV | MS01-01 | 123 | OS | 6 | 2 | N75LAT | N75 Latency | VISUAL EVOKED POTENTIAL | 83.8 | msec | 83.8 | 83.8 | msec | 54.42 | 95.1 | NORMAL | EYE | LEFT | EEG | 1 | 2013-02-08 |", "score": 0.9286, "match_basis": "verbatim_token+domain_route:NV"}, {"md_atom_id": "md_dmNV_ex_a053", "md_file": "knowledge_base/domains/NV/examples.md", "md_atom_type": "TABLE_ROW", "md_parent_section": "§NV.2 [Example 2]", "md_verbatim": "| 3 | MS123 | NV | MS01-01 | 123 | OD | 3 | 1 | N145LAT | N145 Latency | VISUAL EVOKED POTENTIAL | 181 | msec | 181 | 181 | msec | 114.27 | 156.03 | ABNORMAL | EYE | RIGHT | EEG | 1 | 2013-02-08 |", "score": 0.875, "match_basis": "verbatim_token+domain_route:NV"}, {"md_atom_id": "md_dmNV_ex_a052", "md_file": "knowledge_base/domains/NV/examples.md", "md_atom_type": "TABLE_ROW", "md_parent_section": "§NV.2 [Example 2]", "md_verbatim": "| 2 | MS123 | NV | MS01-01 | 123 | OD | 2 | 1 | P100LAT | P100 Latency | VISUAL EVOKED POTENTIAL | 129 | msec | 129 | 129 | msec | 76.75 | 113.71 | ABNORMAL | EYE | RIGHT | EEG | 1 | 2013-02-08 |", "score": 0.8625, "match_basis": "verbatim_token+domain_route:NV"}, {"md_atom_id": "md_dmNV_ex_a058", "md_file": "knowledge_base/domains/NV/examples.md", "md_atom_type": "TABLE_ROW", "md_parent_section": "§NV.2 [Example 2]", "md_verbatim": "| 8 | MS123 | NV | MS01-01 | 123 | OS | 8 | 2 | N145LAT | N145 Latency | VISUAL EVOKED POTENTIAL | 160 | msec | 160 | 160 | msec | 115.65 | 157.65 | ABNORMAL | EYE | LEFT | EEG | 1 | 2013-02-08 |", "score": 0.82, "match_basis": "verbatim_token+domain_route:NV"}], "candidate_count": 5, "zero_candidate": false}
{"pdf_atom_id": "ig34_p0298_a011", "pdf_atom_type": "TABLE_ROW", "pdf_source": "SDTMIG_v3.4", "pdf_page": 298, "pdf_parent_section": "§6.3.7.4 Nervous System Findings (NV)", "pdf_verbatim": "| 2 | MS123 | NV | MS01-01 | 123 | OD | 2 | 1 | P100LAT | P100 Latency | VISUAL EVOKED POTENTIAL | 129 | msec | 129 | 129 | msec | 76.75 | 113.71 | ABNORMAL | EYE | RIGHT | EEG | 1 | 2013-02-08 |", "figure_ref": null, "candidates": [{"md_atom_id": "md_dmNV_ex_a052", "md_file": "knowledge_base/domains/NV/examples.md", "md_atom_type": "TABLE_ROW", "md_parent_section": "§NV.2 [Example 2]", "md_verbatim": "| 2 | MS123 | NV | MS01-01 | 123 | OD | 2 | 1 | P100LAT | P100 Latency | VISUAL EVOKED POTENTIAL | 129 | msec | 129 | 129 | msec | 76.75 | 113.71 | ABNORMAL | EYE | RIGHT | EEG | 1 | 2013-02-08 |", "score": 1.0, "match_basis": "verbatim_token+domain_route:NV"}, {"md_atom_id": "md_dmNV_ex_a057", "md_file": "knowledge_base/domains/NV/examples.md", "md_atom_type": "TABLE_ROW", "md_parent_section": "§NV.2 [Example 2]", "md_verbatim": "| 7 | MS123 | NV | MS01-01 | 123 | OS | 7 | 2 | P100LAT | P100 Latency | VISUAL EVOKED POTENTIAL | 126 | msec | 126 | 126 | msec | 76.9 | 115.78 | ABNORMAL | EYE | LEFT | EEG | 1 | 2013-02-08 |", "score": 0.8898, "match_basis": "verbatim_token+domain_route:NV"}, {"md_atom_id": "md_dmNV_ex_a051", "md_file": "knowledge_base/domains/NV/examples.md", "md_atom_type": "TABLE_ROW", "md_parent_section": "§NV.2 [Example 2]", "md_verbatim": "| 1 | MS123 | NV | MS01-01 | 123 | OD | 1 | 1 | N75LAT | N75 Latency | VISUAL EVOKED POTENTIAL | 79.8 | msec | 79.8 | 79.8 | msec | 54.68 | 94 | NORMAL | EYE | RIGHT | EEG | 1 | 2013-02-08 |", "score": 0.8625, "match_basis": "verbatim_token+domain_route:NV"}, {"md_atom_id": "md_dmNV_ex_a053", "md_file": "knowledge_base/domains/NV/examples.md", "md_atom_type": "TABLE_ROW", "md_parent_section": "§NV.2 [Example 2]", "md_verbatim": "| 3 | MS123 | NV | MS01-01 | 123 | OD | 3 | 1 | N145LAT | N145 Latency | VISUAL EVOKED POTENTIAL | 181 | msec | 181 | 181 | msec | 114.27 | 156.03 | ABNORMAL | EYE | RIGHT | EEG | 1 | 2013-02-08 |", "score": 0.85, "match_basis": "verbatim_token+domain_route:NV"}, {"md_atom_id": "md_dmNV_ex_a056", "md_file": "knowledge_base/domains/NV/examples.md", "md_atom_type": "TABLE_ROW", "md_parent_section": "§NV.2 [Example 2]", "md_verbatim": "| 6 | MS123 | NV | MS01-01 | 123 | OS | 6 | 2 | N75LAT | N75 Latency | VISUAL EVOKED POTENTIAL | 83.8 | msec | 83.8 | 83.8 | msec | 54.42 | 95.1 | NORMAL | EYE | LEFT | EEG | 1 | 2013-02-08 |", "score": 0.808, "match_basis": "verbatim_token+domain_route:NV"}], "candidate_count": 5, "zero_candidate": false}
{"pdf_atom_id": "ig34_p0298_a012", "pdf_atom_type": "TABLE_ROW", "pdf_source": "SDTMIG_v3.4", "pdf_page": 298, "pdf_parent_section": "§6.3.7.4 Nervous System Findings (NV)", "pdf_verbatim": "| 3 | MS123 | NV | MS01-01 | 123 | OD | 3 | 1 | N145LAT | N145 Latency | VISUAL EVOKED POTENTIAL | 181 | msec | 181 | 181 | msec | 114.27 | 156.03 | ABNORMAL | EYE | RIGHT | EEG | 1 | 2013-02-08 |", "figure_ref": null, "candidates": [{"md_atom_id": "md_dmNV_ex_a053", "md_file": "knowledge_base/domains/NV/examples.md", "md_atom_type": "TABLE_ROW", "md_parent_section": "§NV.2 [Example 2]", "md_verbatim": "| 3 | MS123 | NV | MS01-01 | 123 | OD | 3 | 1 | N145LAT | N145 Latency | VISUAL EVOKED POTENTIAL | 181 | msec | 181 | 181 | msec | 114.27 | 156.03 | ABNORMAL | EYE | RIGHT | EEG | 1 | 2013-02-08 |", "score": 1.0, "match_basis": "verbatim_token+domain_route:NV"}, {"md_atom_id": "md_dmNV_ex_a051", "md_file": "knowledge_base/domains/NV/examples.md", "md_atom_type": "TABLE_ROW", "md_parent_section": "§NV.2 [Example 2]", "md_verbatim": "| 1 | MS123 | NV | MS01-01 | 123 | OD | 1 | 1 | N75LAT | N75 Latency | VISUAL EVOKED POTENTIAL | 79.8 | msec | 79.8 | 79.8 | msec | 54.68 | 94 | NORMAL | EYE | RIGHT | EEG | 1 | 2013-02-08 |", "score": 0.875, "match_basis": "verbatim_token+domain_route:NV"}, {"md_atom_id": "md_dmNV_ex_a058", "md_file": "knowledge_base/domains/NV/examples.md", "md_atom_type": "TABLE_ROW", "md_parent_section": "§NV.2 [Example 2]", "md_verbatim": "| 8 | MS123 | NV | MS01-01 | 123 | OS | 8 | 2 | N145LAT | N145 Latency | VISUAL EVOKED POTENTIAL | 160 | msec | 160 | 160 | msec | 115.65 | 157.65 | ABNORMAL | EYE | LEFT | EEG | 1 | 2013-02-08 |", "score": 0.8706, "match_basis": "verbatim_token+domain_route:NV"}, {"md_atom_id": "md_dmNV_ex_a052", "md_file": "knowledge_base/domains/NV/examples.md", "md_atom_type": "TABLE_ROW", "md_parent_section": "§NV.2 [Example 2]", "md_verbatim": "| 2 | MS123 | NV | MS01-01 | 123 | OD | 2 | 1 | P100LAT | P100 Latency | VISUAL EVOKED POTENTIAL | 129 | msec | 129 | 129 | msec | 76.75 | 113.71 | ABNORMAL | EYE | RIGHT | EEG | 1 | 2013-02-08 |", "score": 0.85, "match_basis": "verbatim_token+domain_route:NV"}, {"md_atom_id": "md_dmNV_ex_a056", "md_file": "knowledge_base/domains/NV/examples.md", "md_atom_type": "TABLE_ROW", "md_parent_section": "§NV.2 [Example 2]", "md_verbatim": "| 6 | MS123 | NV | MS01-01 | 123 | OS | 6 | 2 | N75LAT | N75 Latency | VISUAL EVOKED POTENTIAL | 83.8 | msec | 83.8 | 83.8 | msec | 54.42 | 95.1 | NORMAL | EYE | LEFT | EEG | 1 | 2013-02-08 |", "score": 0.82, "match_basis": "verbatim_token+domain_route:NV"}], "candidate_count": 5, "zero_candidate": false}
{"pdf_atom_id": "ig34_p0298_a013", "pdf_atom_type": "TABLE_ROW", "pdf_source": "SDTMIG_v3.4", "pdf_page": 298, "pdf_parent_section": "§6.3.7.4 Nervous System Findings (NV)", "pdf_verbatim": "| 4 | MS123 | NV | MS01-01 | 123 | OD | 4 | 1 | P100AMP | P100 Amplitude | VISUAL EVOKED POTENTIAL | 5.02 | uV | 5.02 | 5.02 | uV | 5.26 | 12.64 | ABNORMAL | EYE | RIGHT | EEG | 1 | 2013-02-08 |", "figure_ref": null, "candidates": [{"md_atom_id": "md_dmNV_ex_a054", "md_file": "knowledge_base/domains/NV/examples.md", "md_atom_type": "TABLE_ROW", "md_parent_section": "§NV.2 [Example 2]", "md_verbatim": "| 4 | MS123 | NV | MS01-01 | 123 | OD | 4 | 1 | P100AMP | P100 Amplitude | VISUAL EVOKED POTENTIAL | 5.02 | uV | 5.02 | 5.02 | uV | 5.26 | 12.64 | ABNORMAL | EYE | RIGHT | EEG | 1 | 2013-02-08 |", "score": 1.0, "match_basis": "verbatim_token+domain_route:NV"}, {"md_atom_id": "md_dmNV_ex_a059", "md_file": "knowledge_base/domains/NV/examples.md", "md_atom_type": "TABLE_ROW", "md_parent_section": "§NV.2 [Example 2]", "md_verbatim": "| 9 | MS123 | NV | MS01-01 | 123 | OS | 9 | 2 | P100AMP | P100 Amplitude | VISUAL EVOKED POTENTIAL | 4.37 | uV | 4.37 | 4.37 | uV | 4.78 | 12.7 | ABNORMAL | EYE | LEFT | EEG | 1 | 2013-02-08 |", "score": 0.9348, "match_basis": "verbatim_token+domain_route:NV"}, {"md_atom_id": "md_dmNV_ex_a052", "md_file": "knowledge_base/domains/NV/examples.md", "md_atom_type": "TABLE_ROW", "md_parent_section": "§NV.2 [Example 2]", "md_verbatim": "| 2 | MS123 | NV | MS01-01 | 123 | OD | 2 | 1 | P100LAT | P100 Latency | VISUAL EVOKED POTENTIAL | 129 | msec | 129 | 129 | msec | 76.75 | 113.71 | ABNORMAL | EYE | RIGHT | EEG | 1 | 2013-02-08 |", "score": 0.7889, "match_basis": "verbatim_token+domain_route:NV"}, {"md_atom_id": "md_dmNV_ex_a051", "md_file": "knowledge_base/domains/NV/examples.md", "md_atom_type": "TABLE_ROW", "md_parent_section": "§NV.2 [Example 2]", "md_verbatim": "| 1 | MS123 | NV | MS01-01 | 123 | OD | 1 | 1 | N75LAT | N75 Latency | VISUAL EVOKED POTENTIAL | 79.8 | msec | 79.8 | 79.8 | msec | 54.68 | 94 | NORMAL | EYE | RIGHT | EEG | 1 | 2013-02-08 |", "score": 0.7509, "match_basis": "verbatim_token+domain_route:NV"}, {"md_atom_id": "md_dmNV_ex_a053", "md_file": "knowledge_base/domains/NV/examples.md", "md_atom_type": "TABLE_ROW", "md_parent_section": "§NV.2 [Example 2]", "md_verbatim": "| 3 | MS123 | NV | MS01-01 | 123 | OD | 3 | 1 | N145LAT | N145 Latency | VISUAL EVOKED POTENTIAL | 181 | msec | 181 | 181 | msec | 114.27 | 156.03 | ABNORMAL | EYE | RIGHT | EEG | 1 | 2013-02-08 |", "score": 0.7474, "match_basis": "verbatim_token+domain_route:NV"}], "candidate_count": 5, "zero_candidate": false}
{"pdf_atom_id": "ig34_p0298_a014", "pdf_atom_type": "TABLE_ROW", "pdf_source": "SDTMIG_v3.4", "pdf_page": 298, "pdf_parent_section": "§6.3.7.4 Nervous System Findings (NV)", "pdf_verbatim": "| 5 | MS123 | NV | MS01-01 | 123 | OD | 5 | 1 | INTP | Interpretation | VISUAL EVOKED POTENTIAL | ABNORMAL |  | ABNORMAL |  |  |  |  |  | EYE | RIGHT | EEG | 1 | 2013-02-08 |", "figure_ref": null, "candidates": [{"md_atom_id": "md_dmNV_ex_a055", "md_file": "knowledge_base/domains/NV/examples.md", "md_atom_type": "TABLE_ROW", "md_parent_section": "§NV.2 [Example 2]", "md_verbatim": "| 5 | MS123 | NV | MS01-01 | 123 | OD | 5 | 1 | INTP | Interpretation | VISUAL EVOKED POTENTIAL | ABNORMAL | | ABNORMAL | | | | | | EYE | RIGHT | EEG | 1 | 2013-02-08 |", "score": 1.0, "match_basis": "verbatim_token+domain_route:NV"}, {"md_atom_id": "md_dmNV_ex_a060", "md_file": "knowledge_base/domains/NV/examples.md", "md_atom_type": "TABLE_ROW", "md_parent_section": "§NV.2 [Example 2]", "md_verbatim": "| 10 | MS123 | NV | MS01-01 | 123 | OS | 10 | 2 | INTP | Interpretation | VISUAL EVOKED POTENTIAL | ABNORMAL | | ABNORMAL | | | | | | EYE | LEFT | EEG | 1 | 2013-02-08 |", "score": 0.9375, "match_basis": "verbatim_token+domain_route:NV"}, {"md_atom_id": "md_dmNV_ex_a054", "md_file": "knowledge_base/domains/NV/examples.md", "md_atom_type": "TABLE_ROW", "md_parent_section": "§NV.2 [Example 2]", "md_verbatim": "| 4 | MS123 | NV | MS01-01 | 123 | OD | 4 | 1 | P100AMP | P100 Amplitude | VISUAL EVOKED POTENTIAL | 5.02 | uV | 5.02 | 5.02 | uV | 5.26 | 12.64 | ABNORMAL | EYE | RIGHT | EEG | 1 | 2013-02-08 |", "score": 0.7474, "match_basis": "verbatim_token+domain_route:NV"}, {"md_atom_id": "md_dmNV_ex_a052", "md_file": "knowledge_base/domains/NV/examples.md", "md_atom_type": "TABLE_ROW", "md_parent_section": "§NV.2 [Example 2]", "md_verbatim": "| 2 | MS123 | NV | MS01-01 | 123 | OD | 2 | 1 | P100LAT | P100 Latency | VISUAL EVOKED POTENTIAL | 129 | msec | 129 | 129 | msec | 76.75 | 113.71 | ABNORMAL | EYE | RIGHT | EEG | 1 | 2013-02-08 |", "score": 0.7414, "match_basis": "verbatim_token+domain_route:NV"}, {"md_atom_id": "md_dmNV_ex_a051", "md_file": "knowledge_base/domains/NV/examples.md", "md_atom_type": "TABLE_ROW", "md_parent_section": "§NV.2 [Example 2]", "md_verbatim": "| 1 | MS123 | NV | MS01-01 | 123 | OD | 1 | 1 | N75LAT | N75 Latency | VISUAL EVOKED POTENTIAL | 79.8 | msec | 79.8 | 79.8 | msec | 54.68 | 94 | NORMAL | EYE | RIGHT | EEG | 1 | 2013-02-08 |", "score": 0.7382, "match_basis": "verbatim_token+domain_route:NV"}], "candidate_count": 5, "zero_candidate": false}
{"pdf_atom_id": "ig34_p0298_a015", "pdf_atom_type": "TABLE_ROW", "pdf_source": "SDTMIG_v3.4", "pdf_page": 298, "pdf_parent_section": "§6.3.7.4 Nervous System Findings (NV)", "pdf_verbatim": "| 6 | MS123 | NV | MS01-01 | 123 | OS | 6 | 2 | N75LAT | N75 Latency | VISUAL EVOKED POTENTIAL | 83.8 | msec | 83.8 | 83.8 | msec | 54.42 | 95.1 | NORMAL | EYE | LEFT | EEG | 1 | 2013-02-08 |", "figure_ref": null, "candidates": [{"md_atom_id": "md_dmNV_ex_a056", "md_file": "knowledge_base/domains/NV/examples.md", "md_atom_type": "TABLE_ROW", "md_parent_section": "§NV.2 [Example 2]", "md_verbatim": "| 6 | MS123 | NV | MS01-01 | 123 | OS | 6 | 2 | N75LAT | N75 Latency | VISUAL EVOKED POTENTIAL | 83.8 | msec | 83.8 | 83.8 | msec | 54.42 | 95.1 | NORMAL | EYE | LEFT | EEG | 1 | 2013-02-08 |", "score": 1.0, "match_basis": "verbatim_token+domain_route:NV"}, {"md_atom_id": "md_dmNV_ex_a051", "md_file": "knowledge_base/domains/NV/examples.md", "md_atom_type": "TABLE_ROW", "md_parent_section": "§NV.2 [Example 2]", "md_verbatim": "| 1 | MS123 | NV | MS01-01 | 123 | OD | 1 | 1 | N75LAT | N75 Latency | VISUAL EVOKED POTENTIAL | 79.8 | msec | 79.8 | 79.8 | msec | 54.68 | 94 | NORMAL | EYE | RIGHT | EEG | 1 | 2013-02-08 |", "score": 0.9286, "match_basis": "verbatim_token+domain_route:NV"}, {"md_atom_id": "md_dmNV_ex_a058", "md_file": "knowledge_base/domains/NV/examples.md", "md_atom_type": "TABLE_ROW", "md_parent_section": "§NV.2 [Example 2]", "md_verbatim": "| 8 | MS123 | NV | MS01-01 | 123 | OS | 8 | 2 | N145LAT | N145 Latency | VISUAL EVOKED POTENTIAL | 160 | msec | 160 | 160 | msec | 115.65 | 157.65 | ABNORMAL | EYE | LEFT | EEG | 1 | 2013-02-08 |", "score": 0.8723, "match_basis": "verbatim_token+domain_route:NV"}, {"md_atom_id": "md_dmNV_ex_a057", "md_file": "knowledge_base/domains/NV/examples.md", "md_atom_type": "TABLE_ROW", "md_parent_section": "§NV.2 [Example 2]", "md_verbatim": "| 7 | MS123 | NV | MS01-01 | 123 | OS | 7 | 2 | P100LAT | P100 Latency | VISUAL EVOKED POTENTIAL | 126 | msec | 126 | 126 | msec | 76.9 | 115.78 | ABNORMAL | EYE | LEFT | EEG | 1 | 2013-02-08 |", "score": 0.8596, "match_basis": "verbatim_token+domain_route:NV"}, {"md_atom_id": "md_dmNV_ex_a053", "md_file": "knowledge_base/domains/NV/examples.md", "md_atom_type": "TABLE_ROW", "md_parent_section": "§NV.2 [Example 2]", "md_verbatim": "| 3 | MS123 | NV | MS01-01 | 123 | OD | 3 | 1 | N145LAT | N145 Latency | VISUAL EVOKED POTENTIAL | 181 | msec | 181 | 181 | msec | 114.27 | 156.03 | ABNORMAL | EYE | RIGHT | EEG | 1 | 2013-02-08 |", "score": 0.82, "match_basis": "verbatim_token+domain_route:NV"}], "candidate_count": 5, "zero_candidate": false}
{"pdf_atom_id": "ig34_p0298_a016", "pdf_atom_type": "TABLE_ROW", "pdf_source": "SDTMIG_v3.4", "pdf_page": 298, "pdf_parent_section": "§6.3.7.4 Nervous System Findings (NV)", "pdf_verbatim": "| 7 | MS123 | NV | MS01-01 | 123 | OS | 7 | 2 | P100LAT | P100 Latency | VISUAL EVOKED POTENTIAL | 126 | msec | 126 | 126 | msec | 76.9 | 115.78 | ABNORMAL | EYE | LEFT | EEG | 1 | 2013-02-08 |", "figure_ref": null, "candidates": [{"md_atom_id": "md_dmNV_ex_a057", "md_file": "knowledge_base/domains/NV/examples.md", "md_atom_type": "TABLE_ROW", "md_parent_section": "§NV.2 [Example 2]", "md_verbatim": "| 7 | MS123 | NV | MS01-01 | 123 | OS | 7 | 2 | P100LAT | P100 Latency | VISUAL EVOKED POTENTIAL | 126 | msec | 126 | 126 | msec | 76.9 | 115.78 | ABNORMAL | EYE | LEFT | EEG | 1 | 2013-02-08 |", "score": 1.0, "match_basis": "verbatim_token+domain_route:NV"}, {"md_atom_id": "md_dmNV_ex_a052", "md_file": "knowledge_base/domains/NV/examples.md", "md_atom_type": "TABLE_ROW", "md_parent_section": "§NV.2 [Example 2]", "md_verbatim": "| 2 | MS123 | NV | MS01-01 | 123 | OD | 2 | 1 | P100LAT | P100 Latency | VISUAL EVOKED POTENTIAL | 129 | msec | 129 | 129 | msec | 76.75 | 113.71 | ABNORMAL | EYE | RIGHT | EEG | 1 | 2013-02-08 |", "score": 0.8898, "match_basis": "verbatim_token+domain_route:NV"}, {"md_atom_id": "md_dmNV_ex_a058", "md_file": "knowledge_base/domains/NV/examples.md", "md_atom_type": "TABLE_ROW", "md_parent_section": "§NV.2 [Example 2]", "md_verbatim": "| 8 | MS123 | NV | MS01-01 | 123 | OS | 8 | 2 | N145LAT | N145 Latency | VISUAL EVOKED POTENTIAL | 160 | msec | 160 | 160 | msec | 115.65 | 157.65 | ABNORMAL | EYE | LEFT | EEG | 1 | 2013-02-08 |", "score": 0.868, "match_basis": "verbatim_token+domain_route:NV"}, {"md_atom_id": "md_dmNV_ex_a056", "md_file": "knowledge_base/domains/NV/examples.md", "md_atom_type": "TABLE_ROW", "md_parent_section": "§NV.2 [Example 2]", "md_verbatim": "| 6 | MS123 | NV | MS01-01 | 123 | OS | 6 | 2 | N75LAT | N75 Latency | VISUAL EVOKED POTENTIAL | 83.8 | msec | 83.8 | 83.8 | msec | 54.42 | 95.1 | NORMAL | EYE | LEFT | EEG | 1 | 2013-02-08 |", "score": 0.8596, "match_basis": "verbatim_token+domain_route:NV"}, {"md_atom_id": "md_dmNV_ex_a051", "md_file": "knowledge_base/domains/NV/examples.md", "md_atom_type": "TABLE_ROW", "md_parent_section": "§NV.2 [Example 2]", "md_verbatim": "| 1 | MS123 | NV | MS01-01 | 123 | OD | 1 | 1 | N75LAT | N75 Latency | VISUAL EVOKED POTENTIAL | 79.8 | msec | 79.8 | 79.8 | msec | 54.68 | 94 | NORMAL | EYE | RIGHT | EEG | 1 | 2013-02-08 |", "score": 0.808, "match_basis": "verbatim_token+domain_route:NV"}], "candidate_count": 5, "zero_candidate": false}
{"pdf_atom_id": "ig34_p0298_a017", "pdf_atom_type": "TABLE_ROW", "pdf_source": "SDTMIG_v3.4", "pdf_page": 298, "pdf_parent_section": "§6.3.7.4 Nervous System Findings (NV)", "pdf_verbatim": "| 8 | MS123 | NV | MS01-01 | 123 | OS | 8 | 2 | N145LAT | N145 Latency | VISUAL EVOKED POTENTIAL | 160 | msec | 160 | 160 | msec | 115.65 | 157.65 | ABNORMAL | EYE | LEFT | EEG | 1 | 2013-02-08 |", "figure_ref": null, "candidates": [{"md_atom_id": "md_dmNV_ex_a058", "md_file": "knowledge_base/domains/NV/examples.md", "md_atom_type": "TABLE_ROW", "md_parent_section": "§NV.2 [Example 2]", "md_verbatim": "| 8 | MS123 | NV | MS01-01 | 123 | OS | 8 | 2 | N145LAT | N145 Latency | VISUAL EVOKED POTENTIAL | 160 | msec | 160 | 160 | msec | 115.65 | 157.65 | ABNORMAL | EYE | LEFT | EEG | 1 | 2013-02-08 |", "score": 1.0, "match_basis": "verbatim_token+domain_route:NV"}, {"md_atom_id": "md_dmNV_ex_a056", "md_file": "knowledge_base/domains/NV/examples.md", "md_atom_type": "TABLE_ROW", "md_parent_section": "§NV.2 [Example 2]", "md_verbatim": "| 6 | MS123 | NV | MS01-01 | 123 | OS | 6 | 2 | N75LAT | N75 Latency | VISUAL EVOKED POTENTIAL | 83.8 | msec | 83.8 | 83.8 | msec | 54.42 | 95.1 | NORMAL | EYE | LEFT | EEG | 1 | 2013-02-08 |", "score": 0.8723, "match_basis": "verbatim_token+domain_route:NV"}, {"md_atom_id": "md_dmNV_ex_a053", "md_file": "knowledge_base/domains/NV/examples.md", "md_atom_type": "TABLE_ROW", "md_parent_section": "§NV.2 [Example 2]", "md_verbatim": "| 3 | MS123 | NV | MS01-01 | 123 | OD | 3 | 1 | N145LAT | N145 Latency | VISUAL EVOKED POTENTIAL | 181 | msec | 181 | 181 | msec | 114.27 | 156.03 | ABNORMAL | EYE | RIGHT | EEG | 1 | 2013-02-08 |", "score": 0.8706, "match_basis": "verbatim_token+domain_route:NV"}, {"md_atom_id": "md_dmNV_ex_a057", "md_file": "knowledge_base/domains/NV/examples.md", "md_atom_type": "TABLE_ROW", "md_parent_section": "§NV.2 [Example 2]", "md_verbatim": "| 7 | MS123 | NV | MS01-01 | 123 | OS | 7 | 2 | P100LAT | P100 Latency | VISUAL EVOKED POTENTIAL | 126 | msec | 126 | 126 | msec | 76.9 | 115.78 | ABNORMAL | EYE | LEFT | EEG | 1 | 2013-02-08 |", "score": 0.868, "match_basis": "verbatim_token+domain_route:NV"}, {"md_atom_id": "md_dmNV_ex_a051", "md_file": "knowledge_base/domains/NV/examples.md", "md_atom_type": "TABLE_ROW", "md_parent_section": "§NV.2 [Example 2]", "md_verbatim": "| 1 | MS123 | NV | MS01-01 | 123 | OD | 1 | 1 | N75LAT | N75 Latency | VISUAL EVOKED POTENTIAL | 79.8 | msec | 79.8 | 79.8 | msec | 54.68 | 94 | NORMAL | EYE | RIGHT | EEG | 1 | 2013-02-08 |", "score": 0.82, "match_basis": "verbatim_token+domain_route:NV"}], "candidate_count": 5, "zero_candidate": false}
{"pdf_atom_id": "ig34_p0298_a018", "pdf_atom_type": "TABLE_ROW", "pdf_source": "SDTMIG_v3.4", "pdf_page": 298, "pdf_parent_section": "§6.3.7.4 Nervous System Findings (NV)", "pdf_verbatim": "| 9 | MS123 | NV | MS01-01 | 123 | OS | 9 | 2 | P100AMP | P100 Amplitude | VISUAL EVOKED POTENTIAL | 4.37 | uV | 4.37 | 4.37 | uV | 4.78 | 12.7 | ABNORMAL | EYE | LEFT | EEG | 1 | 2013-02-08 |", "figure_ref": null, "candidates": [{"md_atom_id": "md_dmNV_ex_a059", "md_file": "knowledge_base/domains/NV/examples.md", "md_atom_type": "TABLE_ROW", "md_parent_section": "§NV.2 [Example 2]", "md_verbatim": "| 9 | MS123 | NV | MS01-01 | 123 | OS | 9 | 2 | P100AMP | P100 Amplitude | VISUAL EVOKED POTENTIAL | 4.37 | uV | 4.37 | 4.37 | uV | 4.78 | 12.7 | ABNORMAL | EYE | LEFT | EEG | 1 | 2013-02-08 |", "score": 1.0, "match_basis": "verbatim_token+domain_route:NV"}, {"md_atom_id": "md_dmNV_ex_a054", "md_file": "knowledge_base/domains/NV/examples.md", "md_atom_type": "TABLE_ROW", "md_parent_section": "§NV.2 [Example 2]", "md_verbatim": "| 4 | MS123 | NV | MS01-01 | 123 | OD | 4 | 1 | P100AMP | P100 Amplitude | VISUAL EVOKED POTENTIAL | 5.02 | uV | 5.02 | 5.02 | uV | 5.26 | 12.64 | ABNORMAL | EYE | RIGHT | EEG | 1 | 2013-02-08 |", "score": 0.9348, "match_basis": "verbatim_token+domain_route:NV"}, {"md_atom_id": "md_dmNV_ex_a057", "md_file": "knowledge_base/domains/NV/examples.md", "md_atom_type": "TABLE_ROW", "md_parent_section": "§NV.2 [Example 2]", "md_verbatim": "| 7 | MS123 | NV | MS01-01 | 123 | OS | 7 | 2 | P100LAT | P100 Latency | VISUAL EVOKED POTENTIAL | 126 | msec | 126 | 126 | msec | 76.9 | 115.78 | ABNORMAL | EYE | LEFT | EEG | 1 | 2013-02-08 |", "score": 0.7849, "match_basis": "verbatim_token+domain_route:NV"}, {"md_atom_id": "md_dmNV_ex_a056", "md_file": "knowledge_base/domains/NV/examples.md", "md_atom_type": "TABLE_ROW", "md_parent_section": "§NV.2 [Example 2]", "md_verbatim": "| 6 | MS123 | NV | MS01-01 | 123 | OS | 6 | 2 | N75LAT | N75 Latency | VISUAL EVOKED POTENTIAL | 83.8 | msec | 83.8 | 83.8 | msec | 54.42 | 95.1 | NORMAL | EYE | LEFT | EEG | 1 | 2013-02-08 |", "score": 0.7462, "match_basis": "verbatim_token+domain_route:NV"}, {"md_atom_id": "md_dmNV_ex_a052", "md_file": "knowledge_base/domains/NV/examples.md", "md_atom_type": "TABLE_ROW", "md_parent_section": "§NV.2 [Example 2]", "md_verbatim": "| 2 | MS123 | NV | MS01-01 | 123 | OD | 2 | 1 | P100LAT | P100 Latency | VISUAL EVOKED POTENTIAL | 129 | msec | 129 | 129 | msec | 76.75 | 113.71 | ABNORMAL | EYE | RIGHT | EEG | 1 | 2013-02-08 |", "score": 0.7429, "match_basis": "verbatim_token+domain_route:NV"}], "candidate_count": 5, "zero_candidate": false}
{"pdf_atom_id": "ig34_p0298_a019", "pdf_atom_type": "TABLE_ROW", "pdf_source": "SDTMIG_v3.4", "pdf_page": 298, "pdf_parent_section": "§6.3.7.4 Nervous System Findings (NV)", "pdf_verbatim": "| 10 | MS123 | NV | MS01-01 | 123 | OS | 10 | 2 | INTP | Interpretation | VISUAL EVOKED POTENTIAL | ABNORMAL |  | ABNORMAL |  |  |  |  |  | EYE | LEFT | EEG | 1 | 2013-02-08 |", "figure_ref": null, "candidates": [{"md_atom_id": "md_dmNV_ex_a060", "md_file": "knowledge_base/domains/NV/examples.md", "md_atom_type": "TABLE_ROW", "md_parent_section": "§NV.2 [Example 2]", "md_verbatim": "| 10 | MS123 | NV | MS01-01 | 123 | OS | 10 | 2 | INTP | Interpretation | VISUAL EVOKED POTENTIAL | ABNORMAL | | ABNORMAL | | | | | | EYE | LEFT | EEG | 1 | 2013-02-08 |", "score": 1.0, "match_basis": "verbatim_token+domain_route:NV"}, {"md_atom_id": "md_dmNV_ex_a055", "md_file": "knowledge_base/domains/NV/examples.md", "md_atom_type": "TABLE_ROW", "md_parent_section": "§NV.2 [Example 2]", "md_verbatim": "| 5 | MS123 | NV | MS01-01 | 123 | OD | 5 | 1 | INTP | Interpretation | VISUAL EVOKED POTENTIAL | ABNORMAL | | ABNORMAL | | | | | | EYE | RIGHT | EEG | 1 | 2013-02-08 |", "score": 0.9375, "match_basis": "verbatim_token+domain_route:NV"}, {"md_atom_id": "md_dmNV_ex_a059", "md_file": "knowledge_base/domains/NV/examples.md", "md_atom_type": "TABLE_ROW", "md_parent_section": "§NV.2 [Example 2]", "md_verbatim": "| 9 | MS123 | NV | MS01-01 | 123 | OS | 9 | 2 | P100AMP | P100 Amplitude | VISUAL EVOKED POTENTIAL | 4.37 | uV | 4.37 | 4.37 | uV | 4.78 | 12.7 | ABNORMAL | EYE | LEFT | EEG | 1 | 2013-02-08 |", "score": 0.7429, "match_basis": "verbatim_token+domain_route:NV"}, {"md_atom_id": "md_dmNV_ex_a057", "md_file": "knowledge_base/domains/NV/examples.md", "md_atom_type": "TABLE_ROW", "md_parent_section": "§NV.2 [Example 2]", "md_verbatim": "| 7 | MS123 | NV | MS01-01 | 123 | OS | 7 | 2 | P100LAT | P100 Latency | VISUAL EVOKED POTENTIAL | 126 | msec | 126 | 126 | msec | 76.9 | 115.78 | ABNORMAL | EYE | LEFT | EEG | 1 | 2013-02-08 |", "score": 0.7368, "match_basis": "verbatim_token+domain_route:NV"}, {"md_atom_id": "md_dmNV_ex_a056", "md_file": "knowledge_base/domains/NV/examples.md", "md_atom_type": "TABLE_ROW", "md_parent_section": "§NV.2 [Example 2]", "md_verbatim": "| 6 | MS123 | NV | MS01-01 | 123 | OS | 6 | 2 | N75LAT | N75 Latency | VISUAL EVOKED POTENTIAL | 83.8 | msec | 83.8 | 83.8 | msec | 54.42 | 95.1 | NORMAL | EYE | LEFT | EEG | 1 | 2013-02-08 |", "score": 0.7333, "match_basis": "verbatim_token+domain_route:NV"}], "candidate_count": 5, "zero_candidate": false}
{"pdf_atom_id": "ig34_p0298_a020", "pdf_atom_type": "SENTENCE", "pdf_source": "SDTMIG_v3.4", "pdf_page": 298, "pdf_parent_section": "§6.3.7.4 Nervous System Findings (NV)", "pdf_verbatim": "Information about the VEP device is not shown.", "figure_ref": null, "candidates": [{"md_atom_id": "md_dmNV_ex_a061", "md_file": "knowledge_base/domains/NV/examples.md", "md_atom_type": "SENTENCE", "md_parent_section": "§NV.2 [Example 2]", "md_verbatim": "Information about the VEP device is not shown. Identifying information would be represented using the DI domain, and any properties of the device that may change between assessments would be represented in the DO and DU domains. See the SDTMIG-MD for examples of these domains.", "score": 0.5451, "match_basis": "verbatim_token+domain_route:NV"}, {"md_atom_id": "md_dmNV_ex_a047", "md_file": "knowledge_base/domains/NV/examples.md", "md_atom_type": "SENTENCE", "md_parent_section": "§NV.2 [Example 2]", "md_verbatim": "**Rows 6-9:** Show the VEP measurements for the left eye.", "score": 0.4811, "match_basis": "verbatim_token+domain_route:NV"}, {"md_atom_id": "md_dmNV_ex_a045", "md_file": "knowledge_base/domains/NV/examples.md", "md_atom_type": "SENTENCE", "md_parent_section": "§NV.2 [Example 2]", "md_verbatim": "**Rows 1-4:** Show the VEP measurements for the right eye.", "score": 0.4789, "match_basis": "verbatim_token+domain_route:NV"}, {"md_atom_id": "md_dmNV_ex_a030", "md_file": "knowledge_base/domains/NV/examples.md", "md_atom_type": "SENTENCE", "md_parent_section": "§NV.1 [Example 1]", "md_verbatim": "**Rows 7-8:** Show the relationship between the SUVR results and the specific settings for the device used for each scan. There is more than 1 result from each scan, and more than 1 setting for each scan, so the relationship is many-to-many. This relationship is unusual and challenging to manage in a join/merge, and only represents the concept of this relationship.", "score": 0.4606, "match_basis": "verbatim_token+domain_route:NV"}, {"md_atom_id": "md_dmNV_ex_a044", "md_file": "knowledge_base/domains/NV/examples.md", "md_atom_type": "SENTENCE", "md_parent_section": "§NV.2 [Example 2]", "md_verbatim": "The NV domain should be used to represent the VEP latencies, P100 peak-to-peak amplitude, and their interpretations. SPDEVID allows the results to be related to both the VEP testing device and the checkerboard size.", "score": 0.4594, "match_basis": "verbatim_token+domain_route:NV"}], "candidate_count": 5, "zero_candidate": false}
{"pdf_atom_id": "ig34_p0298_a021", "pdf_atom_type": "SENTENCE", "pdf_source": "SDTMIG_v3.4", "pdf_page": 298, "pdf_parent_section": "§6.3.7.4 Nervous System Findings (NV)", "pdf_verbatim": "Identifying information would be represented using the DI domain, and any properties of the device that may change between assessments would be represented in the DO and DU domains.", "figure_ref": null, "candidates": [{"md_atom_id": "md_dmNV_ex_a061", "md_file": "knowledge_base/domains/NV/examples.md", "md_atom_type": "SENTENCE", "md_parent_section": "§NV.2 [Example 2]", "md_verbatim": "Information about the VEP device is not shown. Identifying information would be represented using the DI domain, and any properties of the device that may change between assessments would be represented in the DO and DU domains. See the SDTMIG-MD for examples of these domains.", "score": 0.8681, "match_basis": "verbatim_token+domain_route:NV"}, {"md_atom_id": "md_dmNV_ex_a028", "md_file": "knowledge_base/domains/NV/examples.md", "md_atom_type": "SENTENCE", "md_parent_section": "§NV.1 [Example 1]", "md_verbatim": "**Rows 3-4:** Show the relationship between the scan, represented in PR, and the SUVR results obtained from the scan, represented in NV. Each scan yields 2 results, so the relationship is one-to-many.", "score": 0.52, "match_basis": "verbatim_token+domain_route:NV"}, {"md_atom_id": "md_dmNV_ex_a030", "md_file": "knowledge_base/domains/NV/examples.md", "md_atom_type": "SENTENCE", "md_parent_section": "§NV.1 [Example 1]", "md_verbatim": "**Rows 7-8:** Show the relationship between the SUVR results and the specific settings for the device used for each scan. There is more than 1 result from each scan, and more than 1 setting for each scan, so the relationship is many-to-many. This relationship is unusual and challenging to manage in a join/merge, and only represents the concept of this relationship.", "score": 0.5191, "match_basis": "verbatim_token+domain_route:NV"}, {"md_atom_id": "md_dmNV_ex_a044", "md_file": "knowledge_base/domains/NV/examples.md", "md_atom_type": "SENTENCE", "md_parent_section": "§NV.2 [Example 2]", "md_verbatim": "The NV domain should be used to represent the VEP latencies, P100 peak-to-peak amplitude, and their interpretations. SPDEVID allows the results to be related to both the VEP testing device and the checkerboard size.", "score": 0.5164, "match_basis": "verbatim_token+domain_route:NV"}, {"md_atom_id": "md_dmNV_ex_a027", "md_file": "knowledge_base/domains/NV/examples.md", "md_atom_type": "SENTENCE", "md_parent_section": "§NV.1 [Example 1]", "md_verbatim": "**Rows 1-2:** Show the relationship between the scan, represented in PR, and the radiolabel tracer used, represented in AG. There is only 1 tracer administration for each scan, and only 1 scan for each tracer administration, so the relationship is one-to-one.", "score": 0.5062, "match_basis": "verbatim_token+domain_route:NV"}], "candidate_count": 5, "zero_candidate": false}
{"pdf_atom_id": "ig34_p0298_a022", "pdf_atom_type": "SENTENCE", "pdf_source": "SDTMIG_v3.4", "pdf_page": 298, "pdf_parent_section": "§6.3.7.4 Nervous System Findings (NV)", "pdf_verbatim": "See the SDTMIG-MD for examples of these domains.", "figure_ref": null, "candidates": [{"md_atom_id": "md_dmNV_ex_a061", "md_file": "knowledge_base/domains/NV/examples.md", "md_atom_type": "SENTENCE", "md_parent_section": "§NV.2 [Example 2]", "md_verbatim": "Information about the VEP device is not shown. Identifying information would be represented using the DI domain, and any properties of the device that may change between assessments would be represented in the DO and DU domains. See the SDTMIG-MD for examples of these domains.", "score": 0.5319, "match_basis": "verbatim_token+domain_route:NV"}, {"md_atom_id": "md_dmNV_ex_a003", "md_file": "knowledge_base/domains/NV/examples.md", "md_atom_type": "SENTENCE", "md_parent_section": "§NV.1 [Example 1]", "md_verbatim": "This example demonstrates the SDTM-based modeling of nervous system information collected and generated from separate positron emission tomography (PET) or PET/computed tomography (PET/CT) procedures.", "score": 0.45, "match_basis": "verbatim_token+domain_route:NV"}, {"md_atom_id": "md_dmNV_ex_a026", "md_file": "knowledge_base/domains/NV/examples.md", "md_atom_type": "SENTENCE", "md_parent_section": "§NV.1 [Example 1]", "md_verbatim": "In this example, the sponsor has maintained 2 sets of reference identifiers (REFID values) for the specific purpose of being able to relate records across multiple domains. Because the SDTMIG-MD advocates the use of --REFID to link a group of settings to the results obtained from the reading or interpretation of the test (see SDTMIG-MD, Device-in-Use (DU) domain assumptions), --LNKID has been used to establish the relationships between the procedure, the substance administered during the procedure, and the results obtained from the procedure. --LNKID is unique for each procedure for each subject, so datasets may be related to each other as a whole.", "score": 0.4493, "match_basis": "verbatim_token+domain_route:NV"}, {"md_atom_id": "md_dmNV_ex_a044", "md_file": "knowledge_base/domains/NV/examples.md", "md_atom_type": "SENTENCE", "md_parent_section": "§NV.2 [Example 2]", "md_verbatim": "The NV domain should be used to represent the VEP latencies, P100 peak-to-peak amplitude, and their interpretations. SPDEVID allows the results to be related to both the VEP testing device and the checkerboard size.", "score": 0.4475, "match_basis": "verbatim_token+domain_route:NV"}, {"md_atom_id": "md_dmNV_ex_a025", "md_file": "knowledge_base/domains/NV/examples.md", "md_atom_type": "SENTENCE", "md_parent_section": "§NV.1 [Example 1]", "md_verbatim": "The RELREC table displays the dataset relationship that links procedure to multiple NV domain records — specifically how an individual AG administration record related to a scan is linked to multiple NV domain records. The RELREC table uses --LNKID to relate the PR and AG domains to each other and to NV, and --REFID to relate NV and Device in Use (DU).", "score": 0.4353, "match_basis": "verbatim_token+domain_route:NV"}], "candidate_count": 5, "zero_candidate": false}
{"pdf_atom_id": "ig34_p0298_a023", "pdf_atom_type": "HEADING", "pdf_source": "SDTMIG_v3.4", "pdf_page": 298, "pdf_parent_section": "§6.3.7 Morphology/Physiology Domains", "pdf_verbatim": "6.3.7.5  Ophthalmic Examinations (OE)", "figure_ref": null, "candidates": [{"md_atom_id": "md_varindex_a1040", "md_file": "knowledge_base/VARIABLE_INDEX.md", "md_atom_type": "HEADING", "md_parent_section": "§ 二、领域专属变量（仅 1 个域，共 1499 个），按域分组", "md_verbatim": "### OE — Ophthalmic Examinations (Findings)", "score": 0.75, "match_basis": "verbatim_token+global_search"}, {"md_atom_id": "md_varindex_a1126", "md_file": "knowledge_base/VARIABLE_INDEX.md", "md_atom_type": "HEADING", "md_parent_section": "§ 二、领域专属变量（仅 1 个域，共 1499 个），按域分组", "md_verbatim": "### PE — Physical Examination (Findings)", "score": 0.48, "match_basis": "verbatim_token+global_search"}, {"md_atom_id": "md_model06_a029", "md_file": "knowledge_base/model/06_relationship_datasets.md", "md_atom_type": "HEADING", "md_parent_section": "§6.1 Related Records (RELREC)", "md_verbatim": "### RELTYPE Combinations", "score": 0.4333, "match_basis": "verbatim_token+global_search"}, {"md_atom_id": "md_dmRELREC_ex_a033", "md_file": "knowledge_base/domains/RELREC/examples.md", "md_atom_type": "HEADING", "md_parent_section": "§RELREC [RELREC — Examples]", "md_verbatim": "## Dataset Relationship Example", "score": 0.4125, "match_basis": "verbatim_token+global_search"}, {"md_atom_id": "md_ch04_a032", "md_file": "knowledge_base/chapters/ch04_general_assumptions.md", "md_atom_type": "HEADING", "md_parent_section": "§4.1 [General Domain Assumptions]", "md_verbatim": "### 4.1.5 SDTM Core Designations", "score": 0.4111, "match_basis": "verbatim_token+global_search"}], "candidate_count": 5, "zero_candidate": false}
{"pdf_atom_id": "ig34_p0298_a024", "pdf_atom_type": "HEADING", "pdf_source": "SDTMIG_v3.4", "pdf_page": 298, "pdf_parent_section": "§6.3.7.5 Ophthalmic Examinations (OE)", "pdf_verbatim": "OE – Description/Overview", "figure_ref": null, "candidates": [{"md_atom_id": "md_dmOE_assn_a001", "md_file": "knowledge_base/domains/OE/assumptions.md", "md_atom_type": "HEADING", "md_parent_section": "§OE [OE — Assumptions]", "md_verbatim": "# OE — Assumptions", "score": 0.4857, "match_basis": "verbatim_token+domain_route:OE"}, {"md_atom_id": "md_dmOE_ex_a001", "md_file": "knowledge_base/domains/OE/examples.md", "md_atom_type": "HEADING", "md_parent_section": "§OE [OE — Examples]", "md_verbatim": "# OE — Examples", "score": 0.4, "match_basis": "verbatim_token+domain_route:OE"}, {"md_atom_id": "md_dmOE_ex_a002", "md_file": "knowledge_base/domains/OE/examples.md", "md_atom_type": "HEADING", "md_parent_section": "§OE [OE — Examples]", "md_verbatim": "## Example 1", "score": 0.4, "match_basis": "verbatim_token+domain_route:OE"}, {"md_atom_id": "md_dmOE_ex_a016", "md_file": "knowledge_base/domains/OE/examples.md", "md_atom_type": "HEADING", "md_parent_section": "§OE [OE — Examples]", "md_verbatim": "## Example 2", "score": 0.4, "match_basis": "verbatim_token+domain_route:OE"}, {"md_atom_id": "md_dmOE_ex_a040", "md_file": "knowledge_base/domains/OE/examples.md", "md_atom_type": "HEADING", "md_parent_section": "§OE [OE — Examples]", "md_verbatim": "## Example 3", "score": 0.4, "match_basis": "verbatim_token+domain_route:OE"}], "candidate_count": 5, "zero_candidate": false}
{"pdf_atom_id": "ig34_p0298_a025", "pdf_atom_type": "SENTENCE", "pdf_source": "SDTMIG_v3.4", "pdf_page": 298, "pdf_parent_section": "§6.3.7.5 Ophthalmic Examinations (OE)", "pdf_verbatim": "A findings domain that contains tests that measure a person's ocular health and visual status, to detect abnormalities in the components of the visual system, and to determine how well the person can see.", "figure_ref": null, "candidates": [{"md_atom_id": "md_dmOE_ex_a004", "md_file": "knowledge_base/domains/OE/examples.md", "md_atom_type": "SENTENCE", "md_parent_section": "§OE.1 [Example 1]", "md_verbatim": "**Rows 1-2:** Represent an overall interpretation (i.e., normal/abnormal) finding from the anterior segment examination, using OETESTCD=\"INTP\". OELOC indicates that the assessor examined the lens and OELAT indicates which lens was examined.", "score": 0.4926, "match_basis": "verbatim_token+domain_route:OE"}, {"md_atom_id": "md_dmOE_ex_a003", "md_file": "knowledge_base/domains/OE/examples.md", "md_atom_type": "SENTENCE", "md_parent_section": "§OE.1 [Example 1]", "md_verbatim": "This example shows a general anterior segment examination performed on each eye at 1 visit, with the purpose of evaluating general abnormalities.", "score": 0.4838, "match_basis": "verbatim_token+domain_route:OE"}, {"md_atom_id": "md_dmOE_ex_a005", "md_file": "knowledge_base/domains/OE/examples.md", "md_atom_type": "SENTENCE", "md_parent_section": "§OE.1 [Example 1]", "md_verbatim": "**Row 3:** Represents an abnormality observed during the anterior segment examination of the right eye. OEDIR=\"MULTIPLE\" and indicates multiple directionality values are applicable. OELOC, OELAT, and the multiple OEDIR values specify the location of the abnormality represented in OEORRES and OESTRESC. This observed abnormality (i.e., red spot visible) was determined to be clinically significant (OECLSIG=\"Y\").", "score": 0.4814, "match_basis": "verbatim_token+domain_route:OE"}, {"md_atom_id": "md_dmOE_ex_a062", "md_file": "knowledge_base/domains/OE/examples.md", "md_atom_type": "SENTENCE", "md_parent_section": "§OE.3 [Example 3]", "md_verbatim": "**Row 5:** Indicates that an OCT procedure was not performed at visit 2. The reason the procedure was not performed was collected and is represented in PRREASOC.", "score": 0.4732, "match_basis": "verbatim_token+domain_route:OE"}, {"md_atom_id": "md_dmOE_ex_a022", "md_file": "knowledge_base/domains/OE/examples.md", "md_atom_type": "SENTENCE", "md_parent_section": "§OE.2 [Example 2]", "md_verbatim": "**Rows 3-4:** Show assessments of the status of the lens (OELOC=\"LENS\") for the right and left eyes, respectively. This status assessment is to determine whether the lens of the eye is the natural lens (OEORRES=\"PHAKIC\") or a replacement (OEORRES=\"PSEUDOPHAKIC\").", "score": 0.4694, "match_basis": "verbatim_token+domain_route:OE"}], "candidate_count": 5, "zero_candidate": false}
{"pdf_atom_id": "ig34_p0299_a001", "pdf_atom_type": "HEADING", "pdf_source": "SDTMIG_v3.4", "pdf_page": 299, "pdf_parent_section": "§6.3.7.5 Ophthalmic Examinations (OE)", "pdf_verbatim": "OE – Specification", "figure_ref": null, "candidates": [{"md_atom_id": "md_dmOE_assn_a001", "md_file": "knowledge_base/domains/OE/assumptions.md", "md_atom_type": "HEADING", "md_parent_section": "§OE [OE — Assumptions]", "md_verbatim": "# OE — Assumptions", "score": 0.4667, "match_basis": "verbatim_token+domain_route:OE"}, {"md_atom_id": "md_dmOE_ex_a001", "md_file": "knowledge_base/domains/OE/examples.md", "md_atom_type": "HEADING", "md_parent_section": "§OE [OE — Examples]", "md_verbatim": "# OE — Examples", "score": 0.4, "match_basis": "verbatim_token+domain_route:OE"}, {"md_atom_id": "md_dmOE_ex_a002", "md_file": "knowledge_base/domains/OE/examples.md", "md_atom_type": "HEADING", "md_parent_section": "§OE [OE — Examples]", "md_verbatim": "## Example 1", "score": 0.4, "match_basis": "verbatim_token+domain_route:OE"}, {"md_atom_id": "md_dmOE_ex_a016", "md_file": "knowledge_base/domains/OE/examples.md", "md_atom_type": "HEADING", "md_parent_section": "§OE [OE — Examples]", "md_verbatim": "## Example 2", "score": 0.4, "match_basis": "verbatim_token+domain_route:OE"}, {"md_atom_id": "md_dmOE_ex_a040", "md_file": "knowledge_base/domains/OE/examples.md", "md_atom_type": "HEADING", "md_parent_section": "§OE [OE — Examples]", "md_verbatim": "## Example 3", "score": 0.4, "match_basis": "verbatim_token+domain_route:OE"}], "candidate_count": 5, "zero_candidate": false}
{"pdf_atom_id": "ig34_p0299_a002", "pdf_atom_type": "SENTENCE", "pdf_source": "SDTMIG_v3.4", "pdf_page": 299, "pdf_parent_section": "§6.3.7.5 Ophthalmic Examinations (OE)", "pdf_verbatim": "oe.xpt, Ophthalmic Examinations — Findings. One record per ophthalmic finding per method per location, per time point per visit per subject, Tabulation.", "figure_ref": null, "candidates": [{"md_atom_id": "md_dmOE_ex_a004", "md_file": "knowledge_base/domains/OE/examples.md", "md_atom_type": "SENTENCE", "md_parent_section": "§OE.1 [Example 1]", "md_verbatim": "**Rows 1-2:** Represent an overall interpretation (i.e., normal/abnormal) finding from the anterior segment examination, using OETESTCD=\"INTP\". OELOC indicates that the assessor examined the lens and OELAT indicates which lens was examined.", "score": 0.4912, "match_basis": "verbatim_token+domain_route:OE"}, {"md_atom_id": "md_dmOE_ex_a003", "md_file": "knowledge_base/domains/OE/examples.md", "md_atom_type": "SENTENCE", "md_parent_section": "§OE.1 [Example 1]", "md_verbatim": "This example shows a general anterior segment examination performed on each eye at 1 visit, with the purpose of evaluating general abnormalities.", "score": 0.4743, "match_basis": "verbatim_token+domain_route:OE"}, {"md_atom_id": "md_dmOE_ex_a077", "md_file": "knowledge_base/domains/OE/examples.md", "md_atom_type": "SENTENCE", "md_parent_section": "§OE.3 [Example 3]", "md_verbatim": "The many-to-one relationship between records in the PR and OE domains is described in RELREC.", "score": 0.4706, "match_basis": "verbatim_token+domain_route:OE"}, {"md_atom_id": "md_dmOE_ex_a005", "md_file": "knowledge_base/domains/OE/examples.md", "md_atom_type": "SENTENCE", "md_parent_section": "§OE.1 [Example 1]", "md_verbatim": "**Row 3:** Represents an abnormality observed during the anterior segment examination of the right eye. OEDIR=\"MULTIPLE\" and indicates multiple directionality values are applicable. OELOC, OELAT, and the multiple OEDIR values specify the location of the abnormality represented in OEORRES and OESTRESC. This observed abnormality (i.e., red spot visible) was determined to be clinically significant (OECLSIG=\"Y\").", "score": 0.4674, "match_basis": "verbatim_token+domain_route:OE"}, {"md_atom_id": "md_dmOE_ex_a090", "md_file": "knowledge_base/domains/OE/examples.md", "md_atom_type": "SENTENCE", "md_parent_section": "§OE.4 [Example 4]", "md_verbatim": "**Row 4:** Represents the subject's assessment of ocular comfort in the left eye, 1 minute post-instillation of a lubricant eye drop for dry eye.", "score": 0.4629, "match_basis": "verbatim_token+domain_route:OE"}], "candidate_count": 5, "zero_candidate": false}
{"pdf_atom_id": "ig34_p0299_a003", "pdf_atom_type": "CODE_LITERAL", "pdf_source": "SDTMIG_v3.4", "pdf_page": 299, "pdf_parent_section": "§6.3.7.5 Ophthalmic Examinations (OE)", "pdf_verbatim": "oe.xpt", "figure_ref": null, "candidates": [{"md_atom_id": "md_dmOE_ex_a006", "md_file": "knowledge_base/domains/OE/examples.md", "md_atom_type": "SENTENCE", "md_parent_section": "§OE.1 [Example 1]", "md_verbatim": "**oe.xpt**", "score": 0.79, "match_basis": "verbatim_token+domain_route:OE"}, {"md_atom_id": "md_dmOE_ex_a025", "md_file": "knowledge_base/domains/OE/examples.md", "md_atom_type": "SENTENCE", "md_parent_section": "§OE.2 [Example 2]", "md_verbatim": "**oe.xpt**", "score": 0.79, "match_basis": "verbatim_token+domain_route:OE"}, {"md_atom_id": "md_dmOE_ex_a048", "md_file": "knowledge_base/domains/OE/examples.md", "md_atom_type": "SENTENCE", "md_parent_section": "§OE.3 [Example 3]", "md_verbatim": "**oe.xpt**", "score": 0.79, "match_basis": "verbatim_token+domain_route:OE"}, {"md_atom_id": "md_dmOE_ex_a063", "md_file": "knowledge_base/domains/OE/examples.md", "md_atom_type": "SENTENCE", "md_parent_section": "§OE.3 [Example 3]", "md_verbatim": "**pr.xpt**", "score": 0.79, "match_basis": "verbatim_token+domain_route:OE"}, {"md_atom_id": "md_dmOE_ex_a071", "md_file": "knowledge_base/domains/OE/examples.md", "md_atom_type": "SENTENCE", "md_parent_section": "§OE.3 [Example 3]", "md_verbatim": "**di.xpt**", "score": 0.79, "match_basis": "verbatim_token+domain_route:OE"}, {"md_atom_id": "md_dmOE_ex_a091", "md_file": "knowledge_base/domains/OE/examples.md", "md_atom_type": "SENTENCE", "md_parent_section": "§OE.4 [Example 4]", "md_verbatim": "**oe.xpt**", "score": 0.79, "match_basis": "verbatim_token+domain_route:OE"}, {"md_atom_id": "md_dmOE_ex_a012", "md_file": "knowledge_base/domains/OE/examples.md", "md_atom_type": "SENTENCE", "md_parent_section": "§OE.1 [Example 1]", "md_verbatim": "**suppoe.xpt**", "score": 0.31, "match_basis": "verbatim_token+domain_route:OE"}, {"md_atom_id": "md_dmOE_ex_a036", "md_file": "knowledge_base/domains/OE/examples.md", "md_atom_type": "SENTENCE", "md_parent_section": "§OE.2 [Example 2]", "md_verbatim": "**suppoe.xpt**", "score": 0.31, "match_basis": "verbatim_token+domain_route:OE"}, {"md_atom_id": "md_dmOE_ex_a057", "md_file": "knowledge_base/domains/OE/examples.md", "md_atom_type": "SENTENCE", "md_parent_section": "§OE.3 [Example 3]", "md_verbatim": "**suppoe.xpt**", "score": 0.31, "match_basis": "verbatim_token+domain_route:OE"}, {"md_atom_id": "md_dmOE_ex_a078", "md_file": "knowledge_base/domains/OE/examples.md", "md_atom_type": "SENTENCE", "md_parent_section": "§OE.3 [Example 3]", "md_verbatim": "**relrec.xpt**", "score": 0.31, "match_basis": "verbatim_token+domain_route:OE"}], "candidate_count": 10, "zero_candidate": false}
{"pdf_atom_id": "ig34_p0299_a004", "pdf_atom_type": "TABLE_HEADER", "pdf_source": "SDTMIG_v3.4", "pdf_page": 299, "pdf_parent_section": "§6.3.7.5 Ophthalmic Examinations (OE)", "pdf_verbatim": "| Variable Name | Variable Label | Type | Controlled Terms, Codelist or Format1 | Role | CDISC Notes | Core |", "figure_ref": null, "candidates": [{"md_atom_id": "md_dmOE_ex_a013", "md_file": "knowledge_base/domains/OE/examples.md", "md_atom_type": "TABLE_HEADER", "md_parent_section": "§OE.1 [Example 1]", "md_verbatim": "| Row | STUDYID | RDOMAIN | USUBJID | IDVAR | IDVARVAL | QNAM | QLABEL | QVAL |\n|-----|---------|---------|---------|-------|----------|------|--------|------|", "score": 0.4441, "match_basis": "verbatim_token+domain_route:OE"}, {"md_atom_id": "md_dmOE_ex_a037", "md_file": "knowledge_base/domains/OE/examples.md", "md_atom_type": "TABLE_HEADER", "md_parent_section": "§OE.2 [Example 2]", "md_verbatim": "| Row | STUDYID | RDOMAIN | USUBJID | IDVAR | IDVARVAL | QNAM | QLABEL | QVAL |\n|-----|---------|---------|---------|-------|----------|------|--------|------|", "score": 0.4441, "match_basis": "verbatim_token+domain_route:OE"}, {"md_atom_id": "md_dmOE_ex_a058", "md_file": "knowledge_base/domains/OE/examples.md", "md_atom_type": "TABLE_HEADER", "md_parent_section": "§OE.3 [Example 3]", "md_verbatim": "| Row | STUDYID | RDOMAIN | USUBJID | IDVAR | IDVARVAL | QNAM | QLABEL | QVAL |\n|-----|---------|---------|---------|-------|----------|------|--------|------|", "score": 0.4441, "match_basis": "verbatim_token+domain_route:OE"}, {"md_atom_id": "md_dmOE_ex_a099", "md_file": "knowledge_base/domains/OE/examples.md", "md_atom_type": "TABLE_HEADER", "md_parent_section": "§OE.4 [Example 4]", "md_verbatim": "| Row | STUDYID | RDOMAIN | USUBJID | IDVAR | IDVARVAL | QNAM | QLABEL | QVAL |\n|-----|---------|---------|---------|-------|----------|------|--------|------|", "score": 0.4441, "match_basis": "verbatim_token+domain_route:OE"}, {"md_atom_id": "md_dmOE_ex_a079", "md_file": "knowledge_base/domains/OE/examples.md", "md_atom_type": "TABLE_HEADER", "md_parent_section": "§OE.3 [Example 3]", "md_verbatim": "| Row | STUDYID | RDOMAIN | USUBJID | IDVAR | IDVARVAL | RELTYPE | RELID |\n|-----|---------|---------|---------|-------|----------|---------|-------|", "score": 0.4348, "match_basis": "verbatim_token+domain_route:OE"}], "candidate_count": 5, "zero_candidate": false}
{"pdf_atom_id": "ig34_p0299_a005", "pdf_atom_type": "TABLE_ROW", "pdf_source": "SDTMIG_v3.4", "pdf_page": 299, "pdf_parent_section": "§6.3.7.5 Ophthalmic Examinations (OE)", "pdf_verbatim": "| STUDYID | Study Identifier | Char |  | Identifier | Unique identifier for a study. | Req |", "figure_ref": null, "candidates": [{"md_atom_id": "md_dmOE_ex_a095", "md_file": "knowledge_base/domains/OE/examples.md", "md_atom_type": "TABLE_ROW", "md_parent_section": "§OE.4 [Example 4]", "md_verbatim": "| 3 | XYZ | OE | XYZ-100-0001 | OS | 1 | EYDCOMGR | Eye Drop Comfort Grade | OCULAR COMFORT | 1 | 1 | 1 | EYE | LEFT | VISUAL ANALOG SCALE | STUDY SUBJECT | 1 | VISIT 1 | 2011-05-01T09:00 | UPON INSTILLATION | 1 |", "score": 0.4296, "match_basis": "verbatim_token+domain_route:OE"}, {"md_atom_id": "md_dmOE_ex_a093", "md_file": "knowledge_base/domains/OE/examples.md", "md_atom_type": "TABLE_ROW", "md_parent_section": "§OE.4 [Example 4]", "md_verbatim": "| 1 | XYZ | OE | XYZ-100-0001 | OD | 1 | EYDCOMGR | Eye Drop Comfort Grade | OCULAR COMFORT | 1 | 1 | 1 | EYE | RIGHT | VISUAL ANALOG SCALE | STUDY SUBJECT | 1 | VISIT 1 | 2011-02-11T09:00 | UPON INSTILLATION | 1 |", "score": 0.4293, "match_basis": "verbatim_token+domain_route:OE"}, {"md_atom_id": "md_dmOE_ex_a096", "md_file": "knowledge_base/domains/OE/examples.md", "md_atom_type": "TABLE_ROW", "md_parent_section": "§OE.4 [Example 4]", "md_verbatim": "| 4 | XYZ | OE | XYZ-100-0001 | OS | 2 | EYDCOMGR | Eye Drop Comfort Grade | OCULAR COMFORT | 10 | 10 | 10 | EYE | LEFT | VISUAL ANALOG SCALE | STUDY SUBJECT | 1 | VISIT 1 | 2011-05-01T09:01 | 1 MINUTE POST-INSTILLATION | 2 |", "score": 0.4282, "match_basis": "verbatim_token+domain_route:OE"}, {"md_atom_id": "md_dmOE_ex_a069", "md_file": "knowledge_base/domains/OE/examples.md", "md_atom_type": "TABLE_ROW", "md_parent_section": "§OE.3 [Example 3]", "md_verbatim": "| 5 | XYZ | PR | XYZ-100-001 | OU | | 5 | | OCT | Y | N | PATIENT WAS SICK FOR SEVERAL WEEKS | | | | 3 | VISIT 2 |", "score": 0.4279, "match_basis": "verbatim_token+domain_route:OE"}, {"md_atom_id": "md_dmOE_ex_a094", "md_file": "knowledge_base/domains/OE/examples.md", "md_atom_type": "TABLE_ROW", "md_parent_section": "§OE.4 [Example 4]", "md_verbatim": "| 2 | XYZ | OE | XYZ-100-0001 | OD | 2 | EYDCOMGR | Eye Drop Comfort Grade | OCULAR COMFORT | 10 | 10 | 10 | EYE | RIGHT | VISUAL ANALOG SCALE | STUDY SUBJECT | 1 | VISIT 1 | 2011-02-11T09:01 | 1 MINUTE POST-INSTILLATION | 2 |", "score": 0.4279, "match_basis": "verbatim_token+domain_route:OE"}], "candidate_count": 5, "zero_candidate": false}
{"pdf_atom_id": "ig34_p0299_a006", "pdf_atom_type": "TABLE_ROW", "pdf_source": "SDTMIG_v3.4", "pdf_page": 299, "pdf_parent_section": "§6.3.7.5 Ophthalmic Examinations (OE)", "pdf_verbatim": "| DOMAIN | Domain Abbreviation | Char | OE | Identifier | Two-character abbreviation for the domain. | Req |", "figure_ref": null, "candidates": [{"md_atom_id": "md_dmOE_ex_a038", "md_file": "knowledge_base/domains/OE/examples.md", "md_atom_type": "TABLE_ROW", "md_parent_section": "§OE.2 [Example 2]", "md_verbatim": "| 1 | XXX | OE | XXX-450-120 | OESEQ | 7 | OEEDILST | Eye Dilation Status | DILATED |", "score": 0.4333, "match_basis": "verbatim_token+domain_route:OE"}, {"md_atom_id": "md_dmOE_ex_a039", "md_file": "knowledge_base/domains/OE/examples.md", "md_atom_type": "TABLE_ROW", "md_parent_section": "§OE.2 [Example 2]", "md_verbatim": "| 2 | XXX | OE | XXX-450-120 | OESEQ | 8 | OEEDILST | Eye Dilation Status | DILATED |", "score": 0.4333, "match_basis": "verbatim_token+domain_route:OE"}, {"md_atom_id": "md_dmOE_ex_a069", "md_file": "knowledge_base/domains/OE/examples.md", "md_atom_type": "TABLE_ROW", "md_parent_section": "§OE.3 [Example 3]", "md_verbatim": "| 5 | XYZ | PR | XYZ-100-001 | OU | | 5 | | OCT | Y | N | PATIENT WAS SICK FOR SEVERAL WEEKS | | | | 3 | VISIT 2 |", "score": 0.4333, "match_basis": "verbatim_token+domain_route:OE"}, {"md_atom_id": "md_dmOE_ex_a059", "md_file": "knowledge_base/domains/OE/examples.md", "md_atom_type": "TABLE_ROW", "md_parent_section": "§OE.3 [Example 3]", "md_verbatim": "| 1 | XYZ | OE | XYZ-100-001 | OELNKID | 1 | OEEVLDTC | Evaluation Date | 2012-04-30 |", "score": 0.4321, "match_basis": "verbatim_token+domain_route:OE"}, {"md_atom_id": "md_dmOE_ex_a060", "md_file": "knowledge_base/domains/OE/examples.md", "md_atom_type": "TABLE_ROW", "md_parent_section": "§OE.3 [Example 3]", "md_verbatim": "| 2 | XYZ | OE | XYZ-100-001 | OELNKID | 2 | OEEVLDTC | Evaluation Date | 2012-04-30 |", "score": 0.4321, "match_basis": "verbatim_token+domain_route:OE"}], "candidate_count": 5, "zero_candidate": false}
{"pdf_atom_id": "ig34_p0299_a007", "pdf_atom_type": "TABLE_ROW", "pdf_source": "SDTMIG_v3.4", "pdf_page": 299, "pdf_parent_section": "§6.3.7.5 Ophthalmic Examinations (OE)", "pdf_verbatim": "| USUBJID | Unique Subject Identifier | Char |  | Identifier | Identifier used to uniquely identify a subject across all studies for all applications or submissions involving the product. | Req |", "figure_ref": null, "candidates": [{"md_atom_id": "md_dmOE_ex_a095", "md_file": "knowledge_base/domains/OE/examples.md", "md_atom_type": "TABLE_ROW", "md_parent_section": "§OE.4 [Example 4]", "md_verbatim": "| 3 | XYZ | OE | XYZ-100-0001 | OS | 1 | EYDCOMGR | Eye Drop Comfort Grade | OCULAR COMFORT | 1 | 1 | 1 | EYE | LEFT | VISUAL ANALOG SCALE | STUDY SUBJECT | 1 | VISIT 1 | 2011-05-01T09:00 | UPON INSTILLATION | 1 |", "score": 0.4545, "match_basis": "verbatim_token+domain_route:OE"}, {"md_atom_id": "md_dmOE_ex_a093", "md_file": "knowledge_base/domains/OE/examples.md", "md_atom_type": "TABLE_ROW", "md_parent_section": "§OE.4 [Example 4]", "md_verbatim": "| 1 | XYZ | OE | XYZ-100-0001 | OD | 1 | EYDCOMGR | Eye Drop Comfort Grade | OCULAR COMFORT | 1 | 1 | 1 | EYE | RIGHT | VISUAL ANALOG SCALE | STUDY SUBJECT | 1 | VISIT 1 | 2011-02-11T09:00 | UPON INSTILLATION | 1 |", "score": 0.4541, "match_basis": "verbatim_token+domain_route:OE"}, {"md_atom_id": "md_dmOE_ex_a096", "md_file": "knowledge_base/domains/OE/examples.md", "md_atom_type": "TABLE_ROW", "md_parent_section": "§OE.4 [Example 4]", "md_verbatim": "| 4 | XYZ | OE | XYZ-100-0001 | OS | 2 | EYDCOMGR | Eye Drop Comfort Grade | OCULAR COMFORT | 10 | 10 | 10 | EYE | LEFT | VISUAL ANALOG SCALE | STUDY SUBJECT | 1 | VISIT 1 | 2011-05-01T09:01 | 1 MINUTE POST-INSTILLATION | 2 |", "score": 0.4528, "match_basis": "verbatim_token+domain_route:OE"}, {"md_atom_id": "md_dmOE_ex_a094", "md_file": "knowledge_base/domains/OE/examples.md", "md_atom_type": "TABLE_ROW", "md_parent_section": "§OE.4 [Example 4]", "md_verbatim": "| 2 | XYZ | OE | XYZ-100-0001 | OD | 2 | EYDCOMGR | Eye Drop Comfort Grade | OCULAR COMFORT | 10 | 10 | 10 | EYE | RIGHT | VISUAL ANALOG SCALE | STUDY SUBJECT | 1 | VISIT 1 | 2011-02-11T09:01 | 1 MINUTE POST-INSTILLATION | 2 |", "score": 0.4524, "match_basis": "verbatim_token+domain_route:OE"}, {"md_atom_id": "md_dmOE_ex_a008", "md_file": "knowledge_base/domains/OE/examples.md", "md_atom_type": "TABLE_ROW", "md_parent_section": "§OE.1 [Example 1]", "md_verbatim": "| 1 | XXX | OE | XXX-450-110 | OS | 1 | INTP | Interpretation | NORMAL | NORMAL | LENS | LEFT | | SLIT LAMP BIOMICROSCOPY | INVESTIGATOR | | 1 | SCREENING | 2012-03-20 |", "score": 0.4353, "match_basis": "verbatim_token+domain_route:OE"}], "candidate_count": 5, "zero_candidate": false}
{"pdf_atom_id": "ig34_p0299_a008", "pdf_atom_type": "TABLE_ROW", "pdf_source": "SDTMIG_v3.4", "pdf_page": 299, "pdf_parent_section": "§6.3.7.5 Ophthalmic Examinations (OE)", "pdf_verbatim": "| FOCID | Focus of Study-Specific Interest | Char | (OEFOCUS) | Identifier | Identification of a focus of study-specific interest on or within a subject or specimen as called out in the protocol for which a measurement, test, or examination was performed. | Perm |", "figure_ref": null, "candidates": [{"md_atom_id": "md_dmOE_ex_a096", "md_file": "knowledge_base/domains/OE/examples.md", "md_atom_type": "TABLE_ROW", "md_parent_section": "§OE.4 [Example 4]", "md_verbatim": "| 4 | XYZ | OE | XYZ-100-0001 | OS | 2 | EYDCOMGR | Eye Drop Comfort Grade | OCULAR COMFORT | 10 | 10 | 10 | EYE | LEFT | VISUAL ANALOG SCALE | STUDY SUBJECT | 1 | VISIT 1 | 2011-05-01T09:01 | 1 MINUTE POST-INSTILLATION | 2 |", "score": 0.4647, "match_basis": "verbatim_token+domain_route:OE"}, {"md_atom_id": "md_dmOE_ex_a094", "md_file": "knowledge_base/domains/OE/examples.md", "md_atom_type": "TABLE_ROW", "md_parent_section": "§OE.4 [Example 4]", "md_verbatim": "| 2 | XYZ | OE | XYZ-100-0001 | OD | 2 | EYDCOMGR | Eye Drop Comfort Grade | OCULAR COMFORT | 10 | 10 | 10 | EYE | RIGHT | VISUAL ANALOG SCALE | STUDY SUBJECT | 1 | VISIT 1 | 2011-02-11T09:01 | 1 MINUTE POST-INSTILLATION | 2 |", "score": 0.4643, "match_basis": "verbatim_token+domain_route:OE"}, {"md_atom_id": "md_dmOE_ex_a095", "md_file": "knowledge_base/domains/OE/examples.md", "md_atom_type": "TABLE_ROW", "md_parent_section": "§OE.4 [Example 4]", "md_verbatim": "| 3 | XYZ | OE | XYZ-100-0001 | OS | 1 | EYDCOMGR | Eye Drop Comfort Grade | OCULAR COMFORT | 1 | 1 | 1 | EYE | LEFT | VISUAL ANALOG SCALE | STUDY SUBJECT | 1 | VISIT 1 | 2011-05-01T09:00 | UPON INSTILLATION | 1 |", "score": 0.4618, "match_basis": "verbatim_token+domain_route:OE"}, {"md_atom_id": "md_dmOE_ex_a093", "md_file": "knowledge_base/domains/OE/examples.md", "md_atom_type": "TABLE_ROW", "md_parent_section": "§OE.4 [Example 4]", "md_verbatim": "| 1 | XYZ | OE | XYZ-100-0001 | OD | 1 | EYDCOMGR | Eye Drop Comfort Grade | OCULAR COMFORT | 1 | 1 | 1 | EYE | RIGHT | VISUAL ANALOG SCALE | STUDY SUBJECT | 1 | VISIT 1 | 2011-02-11T09:00 | UPON INSTILLATION | 1 |", "score": 0.4613, "match_basis": "verbatim_token+domain_route:OE"}, {"md_atom_id": "md_dmOE_ex_a100", "md_file": "knowledge_base/domains/OE/examples.md", "md_atom_type": "TABLE_ROW", "md_parent_section": "§OE.4 [Example 4]", "md_verbatim": "| 1 | XYZ | OE | XYZ-100-0001 | OECAT | OCULAR COMFORT | OERESCRT | Rating Scale | 10-point VAS (1=Best, 10=Worst) |", "score": 0.447, "match_basis": "verbatim_token+domain_route:OE"}], "candidate_count": 5, "zero_candidate": false}
{"pdf_atom_id": "ig34_p0299_a009", "pdf_atom_type": "TABLE_ROW", "pdf_source": "SDTMIG_v3.4", "pdf_page": 299, "pdf_parent_section": "§6.3.7.5 Ophthalmic Examinations (OE)", "pdf_verbatim": "| OESEQ | Sequence Number | Num |  | Identifier | Sequence number given to ensure uniqueness of subject records within a domain. May be any valid number. | Req |", "figure_ref": null, "candidates": [{"md_atom_id": "md_dmOE_ex_a014", "md_file": "knowledge_base/domains/OE/examples.md", "md_atom_type": "TABLE_ROW", "md_parent_section": "§OE.1 [Example 1]", "md_verbatim": "| 1 | XXX | OE | XXX-450-110 | OESEQ | 3 | OEDIRT | Directionality 1 | SUPERIOR |", "score": 0.4462, "match_basis": "verbatim_token+domain_route:OE"}, {"md_atom_id": "md_dmOE_ex_a015", "md_file": "knowledge_base/domains/OE/examples.md", "md_atom_type": "TABLE_ROW", "md_parent_section": "§OE.1 [Example 1]", "md_verbatim": "| 2 | XXX | OE | XXX-450-110 | OESEQ | 3 | OEDIR2 | Directionality 2 | TEMPORAL |", "score": 0.4462, "match_basis": "verbatim_token+domain_route:OE"}, {"md_atom_id": "md_dmOE_ex_a054", "md_file": "knowledge_base/domains/OE/examples.md", "md_atom_type": "TABLE_ROW", "md_parent_section": "§OE.3 [Example 3]", "md_verbatim": "| 5 | XYZ | OE | XYZ-100-001 | OS | 5 | 1 | THICK | Thickness | 1030 | um | 1030 | 1030 | um | MACULA | LEFT | OPTICAL COHERENCE TOMOGRAPHY | INDEPENDENT ASSESSOR | | 1 | SCREENING | 2012-04-25 |", "score": 0.4382, "match_basis": "verbatim_token+domain_route:OE"}, {"md_atom_id": "md_dmOE_ex_a055", "md_file": "knowledge_base/domains/OE/examples.md", "md_atom_type": "TABLE_ROW", "md_parent_section": "§OE.3 [Example 3]", "md_verbatim": "| 6 | XYZ | OE | XYZ-100-001 | OD | 6 | 2 | THICK | Thickness | 1005 | um | 1005 | 1005 | um | MACULA | RIGHT | OPTICAL COHERENCE TOMOGRAPHY | INDEPENDENT ASSESSOR | | 1 | SCREENING | 2012-04-25 |", "score": 0.4382, "match_basis": "verbatim_token+domain_route:OE"}, {"md_atom_id": "md_dmOE_ex_a076", "md_file": "knowledge_base/domains/OE/examples.md", "md_atom_type": "TABLE_ROW", "md_parent_section": "§OE.3 [Example 3]", "md_verbatim": "| 4 | XYZ | DI | 100 | 4 | SERIAL | Serial Number | yyyyyy |", "score": 0.4375, "match_basis": "verbatim_token+domain_route:OE"}], "candidate_count": 5, "zero_candidate": false}
{"pdf_atom_id": "ig34_p0299_a010", "pdf_atom_type": "TABLE_ROW", "pdf_source": "SDTMIG_v3.4", "pdf_page": 299, "pdf_parent_section": "§6.3.7.5 Ophthalmic Examinations (OE)", "pdf_verbatim": "| OEGRPID | Group ID | Char |  | Identifier | Optional group identifier, used to link together a block of related records within a domain. | Perm |", "figure_ref": null, "candidates": [{"md_atom_id": "md_dmOE_ex_a014", "md_file": "knowledge_base/domains/OE/examples.md", "md_atom_type": "TABLE_ROW", "md_parent_section": "§OE.1 [Example 1]", "md_verbatim": "| 1 | XXX | OE | XXX-450-110 | OESEQ | 3 | OEDIRT | Directionality 1 | SUPERIOR |", "score": 0.4462, "match_basis": "verbatim_token+domain_route:OE"}, {"md_atom_id": "md_dmOE_ex_a038", "md_file": "knowledge_base/domains/OE/examples.md", "md_atom_type": "TABLE_ROW", "md_parent_section": "§OE.2 [Example 2]", "md_verbatim": "| 1 | XXX | OE | XXX-450-120 | OESEQ | 7 | OEEDILST | Eye Dilation Status | DILATED |", "score": 0.4395, "match_basis": "verbatim_token+domain_route:OE"}, {"md_atom_id": "md_dmOE_ex_a039", "md_file": "knowledge_base/domains/OE/examples.md", "md_atom_type": "TABLE_ROW", "md_parent_section": "§OE.2 [Example 2]", "md_verbatim": "| 2 | XXX | OE | XXX-450-120 | OESEQ | 8 | OEEDILST | Eye Dilation Status | DILATED |", "score": 0.4395, "match_basis": "verbatim_token+domain_route:OE"}, {"md_atom_id": "md_dmOE_ex_a015", "md_file": "knowledge_base/domains/OE/examples.md", "md_atom_type": "TABLE_ROW", "md_parent_section": "§OE.1 [Example 1]", "md_verbatim": "| 2 | XXX | OE | XXX-450-110 | OESEQ | 3 | OEDIR2 | Directionality 2 | TEMPORAL |", "score": 0.438, "match_basis": "verbatim_token+domain_route:OE"}, {"md_atom_id": "md_dmOE_ex_a054", "md_file": "knowledge_base/domains/OE/examples.md", "md_atom_type": "TABLE_ROW", "md_parent_section": "§OE.3 [Example 3]", "md_verbatim": "| 5 | XYZ | OE | XYZ-100-001 | OS | 5 | 1 | THICK | Thickness | 1030 | um | 1030 | 1030 | um | MACULA | LEFT | OPTICAL COHERENCE TOMOGRAPHY | INDEPENDENT ASSESSOR | | 1 | SCREENING | 2012-04-25 |", "score": 0.4324, "match_basis": "verbatim_token+domain_route:OE"}], "candidate_count": 5, "zero_candidate": false}
{"pdf_atom_id": "ig34_p0299_a011", "pdf_atom_type": "TABLE_ROW", "pdf_source": "SDTMIG_v3.4", "pdf_page": 299, "pdf_parent_section": "§6.3.7.5 Ophthalmic Examinations (OE)", "pdf_verbatim": "| OELNKID | Link ID | Char |  | Identifier | Identifier used to link related records across domains. This may be a one-to-one or a one-to-many relationship. | Perm |", "figure_ref": null, "candidates": [{"md_atom_id": "md_dmOE_ex_a081", "md_file": "knowledge_base/domains/OE/examples.md", "md_atom_type": "TABLE_ROW", "md_parent_section": "§OE.3 [Example 3]", "md_verbatim": "| 2 | XYZ | OE | | OELNKID | | MANY | 13 |", "score": 0.4778, "match_basis": "verbatim_token+domain_route:OE"}, {"md_atom_id": "md_dmOE_ex_a059", "md_file": "knowledge_base/domains/OE/examples.md", "md_atom_type": "TABLE_ROW", "md_parent_section": "§OE.3 [Example 3]", "md_verbatim": "| 1 | XYZ | OE | XYZ-100-001 | OELNKID | 1 | OEEVLDTC | Evaluation Date | 2012-04-30 |", "score": 0.4771, "match_basis": "verbatim_token+domain_route:OE"}, {"md_atom_id": "md_dmOE_ex_a060", "md_file": "knowledge_base/domains/OE/examples.md", "md_atom_type": "TABLE_ROW", "md_parent_section": "§OE.3 [Example 3]", "md_verbatim": "| 2 | XYZ | OE | XYZ-100-001 | OELNKID | 2 | OEEVLDTC | Evaluation Date | 2012-04-30 |", "score": 0.4771, "match_basis": "verbatim_token+domain_route:OE"}, {"md_atom_id": "md_dmOE_ex_a038", "md_file": "knowledge_base/domains/OE/examples.md", "md_atom_type": "TABLE_ROW", "md_parent_section": "§OE.2 [Example 2]", "md_verbatim": "| 1 | XXX | OE | XXX-450-120 | OESEQ | 7 | OEEDILST | Eye Dilation Status | DILATED |", "score": 0.4507, "match_basis": "verbatim_token+domain_route:OE"}, {"md_atom_id": "md_dmOE_ex_a039", "md_file": "knowledge_base/domains/OE/examples.md", "md_atom_type": "TABLE_ROW", "md_parent_section": "§OE.2 [Example 2]", "md_verbatim": "| 2 | XXX | OE | XXX-450-120 | OESEQ | 8 | OEEDILST | Eye Dilation Status | DILATED |", "score": 0.4507, "match_basis": "verbatim_token+domain_route:OE"}], "candidate_count": 5, "zero_candidate": false}
{"pdf_atom_id": "ig34_p0299_a012", "pdf_atom_type": "TABLE_ROW", "pdf_source": "SDTMIG_v3.4", "pdf_page": 299, "pdf_parent_section": "§6.3.7.5 Ophthalmic Examinations (OE)", "pdf_verbatim": "| OELNKGRP | Link Group | Char |  | Identifier | Identifier used to link related records across domains. This will usually be a many-to-one relationship. | Perm |", "figure_ref": null, "candidates": [{"md_atom_id": "md_dmOE_ex_a059", "md_file": "knowledge_base/domains/OE/examples.md", "md_atom_type": "TABLE_ROW", "md_parent_section": "§OE.3 [Example 3]", "md_verbatim": "| 1 | XYZ | OE | XYZ-100-001 | OELNKID | 1 | OEEVLDTC | Evaluation Date | 2012-04-30 |", "score": 0.4512, "match_basis": "verbatim_token+domain_route:OE"}, {"md_atom_id": "md_dmOE_ex_a060", "md_file": "knowledge_base/domains/OE/examples.md", "md_atom_type": "TABLE_ROW", "md_parent_section": "§OE.3 [Example 3]", "md_verbatim": "| 2 | XYZ | OE | XYZ-100-001 | OELNKID | 2 | OEEVLDTC | Evaluation Date | 2012-04-30 |", "score": 0.4512, "match_basis": "verbatim_token+domain_route:OE"}, {"md_atom_id": "md_dmOE_ex_a081", "md_file": "knowledge_base/domains/OE/examples.md", "md_atom_type": "TABLE_ROW", "md_parent_section": "§OE.3 [Example 3]", "md_verbatim": "| 2 | XYZ | OE | | OELNKID | | MANY | 13 |", "score": 0.4455, "match_basis": "verbatim_token+domain_route:OE"}, {"md_atom_id": "md_dmOE_ex_a038", "md_file": "knowledge_base/domains/OE/examples.md", "md_atom_type": "TABLE_ROW", "md_parent_section": "§OE.2 [Example 2]", "md_verbatim": "| 1 | XXX | OE | XXX-450-120 | OESEQ | 7 | OEEDILST | Eye Dilation Status | DILATED |", "score": 0.4444, "match_basis": "verbatim_token+domain_route:OE"}, {"md_atom_id": "md_dmOE_ex_a039", "md_file": "knowledge_base/domains/OE/examples.md", "md_atom_type": "TABLE_ROW", "md_parent_section": "§OE.2 [Example 2]", "md_verbatim": "| 2 | XXX | OE | XXX-450-120 | OESEQ | 8 | OEEDILST | Eye Dilation Status | DILATED |", "score": 0.4444, "match_basis": "verbatim_token+domain_route:OE"}], "candidate_count": 5, "zero_candidate": false}
{"pdf_atom_id": "ig34_p0299_a013", "pdf_atom_type": "TABLE_ROW", "pdf_source": "SDTMIG_v3.4", "pdf_page": 299, "pdf_parent_section": "§6.3.7.5 Ophthalmic Examinations (OE)", "pdf_verbatim": "| OETESTCD | Short Name of Ophthalmic Test or Exam | Char | (OETESTCD) | Topic | Short character value for OETEST used as a column name when converting a dataset from a vertical format to a horizontal format. It can be used as a column name when converting a dataset from a vertical to a horizontal format. The value in OETESTCD cannot be longer than 8 characters, nor can it start with a number (e.g., \"1TEST\" is not valid). OETESTCD cannot contain characters other than letters, numbers, or underscores. Example: \"NUMLCOR\". | Req |", "figure_ref": null, "candidates": [{"md_atom_id": "md_dmOE_ex_a010", "md_file": "knowledge_base/domains/OE/examples.md", "md_atom_type": "TABLE_ROW", "md_parent_section": "§OE.1 [Example 1]", "md_verbatim": "| 3 | XXX | OE | XXX-450-110 | OD | 3 | OEEXAM | Ophthalmic Examination | RED SPOT VISIBLE | RED SPOT VISIBLE | CONJUNCTIVA | RIGHT | MULTIPLE | SLIT LAMP BIOMICROSCOPY | INVESTIGATOR | Y | 1 | SCREENING | 2012-03-20 |", "score": 0.4564, "match_basis": "verbatim_token+domain_route:OE"}, {"md_atom_id": "md_dmOE_ex_a031", "md_file": "knowledge_base/domains/OE/examples.md", "md_atom_type": "TABLE_ROW", "md_parent_section": "§OE.2 [Example 2]", "md_verbatim": "| 5 | XXX | OE | XXX-450-120 | OD | 5 | HYPERMIA | Hyperemia | PRESENT | | PRESENT | | | CONJUNCTIVA | RIGHT | OPHTHALMOSCOPY | INVESTIGATOR | Y | 1 | SCREENING | 2012-04-20 |", "score": 0.4436, "match_basis": "verbatim_token+domain_route:OE"}, {"md_atom_id": "md_dmOE_ex_a034", "md_file": "knowledge_base/domains/OE/examples.md", "md_atom_type": "TABLE_ROW", "md_parent_section": "§OE.2 [Example 2]", "md_verbatim": "| 8 | XXX | OE | XXX-450-120 | OS | 8 | CUPDISC | Cup-to-Disc Ratio | 0.6 | RATIO | 0.6 | 0.6 | RATIO | OPTIC DISC | LEFT | OPHTHALMOSCOPY | INVESTIGATOR | | 1 | SCREENING | 2012-04-20 |", "score": 0.4431, "match_basis": "verbatim_token+domain_route:OE"}, {"md_atom_id": "md_dmOE_ex_a033", "md_file": "knowledge_base/domains/OE/examples.md", "md_atom_type": "TABLE_ROW", "md_parent_section": "§OE.2 [Example 2]", "md_verbatim": "| 7 | XXX | OE | XXX-450-120 | OD | 7 | CUPDISC | Cup-to-Disc Ratio | 0.5 | RATIO | 0.5 | 0.5 | RATIO | OPTIC DISC | RIGHT | OPHTHALMOSCOPY | INVESTIGATOR | | 1 | SCREENING | 2012-04-20 |", "score": 0.4429, "match_basis": "verbatim_token+domain_route:OE"}, {"md_atom_id": "md_dmOE_ex_a050", "md_file": "knowledge_base/domains/OE/examples.md", "md_atom_type": "TABLE_ROW", "md_parent_section": "§OE.3 [Example 3]", "md_verbatim": "| 1 | XYZ | OE | XYZ-100-001 | OS | 1 | | EDEMA | Edema | PRESENT | | PRESENT | | | MACULA | LEFT | OPHTHALMOSCOPY | INVESTIGATOR | N | 1 | SCREENING | 2012-04-25 |", "score": 0.4429, "match_basis": "verbatim_token+domain_route:OE"}], "candidate_count": 5, "zero_candidate": false}
{"pdf_atom_id": "ig34_p0299_a014", "pdf_atom_type": "TABLE_ROW", "pdf_source": "SDTMIG_v3.4", "pdf_page": 299, "pdf_parent_section": "§6.3.7.5 Ophthalmic Examinations (OE)", "pdf_verbatim": "| OETEST | Name of Ophthalmic Test or Exam | Char | (OETEST) | Synonym Qualifier | Long name for the test or examination used to obtain the measurement or finding. The value in OETEST cannot be longer than 40 characters. Example: \"Number of Letters Correct\" for OETESTCD = \"NUMLCOR\". | Req |", "figure_ref": null, "candidates": [{"md_atom_id": "md_dmOE_ex_a010", "md_file": "knowledge_base/domains/OE/examples.md", "md_atom_type": "TABLE_ROW", "md_parent_section": "§OE.1 [Example 1]", "md_verbatim": "| 3 | XXX | OE | XXX-450-110 | OD | 3 | OEEXAM | Ophthalmic Examination | RED SPOT VISIBLE | RED SPOT VISIBLE | CONJUNCTIVA | RIGHT | MULTIPLE | SLIT LAMP BIOMICROSCOPY | INVESTIGATOR | Y | 1 | SCREENING | 2012-03-20 |", "score": 0.4797, "match_basis": "verbatim_token+domain_route:OE"}, {"md_atom_id": "md_dmOE_ex_a034", "md_file": "knowledge_base/domains/OE/examples.md", "md_atom_type": "TABLE_ROW", "md_parent_section": "§OE.2 [Example 2]", "md_verbatim": "| 8 | XXX | OE | XXX-450-120 | OS | 8 | CUPDISC | Cup-to-Disc Ratio | 0.6 | RATIO | 0.6 | 0.6 | RATIO | OPTIC DISC | LEFT | OPHTHALMOSCOPY | INVESTIGATOR | | 1 | SCREENING | 2012-04-20 |", "score": 0.4444, "match_basis": "verbatim_token+domain_route:OE"}, {"md_atom_id": "md_dmOE_ex_a033", "md_file": "knowledge_base/domains/OE/examples.md", "md_atom_type": "TABLE_ROW", "md_parent_section": "§OE.2 [Example 2]", "md_verbatim": "| 7 | XXX | OE | XXX-450-120 | OD | 7 | CUPDISC | Cup-to-Disc Ratio | 0.5 | RATIO | 0.5 | 0.5 | RATIO | OPTIC DISC | RIGHT | OPHTHALMOSCOPY | INVESTIGATOR | | 1 | SCREENING | 2012-04-20 |", "score": 0.4441, "match_basis": "verbatim_token+domain_route:OE"}, {"md_atom_id": "md_dmOE_ex_a032", "md_file": "knowledge_base/domains/OE/examples.md", "md_atom_type": "TABLE_ROW", "md_parent_section": "§OE.2 [Example 2]", "md_verbatim": "| 6 | XXX | OE | XXX-450-120 | OS | 6 | HYPERMIA | Hyperemia | ABSENT | | ABSENT | | | CONJUNCTIVA | LEFT | OPHTHALMOSCOPY | INVESTIGATOR | | 1 | SCREENING | 2012-04-20 |", "score": 0.4411, "match_basis": "verbatim_token+domain_route:OE"}, {"md_atom_id": "md_dmOE_ex_a031", "md_file": "knowledge_base/domains/OE/examples.md", "md_atom_type": "TABLE_ROW", "md_parent_section": "§OE.2 [Example 2]", "md_verbatim": "| 5 | XXX | OE | XXX-450-120 | OD | 5 | HYPERMIA | Hyperemia | PRESENT | | PRESENT | | | CONJUNCTIVA | RIGHT | OPHTHALMOSCOPY | INVESTIGATOR | Y | 1 | SCREENING | 2012-04-20 |", "score": 0.4405, "match_basis": "verbatim_token+domain_route:OE"}], "candidate_count": 5, "zero_candidate": false}
{"pdf_atom_id": "ig34_p0299_a015", "pdf_atom_type": "TABLE_ROW", "pdf_source": "SDTMIG_v3.4", "pdf_page": 299, "pdf_parent_section": "§6.3.7.5 Ophthalmic Examinations (OE)", "pdf_verbatim": "| OETSTDTL | Ophthalmic Test or Exam Detail | Char | * | Variable Qualifier | Further description of OETESTCD and OETEST. | Perm |", "figure_ref": null, "candidates": [{"md_atom_id": "md_dmOE_ex_a010", "md_file": "knowledge_base/domains/OE/examples.md", "md_atom_type": "TABLE_ROW", "md_parent_section": "§OE.1 [Example 1]", "md_verbatim": "| 3 | XXX | OE | XXX-450-110 | OD | 3 | OEEXAM | Ophthalmic Examination | RED SPOT VISIBLE | RED SPOT VISIBLE | CONJUNCTIVA | RIGHT | MULTIPLE | SLIT LAMP BIOMICROSCOPY | INVESTIGATOR | Y | 1 | SCREENING | 2012-03-20 |", "score": 0.4732, "match_basis": "verbatim_token+domain_route:OE"}, {"md_atom_id": "md_dmOE_ex_a034", "md_file": "knowledge_base/domains/OE/examples.md", "md_atom_type": "TABLE_ROW", "md_parent_section": "§OE.2 [Example 2]", "md_verbatim": "| 8 | XXX | OE | XXX-450-120 | OS | 8 | CUPDISC | Cup-to-Disc Ratio | 0.6 | RATIO | 0.6 | 0.6 | RATIO | OPTIC DISC | LEFT | OPHTHALMOSCOPY | INVESTIGATOR | | 1 | SCREENING | 2012-04-20 |", "score": 0.4638, "match_basis": "verbatim_token+domain_route:OE"}, {"md_atom_id": "md_dmOE_ex_a033", "md_file": "knowledge_base/domains/OE/examples.md", "md_atom_type": "TABLE_ROW", "md_parent_section": "§OE.2 [Example 2]", "md_verbatim": "| 7 | XXX | OE | XXX-450-120 | OD | 7 | CUPDISC | Cup-to-Disc Ratio | 0.5 | RATIO | 0.5 | 0.5 | RATIO | OPTIC DISC | RIGHT | OPHTHALMOSCOPY | INVESTIGATOR | | 1 | SCREENING | 2012-04-20 |", "score": 0.4632, "match_basis": "verbatim_token+domain_route:OE"}, {"md_atom_id": "md_dmOE_ex_a032", "md_file": "knowledge_base/domains/OE/examples.md", "md_atom_type": "TABLE_ROW", "md_parent_section": "§OE.2 [Example 2]", "md_verbatim": "| 6 | XXX | OE | XXX-450-120 | OS | 6 | HYPERMIA | Hyperemia | ABSENT | | ABSENT | | | CONJUNCTIVA | LEFT | OPHTHALMOSCOPY | INVESTIGATOR | | 1 | SCREENING | 2012-04-20 |", "score": 0.4571, "match_basis": "verbatim_token+domain_route:OE"}, {"md_atom_id": "md_dmOE_ex_a031", "md_file": "knowledge_base/domains/OE/examples.md", "md_atom_type": "TABLE_ROW", "md_parent_section": "§OE.2 [Example 2]", "md_verbatim": "| 5 | XXX | OE | XXX-450-120 | OD | 5 | HYPERMIA | Hyperemia | PRESENT | | PRESENT | | | CONJUNCTIVA | RIGHT | OPHTHALMOSCOPY | INVESTIGATOR | Y | 1 | SCREENING | 2012-04-20 |", "score": 0.4561, "match_basis": "verbatim_token+domain_route:OE"}], "candidate_count": 5, "zero_candidate": false}
{"pdf_atom_id": "ig34_p0299_a016", "pdf_atom_type": "TABLE_ROW", "pdf_source": "SDTMIG_v3.4", "pdf_page": 299, "pdf_parent_section": "§6.3.7.5 Ophthalmic Examinations (OE)", "pdf_verbatim": "| OECAT | Category for Ophthalmic Test or Exam | Char | * | Grouping Qualifier | Used to define a category of topic-variable values. Examples: \"VISUAL ACUITY\", \"CONTRAST SENSITIVITY\", \"OCULAR COMFORT\". | Perm |", "figure_ref": null, "candidates": [{"md_atom_id": "md_dmOE_ex_a100", "md_file": "knowledge_base/domains/OE/examples.md", "md_atom_type": "TABLE_ROW", "md_parent_section": "§OE.4 [Example 4]", "md_verbatim": "| 1 | XYZ | OE | XYZ-100-0001 | OECAT | OCULAR COMFORT | OERESCRT | Rating Scale | 10-point VAS (1=Best, 10=Worst) |", "score": 0.4737, "match_basis": "verbatim_token+domain_route:OE"}, {"md_atom_id": "md_dmOE_ex_a010", "md_file": "knowledge_base/domains/OE/examples.md", "md_atom_type": "TABLE_ROW", "md_parent_section": "§OE.1 [Example 1]", "md_verbatim": "| 3 | XXX | OE | XXX-450-110 | OD | 3 | OEEXAM | Ophthalmic Examination | RED SPOT VISIBLE | RED SPOT VISIBLE | CONJUNCTIVA | RIGHT | MULTIPLE | SLIT LAMP BIOMICROSCOPY | INVESTIGATOR | Y | 1 | SCREENING | 2012-03-20 |", "score": 0.4706, "match_basis": "verbatim_token+domain_route:OE"}, {"md_atom_id": "md_dmOE_ex_a095", "md_file": "knowledge_base/domains/OE/examples.md", "md_atom_type": "TABLE_ROW", "md_parent_section": "§OE.4 [Example 4]", "md_verbatim": "| 3 | XYZ | OE | XYZ-100-0001 | OS | 1 | EYDCOMGR | Eye Drop Comfort Grade | OCULAR COMFORT | 1 | 1 | 1 | EYE | LEFT | VISUAL ANALOG SCALE | STUDY SUBJECT | 1 | VISIT 1 | 2011-05-01T09:00 | UPON INSTILLATION | 1 |", "score": 0.46, "match_basis": "verbatim_token+domain_route:OE"}, {"md_atom_id": "md_dmOE_ex_a093", "md_file": "knowledge_base/domains/OE/examples.md", "md_atom_type": "TABLE_ROW", "md_parent_section": "§OE.4 [Example 4]", "md_verbatim": "| 1 | XYZ | OE | XYZ-100-0001 | OD | 1 | EYDCOMGR | Eye Drop Comfort Grade | OCULAR COMFORT | 1 | 1 | 1 | EYE | RIGHT | VISUAL ANALOG SCALE | STUDY SUBJECT | 1 | VISIT 1 | 2011-02-11T09:00 | UPON INSTILLATION | 1 |", "score": 0.4596, "match_basis": "verbatim_token+domain_route:OE"}, {"md_atom_id": "md_dmOE_ex_a096", "md_file": "knowledge_base/domains/OE/examples.md", "md_atom_type": "TABLE_ROW", "md_parent_section": "§OE.4 [Example 4]", "md_verbatim": "| 4 | XYZ | OE | XYZ-100-0001 | OS | 2 | EYDCOMGR | Eye Drop Comfort Grade | OCULAR COMFORT | 10 | 10 | 10 | EYE | LEFT | VISUAL ANALOG SCALE | STUDY SUBJECT | 1 | VISIT 1 | 2011-05-01T09:01 | 1 MINUTE POST-INSTILLATION | 2 |", "score": 0.4583, "match_basis": "verbatim_token+domain_route:OE"}], "candidate_count": 5, "zero_candidate": false}
{"pdf_atom_id": "ig34_p0299_a017", "pdf_atom_type": "TABLE_ROW", "pdf_source": "SDTMIG_v3.4", "pdf_page": 299, "pdf_parent_section": "§6.3.7.5 Ophthalmic Examinations (OE)", "pdf_verbatim": "| OESCAT | Subcategory for Ophthalmic Test or Exam | Char | * | Grouping Qualifier | Used to define a further categorization of OECAT values. Example: \"HIGH CONTRAST\" or \"LOW CONTRAST\" when OECAT is \"VISUAL ACUITY\". | Perm |", "figure_ref": null, "candidates": [{"md_atom_id": "md_dmOE_ex_a010", "md_file": "knowledge_base/domains/OE/examples.md", "md_atom_type": "TABLE_ROW", "md_parent_section": "§OE.1 [Example 1]", "md_verbatim": "| 3 | XXX | OE | XXX-450-110 | OD | 3 | OEEXAM | Ophthalmic Examination | RED SPOT VISIBLE | RED SPOT VISIBLE | CONJUNCTIVA | RIGHT | MULTIPLE | SLIT LAMP BIOMICROSCOPY | INVESTIGATOR | Y | 1 | SCREENING | 2012-03-20 |", "score": 0.4811, "match_basis": "verbatim_token+domain_route:OE"}, {"md_atom_id": "md_dmOE_ex_a031", "md_file": "knowledge_base/domains/OE/examples.md", "md_atom_type": "TABLE_ROW", "md_parent_section": "§OE.2 [Example 2]", "md_verbatim": "| 5 | XXX | OE | XXX-450-120 | OD | 5 | HYPERMIA | Hyperemia | PRESENT | | PRESENT | | | CONJUNCTIVA | RIGHT | OPHTHALMOSCOPY | INVESTIGATOR | Y | 1 | SCREENING | 2012-04-20 |", "score": 0.4533, "match_basis": "verbatim_token+domain_route:OE"}, {"md_atom_id": "md_dmOE_ex_a033", "md_file": "knowledge_base/domains/OE/examples.md", "md_atom_type": "TABLE_ROW", "md_parent_section": "§OE.2 [Example 2]", "md_verbatim": "| 7 | XXX | OE | XXX-450-120 | OD | 7 | CUPDISC | Cup-to-Disc Ratio | 0.5 | RATIO | 0.5 | 0.5 | RATIO | OPTIC DISC | RIGHT | OPHTHALMOSCOPY | INVESTIGATOR | | 1 | SCREENING | 2012-04-20 |", "score": 0.4532, "match_basis": "verbatim_token+domain_route:OE"}, {"md_atom_id": "md_dmOE_ex_a032", "md_file": "knowledge_base/domains/OE/examples.md", "md_atom_type": "TABLE_ROW", "md_parent_section": "§OE.2 [Example 2]", "md_verbatim": "| 6 | XXX | OE | XXX-450-120 | OS | 6 | HYPERMIA | Hyperemia | ABSENT | | ABSENT | | | CONJUNCTIVA | LEFT | OPHTHALMOSCOPY | INVESTIGATOR | | 1 | SCREENING | 2012-04-20 |", "score": 0.4493, "match_basis": "verbatim_token+domain_route:OE"}, {"md_atom_id": "md_dmOE_ex_a034", "md_file": "knowledge_base/domains/OE/examples.md", "md_atom_type": "TABLE_ROW", "md_parent_section": "§OE.2 [Example 2]", "md_verbatim": "| 8 | XXX | OE | XXX-450-120 | OS | 8 | CUPDISC | Cup-to-Disc Ratio | 0.6 | RATIO | 0.6 | 0.6 | RATIO | OPTIC DISC | LEFT | OPHTHALMOSCOPY | INVESTIGATOR | | 1 | SCREENING | 2012-04-20 |", "score": 0.4484, "match_basis": "verbatim_token+domain_route:OE"}], "candidate_count": 5, "zero_candidate": false}
{"pdf_atom_id": "ig34_p0299_a018", "pdf_atom_type": "TABLE_ROW", "pdf_source": "SDTMIG_v3.4", "pdf_page": 299, "pdf_parent_section": "§6.3.7.5 Ophthalmic Examinations (OE)", "pdf_verbatim": "| OEORRES | Result or Finding in Original Units | Char |  | Result Qualifier | Result of the measurement or finding as originally received or collected. Examples: \"120\", \"<1, NORMAL\", \"RED SPOT VISIBLE\". | Exp |", "figure_ref": null, "candidates": [{"md_atom_id": "md_dmOE_ex_a010", "md_file": "knowledge_base/domains/OE/examples.md", "md_atom_type": "TABLE_ROW", "md_parent_section": "§OE.1 [Example 1]", "md_verbatim": "| 3 | XXX | OE | XXX-450-110 | OD | 3 | OEEXAM | Ophthalmic Examination | RED SPOT VISIBLE | RED SPOT VISIBLE | CONJUNCTIVA | RIGHT | MULTIPLE | SLIT LAMP BIOMICROSCOPY | INVESTIGATOR | Y | 1 | SCREENING | 2012-03-20 |", "score": 0.4681, "match_basis": "verbatim_token+domain_route:OE"}, {"md_atom_id": "md_dmOE_ex_a009", "md_file": "knowledge_base/domains/OE/examples.md", "md_atom_type": "TABLE_ROW", "md_parent_section": "§OE.1 [Example 1]", "md_verbatim": "| 2 | XXX | OE | XXX-450-110 | OD | 2 | INTP | Interpretation | ABNORMAL | ABNORMAL | LENS | RIGHT | | SLIT LAMP BIOMICROSCOPY | INVESTIGATOR | | 1 | SCREENING | 2012-03-20 |", "score": 0.4323, "match_basis": "verbatim_token+domain_route:OE"}, {"md_atom_id": "md_dmOE_ex_a008", "md_file": "knowledge_base/domains/OE/examples.md", "md_atom_type": "TABLE_ROW", "md_parent_section": "§OE.1 [Example 1]", "md_verbatim": "| 1 | XXX | OE | XXX-450-110 | OS | 1 | INTP | Interpretation | NORMAL | NORMAL | LENS | LEFT | | SLIT LAMP BIOMICROSCOPY | INVESTIGATOR | | 1 | SCREENING | 2012-03-20 |", "score": 0.4281, "match_basis": "verbatim_token+domain_route:OE"}, {"md_atom_id": "md_dmOE_ex_a031", "md_file": "knowledge_base/domains/OE/examples.md", "md_atom_type": "TABLE_ROW", "md_parent_section": "§OE.2 [Example 2]", "md_verbatim": "| 5 | XXX | OE | XXX-450-120 | OD | 5 | HYPERMIA | Hyperemia | PRESENT | | PRESENT | | | CONJUNCTIVA | RIGHT | OPHTHALMOSCOPY | INVESTIGATOR | Y | 1 | SCREENING | 2012-04-20 |", "score": 0.4277, "match_basis": "verbatim_token+domain_route:OE"}, {"md_atom_id": "md_dmOE_ex_a093", "md_file": "knowledge_base/domains/OE/examples.md", "md_atom_type": "TABLE_ROW", "md_parent_section": "§OE.4 [Example 4]", "md_verbatim": "| 1 | XYZ | OE | XYZ-100-0001 | OD | 1 | EYDCOMGR | Eye Drop Comfort Grade | OCULAR COMFORT | 1 | 1 | 1 | EYE | RIGHT | VISUAL ANALOG SCALE | STUDY SUBJECT | 1 | VISIT 1 | 2011-02-11T09:00 | UPON INSTILLATION | 1 |", "score": 0.4267, "match_basis": "verbatim_token+domain_route:OE"}], "candidate_count": 5, "zero_candidate": false}
{"pdf_atom_id": "ig34_p0299_a019", "pdf_atom_type": "TABLE_ROW", "pdf_source": "SDTMIG_v3.4", "pdf_page": 299, "pdf_parent_section": "§6.3.7.5 Ophthalmic Examinations (OE)", "pdf_verbatim": "| OEORRESU | Original Units | Char | (UNIT) | Variable Qualifier | Original unit for OEORRES. Examples: \"mm\", \"um\". | Exp |", "figure_ref": null, "candidates": [{"md_atom_id": "md_dmOE_ex_a010", "md_file": "knowledge_base/domains/OE/examples.md", "md_atom_type": "TABLE_ROW", "md_parent_section": "§OE.1 [Example 1]", "md_verbatim": "| 3 | XXX | OE | XXX-450-110 | OD | 3 | OEEXAM | Ophthalmic Examination | RED SPOT VISIBLE | RED SPOT VISIBLE | CONJUNCTIVA | RIGHT | MULTIPLE | SLIT LAMP BIOMICROSCOPY | INVESTIGATOR | Y | 1 | SCREENING | 2012-03-20 |", "score": 0.4375, "match_basis": "verbatim_token+domain_route:OE"}, {"md_atom_id": "md_dmOE_ex_a093", "md_file": "knowledge_base/domains/OE/examples.md", "md_atom_type": "TABLE_ROW", "md_parent_section": "§OE.4 [Example 4]", "md_verbatim": "| 1 | XYZ | OE | XYZ-100-0001 | OD | 1 | EYDCOMGR | Eye Drop Comfort Grade | OCULAR COMFORT | 1 | 1 | 1 | EYE | RIGHT | VISUAL ANALOG SCALE | STUDY SUBJECT | 1 | VISIT 1 | 2011-02-11T09:00 | UPON INSTILLATION | 1 |", "score": 0.4242, "match_basis": "verbatim_token+domain_route:OE"}, {"md_atom_id": "md_dmOE_ex_a094", "md_file": "knowledge_base/domains/OE/examples.md", "md_atom_type": "TABLE_ROW", "md_parent_section": "§OE.4 [Example 4]", "md_verbatim": "| 2 | XYZ | OE | XYZ-100-0001 | OD | 2 | EYDCOMGR | Eye Drop Comfort Grade | OCULAR COMFORT | 10 | 10 | 10 | EYE | RIGHT | VISUAL ANALOG SCALE | STUDY SUBJECT | 1 | VISIT 1 | 2011-02-11T09:01 | 1 MINUTE POST-INSTILLATION | 2 |", "score": 0.4233, "match_basis": "verbatim_token+domain_route:OE"}, {"md_atom_id": "md_dmOE_ex_a014", "md_file": "knowledge_base/domains/OE/examples.md", "md_atom_type": "TABLE_ROW", "md_parent_section": "§OE.1 [Example 1]", "md_verbatim": "| 1 | XXX | OE | XXX-450-110 | OESEQ | 3 | OEDIRT | Directionality 1 | SUPERIOR |", "score": 0.419, "match_basis": "verbatim_token+domain_route:OE"}, {"md_atom_id": "md_dmOE_ex_a015", "md_file": "knowledge_base/domains/OE/examples.md", "md_atom_type": "TABLE_ROW", "md_parent_section": "§OE.1 [Example 1]", "md_verbatim": "| 2 | XXX | OE | XXX-450-110 | OESEQ | 3 | OEDIR2 | Directionality 2 | TEMPORAL |", "score": 0.419, "match_basis": "verbatim_token+domain_route:OE"}], "candidate_count": 5, "zero_candidate": false}
{"pdf_atom_id": "ig34_p0299_a020", "pdf_atom_type": "TABLE_ROW", "pdf_source": "SDTMIG_v3.4", "pdf_page": 299, "pdf_parent_section": "§6.3.7.5 Ophthalmic Examinations (OE)", "pdf_verbatim": "| OEORNRLO | Normal Range Lower Limit-Original Units | Char |  | Variable Qualifier | Lower end of normal range or reference range for results stored in OEORRES. | Perm |", "figure_ref": null, "candidates": [{"md_atom_id": "md_dmOE_ex_a052", "md_file": "knowledge_base/domains/OE/examples.md", "md_atom_type": "TABLE_ROW", "md_parent_section": "§OE.3 [Example 3]", "md_verbatim": "| 3 | XYZ | OE | XYZ-100-001 | OS | 3 | 1 | EDEMA | Edema | PRESENT | | PRESENT | | | MACULA | LEFT | OPTICAL COHERENCE TOMOGRAPHY | INDEPENDENT ASSESSOR | | 1 | SCREENING | 2012-04-25 |", "score": 0.4305, "match_basis": "verbatim_token+domain_route:OE"}, {"md_atom_id": "md_dmOE_ex_a053", "md_file": "knowledge_base/domains/OE/examples.md", "md_atom_type": "TABLE_ROW", "md_parent_section": "§OE.3 [Example 3]", "md_verbatim": "| 4 | XYZ | OE | XYZ-100-001 | OD | 4 | 2 | EDEMA | Edema | ABSENT | | ABSENT | | | MACULA | RIGHT | OPTICAL COHERENCE TOMOGRAPHY | INDEPENDENT ASSESSOR | | 1 | SCREENING | 2012-04-25 |", "score": 0.4305, "match_basis": "verbatim_token+domain_route:OE"}, {"md_atom_id": "md_dmOE_ex_a031", "md_file": "knowledge_base/domains/OE/examples.md", "md_atom_type": "TABLE_ROW", "md_parent_section": "§OE.2 [Example 2]", "md_verbatim": "| 5 | XXX | OE | XXX-450-120 | OD | 5 | HYPERMIA | Hyperemia | PRESENT | | PRESENT | | | CONJUNCTIVA | RIGHT | OPHTHALMOSCOPY | INVESTIGATOR | Y | 1 | SCREENING | 2012-04-20 |", "score": 0.4303, "match_basis": "verbatim_token+domain_route:OE"}, {"md_atom_id": "md_dmOE_ex_a055", "md_file": "knowledge_base/domains/OE/examples.md", "md_atom_type": "TABLE_ROW", "md_parent_section": "§OE.3 [Example 3]", "md_verbatim": "| 6 | XYZ | OE | XYZ-100-001 | OD | 6 | 2 | THICK | Thickness | 1005 | um | 1005 | 1005 | um | MACULA | RIGHT | OPTICAL COHERENCE TOMOGRAPHY | INDEPENDENT ASSESSOR | | 1 | SCREENING | 2012-04-25 |", "score": 0.4303, "match_basis": "verbatim_token+domain_route:OE"}, {"md_atom_id": "md_dmOE_ex_a009", "md_file": "knowledge_base/domains/OE/examples.md", "md_atom_type": "TABLE_ROW", "md_parent_section": "§OE.1 [Example 1]", "md_verbatim": "| 2 | XXX | OE | XXX-450-110 | OD | 2 | INTP | Interpretation | ABNORMAL | ABNORMAL | LENS | RIGHT | | SLIT LAMP BIOMICROSCOPY | INVESTIGATOR | | 1 | SCREENING | 2012-03-20 |", "score": 0.43, "match_basis": "verbatim_token+domain_route:OE"}], "candidate_count": 5, "zero_candidate": false}
{"pdf_atom_id": "ig34_p0299_a021", "pdf_atom_type": "TABLE_ROW", "pdf_source": "SDTMIG_v3.4", "pdf_page": 299, "pdf_parent_section": "§6.3.7.5 Ophthalmic Examinations (OE)", "pdf_verbatim": "| OEORNRHI | Normal Range Upper Limit-Original Units | Char |  | Variable Qualifier | Upper end of normal range or reference range for results stored in OEORRES. | Perm |", "figure_ref": null, "candidates": [{"md_atom_id": "md_dmOE_ex_a052", "md_file": "knowledge_base/domains/OE/examples.md", "md_atom_type": "TABLE_ROW", "md_parent_section": "§OE.3 [Example 3]", "md_verbatim": "| 3 | XYZ | OE | XYZ-100-001 | OS | 3 | 1 | EDEMA | Edema | PRESENT | | PRESENT | | | MACULA | LEFT | OPTICAL COHERENCE TOMOGRAPHY | INDEPENDENT ASSESSOR | | 1 | SCREENING | 2012-04-25 |", "score": 0.4308, "match_basis": "verbatim_token+domain_route:OE"}, {"md_atom_id": "md_dmOE_ex_a053", "md_file": "knowledge_base/domains/OE/examples.md", "md_atom_type": "TABLE_ROW", "md_parent_section": "§OE.3 [Example 3]", "md_verbatim": "| 4 | XYZ | OE | XYZ-100-001 | OD | 4 | 2 | EDEMA | Edema | ABSENT | | ABSENT | | | MACULA | RIGHT | OPTICAL COHERENCE TOMOGRAPHY | INDEPENDENT ASSESSOR | | 1 | SCREENING | 2012-04-25 |", "score": 0.4308, "match_basis": "verbatim_token+domain_route:OE"}, {"md_atom_id": "md_dmOE_ex_a031", "md_file": "knowledge_base/domains/OE/examples.md", "md_atom_type": "TABLE_ROW", "md_parent_section": "§OE.2 [Example 2]", "md_verbatim": "| 5 | XXX | OE | XXX-450-120 | OD | 5 | HYPERMIA | Hyperemia | PRESENT | | PRESENT | | | CONJUNCTIVA | RIGHT | OPHTHALMOSCOPY | INVESTIGATOR | Y | 1 | SCREENING | 2012-04-20 |", "score": 0.4305, "match_basis": "verbatim_token+domain_route:OE"}, {"md_atom_id": "md_dmOE_ex_a055", "md_file": "knowledge_base/domains/OE/examples.md", "md_atom_type": "TABLE_ROW", "md_parent_section": "§OE.3 [Example 3]", "md_verbatim": "| 6 | XYZ | OE | XYZ-100-001 | OD | 6 | 2 | THICK | Thickness | 1005 | um | 1005 | 1005 | um | MACULA | RIGHT | OPTICAL COHERENCE TOMOGRAPHY | INDEPENDENT ASSESSOR | | 1 | SCREENING | 2012-04-25 |", "score": 0.4305, "match_basis": "verbatim_token+domain_route:OE"}, {"md_atom_id": "md_dmOE_ex_a009", "md_file": "knowledge_base/domains/OE/examples.md", "md_atom_type": "TABLE_ROW", "md_parent_section": "§OE.1 [Example 1]", "md_verbatim": "| 2 | XXX | OE | XXX-450-110 | OD | 2 | INTP | Interpretation | ABNORMAL | ABNORMAL | LENS | RIGHT | | SLIT LAMP BIOMICROSCOPY | INVESTIGATOR | | 1 | SCREENING | 2012-03-20 |", "score": 0.4303, "match_basis": "verbatim_token+domain_route:OE"}], "candidate_count": 5, "zero_candidate": false}
{"pdf_atom_id": "ig34_p0299_a022", "pdf_atom_type": "TABLE_ROW", "pdf_source": "SDTMIG_v3.4", "pdf_page": 299, "pdf_parent_section": "§6.3.7.5 Ophthalmic Examinations (OE)", "pdf_verbatim": "| OESTRESC | Character Result/Finding in Std Format | Char |  | Result Qualifier | Contains the result value for all findings copied or derived from OEORRES, in a standard format or in standard units. OESTRESC should store all results or findings in character format; if results are numeric, they should also be stored in numeric format in OESTRESN. | Exp |", "figure_ref": null, "candidates": [{"md_atom_id": "md_dmOE_ex_a008", "md_file": "knowledge_base/domains/OE/examples.md", "md_atom_type": "TABLE_ROW", "md_parent_section": "§OE.1 [Example 1]", "md_verbatim": "| 1 | XXX | OE | XXX-450-110 | OS | 1 | INTP | Interpretation | NORMAL | NORMAL | LENS | LEFT | | SLIT LAMP BIOMICROSCOPY | INVESTIGATOR | | 1 | SCREENING | 2012-03-20 |", "score": 0.4302, "match_basis": "verbatim_token+domain_route:OE"}, {"md_atom_id": "md_dmOE_ex_a009", "md_file": "knowledge_base/domains/OE/examples.md", "md_atom_type": "TABLE_ROW", "md_parent_section": "§OE.1 [Example 1]", "md_verbatim": "| 2 | XXX | OE | XXX-450-110 | OD | 2 | INTP | Interpretation | ABNORMAL | ABNORMAL | LENS | RIGHT | | SLIT LAMP BIOMICROSCOPY | INVESTIGATOR | | 1 | SCREENING | 2012-03-20 |", "score": 0.4296, "match_basis": "verbatim_token+domain_route:OE"}, {"md_atom_id": "md_dmOE_ex_a010", "md_file": "knowledge_base/domains/OE/examples.md", "md_atom_type": "TABLE_ROW", "md_parent_section": "§OE.1 [Example 1]", "md_verbatim": "| 3 | XXX | OE | XXX-450-110 | OD | 3 | OEEXAM | Ophthalmic Examination | RED SPOT VISIBLE | RED SPOT VISIBLE | CONJUNCTIVA | RIGHT | MULTIPLE | SLIT LAMP BIOMICROSCOPY | INVESTIGATOR | Y | 1 | SCREENING | 2012-03-20 |", "score": 0.4259, "match_basis": "verbatim_token+domain_route:OE"}, {"md_atom_id": "md_dmOE_ex_a031", "md_file": "knowledge_base/domains/OE/examples.md", "md_atom_type": "TABLE_ROW", "md_parent_section": "§OE.2 [Example 2]", "md_verbatim": "| 5 | XXX | OE | XXX-450-120 | OD | 5 | HYPERMIA | Hyperemia | PRESENT | | PRESENT | | | CONJUNCTIVA | RIGHT | OPHTHALMOSCOPY | INVESTIGATOR | Y | 1 | SCREENING | 2012-04-20 |", "score": 0.4254, "match_basis": "verbatim_token+domain_route:OE"}, {"md_atom_id": "md_dmOE_ex_a100", "md_file": "knowledge_base/domains/OE/examples.md", "md_atom_type": "TABLE_ROW", "md_parent_section": "§OE.4 [Example 4]", "md_verbatim": "| 1 | XYZ | OE | XYZ-100-0001 | OECAT | OCULAR COMFORT | OERESCRT | Rating Scale | 10-point VAS (1=Best, 10=Worst) |", "score": 0.4248, "match_basis": "verbatim_token+domain_route:OE"}], "candidate_count": 5, "zero_candidate": false}
{"pdf_atom_id": "ig34_p0299_a023", "pdf_atom_type": "TABLE_ROW", "pdf_source": "SDTMIG_v3.4", "pdf_page": 299, "pdf_parent_section": "§6.3.7.5 Ophthalmic Examinations (OE)", "pdf_verbatim": "| OESTRESN | Numeric Result/Finding in Standard Units | Num |  | Result Qualifier | Used for continuous or numeric results or findings in standard format; copied in numeric format from OESTRESC. OESTRESN should store all numeric test results or findings. | Exp |", "figure_ref": null, "candidates": [{"md_atom_id": "md_dmOE_ex_a100", "md_file": "knowledge_base/domains/OE/examples.md", "md_atom_type": "TABLE_ROW", "md_parent_section": "§OE.4 [Example 4]", "md_verbatim": "| 1 | XYZ | OE | XYZ-100-0001 | OECAT | OCULAR COMFORT | OERESCRT | Rating Scale | 10-point VAS (1=Best, 10=Worst) |", "score": 0.436, "match_basis": "verbatim_token+domain_route:OE"}, {"md_atom_id": "md_dmOE_ex_a008", "md_file": "knowledge_base/domains/OE/examples.md", "md_atom_type": "TABLE_ROW", "md_parent_section": "§OE.1 [Example 1]", "md_verbatim": "| 1 | XXX | OE | XXX-450-110 | OS | 1 | INTP | Interpretation | NORMAL | NORMAL | LENS | LEFT | | SLIT LAMP BIOMICROSCOPY | INVESTIGATOR | | 1 | SCREENING | 2012-03-20 |", "score": 0.43, "match_basis": "verbatim_token+domain_route:OE"}, {"md_atom_id": "md_dmOE_ex_a031", "md_file": "knowledge_base/domains/OE/examples.md", "md_atom_type": "TABLE_ROW", "md_parent_section": "§OE.2 [Example 2]", "md_verbatim": "| 5 | XXX | OE | XXX-450-120 | OD | 5 | HYPERMIA | Hyperemia | PRESENT | | PRESENT | | | CONJUNCTIVA | RIGHT | OPHTHALMOSCOPY | INVESTIGATOR | Y | 1 | SCREENING | 2012-04-20 |", "score": 0.4295, "match_basis": "verbatim_token+domain_route:OE"}, {"md_atom_id": "md_dmOE_ex_a009", "md_file": "knowledge_base/domains/OE/examples.md", "md_atom_type": "TABLE_ROW", "md_parent_section": "§OE.1 [Example 1]", "md_verbatim": "| 2 | XXX | OE | XXX-450-110 | OD | 2 | INTP | Interpretation | ABNORMAL | ABNORMAL | LENS | RIGHT | | SLIT LAMP BIOMICROSCOPY | INVESTIGATOR | | 1 | SCREENING | 2012-03-20 |", "score": 0.4293, "match_basis": "verbatim_token+domain_route:OE"}, {"md_atom_id": "md_dmOE_ex_a050", "md_file": "knowledge_base/domains/OE/examples.md", "md_atom_type": "TABLE_ROW", "md_parent_section": "§OE.3 [Example 3]", "md_verbatim": "| 1 | XYZ | OE | XYZ-100-001 | OS | 1 | | EDEMA | Edema | PRESENT | | PRESENT | | | MACULA | LEFT | OPHTHALMOSCOPY | INVESTIGATOR | N | 1 | SCREENING | 2012-04-25 |", "score": 0.427, "match_basis": "verbatim_token+domain_route:OE"}], "candidate_count": 5, "zero_candidate": false}
{"pdf_atom_id": "ig34_p0299_a024", "pdf_atom_type": "TABLE_ROW", "pdf_source": "SDTMIG_v3.4", "pdf_page": 299, "pdf_parent_section": "§6.3.7.5 Ophthalmic Examinations (OE)", "pdf_verbatim": "| OESTRESU | Standard Units | Char | (UNIT) | Variable Qualifier | Standardized units used for OESTRESC and OESTRESN. Examples: \"mm\", \"um\". | Exp |", "figure_ref": null, "candidates": [{"md_atom_id": "md_dmOE_ex_a100", "md_file": "knowledge_base/domains/OE/examples.md", "md_atom_type": "TABLE_ROW", "md_parent_section": "§OE.4 [Example 4]", "md_verbatim": "| 1 | XYZ | OE | XYZ-100-0001 | OECAT | OCULAR COMFORT | OERESCRT | Rating Scale | 10-point VAS (1=Best, 10=Worst) |", "score": 0.43, "match_basis": "verbatim_token+domain_route:OE"}, {"md_atom_id": "md_dmOE_ex_a010", "md_file": "knowledge_base/domains/OE/examples.md", "md_atom_type": "TABLE_ROW", "md_parent_section": "§OE.1 [Example 1]", "md_verbatim": "| 3 | XXX | OE | XXX-450-110 | OD | 3 | OEEXAM | Ophthalmic Examination | RED SPOT VISIBLE | RED SPOT VISIBLE | CONJUNCTIVA | RIGHT | MULTIPLE | SLIT LAMP BIOMICROSCOPY | INVESTIGATOR | Y | 1 | SCREENING | 2012-03-20 |", "score": 0.4298, "match_basis": "verbatim_token+domain_route:OE"}, {"md_atom_id": "md_dmOE_ex_a029", "md_file": "knowledge_base/domains/OE/examples.md", "md_atom_type": "TABLE_ROW", "md_parent_section": "§OE.2 [Example 2]", "md_verbatim": "| 3 | XXX | OE | XXX-450-120 | OD | 3 | LENSSTAT | Lens Status | PHAKIC | | PHAKIC | | | LENS | RIGHT | SLIT LAMP BIOMICROSCOPY | INVESTIGATOR | | 1 | SCREENING | 2012-04-20 |", "score": 0.4189, "match_basis": "verbatim_token+domain_route:OE"}, {"md_atom_id": "md_dmOE_ex_a030", "md_file": "knowledge_base/domains/OE/examples.md", "md_atom_type": "TABLE_ROW", "md_parent_section": "§OE.2 [Example 2]", "md_verbatim": "| 4 | XXX | OE | XXX-450-120 | OS | 4 | LENSSTAT | Lens Status | PSEUDOPHAKIC | | PSEUDOPHAKIC | | | LENS | LEFT | SLIT LAMP BIOMICROSCOPY | INVESTIGATOR | | 1 | SCREENING | 2012-04-20 |", "score": 0.418, "match_basis": "verbatim_token+domain_route:OE"}, {"md_atom_id": "md_dmOE_ex_a038", "md_file": "knowledge_base/domains/OE/examples.md", "md_atom_type": "TABLE_ROW", "md_parent_section": "§OE.2 [Example 2]", "md_verbatim": "| 1 | XXX | OE | XXX-450-120 | OESEQ | 7 | OEEDILST | Eye Dilation Status | DILATED |", "score": 0.4176, "match_basis": "verbatim_token+domain_route:OE"}], "candidate_count": 5, "zero_candidate": false}
{"pdf_atom_id": "ig34_p0299_a025", "pdf_atom_type": "TABLE_ROW", "pdf_source": "SDTMIG_v3.4", "pdf_page": 299, "pdf_parent_section": "§6.3.7.5 Ophthalmic Examinations (OE)", "pdf_verbatim": "| OESTNRLO | Normal Range Lower Limit-Standard Units | Num |  | Variable Qualifier | Lower end of normal range or reference range for standardized results (e.g., OESTRESC, OESTRESN) represented in standardized units (OESTRESU). | Perm |", "figure_ref": null, "candidates": [{"md_atom_id": "md_dmOE_ex_a052", "md_file": "knowledge_base/domains/OE/examples.md", "md_atom_type": "TABLE_ROW", "md_parent_section": "§OE.3 [Example 3]", "md_verbatim": "| 3 | XYZ | OE | XYZ-100-001 | OS | 3 | 1 | EDEMA | Edema | PRESENT | | PRESENT | | | MACULA | LEFT | OPTICAL COHERENCE TOMOGRAPHY | INDEPENDENT ASSESSOR | | 1 | SCREENING | 2012-04-25 |", "score": 0.4488, "match_basis": "verbatim_token+domain_route:OE"}, {"md_atom_id": "md_dmOE_ex_a031", "md_file": "knowledge_base/domains/OE/examples.md", "md_atom_type": "TABLE_ROW", "md_parent_section": "§OE.2 [Example 2]", "md_verbatim": "| 5 | XXX | OE | XXX-450-120 | OD | 5 | HYPERMIA | Hyperemia | PRESENT | | PRESENT | | | CONJUNCTIVA | RIGHT | OPHTHALMOSCOPY | INVESTIGATOR | Y | 1 | SCREENING | 2012-04-20 |", "score": 0.4432, "match_basis": "verbatim_token+domain_route:OE"}, {"md_atom_id": "md_dmOE_ex_a008", "md_file": "knowledge_base/domains/OE/examples.md", "md_atom_type": "TABLE_ROW", "md_parent_section": "§OE.1 [Example 1]", "md_verbatim": "| 1 | XXX | OE | XXX-450-110 | OS | 1 | INTP | Interpretation | NORMAL | NORMAL | LENS | LEFT | | SLIT LAMP BIOMICROSCOPY | INVESTIGATOR | | 1 | SCREENING | 2012-03-20 |", "score": 0.4336, "match_basis": "verbatim_token+domain_route:OE"}, {"md_atom_id": "md_dmOE_ex_a053", "md_file": "knowledge_base/domains/OE/examples.md", "md_atom_type": "TABLE_ROW", "md_parent_section": "§OE.3 [Example 3]", "md_verbatim": "| 4 | XYZ | OE | XYZ-100-001 | OD | 4 | 2 | EDEMA | Edema | ABSENT | | ABSENT | | | MACULA | RIGHT | OPTICAL COHERENCE TOMOGRAPHY | INDEPENDENT ASSESSOR | | 1 | SCREENING | 2012-04-25 |", "score": 0.4333, "match_basis": "verbatim_token+domain_route:OE"}, {"md_atom_id": "md_dmOE_ex_a009", "md_file": "knowledge_base/domains/OE/examples.md", "md_atom_type": "TABLE_ROW", "md_parent_section": "§OE.1 [Example 1]", "md_verbatim": "| 2 | XXX | OE | XXX-450-110 | OD | 2 | INTP | Interpretation | ABNORMAL | ABNORMAL | LENS | RIGHT | | SLIT LAMP BIOMICROSCOPY | INVESTIGATOR | | 1 | SCREENING | 2012-03-20 |", "score": 0.4328, "match_basis": "verbatim_token+domain_route:OE"}], "candidate_count": 5, "zero_candidate": false}
{"pdf_atom_id": "ig34_p0300_a001", "pdf_atom_type": "TABLE_ROW", "pdf_source": "SDTMIG_v3.4", "pdf_page": 300, "pdf_parent_section": "§6.3.7.5 Ophthalmic Examinations (OE)", "pdf_verbatim": "| OESTNRHI | Normal Range Upper Limit-Standard Units | Num |  | Variable Qualifier | Upper end of normal range or reference range for standardized results (e.g., OESTRESC, OESTRESN) represented in standardized units (OESTRESU). | Perm |", "figure_ref": null, "candidates": [{"md_atom_id": "md_dmOE_ex_a052", "md_file": "knowledge_base/domains/OE/examples.md", "md_atom_type": "TABLE_ROW", "md_parent_section": "§OE.3 [Example 3]", "md_verbatim": "| 3 | XYZ | OE | XYZ-100-001 | OS | 3 | 1 | EDEMA | Edema | PRESENT | | PRESENT | | | MACULA | LEFT | OPTICAL COHERENCE TOMOGRAPHY | INDEPENDENT ASSESSOR | | 1 | SCREENING | 2012-04-25 |", "score": 0.4492, "match_basis": "verbatim_token+domain_route:OE"}, {"md_atom_id": "md_dmOE_ex_a031", "md_file": "knowledge_base/domains/OE/examples.md", "md_atom_type": "TABLE_ROW", "md_parent_section": "§OE.2 [Example 2]", "md_verbatim": "| 5 | XXX | OE | XXX-450-120 | OD | 5 | HYPERMIA | Hyperemia | PRESENT | | PRESENT | | | CONJUNCTIVA | RIGHT | OPHTHALMOSCOPY | INVESTIGATOR | Y | 1 | SCREENING | 2012-04-20 |", "score": 0.4435, "match_basis": "verbatim_token+domain_route:OE"}, {"md_atom_id": "md_dmOE_ex_a008", "md_file": "knowledge_base/domains/OE/examples.md", "md_atom_type": "TABLE_ROW", "md_parent_section": "§OE.1 [Example 1]", "md_verbatim": "| 1 | XXX | OE | XXX-450-110 | OS | 1 | INTP | Interpretation | NORMAL | NORMAL | LENS | LEFT | | SLIT LAMP BIOMICROSCOPY | INVESTIGATOR | | 1 | SCREENING | 2012-03-20 |", "score": 0.4339, "match_basis": "verbatim_token+domain_route:OE"}, {"md_atom_id": "md_dmOE_ex_a053", "md_file": "knowledge_base/domains/OE/examples.md", "md_atom_type": "TABLE_ROW", "md_parent_section": "§OE.3 [Example 3]", "md_verbatim": "| 4 | XYZ | OE | XYZ-100-001 | OD | 4 | 2 | EDEMA | Edema | ABSENT | | ABSENT | | | MACULA | RIGHT | OPTICAL COHERENCE TOMOGRAPHY | INDEPENDENT ASSESSOR | | 1 | SCREENING | 2012-04-25 |", "score": 0.4336, "match_basis": "verbatim_token+domain_route:OE"}, {"md_atom_id": "md_dmOE_ex_a009", "md_file": "knowledge_base/domains/OE/examples.md", "md_atom_type": "TABLE_ROW", "md_parent_section": "§OE.1 [Example 1]", "md_verbatim": "| 2 | XXX | OE | XXX-450-110 | OD | 2 | INTP | Interpretation | ABNORMAL | ABNORMAL | LENS | RIGHT | | SLIT LAMP BIOMICROSCOPY | INVESTIGATOR | | 1 | SCREENING | 2012-03-20 |", "score": 0.4331, "match_basis": "verbatim_token+domain_route:OE"}], "candidate_count": 5, "zero_candidate": false}
{"pdf_atom_id": "ig34_p0300_a002", "pdf_atom_type": "TABLE_ROW", "pdf_source": "SDTMIG_v3.4", "pdf_page": 300, "pdf_parent_section": "§6.3.7.5 Ophthalmic Examinations (OE)", "pdf_verbatim": "| OESTNRC | Normal Range for Character Results | Char |  | Variable Qualifier | Normal range or reference range for results stored in OESTRESC that are character in ordinal or categorical scale. Example: \"Negative to Trace\". | Perm |", "figure_ref": null, "candidates": [{"md_atom_id": "md_dmOE_ex_a010", "md_file": "knowledge_base/domains/OE/examples.md", "md_atom_type": "TABLE_ROW", "md_parent_section": "§OE.1 [Example 1]", "md_verbatim": "| 3 | XXX | OE | XXX-450-110 | OD | 3 | OEEXAM | Ophthalmic Examination | RED SPOT VISIBLE | RED SPOT VISIBLE | CONJUNCTIVA | RIGHT | MULTIPLE | SLIT LAMP BIOMICROSCOPY | INVESTIGATOR | Y | 1 | SCREENING | 2012-03-20 |", "score": 0.4549, "match_basis": "verbatim_token+domain_route:OE"}, {"md_atom_id": "md_dmOE_ex_a100", "md_file": "knowledge_base/domains/OE/examples.md", "md_atom_type": "TABLE_ROW", "md_parent_section": "§OE.4 [Example 4]", "md_verbatim": "| 1 | XYZ | OE | XYZ-100-0001 | OECAT | OCULAR COMFORT | OERESCRT | Rating Scale | 10-point VAS (1=Best, 10=Worst) |", "score": 0.4526, "match_basis": "verbatim_token+domain_route:OE"}, {"md_atom_id": "md_dmOE_ex_a008", "md_file": "knowledge_base/domains/OE/examples.md", "md_atom_type": "TABLE_ROW", "md_parent_section": "§OE.1 [Example 1]", "md_verbatim": "| 1 | XXX | OE | XXX-450-110 | OS | 1 | INTP | Interpretation | NORMAL | NORMAL | LENS | LEFT | | SLIT LAMP BIOMICROSCOPY | INVESTIGATOR | | 1 | SCREENING | 2012-03-20 |", "score": 0.4448, "match_basis": "verbatim_token+domain_route:OE"}, {"md_atom_id": "md_dmOE_ex_a009", "md_file": "knowledge_base/domains/OE/examples.md", "md_atom_type": "TABLE_ROW", "md_parent_section": "§OE.1 [Example 1]", "md_verbatim": "| 2 | XXX | OE | XXX-450-110 | OD | 2 | INTP | Interpretation | ABNORMAL | ABNORMAL | LENS | RIGHT | | SLIT LAMP BIOMICROSCOPY | INVESTIGATOR | | 1 | SCREENING | 2012-03-20 |", "score": 0.4438, "match_basis": "verbatim_token+domain_route:OE"}, {"md_atom_id": "md_dmOE_ex_a031", "md_file": "knowledge_base/domains/OE/examples.md", "md_atom_type": "TABLE_ROW", "md_parent_section": "§OE.2 [Example 2]", "md_verbatim": "| 5 | XXX | OE | XXX-450-120 | OD | 5 | HYPERMIA | Hyperemia | PRESENT | | PRESENT | | | CONJUNCTIVA | RIGHT | OPHTHALMOSCOPY | INVESTIGATOR | Y | 1 | SCREENING | 2012-04-20 |", "score": 0.4394, "match_basis": "verbatim_token+domain_route:OE"}], "candidate_count": 5, "zero_candidate": false}
{"pdf_atom_id": "ig34_p0300_a003", "pdf_atom_type": "TABLE_ROW", "pdf_source": "SDTMIG_v3.4", "pdf_page": 300, "pdf_parent_section": "§6.3.7.5 Ophthalmic Examinations (OE)", "pdf_verbatim": "| OENRIND | Normal/Reference Range Indicator | Char | (NRIND) | Variable Qualifier | Used to indicate the value is outside the normal range or reference range. May be defined by OEORNRLO and OEORNRHI or other objective criteria. Examples: \"Y\", \"N\"; \"HIGH\", \"LOW\"; \"NORMAL\", \"ABNORMAL\". | Perm |", "figure_ref": null, "candidates": [{"md_atom_id": "md_dmOE_ex_a009", "md_file": "knowledge_base/domains/OE/examples.md", "md_atom_type": "TABLE_ROW", "md_parent_section": "§OE.1 [Example 1]", "md_verbatim": "| 2 | XXX | OE | XXX-450-110 | OD | 2 | INTP | Interpretation | ABNORMAL | ABNORMAL | LENS | RIGHT | | SLIT LAMP BIOMICROSCOPY | INVESTIGATOR | | 1 | SCREENING | 2012-03-20 |", "score": 0.4458, "match_basis": "verbatim_token+domain_route:OE"}, {"md_atom_id": "md_dmOE_ex_a010", "md_file": "knowledge_base/domains/OE/examples.md", "md_atom_type": "TABLE_ROW", "md_parent_section": "§OE.1 [Example 1]", "md_verbatim": "| 3 | XXX | OE | XXX-450-110 | OD | 3 | OEEXAM | Ophthalmic Examination | RED SPOT VISIBLE | RED SPOT VISIBLE | CONJUNCTIVA | RIGHT | MULTIPLE | SLIT LAMP BIOMICROSCOPY | INVESTIGATOR | Y | 1 | SCREENING | 2012-03-20 |", "score": 0.4364, "match_basis": "verbatim_token+domain_route:OE"}, {"md_atom_id": "md_dmOE_ex_a008", "md_file": "knowledge_base/domains/OE/examples.md", "md_atom_type": "TABLE_ROW", "md_parent_section": "§OE.1 [Example 1]", "md_verbatim": "| 1 | XXX | OE | XXX-450-110 | OS | 1 | INTP | Interpretation | NORMAL | NORMAL | LENS | LEFT | | SLIT LAMP BIOMICROSCOPY | INVESTIGATOR | | 1 | SCREENING | 2012-03-20 |", "score": 0.4333, "match_basis": "verbatim_token+domain_route:OE"}, {"md_atom_id": "md_dmOE_ex_a053", "md_file": "knowledge_base/domains/OE/examples.md", "md_atom_type": "TABLE_ROW", "md_parent_section": "§OE.3 [Example 3]", "md_verbatim": "| 4 | XYZ | OE | XYZ-100-001 | OD | 4 | 2 | EDEMA | Edema | ABSENT | | ABSENT | | | MACULA | RIGHT | OPTICAL COHERENCE TOMOGRAPHY | INDEPENDENT ASSESSOR | | 1 | SCREENING | 2012-04-25 |", "score": 0.4331, "match_basis": "verbatim_token+domain_route:OE"}, {"md_atom_id": "md_dmOE_ex_a031", "md_file": "knowledge_base/domains/OE/examples.md", "md_atom_type": "TABLE_ROW", "md_parent_section": "§OE.2 [Example 2]", "md_verbatim": "| 5 | XXX | OE | XXX-450-120 | OD | 5 | HYPERMIA | Hyperemia | PRESENT | | PRESENT | | | CONJUNCTIVA | RIGHT | OPHTHALMOSCOPY | INVESTIGATOR | Y | 1 | SCREENING | 2012-04-20 |", "score": 0.4329, "match_basis": "verbatim_token+domain_route:OE"}], "candidate_count": 5, "zero_candidate": false}
{"pdf_atom_id": "ig34_p0300_a004", "pdf_atom_type": "TABLE_ROW", "pdf_source": "SDTMIG_v3.4", "pdf_page": 300, "pdf_parent_section": "§6.3.7.5 Ophthalmic Examinations (OE)", "pdf_verbatim": "| OERESCAT | Result Category | Char |  | Variable Qualifier | Used to categorize the result of a finding or medical status per interpretation of test results. Examples: \"POSITIVE\", \"NEGATIVE\". The variable OERESCAT is not meant to replace the use of OENRIND for cases where normal ranges are provided. | Perm |", "figure_ref": null, "candidates": [{"md_atom_id": "md_dmOE_ex_a008", "md_file": "knowledge_base/domains/OE/examples.md", "md_atom_type": "TABLE_ROW", "md_parent_section": "§OE.1 [Example 1]", "md_verbatim": "| 1 | XXX | OE | XXX-450-110 | OS | 1 | INTP | Interpretation | NORMAL | NORMAL | LENS | LEFT | | SLIT LAMP BIOMICROSCOPY | INVESTIGATOR | | 1 | SCREENING | 2012-03-20 |", "score": 0.4789, "match_basis": "verbatim_token+domain_route:OE"}, {"md_atom_id": "md_dmOE_ex_a009", "md_file": "knowledge_base/domains/OE/examples.md", "md_atom_type": "TABLE_ROW", "md_parent_section": "§OE.1 [Example 1]", "md_verbatim": "| 2 | XXX | OE | XXX-450-110 | OD | 2 | INTP | Interpretation | ABNORMAL | ABNORMAL | LENS | RIGHT | | SLIT LAMP BIOMICROSCOPY | INVESTIGATOR | | 1 | SCREENING | 2012-03-20 |", "score": 0.4774, "match_basis": "verbatim_token+domain_route:OE"}, {"md_atom_id": "md_dmOE_ex_a100", "md_file": "knowledge_base/domains/OE/examples.md", "md_atom_type": "TABLE_ROW", "md_parent_section": "§OE.4 [Example 4]", "md_verbatim": "| 1 | XYZ | OE | XYZ-100-0001 | OECAT | OCULAR COMFORT | OERESCRT | Rating Scale | 10-point VAS (1=Best, 10=Worst) |", "score": 0.4514, "match_basis": "verbatim_token+domain_route:OE"}, {"md_atom_id": "md_dmOE_ex_a010", "md_file": "knowledge_base/domains/OE/examples.md", "md_atom_type": "TABLE_ROW", "md_parent_section": "§OE.1 [Example 1]", "md_verbatim": "| 3 | XXX | OE | XXX-450-110 | OD | 3 | OEEXAM | Ophthalmic Examination | RED SPOT VISIBLE | RED SPOT VISIBLE | CONJUNCTIVA | RIGHT | MULTIPLE | SLIT LAMP BIOMICROSCOPY | INVESTIGATOR | Y | 1 | SCREENING | 2012-03-20 |", "score": 0.4429, "match_basis": "verbatim_token+domain_route:OE"}, {"md_atom_id": "md_dmOE_ex_a038", "md_file": "knowledge_base/domains/OE/examples.md", "md_atom_type": "TABLE_ROW", "md_parent_section": "§OE.2 [Example 2]", "md_verbatim": "| 1 | XXX | OE | XXX-450-120 | OESEQ | 7 | OEEDILST | Eye Dilation Status | DILATED |", "score": 0.4419, "match_basis": "verbatim_token+domain_route:OE"}], "candidate_count": 5, "zero_candidate": false}
{"pdf_atom_id": "ig34_p0300_a005", "pdf_atom_type": "TABLE_ROW", "pdf_source": "SDTMIG_v3.4", "pdf_page": 300, "pdf_parent_section": "§6.3.7.5 Ophthalmic Examinations (OE)", "pdf_verbatim": "| OESTAT | Completion Status | Char | (ND) | Record Qualifier | Used to indicate that a question was not asked or a test was not done, or a test was attempted but did not generate a result. Should be null or have a value of \"NOT DONE\". | Perm |", "figure_ref": null, "candidates": [{"md_atom_id": "md_dmOE_ex_a038", "md_file": "knowledge_base/domains/OE/examples.md", "md_atom_type": "TABLE_ROW", "md_parent_section": "§OE.2 [Example 2]", "md_verbatim": "| 1 | XXX | OE | XXX-450-120 | OESEQ | 7 | OEEDILST | Eye Dilation Status | DILATED |", "score": 0.4574, "match_basis": "verbatim_token+domain_route:OE"}, {"md_atom_id": "md_dmOE_ex_a039", "md_file": "knowledge_base/domains/OE/examples.md", "md_atom_type": "TABLE_ROW", "md_parent_section": "§OE.2 [Example 2]", "md_verbatim": "| 2 | XXX | OE | XXX-450-120 | OESEQ | 8 | OEEDILST | Eye Dilation Status | DILATED |", "score": 0.4574, "match_basis": "verbatim_token+domain_route:OE"}, {"md_atom_id": "md_dmOE_ex_a015", "md_file": "knowledge_base/domains/OE/examples.md", "md_atom_type": "TABLE_ROW", "md_parent_section": "§OE.1 [Example 1]", "md_verbatim": "| 2 | XXX | OE | XXX-450-110 | OESEQ | 3 | OEDIR2 | Directionality 2 | TEMPORAL |", "score": 0.4424, "match_basis": "verbatim_token+domain_route:OE"}, {"md_atom_id": "md_dmOE_ex_a014", "md_file": "knowledge_base/domains/OE/examples.md", "md_atom_type": "TABLE_ROW", "md_parent_section": "§OE.1 [Example 1]", "md_verbatim": "| 1 | XXX | OE | XXX-450-110 | OESEQ | 3 | OEDIRT | Directionality 1 | SUPERIOR |", "score": 0.436, "match_basis": "verbatim_token+domain_route:OE"}, {"md_atom_id": "md_dmOE_ex_a059", "md_file": "knowledge_base/domains/OE/examples.md", "md_atom_type": "TABLE_ROW", "md_parent_section": "§OE.3 [Example 3]", "md_verbatim": "| 1 | XYZ | OE | XYZ-100-001 | OELNKID | 1 | OEEVLDTC | Evaluation Date | 2012-04-30 |", "score": 0.43, "match_basis": "verbatim_token+domain_route:OE"}], "candidate_count": 5, "zero_candidate": false}
{"pdf_atom_id": "ig34_p0300_a006", "pdf_atom_type": "TABLE_ROW", "pdf_source": "SDTMIG_v3.4", "pdf_page": 300, "pdf_parent_section": "§6.3.7.5 Ophthalmic Examinations (OE)", "pdf_verbatim": "| OEREASND | Reason Not Done | Char |  | Record Qualifier | Reason not done. Used in conjunction with OESTAT when value is \"NOT DONE\". | Perm |", "figure_ref": null, "candidates": [{"md_atom_id": "md_dmOE_ex_a032", "md_file": "knowledge_base/domains/OE/examples.md", "md_atom_type": "TABLE_ROW", "md_parent_section": "§OE.2 [Example 2]", "md_verbatim": "| 6 | XXX | OE | XXX-450-120 | OS | 6 | HYPERMIA | Hyperemia | ABSENT | | ABSENT | | | CONJUNCTIVA | LEFT | OPHTHALMOSCOPY | INVESTIGATOR | | 1 | SCREENING | 2012-04-20 |", "score": 0.4695, "match_basis": "verbatim_token+domain_route:OE"}, {"md_atom_id": "md_dmOE_ex_a031", "md_file": "knowledge_base/domains/OE/examples.md", "md_atom_type": "TABLE_ROW", "md_parent_section": "§OE.2 [Example 2]", "md_verbatim": "| 5 | XXX | OE | XXX-450-120 | OD | 5 | HYPERMIA | Hyperemia | PRESENT | | PRESENT | | | CONJUNCTIVA | RIGHT | OPHTHALMOSCOPY | INVESTIGATOR | Y | 1 | SCREENING | 2012-04-20 |", "score": 0.468, "match_basis": "verbatim_token+domain_route:OE"}, {"md_atom_id": "md_dmOE_ex_a014", "md_file": "knowledge_base/domains/OE/examples.md", "md_atom_type": "TABLE_ROW", "md_parent_section": "§OE.1 [Example 1]", "md_verbatim": "| 1 | XXX | OE | XXX-450-110 | OESEQ | 3 | OEDIRT | Directionality 1 | SUPERIOR |", "score": 0.4618, "match_basis": "verbatim_token+domain_route:OE"}, {"md_atom_id": "md_dmOE_ex_a015", "md_file": "knowledge_base/domains/OE/examples.md", "md_atom_type": "TABLE_ROW", "md_parent_section": "§OE.1 [Example 1]", "md_verbatim": "| 2 | XXX | OE | XXX-450-110 | OESEQ | 3 | OEDIR2 | Directionality 2 | TEMPORAL |", "score": 0.4522, "match_basis": "verbatim_token+domain_route:OE"}, {"md_atom_id": "md_dmOE_ex_a010", "md_file": "knowledge_base/domains/OE/examples.md", "md_atom_type": "TABLE_ROW", "md_parent_section": "§OE.1 [Example 1]", "md_verbatim": "| 3 | XXX | OE | XXX-450-110 | OD | 3 | OEEXAM | Ophthalmic Examination | RED SPOT VISIBLE | RED SPOT VISIBLE | CONJUNCTIVA | RIGHT | MULTIPLE | SLIT LAMP BIOMICROSCOPY | INVESTIGATOR | Y | 1 | SCREENING | 2012-03-20 |", "score": 0.4504, "match_basis": "verbatim_token+domain_route:OE"}], "candidate_count": 5, "zero_candidate": false}
{"pdf_atom_id": "ig34_p0300_a007", "pdf_atom_type": "TABLE_ROW", "pdf_source": "SDTMIG_v3.4", "pdf_page": 300, "pdf_parent_section": "§6.3.7.5 Ophthalmic Examinations (OE)", "pdf_verbatim": "| OEXFN | External File Path | Char |  | Record Qualifier | Filename for an external file, such as one for a retinal OCT image. | Perm |", "figure_ref": null, "candidates": [{"md_atom_id": "md_dmOE_ex_a014", "md_file": "knowledge_base/domains/OE/examples.md", "md_atom_type": "TABLE_ROW", "md_parent_section": "§OE.1 [Example 1]", "md_verbatim": "| 1 | XXX | OE | XXX-450-110 | OESEQ | 3 | OEDIRT | Directionality 1 | SUPERIOR |", "score": 0.4358, "match_basis": "verbatim_token+domain_route:OE"}, {"md_atom_id": "md_dmOE_ex_a069", "md_file": "knowledge_base/domains/OE/examples.md", "md_atom_type": "TABLE_ROW", "md_parent_section": "§OE.3 [Example 3]", "md_verbatim": "| 5 | XYZ | PR | XYZ-100-001 | OU | | 5 | | OCT | Y | N | PATIENT WAS SICK FOR SEVERAL WEEKS | | | | 3 | VISIT 2 |", "score": 0.4277, "match_basis": "verbatim_token+domain_route:OE"}, {"md_atom_id": "md_dmOE_ex_a015", "md_file": "knowledge_base/domains/OE/examples.md", "md_atom_type": "TABLE_ROW", "md_parent_section": "§OE.1 [Example 1]", "md_verbatim": "| 2 | XXX | OE | XXX-450-110 | OESEQ | 3 | OEDIR2 | Directionality 2 | TEMPORAL |", "score": 0.4265, "match_basis": "verbatim_token+domain_route:OE"}, {"md_atom_id": "md_dmOE_ex_a008", "md_file": "knowledge_base/domains/OE/examples.md", "md_atom_type": "TABLE_ROW", "md_parent_section": "§OE.1 [Example 1]", "md_verbatim": "| 1 | XXX | OE | XXX-450-110 | OS | 1 | INTP | Interpretation | NORMAL | NORMAL | LENS | LEFT | | SLIT LAMP BIOMICROSCOPY | INVESTIGATOR | | 1 | SCREENING | 2012-03-20 |", "score": 0.4182, "match_basis": "verbatim_token+domain_route:OE"}, {"md_atom_id": "md_dmOE_ex_a009", "md_file": "knowledge_base/domains/OE/examples.md", "md_atom_type": "TABLE_ROW", "md_parent_section": "§OE.1 [Example 1]", "md_verbatim": "| 2 | XXX | OE | XXX-450-110 | OD | 2 | INTP | Interpretation | ABNORMAL | ABNORMAL | LENS | RIGHT | | SLIT LAMP BIOMICROSCOPY | INVESTIGATOR | | 1 | SCREENING | 2012-03-20 |", "score": 0.4176, "match_basis": "verbatim_token+domain_route:OE"}], "candidate_count": 5, "zero_candidate": false}
{"pdf_atom_id": "ig34_p0300_a008", "pdf_atom_type": "TABLE_ROW", "pdf_source": "SDTMIG_v3.4", "pdf_page": 300, "pdf_parent_section": "§6.3.7.5 Ophthalmic Examinations (OE)", "pdf_verbatim": "| OELOC | Location Used for the Measurement | Char | (LOC) | Record Qualifier | Anatomical location of the subject relevant to the collection of the measurement. Examples: \"EYE\" for a finding record relative to the complete eye, \"RETINA\" for a measurement or assessment of only the retina. | Exp |", "figure_ref": null, "candidates": [{"md_atom_id": "md_dmOE_ex_a095", "md_file": "knowledge_base/domains/OE/examples.md", "md_atom_type": "TABLE_ROW", "md_parent_section": "§OE.4 [Example 4]", "md_verbatim": "| 3 | XYZ | OE | XYZ-100-0001 | OS | 1 | EYDCOMGR | Eye Drop Comfort Grade | OCULAR COMFORT | 1 | 1 | 1 | EYE | LEFT | VISUAL ANALOG SCALE | STUDY SUBJECT | 1 | VISIT 1 | 2011-05-01T09:00 | UPON INSTILLATION | 1 |", "score": 0.4643, "match_basis": "verbatim_token+domain_route:OE"}, {"md_atom_id": "md_dmOE_ex_a093", "md_file": "knowledge_base/domains/OE/examples.md", "md_atom_type": "TABLE_ROW", "md_parent_section": "§OE.4 [Example 4]", "md_verbatim": "| 1 | XYZ | OE | XYZ-100-0001 | OD | 1 | EYDCOMGR | Eye Drop Comfort Grade | OCULAR COMFORT | 1 | 1 | 1 | EYE | RIGHT | VISUAL ANALOG SCALE | STUDY SUBJECT | 1 | VISIT 1 | 2011-02-11T09:00 | UPON INSTILLATION | 1 |", "score": 0.4638, "match_basis": "verbatim_token+domain_route:OE"}, {"md_atom_id": "md_dmOE_ex_a096", "md_file": "knowledge_base/domains/OE/examples.md", "md_atom_type": "TABLE_ROW", "md_parent_section": "§OE.4 [Example 4]", "md_verbatim": "| 4 | XYZ | OE | XYZ-100-0001 | OS | 2 | EYDCOMGR | Eye Drop Comfort Grade | OCULAR COMFORT | 10 | 10 | 10 | EYE | LEFT | VISUAL ANALOG SCALE | STUDY SUBJECT | 1 | VISIT 1 | 2011-05-01T09:01 | 1 MINUTE POST-INSTILLATION | 2 |", "score": 0.4625, "match_basis": "verbatim_token+domain_route:OE"}, {"md_atom_id": "md_dmOE_ex_a094", "md_file": "knowledge_base/domains/OE/examples.md", "md_atom_type": "TABLE_ROW", "md_parent_section": "§OE.4 [Example 4]", "md_verbatim": "| 2 | XYZ | OE | XYZ-100-0001 | OD | 2 | EYDCOMGR | Eye Drop Comfort Grade | OCULAR COMFORT | 10 | 10 | 10 | EYE | RIGHT | VISUAL ANALOG SCALE | STUDY SUBJECT | 1 | VISIT 1 | 2011-02-11T09:01 | 1 MINUTE POST-INSTILLATION | 2 |", "score": 0.4621, "match_basis": "verbatim_token+domain_route:OE"}, {"md_atom_id": "md_dmOE_ex_a010", "md_file": "knowledge_base/domains/OE/examples.md", "md_atom_type": "TABLE_ROW", "md_parent_section": "§OE.1 [Example 1]", "md_verbatim": "| 3 | XXX | OE | XXX-450-110 | OD | 3 | OEEXAM | Ophthalmic Examination | RED SPOT VISIBLE | RED SPOT VISIBLE | CONJUNCTIVA | RIGHT | MULTIPLE | SLIT LAMP BIOMICROSCOPY | INVESTIGATOR | Y | 1 | SCREENING | 2012-03-20 |", "score": 0.4573, "match_basis": "verbatim_token+domain_route:OE"}], "candidate_count": 5, "zero_candidate": false}
{"pdf_atom_id": "ig34_p0300_a009", "pdf_atom_type": "TABLE_ROW", "pdf_source": "SDTMIG_v3.4", "pdf_page": 300, "pdf_parent_section": "§6.3.7.5 Ophthalmic Examinations (OE)", "pdf_verbatim": "| OELAT | Laterality | Char | (LAT) | Variable Qualifier | Qualifier for anatomical location or specimen further detailing laterality. Examples: \"RIGHT\", \"LEFT\", \"BILATERAL\". | Exp |", "figure_ref": null, "candidates": [{"md_atom_id": "md_dmOE_ex_a010", "md_file": "knowledge_base/domains/OE/examples.md", "md_atom_type": "TABLE_ROW", "md_parent_section": "§OE.1 [Example 1]", "md_verbatim": "| 3 | XXX | OE | XXX-450-110 | OD | 3 | OEEXAM | Ophthalmic Examination | RED SPOT VISIBLE | RED SPOT VISIBLE | CONJUNCTIVA | RIGHT | MULTIPLE | SLIT LAMP BIOMICROSCOPY | INVESTIGATOR | Y | 1 | SCREENING | 2012-03-20 |", "score": 0.4756, "match_basis": "verbatim_token+domain_route:OE"}, {"md_atom_id": "md_dmOE_ex_a009", "md_file": "knowledge_base/domains/OE/examples.md", "md_atom_type": "TABLE_ROW", "md_parent_section": "§OE.1 [Example 1]", "md_verbatim": "| 2 | XXX | OE | XXX-450-110 | OD | 2 | INTP | Interpretation | ABNORMAL | ABNORMAL | LENS | RIGHT | | SLIT LAMP BIOMICROSCOPY | INVESTIGATOR | | 1 | SCREENING | 2012-03-20 |", "score": 0.4712, "match_basis": "verbatim_token+domain_route:OE"}, {"md_atom_id": "md_dmOE_ex_a008", "md_file": "knowledge_base/domains/OE/examples.md", "md_atom_type": "TABLE_ROW", "md_parent_section": "§OE.1 [Example 1]", "md_verbatim": "| 1 | XXX | OE | XXX-450-110 | OS | 1 | INTP | Interpretation | NORMAL | NORMAL | LENS | LEFT | | SLIT LAMP BIOMICROSCOPY | INVESTIGATOR | | 1 | SCREENING | 2012-03-20 |", "score": 0.4672, "match_basis": "verbatim_token+domain_route:OE"}, {"md_atom_id": "md_dmOE_ex_a093", "md_file": "knowledge_base/domains/OE/examples.md", "md_atom_type": "TABLE_ROW", "md_parent_section": "§OE.4 [Example 4]", "md_verbatim": "| 1 | XYZ | OE | XYZ-100-0001 | OD | 1 | EYDCOMGR | Eye Drop Comfort Grade | OCULAR COMFORT | 1 | 1 | 1 | EYE | RIGHT | VISUAL ANALOG SCALE | STUDY SUBJECT | 1 | VISIT 1 | 2011-02-11T09:00 | UPON INSTILLATION | 1 |", "score": 0.4528, "match_basis": "verbatim_token+domain_route:OE"}, {"md_atom_id": "md_dmOE_ex_a094", "md_file": "knowledge_base/domains/OE/examples.md", "md_atom_type": "TABLE_ROW", "md_parent_section": "§OE.4 [Example 4]", "md_verbatim": "| 2 | XYZ | OE | XYZ-100-0001 | OD | 2 | EYDCOMGR | Eye Drop Comfort Grade | OCULAR COMFORT | 10 | 10 | 10 | EYE | RIGHT | VISUAL ANALOG SCALE | STUDY SUBJECT | 1 | VISIT 1 | 2011-02-11T09:01 | 1 MINUTE POST-INSTILLATION | 2 |", "score": 0.4512, "match_basis": "verbatim_token+domain_route:OE"}], "candidate_count": 5, "zero_candidate": false}
{"pdf_atom_id": "ig34_p0300_a010", "pdf_atom_type": "TABLE_ROW", "pdf_source": "SDTMIG_v3.4", "pdf_page": 300, "pdf_parent_section": "§6.3.7.5 Ophthalmic Examinations (OE)", "pdf_verbatim": "| OEDIR | Directionality | Char | (DIR) | Variable Qualifier | Qualifier for anatomical location or specimen further detailing directionality. Examples: \"ANTERIOR\", \"LOWER\", \"PROXIMAL\". | Perm |", "figure_ref": null, "candidates": [{"md_atom_id": "md_dmOE_ex_a014", "md_file": "knowledge_base/domains/OE/examples.md", "md_atom_type": "TABLE_ROW", "md_parent_section": "§OE.1 [Example 1]", "md_verbatim": "| 1 | XXX | OE | XXX-450-110 | OESEQ | 3 | OEDIRT | Directionality 1 | SUPERIOR |", "score": 0.5187, "match_basis": "verbatim_token+domain_route:OE"}, {"md_atom_id": "md_dmOE_ex_a015", "md_file": "knowledge_base/domains/OE/examples.md", "md_atom_type": "TABLE_ROW", "md_parent_section": "§OE.1 [Example 1]", "md_verbatim": "| 2 | XXX | OE | XXX-450-110 | OESEQ | 3 | OEDIR2 | Directionality 2 | TEMPORAL |", "score": 0.4884, "match_basis": "verbatim_token+domain_route:OE"}, {"md_atom_id": "md_dmOE_ex_a008", "md_file": "knowledge_base/domains/OE/examples.md", "md_atom_type": "TABLE_ROW", "md_parent_section": "§OE.1 [Example 1]", "md_verbatim": "| 1 | XXX | OE | XXX-450-110 | OS | 1 | INTP | Interpretation | NORMAL | NORMAL | LENS | LEFT | | SLIT LAMP BIOMICROSCOPY | INVESTIGATOR | | 1 | SCREENING | 2012-03-20 |", "score": 0.4614, "match_basis": "verbatim_token+domain_route:OE"}, {"md_atom_id": "md_dmOE_ex_a010", "md_file": "knowledge_base/domains/OE/examples.md", "md_atom_type": "TABLE_ROW", "md_parent_section": "§OE.1 [Example 1]", "md_verbatim": "| 3 | XXX | OE | XXX-450-110 | OD | 3 | OEEXAM | Ophthalmic Examination | RED SPOT VISIBLE | RED SPOT VISIBLE | CONJUNCTIVA | RIGHT | MULTIPLE | SLIT LAMP BIOMICROSCOPY | INVESTIGATOR | Y | 1 | SCREENING | 2012-03-20 |", "score": 0.4608, "match_basis": "verbatim_token+domain_route:OE"}, {"md_atom_id": "md_dmOE_ex_a009", "md_file": "knowledge_base/domains/OE/examples.md", "md_atom_type": "TABLE_ROW", "md_parent_section": "§OE.1 [Example 1]", "md_verbatim": "| 2 | XXX | OE | XXX-450-110 | OD | 2 | INTP | Interpretation | ABNORMAL | ABNORMAL | LENS | RIGHT | | SLIT LAMP BIOMICROSCOPY | INVESTIGATOR | | 1 | SCREENING | 2012-03-20 |", "score": 0.46, "match_basis": "verbatim_token+domain_route:OE"}], "candidate_count": 5, "zero_candidate": false}
{"pdf_atom_id": "ig34_p0300_a011", "pdf_atom_type": "TABLE_ROW", "pdf_source": "SDTMIG_v3.4", "pdf_page": 300, "pdf_parent_section": "§6.3.7.5 Ophthalmic Examinations (OE)", "pdf_verbatim": "| OEPORTOT | Portion or Totality | Char | (PORTOT) | Variable Qualifier | Qualifier for anatomical location or specimen further detailing the distribution (i.e., arrangement of, apportioning of). Examples: \"ENTIRE\", \"SINGLE\", \"SEGMENT\", \"MANY\". | Perm |", "figure_ref": null, "candidates": [{"md_atom_id": "md_dmOE_ex_a010", "md_file": "knowledge_base/domains/OE/examples.md", "md_atom_type": "TABLE_ROW", "md_parent_section": "§OE.1 [Example 1]", "md_verbatim": "| 3 | XXX | OE | XXX-450-110 | OD | 3 | OEEXAM | Ophthalmic Examination | RED SPOT VISIBLE | RED SPOT VISIBLE | CONJUNCTIVA | RIGHT | MULTIPLE | SLIT LAMP BIOMICROSCOPY | INVESTIGATOR | Y | 1 | SCREENING | 2012-03-20 |", "score": 0.4549, "match_basis": "verbatim_token+domain_route:OE"}, {"md_atom_id": "md_dmOE_ex_a008", "md_file": "knowledge_base/domains/OE/examples.md", "md_atom_type": "TABLE_ROW", "md_parent_section": "§OE.1 [Example 1]", "md_verbatim": "| 1 | XXX | OE | XXX-450-110 | OS | 1 | INTP | Interpretation | NORMAL | NORMAL | LENS | LEFT | | SLIT LAMP BIOMICROSCOPY | INVESTIGATOR | | 1 | SCREENING | 2012-03-20 |", "score": 0.4455, "match_basis": "verbatim_token+domain_route:OE"}, {"md_atom_id": "md_dmOE_ex_a009", "md_file": "knowledge_base/domains/OE/examples.md", "md_atom_type": "TABLE_ROW", "md_parent_section": "§OE.1 [Example 1]", "md_verbatim": "| 2 | XXX | OE | XXX-450-110 | OD | 2 | INTP | Interpretation | ABNORMAL | ABNORMAL | LENS | RIGHT | | SLIT LAMP BIOMICROSCOPY | INVESTIGATOR | | 1 | SCREENING | 2012-03-20 |", "score": 0.4446, "match_basis": "verbatim_token+domain_route:OE"}, {"md_atom_id": "md_dmOE_ex_a014", "md_file": "knowledge_base/domains/OE/examples.md", "md_atom_type": "TABLE_ROW", "md_parent_section": "§OE.1 [Example 1]", "md_verbatim": "| 1 | XXX | OE | XXX-450-110 | OESEQ | 3 | OEDIRT | Directionality 1 | SUPERIOR |", "score": 0.4356, "match_basis": "verbatim_token+domain_route:OE"}, {"md_atom_id": "md_dmOE_ex_a015", "md_file": "knowledge_base/domains/OE/examples.md", "md_atom_type": "TABLE_ROW", "md_parent_section": "§OE.1 [Example 1]", "md_verbatim": "| 2 | XXX | OE | XXX-450-110 | OESEQ | 3 | OEDIR2 | Directionality 2 | TEMPORAL |", "score": 0.4356, "match_basis": "verbatim_token+domain_route:OE"}], "candidate_count": 5, "zero_candidate": false}
{"pdf_atom_id": "ig34_p0300_a012", "pdf_atom_type": "TABLE_ROW", "pdf_source": "SDTMIG_v3.4", "pdf_page": 300, "pdf_parent_section": "§6.3.7.5 Ophthalmic Examinations (OE)", "pdf_verbatim": "| OEMETHOD | Method of Test or Examination | Char | (METHOD) | Record Qualifier | Method of the test or examination. Example: \"ETDRS EYE CHART\" for OETESTCD = \"NUMLCOR\". The different methods may offer different functionality or granularity, affecting the set of results and associated meaning. | Exp |", "figure_ref": null, "candidates": [{"md_atom_id": "md_dmOE_ex_a010", "md_file": "knowledge_base/domains/OE/examples.md", "md_atom_type": "TABLE_ROW", "md_parent_section": "§OE.1 [Example 1]", "md_verbatim": "| 3 | XXX | OE | XXX-450-110 | OD | 3 | OEEXAM | Ophthalmic Examination | RED SPOT VISIBLE | RED SPOT VISIBLE | CONJUNCTIVA | RIGHT | MULTIPLE | SLIT LAMP BIOMICROSCOPY | INVESTIGATOR | Y | 1 | SCREENING | 2012-03-20 |", "score": 0.4708, "match_basis": "verbatim_token+domain_route:OE"}, {"md_atom_id": "md_dmOE_ex_a014", "md_file": "knowledge_base/domains/OE/examples.md", "md_atom_type": "TABLE_ROW", "md_parent_section": "§OE.1 [Example 1]", "md_verbatim": "| 1 | XXX | OE | XXX-450-110 | OESEQ | 3 | OEDIRT | Directionality 1 | SUPERIOR |", "score": 0.4517, "match_basis": "verbatim_token+domain_route:OE"}, {"md_atom_id": "md_dmOE_ex_a015", "md_file": "knowledge_base/domains/OE/examples.md", "md_atom_type": "TABLE_ROW", "md_parent_section": "§OE.1 [Example 1]", "md_verbatim": "| 2 | XXX | OE | XXX-450-110 | OESEQ | 3 | OEDIR2 | Directionality 2 | TEMPORAL |", "score": 0.4517, "match_basis": "verbatim_token+domain_route:OE"}, {"md_atom_id": "md_dmOE_ex_a096", "md_file": "knowledge_base/domains/OE/examples.md", "md_atom_type": "TABLE_ROW", "md_parent_section": "§OE.4 [Example 4]", "md_verbatim": "| 4 | XYZ | OE | XYZ-100-0001 | OS | 2 | EYDCOMGR | Eye Drop Comfort Grade | OCULAR COMFORT | 10 | 10 | 10 | EYE | LEFT | VISUAL ANALOG SCALE | STUDY SUBJECT | 1 | VISIT 1 | 2011-05-01T09:01 | 1 MINUTE POST-INSTILLATION | 2 |", "score": 0.4465, "match_basis": "verbatim_token+domain_route:OE"}, {"md_atom_id": "md_dmOE_ex_a094", "md_file": "knowledge_base/domains/OE/examples.md", "md_atom_type": "TABLE_ROW", "md_parent_section": "§OE.4 [Example 4]", "md_verbatim": "| 2 | XYZ | OE | XYZ-100-0001 | OD | 2 | EYDCOMGR | Eye Drop Comfort Grade | OCULAR COMFORT | 10 | 10 | 10 | EYE | RIGHT | VISUAL ANALOG SCALE | STUDY SUBJECT | 1 | VISIT 1 | 2011-02-11T09:01 | 1 MINUTE POST-INSTILLATION | 2 |", "score": 0.4462, "match_basis": "verbatim_token+domain_route:OE"}], "candidate_count": 5, "zero_candidate": false}
{"pdf_atom_id": "ig34_p0300_a013", "pdf_atom_type": "TABLE_ROW", "pdf_source": "SDTMIG_v3.4", "pdf_page": 300, "pdf_parent_section": "§6.3.7.5 Ophthalmic Examinations (OE)", "pdf_verbatim": "| OELOBXFL | Last Observation Before Exposure Flag | Char | (NY) | Record Qualifier | Operationally derived indicator used to identify the last non-missing value prior to RFXSTDTC. The value should be \"Y\" or null. | Exp |", "figure_ref": null, "candidates": [{"md_atom_id": "md_dmOE_ex_a014", "md_file": "knowledge_base/domains/OE/examples.md", "md_atom_type": "TABLE_ROW", "md_parent_section": "§OE.1 [Example 1]", "md_verbatim": "| 1 | XXX | OE | XXX-450-110 | OESEQ | 3 | OEDIRT | Directionality 1 | SUPERIOR |", "score": 0.4536, "match_basis": "verbatim_token+domain_route:OE"}, {"md_atom_id": "md_dmOE_ex_a059", "md_file": "knowledge_base/domains/OE/examples.md", "md_atom_type": "TABLE_ROW", "md_parent_section": "§OE.3 [Example 3]", "md_verbatim": "| 1 | XYZ | OE | XYZ-100-001 | OELNKID | 1 | OEEVLDTC | Evaluation Date | 2012-04-30 |", "score": 0.4368, "match_basis": "verbatim_token+domain_route:OE"}, {"md_atom_id": "md_dmOE_ex_a060", "md_file": "knowledge_base/domains/OE/examples.md", "md_atom_type": "TABLE_ROW", "md_parent_section": "§OE.3 [Example 3]", "md_verbatim": "| 2 | XYZ | OE | XYZ-100-001 | OELNKID | 2 | OEEVLDTC | Evaluation Date | 2012-04-30 |", "score": 0.4368, "match_basis": "verbatim_token+domain_route:OE"}, {"md_atom_id": "md_dmOE_ex_a015", "md_file": "knowledge_base/domains/OE/examples.md", "md_atom_type": "TABLE_ROW", "md_parent_section": "§OE.1 [Example 1]", "md_verbatim": "| 2 | XXX | OE | XXX-450-110 | OESEQ | 3 | OEDIR2 | Directionality 2 | TEMPORAL |", "score": 0.431, "match_basis": "verbatim_token+domain_route:OE"}, {"md_atom_id": "md_dmOE_ex_a096", "md_file": "knowledge_base/domains/OE/examples.md", "md_atom_type": "TABLE_ROW", "md_parent_section": "§OE.4 [Example 4]", "md_verbatim": "| 4 | XYZ | OE | XYZ-100-0001 | OS | 2 | EYDCOMGR | Eye Drop Comfort Grade | OCULAR COMFORT | 10 | 10 | 10 | EYE | LEFT | VISUAL ANALOG SCALE | STUDY SUBJECT | 1 | VISIT 1 | 2011-05-01T09:01 | 1 MINUTE POST-INSTILLATION | 2 |", "score": 0.4269, "match_basis": "verbatim_token+domain_route:OE"}], "candidate_count": 5, "zero_candidate": false}
{"pdf_atom_id": "ig34_p0300_a014", "pdf_atom_type": "TABLE_ROW", "pdf_source": "SDTMIG_v3.4", "pdf_page": 300, "pdf_parent_section": "§6.3.7.5 Ophthalmic Examinations (OE)", "pdf_verbatim": "| OEBLFL | Baseline Flag | Char | (NY) | Record Qualifier | Indicator used to identify a baseline value. Should be \"Y\" or null. Note that OEBLFL is retained for backward compatibility. The authoritative baseline for statistical analysis is in an ADaM dataset. | Perm |", "figure_ref": null, "candidates": [{"md_atom_id": "md_dmOE_ex_a008", "md_file": "knowledge_base/domains/OE/examples.md", "md_atom_type": "TABLE_ROW", "md_parent_section": "§OE.1 [Example 1]", "md_verbatim": "| 1 | XXX | OE | XXX-450-110 | OS | 1 | INTP | Interpretation | NORMAL | NORMAL | LENS | LEFT | | SLIT LAMP BIOMICROSCOPY | INVESTIGATOR | | 1 | SCREENING | 2012-03-20 |", "score": 0.4306, "match_basis": "verbatim_token+domain_route:OE"}, {"md_atom_id": "md_dmOE_ex_a032", "md_file": "knowledge_base/domains/OE/examples.md", "md_atom_type": "TABLE_ROW", "md_parent_section": "§OE.2 [Example 2]", "md_verbatim": "| 6 | XXX | OE | XXX-450-120 | OS | 6 | HYPERMIA | Hyperemia | ABSENT | | ABSENT | | | CONJUNCTIVA | LEFT | OPHTHALMOSCOPY | INVESTIGATOR | | 1 | SCREENING | 2012-04-20 |", "score": 0.4306, "match_basis": "verbatim_token+domain_route:OE"}, {"md_atom_id": "md_dmOE_ex_a031", "md_file": "knowledge_base/domains/OE/examples.md", "md_atom_type": "TABLE_ROW", "md_parent_section": "§OE.2 [Example 2]", "md_verbatim": "| 5 | XXX | OE | XXX-450-120 | OD | 5 | HYPERMIA | Hyperemia | PRESENT | | PRESENT | | | CONJUNCTIVA | RIGHT | OPHTHALMOSCOPY | INVESTIGATOR | Y | 1 | SCREENING | 2012-04-20 |", "score": 0.4302, "match_basis": "verbatim_token+domain_route:OE"}, {"md_atom_id": "md_dmOE_ex_a009", "md_file": "knowledge_base/domains/OE/examples.md", "md_atom_type": "TABLE_ROW", "md_parent_section": "§OE.1 [Example 1]", "md_verbatim": "| 2 | XXX | OE | XXX-450-110 | OD | 2 | INTP | Interpretation | ABNORMAL | ABNORMAL | LENS | RIGHT | | SLIT LAMP BIOMICROSCOPY | INVESTIGATOR | | 1 | SCREENING | 2012-03-20 |", "score": 0.43, "match_basis": "verbatim_token+domain_route:OE"}, {"md_atom_id": "md_dmOE_ex_a095", "md_file": "knowledge_base/domains/OE/examples.md", "md_atom_type": "TABLE_ROW", "md_parent_section": "§OE.4 [Example 4]", "md_verbatim": "| 3 | XYZ | OE | XYZ-100-0001 | OS | 1 | EYDCOMGR | Eye Drop Comfort Grade | OCULAR COMFORT | 1 | 1 | 1 | EYE | LEFT | VISUAL ANALOG SCALE | STUDY SUBJECT | 1 | VISIT 1 | 2011-05-01T09:00 | UPON INSTILLATION | 1 |", "score": 0.4294, "match_basis": "verbatim_token+domain_route:OE"}], "candidate_count": 5, "zero_candidate": false}
{"pdf_atom_id": "ig34_p0300_a015", "pdf_atom_type": "TABLE_ROW", "pdf_source": "SDTMIG_v3.4", "pdf_page": 300, "pdf_parent_section": "§6.3.7.5 Ophthalmic Examinations (OE)", "pdf_verbatim": "| OEDRVFL | Derived Flag | Char | (NY) | Record Qualifier | Used to indicate a derived record (e.g., a record that represents the average of other records such as a computed baseline). Should be \"Y\" or null. | Perm |", "figure_ref": null, "candidates": [{"md_atom_id": "md_dmOE_ex_a052", "md_file": "knowledge_base/domains/OE/examples.md", "md_atom_type": "TABLE_ROW", "md_parent_section": "§OE.3 [Example 3]", "md_verbatim": "| 3 | XYZ | OE | XYZ-100-001 | OS | 3 | 1 | EDEMA | Edema | PRESENT | | PRESENT | | | MACULA | LEFT | OPTICAL COHERENCE TOMOGRAPHY | INDEPENDENT ASSESSOR | | 1 | SCREENING | 2012-04-25 |", "score": 0.4384, "match_basis": "verbatim_token+domain_route:OE"}, {"md_atom_id": "md_dmOE_ex_a031", "md_file": "knowledge_base/domains/OE/examples.md", "md_atom_type": "TABLE_ROW", "md_parent_section": "§OE.2 [Example 2]", "md_verbatim": "| 5 | XXX | OE | XXX-450-120 | OD | 5 | HYPERMIA | Hyperemia | PRESENT | | PRESENT | | | CONJUNCTIVA | RIGHT | OPHTHALMOSCOPY | INVESTIGATOR | Y | 1 | SCREENING | 2012-04-20 |", "score": 0.4381, "match_basis": "verbatim_token+domain_route:OE"}, {"md_atom_id": "md_dmOE_ex_a014", "md_file": "knowledge_base/domains/OE/examples.md", "md_atom_type": "TABLE_ROW", "md_parent_section": "§OE.1 [Example 1]", "md_verbatim": "| 1 | XXX | OE | XXX-450-110 | OESEQ | 3 | OEDIRT | Directionality 1 | SUPERIOR |", "score": 0.4379, "match_basis": "verbatim_token+domain_route:OE"}, {"md_atom_id": "md_dmOE_ex_a050", "md_file": "knowledge_base/domains/OE/examples.md", "md_atom_type": "TABLE_ROW", "md_parent_section": "§OE.3 [Example 3]", "md_verbatim": "| 1 | XYZ | OE | XYZ-100-001 | OS | 1 | | EDEMA | Edema | PRESENT | | PRESENT | | | MACULA | LEFT | OPHTHALMOSCOPY | INVESTIGATOR | N | 1 | SCREENING | 2012-04-25 |", "score": 0.431, "match_basis": "verbatim_token+domain_route:OE"}, {"md_atom_id": "md_dmOE_ex_a015", "md_file": "knowledge_base/domains/OE/examples.md", "md_atom_type": "TABLE_ROW", "md_parent_section": "§OE.1 [Example 1]", "md_verbatim": "| 2 | XXX | OE | XXX-450-110 | OESEQ | 3 | OEDIR2 | Directionality 2 | TEMPORAL |", "score": 0.4247, "match_basis": "verbatim_token+domain_route:OE"}], "candidate_count": 5, "zero_candidate": false}
{"pdf_atom_id": "ig34_p0300_a016", "pdf_atom_type": "TABLE_ROW", "pdf_source": "SDTMIG_v3.4", "pdf_page": 300, "pdf_parent_section": "§6.3.7.5 Ophthalmic Examinations (OE)", "pdf_verbatim": "| OEEVAL | Evaluator | Char | (EVAL) | Record Qualifier | Role of the person who provided the evaluation. Used only for results that are subjective (e.g., assigned by a person or a group). Examples: \"INDEPENDENT ASSESSOR\", \"INVESTIGATOR\". | Perm |", "figure_ref": null, "candidates": [{"md_atom_id": "md_dmOE_ex_a010", "md_file": "knowledge_base/domains/OE/examples.md", "md_atom_type": "TABLE_ROW", "md_parent_section": "§OE.1 [Example 1]", "md_verbatim": "| 3 | XXX | OE | XXX-450-110 | OD | 3 | OEEXAM | Ophthalmic Examination | RED SPOT VISIBLE | RED SPOT VISIBLE | CONJUNCTIVA | RIGHT | MULTIPLE | SLIT LAMP BIOMICROSCOPY | INVESTIGATOR | Y | 1 | SCREENING | 2012-03-20 |", "score": 0.4846, "match_basis": "verbatim_token+domain_route:OE"}, {"md_atom_id": "md_dmOE_ex_a031", "md_file": "knowledge_base/domains/OE/examples.md", "md_atom_type": "TABLE_ROW", "md_parent_section": "§OE.2 [Example 2]", "md_verbatim": "| 5 | XXX | OE | XXX-450-120 | OD | 5 | HYPERMIA | Hyperemia | PRESENT | | PRESENT | | | CONJUNCTIVA | RIGHT | OPHTHALMOSCOPY | INVESTIGATOR | Y | 1 | SCREENING | 2012-04-20 |", "score": 0.4729, "match_basis": "verbatim_token+domain_route:OE"}, {"md_atom_id": "md_dmOE_ex_a032", "md_file": "knowledge_base/domains/OE/examples.md", "md_atom_type": "TABLE_ROW", "md_parent_section": "§OE.2 [Example 2]", "md_verbatim": "| 6 | XXX | OE | XXX-450-120 | OS | 6 | HYPERMIA | Hyperemia | ABSENT | | ABSENT | | | CONJUNCTIVA | LEFT | OPHTHALMOSCOPY | INVESTIGATOR | | 1 | SCREENING | 2012-04-20 |", "score": 0.4691, "match_basis": "verbatim_token+domain_route:OE"}, {"md_atom_id": "md_dmOE_ex_a052", "md_file": "knowledge_base/domains/OE/examples.md", "md_atom_type": "TABLE_ROW", "md_parent_section": "§OE.3 [Example 3]", "md_verbatim": "| 3 | XYZ | OE | XYZ-100-001 | OS | 3 | 1 | EDEMA | Edema | PRESENT | | PRESENT | | | MACULA | LEFT | OPTICAL COHERENCE TOMOGRAPHY | INDEPENDENT ASSESSOR | | 1 | SCREENING | 2012-04-25 |", "score": 0.4638, "match_basis": "verbatim_token+domain_route:OE"}, {"md_atom_id": "md_dmOE_ex_a008", "md_file": "knowledge_base/domains/OE/examples.md", "md_atom_type": "TABLE_ROW", "md_parent_section": "§OE.1 [Example 1]", "md_verbatim": "| 1 | XXX | OE | XXX-450-110 | OS | 1 | INTP | Interpretation | NORMAL | NORMAL | LENS | LEFT | | SLIT LAMP BIOMICROSCOPY | INVESTIGATOR | | 1 | SCREENING | 2012-03-20 |", "score": 0.4596, "match_basis": "verbatim_token+domain_route:OE"}], "candidate_count": 5, "zero_candidate": false}
