{"pdf_atom_id": "ig34_p0312_a027", "pdf_atom_type": "TABLE_ROW", "pdf_source": "SDTMIG_v3.4", "pdf_page": 312, "pdf_parent_section": "§6.3.7.8 Urinary System Findings (UR)", "pdf_verbatim": "| URTESTCD | Short Name of Urinary Test | Char | (URNSTSCD) | Topic | Short character value for URTEST used as a column name when converting a dataset from a vertical format to a horizontal format. It can be used as a column name when converting a dataset from a vertical to a horizontal format. The value in URTESTCD cannot be longer than 8 characters, nor can it start with a number (e.g., \"1TEST\" is not valid). URTESTCD cannot contain characters other than letters, numbers, or underscores. Examples: \"COUNT\", \"LENGTH\", \"RBLDFLW\". | Req |", "figure_ref": null, "candidates": [{"md_atom_id": "md_dmUR_ex_a013", "md_file": "knowledge_base/domains/UR/examples.md", "md_atom_type": "TABLE_ROW", "md_parent_section": "§UR.1 [Example 1]", "md_verbatim": "| 2 | ABC | UR | ABC-001-011 | 2 | RNLANUM | Number of Renal Arteries | 2 | | 2 | 2 | | KIDNEY | LEFT | | CT SCAN | 2016-03-30 |", "score": 0.4314, "match_basis": "verbatim_token+domain_route:UR"}, {"md_atom_id": "md_dmUR_ex_a016", "md_file": "knowledge_base/domains/UR/examples.md", "md_atom_type": "TABLE_ROW", "md_parent_section": "§UR.1 [Example 1]", "md_verbatim": "| 5 | ABC | UR | ABC-001-011 | 5 | SGDMGIND | Surgical Damage Indicator | Y | | Y | | | KIDNEY, CORTEX | LEFT | SUPERIOR | CT SCAN | 2016-03-30 |", "score": 0.4213, "match_basis": "verbatim_token+domain_route:UR"}, {"md_atom_id": "md_dmUR_ex_a012", "md_file": "knowledge_base/domains/UR/examples.md", "md_atom_type": "TABLE_ROW", "md_parent_section": "§UR.1 [Example 1]", "md_verbatim": "| 1 | ABC | UR | ABC-001-011 | 1 | LENGTH | Length | 12.6 | cm | 126 | 126 | mm | KIDNEY | LEFT | | CT SCAN | 2016-03-30 |", "score": 0.4208, "match_basis": "verbatim_token+domain_route:UR"}, {"md_atom_id": "md_dmUR_ex_a022", "md_file": "knowledge_base/domains/UR/examples.md", "md_atom_type": "TABLE_ROW", "md_parent_section": "§UR.2 [Example 2]", "md_verbatim": "| 1 | DEF | UR | DEF-0123 | 1 | BLDFLRT | Blood Flow Rate | 20 | mL/min | 20 | 20 | mL/min | KIDNEY | BILATERAL | PARA-AMINO HIPPURIC ACID CLEARANCE | 1 | VISIT 1 | 2016-03-15 |", "score": 0.4207, "match_basis": "verbatim_token+domain_route:UR"}, {"md_atom_id": "md_dmUR_ex_a014", "md_file": "knowledge_base/domains/UR/examples.md", "md_atom_type": "TABLE_ROW", "md_parent_section": "§UR.1 [Example 1]", "md_verbatim": "| 3 | ABC | UR | ABC-001-011 | 3 | RNLVNUM | Number of Renal Veins | 1 | | 1 | 1 | | KIDNEY | LEFT | | CT SCAN | 2016-03-30 |", "score": 0.4196, "match_basis": "verbatim_token+domain_route:UR"}], "candidate_count": 5, "zero_candidate": false}
{"pdf_atom_id": "ig34_p0313_a001", "pdf_atom_type": "TABLE_ROW", "pdf_source": "SDTMIG_v3.4", "pdf_page": 313, "pdf_parent_section": "§6.3.7.8 Urinary System Findings (UR)", "pdf_verbatim": "| URTEST | Name of Urinary Test | Char | (URNSTS) | Synonym Qualifier | Long name For URTESTCD. Examples: \"Count\", \"Length\", \"Renal Blood Flow\". | Req |", "figure_ref": null, "candidates": [{"md_atom_id": "md_dmUR_ex_a023", "md_file": "knowledge_base/domains/UR/examples.md", "md_atom_type": "TABLE_ROW", "md_parent_section": "§UR.2 [Example 2]", "md_verbatim": "| 2 | DEF | UR | DEF-0123 | 2 | BLDFLRT | Blood Flow Rate | 10 | mL/min | 10 | 10 | mL/min | KIDNEY | LEFT | PARA-AMINO HIPPURIC ACID CLEARANCE | 2 | VISIT 2 | 2016-03-20 |", "score": 0.4379, "match_basis": "verbatim_token+domain_route:UR"}, {"md_atom_id": "md_dmUR_ex_a024", "md_file": "knowledge_base/domains/UR/examples.md", "md_atom_type": "TABLE_ROW", "md_parent_section": "§UR.2 [Example 2]", "md_verbatim": "| 3 | DEF | UR | DEF-0123 | 3 | BLDFLRT | Blood Flow Rate | 10 | mL/min | 10 | 10 | mL/min | KIDNEY | RIGHT | PARA-AMINO HIPPURIC ACID CLEARANCE | 3 | VISIT 3 | 2016-04-07 |", "score": 0.4375, "match_basis": "verbatim_token+domain_route:UR"}, {"md_atom_id": "md_dmUR_ex_a022", "md_file": "knowledge_base/domains/UR/examples.md", "md_atom_type": "TABLE_ROW", "md_parent_section": "§UR.2 [Example 2]", "md_verbatim": "| 1 | DEF | UR | DEF-0123 | 1 | BLDFLRT | Blood Flow Rate | 20 | mL/min | 20 | 20 | mL/min | KIDNEY | BILATERAL | PARA-AMINO HIPPURIC ACID CLEARANCE | 1 | VISIT 1 | 2016-03-15 |", "score": 0.4364, "match_basis": "verbatim_token+domain_route:UR"}, {"md_atom_id": "md_dmUR_ex_a012", "md_file": "knowledge_base/domains/UR/examples.md", "md_atom_type": "TABLE_ROW", "md_parent_section": "§UR.1 [Example 1]", "md_verbatim": "| 1 | ABC | UR | ABC-001-011 | 1 | LENGTH | Length | 12.6 | cm | 126 | 126 | mm | KIDNEY | LEFT | | CT SCAN | 2016-03-30 |", "score": 0.4343, "match_basis": "verbatim_token+domain_route:UR"}, {"md_atom_id": "md_dmUR_ex_a013", "md_file": "knowledge_base/domains/UR/examples.md", "md_atom_type": "TABLE_ROW", "md_parent_section": "§UR.1 [Example 1]", "md_verbatim": "| 2 | ABC | UR | ABC-001-011 | 2 | RNLANUM | Number of Renal Arteries | 2 | | 2 | 2 | | KIDNEY | LEFT | | CT SCAN | 2016-03-30 |", "score": 0.4293, "match_basis": "verbatim_token+domain_route:UR"}], "candidate_count": 5, "zero_candidate": false}
{"pdf_atom_id": "ig34_p0313_a002", "pdf_atom_type": "TABLE_ROW", "pdf_source": "SDTMIG_v3.4", "pdf_page": 313, "pdf_parent_section": "§6.3.7.8 Urinary System Findings (UR)", "pdf_verbatim": "| URTSTDTL | Urinary Test Detail | Char | * | Variable Qualifier | Further description of URTESTCD and URTEST. | Perm |", "figure_ref": null, "candidates": [{"md_atom_id": "md_dmUR_ex_a016", "md_file": "knowledge_base/domains/UR/examples.md", "md_atom_type": "TABLE_ROW", "md_parent_section": "§UR.1 [Example 1]", "md_verbatim": "| 5 | ABC | UR | ABC-001-011 | 5 | SGDMGIND | Surgical Damage Indicator | Y | | Y | | | KIDNEY, CORTEX | LEFT | SUPERIOR | CT SCAN | 2016-03-30 |", "score": 0.4129, "match_basis": "verbatim_token+domain_route:UR"}, {"md_atom_id": "md_dmUR_ex_a013", "md_file": "knowledge_base/domains/UR/examples.md", "md_atom_type": "TABLE_ROW", "md_parent_section": "§UR.1 [Example 1]", "md_verbatim": "| 2 | ABC | UR | ABC-001-011 | 2 | RNLANUM | Number of Renal Arteries | 2 | | 2 | 2 | | KIDNEY | LEFT | | CT SCAN | 2016-03-30 |", "score": 0.4075, "match_basis": "verbatim_token+domain_route:UR"}, {"md_atom_id": "md_dmUR_ex_a023", "md_file": "knowledge_base/domains/UR/examples.md", "md_atom_type": "TABLE_ROW", "md_parent_section": "§UR.2 [Example 2]", "md_verbatim": "| 2 | DEF | UR | DEF-0123 | 2 | BLDFLRT | Blood Flow Rate | 10 | mL/min | 10 | 10 | mL/min | KIDNEY | LEFT | PARA-AMINO HIPPURIC ACID CLEARANCE | 2 | VISIT 2 | 2016-03-20 |", "score": 0.4063, "match_basis": "verbatim_token+domain_route:UR"}, {"md_atom_id": "md_dmUR_ex_a024", "md_file": "knowledge_base/domains/UR/examples.md", "md_atom_type": "TABLE_ROW", "md_parent_section": "§UR.2 [Example 2]", "md_verbatim": "| 3 | DEF | UR | DEF-0123 | 3 | BLDFLRT | Blood Flow Rate | 10 | mL/min | 10 | 10 | mL/min | KIDNEY | RIGHT | PARA-AMINO HIPPURIC ACID CLEARANCE | 3 | VISIT 3 | 2016-04-07 |", "score": 0.4062, "match_basis": "verbatim_token+domain_route:UR"}, {"md_atom_id": "md_dmUR_ex_a022", "md_file": "knowledge_base/domains/UR/examples.md", "md_atom_type": "TABLE_ROW", "md_parent_section": "§UR.2 [Example 2]", "md_verbatim": "| 1 | DEF | UR | DEF-0123 | 1 | BLDFLRT | Blood Flow Rate | 20 | mL/min | 20 | 20 | mL/min | KIDNEY | BILATERAL | PARA-AMINO HIPPURIC ACID CLEARANCE | 1 | VISIT 1 | 2016-03-15 |", "score": 0.4061, "match_basis": "verbatim_token+domain_route:UR"}], "candidate_count": 5, "zero_candidate": false}
{"pdf_atom_id": "ig34_p0313_a003", "pdf_atom_type": "TABLE_ROW", "pdf_source": "SDTMIG_v3.4", "pdf_page": 313, "pdf_parent_section": "§6.3.7.8 Urinary System Findings (UR)", "pdf_verbatim": "| URCAT | Category for Urinary Test | Char | * | Grouping Qualifier | Used to define a category of topic-variable values. | Perm |", "figure_ref": null, "candidates": [{"md_atom_id": "md_dmUR_ex_a023", "md_file": "knowledge_base/domains/UR/examples.md", "md_atom_type": "TABLE_ROW", "md_parent_section": "§UR.2 [Example 2]", "md_verbatim": "| 2 | DEF | UR | DEF-0123 | 2 | BLDFLRT | Blood Flow Rate | 10 | mL/min | 10 | 10 | mL/min | KIDNEY | LEFT | PARA-AMINO HIPPURIC ACID CLEARANCE | 2 | VISIT 2 | 2016-03-20 |", "score": 0.4191, "match_basis": "verbatim_token+domain_route:UR"}, {"md_atom_id": "md_dmUR_ex_a024", "md_file": "knowledge_base/domains/UR/examples.md", "md_atom_type": "TABLE_ROW", "md_parent_section": "§UR.2 [Example 2]", "md_verbatim": "| 3 | DEF | UR | DEF-0123 | 3 | BLDFLRT | Blood Flow Rate | 10 | mL/min | 10 | 10 | mL/min | KIDNEY | RIGHT | PARA-AMINO HIPPURIC ACID CLEARANCE | 3 | VISIT 3 | 2016-04-07 |", "score": 0.4189, "match_basis": "verbatim_token+domain_route:UR"}, {"md_atom_id": "md_dmUR_ex_a022", "md_file": "knowledge_base/domains/UR/examples.md", "md_atom_type": "TABLE_ROW", "md_parent_section": "§UR.2 [Example 2]", "md_verbatim": "| 1 | DEF | UR | DEF-0123 | 1 | BLDFLRT | Blood Flow Rate | 20 | mL/min | 20 | 20 | mL/min | KIDNEY | BILATERAL | PARA-AMINO HIPPURIC ACID CLEARANCE | 1 | VISIT 1 | 2016-03-15 |", "score": 0.4184, "match_basis": "verbatim_token+domain_route:UR"}, {"md_atom_id": "md_dmUR_ex_a016", "md_file": "knowledge_base/domains/UR/examples.md", "md_atom_type": "TABLE_ROW", "md_parent_section": "§UR.1 [Example 1]", "md_verbatim": "| 5 | ABC | UR | ABC-001-011 | 5 | SGDMGIND | Surgical Damage Indicator | Y | | Y | | | KIDNEY, CORTEX | LEFT | SUPERIOR | CT SCAN | 2016-03-30 |", "score": 0.4128, "match_basis": "verbatim_token+domain_route:UR"}, {"md_atom_id": "md_dmUR_ex_a015", "md_file": "knowledge_base/domains/UR/examples.md", "md_atom_type": "TABLE_ROW", "md_parent_section": "§UR.1 [Example 1]", "md_verbatim": "| 4 | ABC | UR | ABC-001-011 | 4 | HEMAIND | Hematoma Indicator | N | | N | | | KIDNEY | | | CT SCAN | 2016-03-30 |", "score": 0.4079, "match_basis": "verbatim_token+domain_route:UR"}], "candidate_count": 5, "zero_candidate": false}
{"pdf_atom_id": "ig34_p0313_a004", "pdf_atom_type": "TABLE_ROW", "pdf_source": "SDTMIG_v3.4", "pdf_page": 313, "pdf_parent_section": "§6.3.7.8 Urinary System Findings (UR)", "pdf_verbatim": "| URSCAT | Subcategory for Urinary Test | Char | * | Grouping Qualifier | Used to define a further categorization of URCAT values. | Perm |", "figure_ref": null, "candidates": [{"md_atom_id": "md_dmUR_ex_a016", "md_file": "knowledge_base/domains/UR/examples.md", "md_atom_type": "TABLE_ROW", "md_parent_section": "§UR.1 [Example 1]", "md_verbatim": "| 5 | ABC | UR | ABC-001-011 | 5 | SGDMGIND | Surgical Damage Indicator | Y | | Y | | | KIDNEY, CORTEX | LEFT | SUPERIOR | CT SCAN | 2016-03-30 |", "score": 0.4176, "match_basis": "verbatim_token+domain_route:UR"}, {"md_atom_id": "md_dmUR_ex_a023", "md_file": "knowledge_base/domains/UR/examples.md", "md_atom_type": "TABLE_ROW", "md_parent_section": "§UR.2 [Example 2]", "md_verbatim": "| 2 | DEF | UR | DEF-0123 | 2 | BLDFLRT | Blood Flow Rate | 10 | mL/min | 10 | 10 | mL/min | KIDNEY | LEFT | PARA-AMINO HIPPURIC ACID CLEARANCE | 2 | VISIT 2 | 2016-03-20 |", "score": 0.4175, "match_basis": "verbatim_token+domain_route:UR"}, {"md_atom_id": "md_dmUR_ex_a024", "md_file": "knowledge_base/domains/UR/examples.md", "md_atom_type": "TABLE_ROW", "md_parent_section": "§UR.2 [Example 2]", "md_verbatim": "| 3 | DEF | UR | DEF-0123 | 3 | BLDFLRT | Blood Flow Rate | 10 | mL/min | 10 | 10 | mL/min | KIDNEY | RIGHT | PARA-AMINO HIPPURIC ACID CLEARANCE | 3 | VISIT 3 | 2016-04-07 |", "score": 0.4173, "match_basis": "verbatim_token+domain_route:UR"}, {"md_atom_id": "md_dmUR_ex_a022", "md_file": "knowledge_base/domains/UR/examples.md", "md_atom_type": "TABLE_ROW", "md_parent_section": "§UR.2 [Example 2]", "md_verbatim": "| 1 | DEF | UR | DEF-0123 | 1 | BLDFLRT | Blood Flow Rate | 20 | mL/min | 20 | 20 | mL/min | KIDNEY | BILATERAL | PARA-AMINO HIPPURIC ACID CLEARANCE | 1 | VISIT 1 | 2016-03-15 |", "score": 0.4168, "match_basis": "verbatim_token+domain_route:UR"}, {"md_atom_id": "md_dmUR_ex_a015", "md_file": "knowledge_base/domains/UR/examples.md", "md_atom_type": "TABLE_ROW", "md_parent_section": "§UR.1 [Example 1]", "md_verbatim": "| 4 | ABC | UR | ABC-001-011 | 4 | HEMAIND | Hematoma Indicator | N | | N | | | KIDNEY | | | CT SCAN | 2016-03-30 |", "score": 0.4143, "match_basis": "verbatim_token+domain_route:UR"}], "candidate_count": 5, "zero_candidate": false}
{"pdf_atom_id": "ig34_p0313_a005", "pdf_atom_type": "TABLE_ROW", "pdf_source": "SDTMIG_v3.4", "pdf_page": 313, "pdf_parent_section": "§6.3.7.8 Urinary System Findings (UR)", "pdf_verbatim": "| URORRES | Result or Finding in Original Units | Char | | Result Qualifier | Result of the measurement or finding as originally received or collected. | Exp |", "figure_ref": null, "candidates": [{"md_atom_id": "md_dmUR_ex_a016", "md_file": "knowledge_base/domains/UR/examples.md", "md_atom_type": "TABLE_ROW", "md_parent_section": "§UR.1 [Example 1]", "md_verbatim": "| 5 | ABC | UR | ABC-001-011 | 5 | SGDMGIND | Surgical Damage Indicator | Y | | Y | | | KIDNEY, CORTEX | LEFT | SUPERIOR | CT SCAN | 2016-03-30 |", "score": 0.4247, "match_basis": "verbatim_token+domain_route:UR"}, {"md_atom_id": "md_dmUR_ex_a015", "md_file": "knowledge_base/domains/UR/examples.md", "md_atom_type": "TABLE_ROW", "md_parent_section": "§UR.1 [Example 1]", "md_verbatim": "| 4 | ABC | UR | ABC-001-011 | 4 | HEMAIND | Hematoma Indicator | N | | N | | | KIDNEY | | | CT SCAN | 2016-03-30 |", "score": 0.415, "match_basis": "verbatim_token+domain_route:UR"}, {"md_atom_id": "md_dmUR_ex_a014", "md_file": "knowledge_base/domains/UR/examples.md", "md_atom_type": "TABLE_ROW", "md_parent_section": "§UR.1 [Example 1]", "md_verbatim": "| 3 | ABC | UR | ABC-001-011 | 3 | RNLVNUM | Number of Renal Veins | 1 | | 1 | 1 | | KIDNEY | LEFT | | CT SCAN | 2016-03-30 |", "score": 0.4072, "match_basis": "verbatim_token+domain_route:UR"}, {"md_atom_id": "md_dmUR_ex_a013", "md_file": "knowledge_base/domains/UR/examples.md", "md_atom_type": "TABLE_ROW", "md_parent_section": "§UR.1 [Example 1]", "md_verbatim": "| 2 | ABC | UR | ABC-001-011 | 2 | RNLANUM | Number of Renal Arteries | 2 | | 2 | 2 | | KIDNEY | LEFT | | CT SCAN | 2016-03-30 |", "score": 0.407, "match_basis": "verbatim_token+domain_route:UR"}, {"md_atom_id": "md_dmUR_ex_a024", "md_file": "knowledge_base/domains/UR/examples.md", "md_atom_type": "TABLE_ROW", "md_parent_section": "§UR.2 [Example 2]", "md_verbatim": "| 3 | DEF | UR | DEF-0123 | 3 | BLDFLRT | Blood Flow Rate | 10 | mL/min | 10 | 10 | mL/min | KIDNEY | RIGHT | PARA-AMINO HIPPURIC ACID CLEARANCE | 3 | VISIT 3 | 2016-04-07 |", "score": 0.4059, "match_basis": "verbatim_token+domain_route:UR"}], "candidate_count": 5, "zero_candidate": false}
{"pdf_atom_id": "ig34_p0313_a006", "pdf_atom_type": "TABLE_ROW", "pdf_source": "SDTMIG_v3.4", "pdf_page": 313, "pdf_parent_section": "§6.3.7.8 Urinary System Findings (UR)", "pdf_verbatim": "| URORRESU | Original Units | Char | (UNIT) | Variable Qualifier | Unit for URORRES. | Perm |", "figure_ref": null, "candidates": [{"md_atom_id": "md_dmUR_ex_a016", "md_file": "knowledge_base/domains/UR/examples.md", "md_atom_type": "TABLE_ROW", "md_parent_section": "§UR.1 [Example 1]", "md_verbatim": "| 5 | ABC | UR | ABC-001-011 | 5 | SGDMGIND | Surgical Damage Indicator | Y | | Y | | | KIDNEY, CORTEX | LEFT | SUPERIOR | CT SCAN | 2016-03-30 |", "score": 0.416, "match_basis": "verbatim_token+domain_route:UR"}, {"md_atom_id": "md_dmUR_ex_a014", "md_file": "knowledge_base/domains/UR/examples.md", "md_atom_type": "TABLE_ROW", "md_parent_section": "§UR.1 [Example 1]", "md_verbatim": "| 3 | ABC | UR | ABC-001-011 | 3 | RNLVNUM | Number of Renal Veins | 1 | | 1 | 1 | | KIDNEY | LEFT | | CT SCAN | 2016-03-30 |", "score": 0.4102, "match_basis": "verbatim_token+domain_route:UR"}, {"md_atom_id": "md_dmUR_ex_a013", "md_file": "knowledge_base/domains/UR/examples.md", "md_atom_type": "TABLE_ROW", "md_parent_section": "§UR.1 [Example 1]", "md_verbatim": "| 2 | ABC | UR | ABC-001-011 | 2 | RNLANUM | Number of Renal Arteries | 2 | | 2 | 2 | | KIDNEY | LEFT | | CT SCAN | 2016-03-30 |", "score": 0.4097, "match_basis": "verbatim_token+domain_route:UR"}, {"md_atom_id": "md_dmUR_ex_a024", "md_file": "knowledge_base/domains/UR/examples.md", "md_atom_type": "TABLE_ROW", "md_parent_section": "§UR.2 [Example 2]", "md_verbatim": "| 3 | DEF | UR | DEF-0123 | 3 | BLDFLRT | Blood Flow Rate | 10 | mL/min | 10 | 10 | mL/min | KIDNEY | RIGHT | PARA-AMINO HIPPURIC ACID CLEARANCE | 3 | VISIT 3 | 2016-04-07 |", "score": 0.4077, "match_basis": "verbatim_token+domain_route:UR"}, {"md_atom_id": "md_dmUR_ex_a012", "md_file": "knowledge_base/domains/UR/examples.md", "md_atom_type": "TABLE_ROW", "md_parent_section": "§UR.1 [Example 1]", "md_verbatim": "| 1 | ABC | UR | ABC-001-011 | 1 | LENGTH | Length | 12.6 | cm | 126 | 126 | mm | KIDNEY | LEFT | | CT SCAN | 2016-03-30 |", "score": 0.4, "match_basis": "verbatim_token+domain_route:UR"}], "candidate_count": 5, "zero_candidate": false}
{"pdf_atom_id": "ig34_p0313_a007", "pdf_atom_type": "TABLE_ROW", "pdf_source": "SDTMIG_v3.4", "pdf_page": 313, "pdf_parent_section": "§6.3.7.8 Urinary System Findings (UR)", "pdf_verbatim": "| URSTRESC | Character Result/Finding in Std Format | Char | | Result Qualifier | Contains the result value for all findings copied or derived from URORRES, in a standard format or in standard units. URSTRESC should store all results or findings in character format; if results are numeric, they should also be stored in numeric format in URSTRESN. | Exp |", "figure_ref": null, "candidates": [{"md_atom_id": "md_dmUR_ex_a015", "md_file": "knowledge_base/domains/UR/examples.md", "md_atom_type": "TABLE_ROW", "md_parent_section": "§UR.1 [Example 1]", "md_verbatim": "| 4 | ABC | UR | ABC-001-011 | 4 | HEMAIND | Hematoma Indicator | N | | N | | | KIDNEY | | | CT SCAN | 2016-03-30 |", "score": 0.4278, "match_basis": "verbatim_token+domain_route:UR"}, {"md_atom_id": "md_dmUR_ex_a016", "md_file": "knowledge_base/domains/UR/examples.md", "md_atom_type": "TABLE_ROW", "md_parent_section": "§UR.1 [Example 1]", "md_verbatim": "| 5 | ABC | UR | ABC-001-011 | 5 | SGDMGIND | Surgical Damage Indicator | Y | | Y | | | KIDNEY, CORTEX | LEFT | SUPERIOR | CT SCAN | 2016-03-30 |", "score": 0.4187, "match_basis": "verbatim_token+domain_route:UR"}, {"md_atom_id": "md_dmUR_ex_a013", "md_file": "knowledge_base/domains/UR/examples.md", "md_atom_type": "TABLE_ROW", "md_parent_section": "§UR.1 [Example 1]", "md_verbatim": "| 2 | ABC | UR | ABC-001-011 | 2 | RNLANUM | Number of Renal Arteries | 2 | | 2 | 2 | | KIDNEY | LEFT | | CT SCAN | 2016-03-30 |", "score": 0.4157, "match_basis": "verbatim_token+domain_route:UR"}, {"md_atom_id": "md_dmUR_ex_a022", "md_file": "knowledge_base/domains/UR/examples.md", "md_atom_type": "TABLE_ROW", "md_parent_section": "§UR.2 [Example 2]", "md_verbatim": "| 1 | DEF | UR | DEF-0123 | 1 | BLDFLRT | Blood Flow Rate | 20 | mL/min | 20 | 20 | mL/min | KIDNEY | BILATERAL | PARA-AMINO HIPPURIC ACID CLEARANCE | 1 | VISIT 1 | 2016-03-15 |", "score": 0.4134, "match_basis": "verbatim_token+domain_route:UR"}, {"md_atom_id": "md_dmUR_ex_a014", "md_file": "knowledge_base/domains/UR/examples.md", "md_atom_type": "TABLE_ROW", "md_parent_section": "§UR.1 [Example 1]", "md_verbatim": "| 3 | ABC | UR | ABC-001-011 | 3 | RNLVNUM | Number of Renal Veins | 1 | | 1 | 1 | | KIDNEY | LEFT | | CT SCAN | 2016-03-30 |", "score": 0.4106, "match_basis": "verbatim_token+domain_route:UR"}], "candidate_count": 5, "zero_candidate": false}
{"pdf_atom_id": "ig34_p0313_a008", "pdf_atom_type": "TABLE_ROW", "pdf_source": "SDTMIG_v3.4", "pdf_page": 313, "pdf_parent_section": "§6.3.7.8 Urinary System Findings (UR)", "pdf_verbatim": "| URSTRESN | Numeric Result/Finding in Standard Units | Num | | Result Qualifier | Used for continuous or numeric results or findings in standard format; copied in numeric format from URSTRESC. URSTRESN should store all numeric test results or findings. | Perm |", "figure_ref": null, "candidates": [{"md_atom_id": "md_dmUR_ex_a016", "md_file": "knowledge_base/domains/UR/examples.md", "md_atom_type": "TABLE_ROW", "md_parent_section": "§UR.1 [Example 1]", "md_verbatim": "| 5 | ABC | UR | ABC-001-011 | 5 | SGDMGIND | Surgical Damage Indicator | Y | | Y | | | KIDNEY, CORTEX | LEFT | SUPERIOR | CT SCAN | 2016-03-30 |", "score": 0.4275, "match_basis": "verbatim_token+domain_route:UR"}, {"md_atom_id": "md_dmUR_ex_a015", "md_file": "knowledge_base/domains/UR/examples.md", "md_atom_type": "TABLE_ROW", "md_parent_section": "§UR.1 [Example 1]", "md_verbatim": "| 4 | ABC | UR | ABC-001-011 | 4 | HEMAIND | Hematoma Indicator | N | | N | | | KIDNEY | | | CT SCAN | 2016-03-30 |", "score": 0.4264, "match_basis": "verbatim_token+domain_route:UR"}, {"md_atom_id": "md_dmUR_ex_a013", "md_file": "knowledge_base/domains/UR/examples.md", "md_atom_type": "TABLE_ROW", "md_parent_section": "§UR.1 [Example 1]", "md_verbatim": "| 2 | ABC | UR | ABC-001-011 | 2 | RNLANUM | Number of Renal Arteries | 2 | | 2 | 2 | | KIDNEY | LEFT | | CT SCAN | 2016-03-30 |", "score": 0.4122, "match_basis": "verbatim_token+domain_route:UR"}, {"md_atom_id": "md_dmUR_ex_a014", "md_file": "knowledge_base/domains/UR/examples.md", "md_atom_type": "TABLE_ROW", "md_parent_section": "§UR.1 [Example 1]", "md_verbatim": "| 3 | ABC | UR | ABC-001-011 | 3 | RNLVNUM | Number of Renal Veins | 1 | | 1 | 1 | | KIDNEY | LEFT | | CT SCAN | 2016-03-30 |", "score": 0.4062, "match_basis": "verbatim_token+domain_route:UR"}, {"md_atom_id": "md_dmUR_ex_a023", "md_file": "knowledge_base/domains/UR/examples.md", "md_atom_type": "TABLE_ROW", "md_parent_section": "§UR.2 [Example 2]", "md_verbatim": "| 2 | DEF | UR | DEF-0123 | 2 | BLDFLRT | Blood Flow Rate | 10 | mL/min | 10 | 10 | mL/min | KIDNEY | LEFT | PARA-AMINO HIPPURIC ACID CLEARANCE | 2 | VISIT 2 | 2016-03-20 |", "score": 0.4053, "match_basis": "verbatim_token+domain_route:UR"}], "candidate_count": 5, "zero_candidate": false}
{"pdf_atom_id": "ig34_p0313_a009", "pdf_atom_type": "TABLE_ROW", "pdf_source": "SDTMIG_v3.4", "pdf_page": 313, "pdf_parent_section": "§6.3.7.8 Urinary System Findings (UR)", "pdf_verbatim": "| URSTRESU | Standard Units | Char | (UNIT) | Variable Qualifier | Standardized units used for URSTRESC and URSTRESN. | Perm |", "figure_ref": null, "candidates": [{"md_atom_id": "md_dmUR_ex_a016", "md_file": "knowledge_base/domains/UR/examples.md", "md_atom_type": "TABLE_ROW", "md_parent_section": "§UR.1 [Example 1]", "md_verbatim": "| 5 | ABC | UR | ABC-001-011 | 5 | SGDMGIND | Surgical Damage Indicator | Y | | Y | | | KIDNEY, CORTEX | LEFT | SUPERIOR | CT SCAN | 2016-03-30 |", "score": 0.4071, "match_basis": "verbatim_token+domain_route:UR"}, {"md_atom_id": "md_dmUR_ex_a010", "md_file": "knowledge_base/domains/UR/examples.md", "md_atom_type": "TABLE_HEADER", "md_parent_section": "§UR.1 [Example 1]", "md_verbatim": "| Row | STUDYID | DOMAIN | USUBJID | URSEQ | URTESTCD | URTEST | URORRES | URORRESU | URSTRESC | URSTRESN | URSTRESU | URLOC | URLAT | URDIR | URMETHOD | URDTC |", "score": 0.4051, "match_basis": "verbatim_token+domain_route:UR"}, {"md_atom_id": "md_dmUR_ex_a012", "md_file": "knowledge_base/domains/UR/examples.md", "md_atom_type": "TABLE_ROW", "md_parent_section": "§UR.1 [Example 1]", "md_verbatim": "| 1 | ABC | UR | ABC-001-011 | 1 | LENGTH | Length | 12.6 | cm | 126 | 126 | mm | KIDNEY | LEFT | | CT SCAN | 2016-03-30 |", "score": 0.4, "match_basis": "verbatim_token+domain_route:UR"}, {"md_atom_id": "md_dmUR_ex_a013", "md_file": "knowledge_base/domains/UR/examples.md", "md_atom_type": "TABLE_ROW", "md_parent_section": "§UR.1 [Example 1]", "md_verbatim": "| 2 | ABC | UR | ABC-001-011 | 2 | RNLANUM | Number of Renal Arteries | 2 | | 2 | 2 | | KIDNEY | LEFT | | CT SCAN | 2016-03-30 |", "score": 0.4, "match_basis": "verbatim_token+domain_route:UR"}, {"md_atom_id": "md_dmUR_ex_a014", "md_file": "knowledge_base/domains/UR/examples.md", "md_atom_type": "TABLE_ROW", "md_parent_section": "§UR.1 [Example 1]", "md_verbatim": "| 3 | ABC | UR | ABC-001-011 | 3 | RNLVNUM | Number of Renal Veins | 1 | | 1 | 1 | | KIDNEY | LEFT | | CT SCAN | 2016-03-30 |", "score": 0.4, "match_basis": "verbatim_token+domain_route:UR"}], "candidate_count": 5, "zero_candidate": false}
{"pdf_atom_id": "ig34_p0313_a010", "pdf_atom_type": "TABLE_ROW", "pdf_source": "SDTMIG_v3.4", "pdf_page": 313, "pdf_parent_section": "§6.3.7.8 Urinary System Findings (UR)", "pdf_verbatim": "| URRESCAT | Result Category | Char | | Variable Qualifier | Used to categorize the result of a finding. | Perm |", "figure_ref": null, "candidates": [{"md_atom_id": "md_dmUR_ex_a015", "md_file": "knowledge_base/domains/UR/examples.md", "md_atom_type": "TABLE_ROW", "md_parent_section": "§UR.1 [Example 1]", "md_verbatim": "| 4 | ABC | UR | ABC-001-011 | 4 | HEMAIND | Hematoma Indicator | N | | N | | | KIDNEY | | | CT SCAN | 2016-03-30 |", "score": 0.4381, "match_basis": "verbatim_token+domain_route:UR"}, {"md_atom_id": "md_dmUR_ex_a016", "md_file": "knowledge_base/domains/UR/examples.md", "md_atom_type": "TABLE_ROW", "md_parent_section": "§UR.1 [Example 1]", "md_verbatim": "| 5 | ABC | UR | ABC-001-011 | 5 | SGDMGIND | Surgical Damage Indicator | Y | | Y | | | KIDNEY, CORTEX | LEFT | SUPERIOR | CT SCAN | 2016-03-30 |", "score": 0.437, "match_basis": "verbatim_token+domain_route:UR"}, {"md_atom_id": "md_dmUR_ex_a012", "md_file": "knowledge_base/domains/UR/examples.md", "md_atom_type": "TABLE_ROW", "md_parent_section": "§UR.1 [Example 1]", "md_verbatim": "| 1 | ABC | UR | ABC-001-011 | 1 | LENGTH | Length | 12.6 | cm | 126 | 126 | mm | KIDNEY | LEFT | | CT SCAN | 2016-03-30 |", "score": 0.4102, "match_basis": "verbatim_token+domain_route:UR"}, {"md_atom_id": "md_dmUR_ex_a014", "md_file": "knowledge_base/domains/UR/examples.md", "md_atom_type": "TABLE_ROW", "md_parent_section": "§UR.1 [Example 1]", "md_verbatim": "| 3 | ABC | UR | ABC-001-011 | 3 | RNLVNUM | Number of Renal Veins | 1 | | 1 | 1 | | KIDNEY | LEFT | | CT SCAN | 2016-03-30 |", "score": 0.4088, "match_basis": "verbatim_token+domain_route:UR"}, {"md_atom_id": "md_dmUR_ex_a013", "md_file": "knowledge_base/domains/UR/examples.md", "md_atom_type": "TABLE_ROW", "md_parent_section": "§UR.1 [Example 1]", "md_verbatim": "| 2 | ABC | UR | ABC-001-011 | 2 | RNLANUM | Number of Renal Arteries | 2 | | 2 | 2 | | KIDNEY | LEFT | | CT SCAN | 2016-03-30 |", "score": 0.4085, "match_basis": "verbatim_token+domain_route:UR"}], "candidate_count": 5, "zero_candidate": false}
{"pdf_atom_id": "ig34_p0313_a011", "pdf_atom_type": "TABLE_ROW", "pdf_source": "SDTMIG_v3.4", "pdf_page": 313, "pdf_parent_section": "§6.3.7.8 Urinary System Findings (UR)", "pdf_verbatim": "| URSTAT | Completion Status | Char | (ND) | Record Qualifier | Used to indicate that a question was not asked or a test was not done, or a test was attempted but did not generate a result. Should be null or have a value of \"NOT DONE\". | Perm |", "figure_ref": null, "candidates": [{"md_atom_id": "md_dmUR_ex_a016", "md_file": "knowledge_base/domains/UR/examples.md", "md_atom_type": "TABLE_ROW", "md_parent_section": "§UR.1 [Example 1]", "md_verbatim": "| 5 | ABC | UR | ABC-001-011 | 5 | SGDMGIND | Surgical Damage Indicator | Y | | Y | | | KIDNEY, CORTEX | LEFT | SUPERIOR | CT SCAN | 2016-03-30 |", "score": 0.4359, "match_basis": "verbatim_token+domain_route:UR"}, {"md_atom_id": "md_dmUR_ex_a015", "md_file": "knowledge_base/domains/UR/examples.md", "md_atom_type": "TABLE_ROW", "md_parent_section": "§UR.1 [Example 1]", "md_verbatim": "| 4 | ABC | UR | ABC-001-011 | 4 | HEMAIND | Hematoma Indicator | N | | N | | | KIDNEY | | | CT SCAN | 2016-03-30 |", "score": 0.43, "match_basis": "verbatim_token+domain_route:UR"}, {"md_atom_id": "md_dmUR_ex_a022", "md_file": "knowledge_base/domains/UR/examples.md", "md_atom_type": "TABLE_ROW", "md_parent_section": "§UR.2 [Example 2]", "md_verbatim": "| 1 | DEF | UR | DEF-0123 | 1 | BLDFLRT | Blood Flow Rate | 20 | mL/min | 20 | 20 | mL/min | KIDNEY | BILATERAL | PARA-AMINO HIPPURIC ACID CLEARANCE | 1 | VISIT 1 | 2016-03-15 |", "score": 0.4143, "match_basis": "verbatim_token+domain_route:UR"}, {"md_atom_id": "md_dmUR_ex_a023", "md_file": "knowledge_base/domains/UR/examples.md", "md_atom_type": "TABLE_ROW", "md_parent_section": "§UR.2 [Example 2]", "md_verbatim": "| 2 | DEF | UR | DEF-0123 | 2 | BLDFLRT | Blood Flow Rate | 10 | mL/min | 10 | 10 | mL/min | KIDNEY | LEFT | PARA-AMINO HIPPURIC ACID CLEARANCE | 2 | VISIT 2 | 2016-03-20 |", "score": 0.4098, "match_basis": "verbatim_token+domain_route:UR"}, {"md_atom_id": "md_dmUR_ex_a024", "md_file": "knowledge_base/domains/UR/examples.md", "md_atom_type": "TABLE_ROW", "md_parent_section": "§UR.2 [Example 2]", "md_verbatim": "| 3 | DEF | UR | DEF-0123 | 3 | BLDFLRT | Blood Flow Rate | 10 | mL/min | 10 | 10 | mL/min | KIDNEY | RIGHT | PARA-AMINO HIPPURIC ACID CLEARANCE | 3 | VISIT 3 | 2016-04-07 |", "score": 0.4097, "match_basis": "verbatim_token+domain_route:UR"}], "candidate_count": 5, "zero_candidate": false}
{"pdf_atom_id": "ig34_p0313_a012", "pdf_atom_type": "TABLE_ROW", "pdf_source": "SDTMIG_v3.4", "pdf_page": 313, "pdf_parent_section": "§6.3.7.8 Urinary System Findings (UR)", "pdf_verbatim": "| URREASND | Reason Not Done | Char | | Record Qualifier | Reason not done. Used in conjunction with URSTAT when value is \"NOT DONE\". | Perm |", "figure_ref": null, "candidates": [{"md_atom_id": "md_dmUR_ex_a016", "md_file": "knowledge_base/domains/UR/examples.md", "md_atom_type": "TABLE_ROW", "md_parent_section": "§UR.1 [Example 1]", "md_verbatim": "| 5 | ABC | UR | ABC-001-011 | 5 | SGDMGIND | Surgical Damage Indicator | Y | | Y | | | KIDNEY, CORTEX | LEFT | SUPERIOR | CT SCAN | 2016-03-30 |", "score": 0.4133, "match_basis": "verbatim_token+domain_route:UR"}, {"md_atom_id": "md_dmUR_ex_a012", "md_file": "knowledge_base/domains/UR/examples.md", "md_atom_type": "TABLE_ROW", "md_parent_section": "§UR.1 [Example 1]", "md_verbatim": "| 1 | ABC | UR | ABC-001-011 | 1 | LENGTH | Length | 12.6 | cm | 126 | 126 | mm | KIDNEY | LEFT | | CT SCAN | 2016-03-30 |", "score": 0.4, "match_basis": "verbatim_token+domain_route:UR"}, {"md_atom_id": "md_dmUR_ex_a013", "md_file": "knowledge_base/domains/UR/examples.md", "md_atom_type": "TABLE_ROW", "md_parent_section": "§UR.1 [Example 1]", "md_verbatim": "| 2 | ABC | UR | ABC-001-011 | 2 | RNLANUM | Number of Renal Arteries | 2 | | 2 | 2 | | KIDNEY | LEFT | | CT SCAN | 2016-03-30 |", "score": 0.4, "match_basis": "verbatim_token+domain_route:UR"}, {"md_atom_id": "md_dmUR_ex_a014", "md_file": "knowledge_base/domains/UR/examples.md", "md_atom_type": "TABLE_ROW", "md_parent_section": "§UR.1 [Example 1]", "md_verbatim": "| 3 | ABC | UR | ABC-001-011 | 3 | RNLVNUM | Number of Renal Veins | 1 | | 1 | 1 | | KIDNEY | LEFT | | CT SCAN | 2016-03-30 |", "score": 0.4, "match_basis": "verbatim_token+domain_route:UR"}, {"md_atom_id": "md_dmUR_ex_a015", "md_file": "knowledge_base/domains/UR/examples.md", "md_atom_type": "TABLE_ROW", "md_parent_section": "§UR.1 [Example 1]", "md_verbatim": "| 4 | ABC | UR | ABC-001-011 | 4 | HEMAIND | Hematoma Indicator | N | | N | | | KIDNEY | | | CT SCAN | 2016-03-30 |", "score": 0.4, "match_basis": "verbatim_token+domain_route:UR"}], "candidate_count": 5, "zero_candidate": false}
{"pdf_atom_id": "ig34_p0313_a013", "pdf_atom_type": "TABLE_ROW", "pdf_source": "SDTMIG_v3.4", "pdf_page": 313, "pdf_parent_section": "§6.3.7.8 Urinary System Findings (UR)", "pdf_verbatim": "| URLOC | Location Used for the Measurement | Char | (LOC) | Record Qualifier | Anatomical location of the subject relevant to the collection of the measurement. | Perm |", "figure_ref": null, "candidates": [{"md_atom_id": "md_dmUR_ex_a016", "md_file": "knowledge_base/domains/UR/examples.md", "md_atom_type": "TABLE_ROW", "md_parent_section": "§UR.1 [Example 1]", "md_verbatim": "| 5 | ABC | UR | ABC-001-011 | 5 | SGDMGIND | Surgical Damage Indicator | Y | | Y | | | KIDNEY, CORTEX | LEFT | SUPERIOR | CT SCAN | 2016-03-30 |", "score": 0.4433, "match_basis": "verbatim_token+domain_route:UR"}, {"md_atom_id": "md_dmUR_ex_a015", "md_file": "knowledge_base/domains/UR/examples.md", "md_atom_type": "TABLE_ROW", "md_parent_section": "§UR.1 [Example 1]", "md_verbatim": "| 4 | ABC | UR | ABC-001-011 | 4 | HEMAIND | Hematoma Indicator | N | | N | | | KIDNEY | | | CT SCAN | 2016-03-30 |", "score": 0.4296, "match_basis": "verbatim_token+domain_route:UR"}, {"md_atom_id": "md_dmUR_ex_a012", "md_file": "knowledge_base/domains/UR/examples.md", "md_atom_type": "TABLE_ROW", "md_parent_section": "§UR.1 [Example 1]", "md_verbatim": "| 1 | ABC | UR | ABC-001-011 | 1 | LENGTH | Length | 12.6 | cm | 126 | 126 | mm | KIDNEY | LEFT | | CT SCAN | 2016-03-30 |", "score": 0.4, "match_basis": "verbatim_token+domain_route:UR"}, {"md_atom_id": "md_dmUR_ex_a013", "md_file": "knowledge_base/domains/UR/examples.md", "md_atom_type": "TABLE_ROW", "md_parent_section": "§UR.1 [Example 1]", "md_verbatim": "| 2 | ABC | UR | ABC-001-011 | 2 | RNLANUM | Number of Renal Arteries | 2 | | 2 | 2 | | KIDNEY | LEFT | | CT SCAN | 2016-03-30 |", "score": 0.4, "match_basis": "verbatim_token+domain_route:UR"}, {"md_atom_id": "md_dmUR_ex_a014", "md_file": "knowledge_base/domains/UR/examples.md", "md_atom_type": "TABLE_ROW", "md_parent_section": "§UR.1 [Example 1]", "md_verbatim": "| 3 | ABC | UR | ABC-001-011 | 3 | RNLVNUM | Number of Renal Veins | 1 | | 1 | 1 | | KIDNEY | LEFT | | CT SCAN | 2016-03-30 |", "score": 0.4, "match_basis": "verbatim_token+domain_route:UR"}], "candidate_count": 5, "zero_candidate": false}
{"pdf_atom_id": "ig34_p0313_a014", "pdf_atom_type": "TABLE_ROW", "pdf_source": "SDTMIG_v3.4", "pdf_page": 313, "pdf_parent_section": "§6.3.7.8 Urinary System Findings (UR)", "pdf_verbatim": "| URLAT | Laterality | Char | (LAT) | Variable Qualifier | Qualifier for anatomical location or specimen further detailing laterality. Examples: \"RIGHT\", \"LEFT\", \"BILATERAL\". | Perm |", "figure_ref": null, "candidates": [{"md_atom_id": "md_dmUR_ex_a016", "md_file": "knowledge_base/domains/UR/examples.md", "md_atom_type": "TABLE_ROW", "md_parent_section": "§UR.1 [Example 1]", "md_verbatim": "| 5 | ABC | UR | ABC-001-011 | 5 | SGDMGIND | Surgical Damage Indicator | Y | | Y | | | KIDNEY, CORTEX | LEFT | SUPERIOR | CT SCAN | 2016-03-30 |", "score": 0.4385, "match_basis": "verbatim_token+domain_route:UR"}, {"md_atom_id": "md_dmUR_ex_a022", "md_file": "knowledge_base/domains/UR/examples.md", "md_atom_type": "TABLE_ROW", "md_parent_section": "§UR.2 [Example 2]", "md_verbatim": "| 1 | DEF | UR | DEF-0123 | 1 | BLDFLRT | Blood Flow Rate | 20 | mL/min | 20 | 20 | mL/min | KIDNEY | BILATERAL | PARA-AMINO HIPPURIC ACID CLEARANCE | 1 | VISIT 1 | 2016-03-15 |", "score": 0.4368, "match_basis": "verbatim_token+domain_route:UR"}, {"md_atom_id": "md_dmUR_ex_a015", "md_file": "knowledge_base/domains/UR/examples.md", "md_atom_type": "TABLE_ROW", "md_parent_section": "§UR.1 [Example 1]", "md_verbatim": "| 4 | ABC | UR | ABC-001-011 | 4 | HEMAIND | Hematoma Indicator | N | | N | | | KIDNEY | | | CT SCAN | 2016-03-30 |", "score": 0.4258, "match_basis": "verbatim_token+domain_route:UR"}, {"md_atom_id": "md_dmUR_ex_a024", "md_file": "knowledge_base/domains/UR/examples.md", "md_atom_type": "TABLE_ROW", "md_parent_section": "§UR.2 [Example 2]", "md_verbatim": "| 3 | DEF | UR | DEF-0123 | 3 | BLDFLRT | Blood Flow Rate | 10 | mL/min | 10 | 10 | mL/min | KIDNEY | RIGHT | PARA-AMINO HIPPURIC ACID CLEARANCE | 3 | VISIT 3 | 2016-04-07 |", "score": 0.4211, "match_basis": "verbatim_token+domain_route:UR"}, {"md_atom_id": "md_dmUR_ex_a013", "md_file": "knowledge_base/domains/UR/examples.md", "md_atom_type": "TABLE_ROW", "md_parent_section": "§UR.1 [Example 1]", "md_verbatim": "| 2 | ABC | UR | ABC-001-011 | 2 | RNLANUM | Number of Renal Arteries | 2 | | 2 | 2 | | KIDNEY | LEFT | | CT SCAN | 2016-03-30 |", "score": 0.4182, "match_basis": "verbatim_token+domain_route:UR"}], "candidate_count": 5, "zero_candidate": false}
{"pdf_atom_id": "ig34_p0313_a015", "pdf_atom_type": "TABLE_ROW", "pdf_source": "SDTMIG_v3.4", "pdf_page": 313, "pdf_parent_section": "§6.3.7.8 Urinary System Findings (UR)", "pdf_verbatim": "| URDIR | Directionality | Char | (DIR) | Variable Qualifier | Qualifier for anatomical location or specimen further detailing directionality. Examples: \"ANTERIOR\", \"LOWER\", \"PROXIMAL\". | Perm |", "figure_ref": null, "candidates": [{"md_atom_id": "md_dmUR_ex_a016", "md_file": "knowledge_base/domains/UR/examples.md", "md_atom_type": "TABLE_ROW", "md_parent_section": "§UR.1 [Example 1]", "md_verbatim": "| 5 | ABC | UR | ABC-001-011 | 5 | SGDMGIND | Surgical Damage Indicator | Y | | Y | | | KIDNEY, CORTEX | LEFT | SUPERIOR | CT SCAN | 2016-03-30 |", "score": 0.4407, "match_basis": "verbatim_token+domain_route:UR"}, {"md_atom_id": "md_dmUR_ex_a015", "md_file": "knowledge_base/domains/UR/examples.md", "md_atom_type": "TABLE_ROW", "md_parent_section": "§UR.1 [Example 1]", "md_verbatim": "| 4 | ABC | UR | ABC-001-011 | 4 | HEMAIND | Hematoma Indicator | N | | N | | | KIDNEY | | | CT SCAN | 2016-03-30 |", "score": 0.4233, "match_basis": "verbatim_token+domain_route:UR"}, {"md_atom_id": "md_dmUR_ex_a013", "md_file": "knowledge_base/domains/UR/examples.md", "md_atom_type": "TABLE_ROW", "md_parent_section": "§UR.1 [Example 1]", "md_verbatim": "| 2 | ABC | UR | ABC-001-011 | 2 | RNLANUM | Number of Renal Arteries | 2 | | 2 | 2 | | KIDNEY | LEFT | | CT SCAN | 2016-03-30 |", "score": 0.4165, "match_basis": "verbatim_token+domain_route:UR"}, {"md_atom_id": "md_dmUR_ex_a022", "md_file": "knowledge_base/domains/UR/examples.md", "md_atom_type": "TABLE_ROW", "md_parent_section": "§UR.2 [Example 2]", "md_verbatim": "| 1 | DEF | UR | DEF-0123 | 1 | BLDFLRT | Blood Flow Rate | 20 | mL/min | 20 | 20 | mL/min | KIDNEY | BILATERAL | PARA-AMINO HIPPURIC ACID CLEARANCE | 1 | VISIT 1 | 2016-03-15 |", "score": 0.4093, "match_basis": "verbatim_token+domain_route:UR"}, {"md_atom_id": "md_dmUR_ex_a014", "md_file": "knowledge_base/domains/UR/examples.md", "md_atom_type": "TABLE_ROW", "md_parent_section": "§UR.1 [Example 1]", "md_verbatim": "| 3 | ABC | UR | ABC-001-011 | 3 | RNLVNUM | Number of Renal Veins | 1 | | 1 | 1 | | KIDNEY | LEFT | | CT SCAN | 2016-03-30 |", "score": 0.4056, "match_basis": "verbatim_token+domain_route:UR"}], "candidate_count": 5, "zero_candidate": false}
{"pdf_atom_id": "ig34_p0313_a016", "pdf_atom_type": "TABLE_ROW", "pdf_source": "SDTMIG_v3.4", "pdf_page": 313, "pdf_parent_section": "§6.3.7.8 Urinary System Findings (UR)", "pdf_verbatim": "| URMETHOD | Method of Test or Examination | Char | (METHOD) | Record Qualifier | Method of the test or examination. | Perm |", "figure_ref": null, "candidates": [{"md_atom_id": "md_dmUR_ex_a016", "md_file": "knowledge_base/domains/UR/examples.md", "md_atom_type": "TABLE_ROW", "md_parent_section": "§UR.1 [Example 1]", "md_verbatim": "| 5 | ABC | UR | ABC-001-011 | 5 | SGDMGIND | Surgical Damage Indicator | Y | | Y | | | KIDNEY, CORTEX | LEFT | SUPERIOR | CT SCAN | 2016-03-30 |", "score": 0.416, "match_basis": "verbatim_token+domain_route:UR"}, {"md_atom_id": "md_dmUR_ex_a023", "md_file": "knowledge_base/domains/UR/examples.md", "md_atom_type": "TABLE_ROW", "md_parent_section": "§UR.2 [Example 2]", "md_verbatim": "| 2 | DEF | UR | DEF-0123 | 2 | BLDFLRT | Blood Flow Rate | 10 | mL/min | 10 | 10 | mL/min | KIDNEY | LEFT | PARA-AMINO HIPPURIC ACID CLEARANCE | 2 | VISIT 2 | 2016-03-20 |", "score": 0.4158, "match_basis": "verbatim_token+domain_route:UR"}, {"md_atom_id": "md_dmUR_ex_a024", "md_file": "knowledge_base/domains/UR/examples.md", "md_atom_type": "TABLE_ROW", "md_parent_section": "§UR.2 [Example 2]", "md_verbatim": "| 3 | DEF | UR | DEF-0123 | 3 | BLDFLRT | Blood Flow Rate | 10 | mL/min | 10 | 10 | mL/min | KIDNEY | RIGHT | PARA-AMINO HIPPURIC ACID CLEARANCE | 3 | VISIT 3 | 2016-04-07 |", "score": 0.4156, "match_basis": "verbatim_token+domain_route:UR"}, {"md_atom_id": "md_dmUR_ex_a022", "md_file": "knowledge_base/domains/UR/examples.md", "md_atom_type": "TABLE_ROW", "md_parent_section": "§UR.2 [Example 2]", "md_verbatim": "| 1 | DEF | UR | DEF-0123 | 1 | BLDFLRT | Blood Flow Rate | 20 | mL/min | 20 | 20 | mL/min | KIDNEY | BILATERAL | PARA-AMINO HIPPURIC ACID CLEARANCE | 1 | VISIT 1 | 2016-03-15 |", "score": 0.415, "match_basis": "verbatim_token+domain_route:UR"}, {"md_atom_id": "md_dmUR_ex_a010", "md_file": "knowledge_base/domains/UR/examples.md", "md_atom_type": "TABLE_HEADER", "md_parent_section": "§UR.1 [Example 1]", "md_verbatim": "| Row | STUDYID | DOMAIN | USUBJID | URSEQ | URTESTCD | URTEST | URORRES | URORRESU | URSTRESC | URSTRESN | URSTRESU | URLOC | URLAT | URDIR | URMETHOD | URDTC |", "score": 0.4032, "match_basis": "verbatim_token+domain_route:UR"}], "candidate_count": 5, "zero_candidate": false}
{"pdf_atom_id": "ig34_p0313_a017", "pdf_atom_type": "TABLE_ROW", "pdf_source": "SDTMIG_v3.4", "pdf_page": 313, "pdf_parent_section": "§6.3.7.8 Urinary System Findings (UR)", "pdf_verbatim": "| URLOBXFL | Last Observation Before Exposure Flag | Char | (NY) | Record Qualifier | Operationally derived indicator used to identify the last non-missing value prior to RFXSTDTC. The value should be \"Y\" or null. | Exp |", "figure_ref": null, "candidates": [{"md_atom_id": "md_dmUR_ex_a016", "md_file": "knowledge_base/domains/UR/examples.md", "md_atom_type": "TABLE_ROW", "md_parent_section": "§UR.1 [Example 1]", "md_verbatim": "| 5 | ABC | UR | ABC-001-011 | 5 | SGDMGIND | Surgical Damage Indicator | Y | | Y | | | KIDNEY, CORTEX | LEFT | SUPERIOR | CT SCAN | 2016-03-30 |", "score": 0.4619, "match_basis": "verbatim_token+domain_route:UR"}, {"md_atom_id": "md_dmUR_ex_a015", "md_file": "knowledge_base/domains/UR/examples.md", "md_atom_type": "TABLE_ROW", "md_parent_section": "§UR.1 [Example 1]", "md_verbatim": "| 4 | ABC | UR | ABC-001-011 | 4 | HEMAIND | Hematoma Indicator | N | | N | | | KIDNEY | | | CT SCAN | 2016-03-30 |", "score": 0.4372, "match_basis": "verbatim_token+domain_route:UR"}, {"md_atom_id": "md_dmUR_ex_a013", "md_file": "knowledge_base/domains/UR/examples.md", "md_atom_type": "TABLE_ROW", "md_parent_section": "§UR.1 [Example 1]", "md_verbatim": "| 2 | ABC | UR | ABC-001-011 | 2 | RNLANUM | Number of Renal Arteries | 2 | | 2 | 2 | | KIDNEY | LEFT | | CT SCAN | 2016-03-30 |", "score": 0.4098, "match_basis": "verbatim_token+domain_route:UR"}, {"md_atom_id": "md_dmUR_ex_a022", "md_file": "knowledge_base/domains/UR/examples.md", "md_atom_type": "TABLE_ROW", "md_parent_section": "§UR.2 [Example 2]", "md_verbatim": "| 1 | DEF | UR | DEF-0123 | 1 | BLDFLRT | Blood Flow Rate | 20 | mL/min | 20 | 20 | mL/min | KIDNEY | BILATERAL | PARA-AMINO HIPPURIC ACID CLEARANCE | 1 | VISIT 1 | 2016-03-15 |", "score": 0.4085, "match_basis": "verbatim_token+domain_route:UR"}, {"md_atom_id": "md_dmUR_ex_a014", "md_file": "knowledge_base/domains/UR/examples.md", "md_atom_type": "TABLE_ROW", "md_parent_section": "§UR.1 [Example 1]", "md_verbatim": "| 3 | ABC | UR | ABC-001-011 | 3 | RNLVNUM | Number of Renal Veins | 1 | | 1 | 1 | | KIDNEY | LEFT | | CT SCAN | 2016-03-30 |", "score": 0.405, "match_basis": "verbatim_token+domain_route:UR"}], "candidate_count": 5, "zero_candidate": false}
{"pdf_atom_id": "ig34_p0313_a018", "pdf_atom_type": "TABLE_ROW", "pdf_source": "SDTMIG_v3.4", "pdf_page": 313, "pdf_parent_section": "§6.3.7.8 Urinary System Findings (UR)", "pdf_verbatim": "| URBLFL | Baseline Flag | Char | (NY) | Record Qualifier | A baseline defined by the sponsor The value should be \"Y\" or null. Note that URBLFL is retained for backward compatibility. The authoritative baseline flag for statistical analysis is in an ADaM dataset. | Perm |", "figure_ref": null, "candidates": [{"md_atom_id": "md_dmUR_ex_a016", "md_file": "knowledge_base/domains/UR/examples.md", "md_atom_type": "TABLE_ROW", "md_parent_section": "§UR.1 [Example 1]", "md_verbatim": "| 5 | ABC | UR | ABC-001-011 | 5 | SGDMGIND | Surgical Damage Indicator | Y | | Y | | | KIDNEY, CORTEX | LEFT | SUPERIOR | CT SCAN | 2016-03-30 |", "score": 0.4214, "match_basis": "verbatim_token+domain_route:UR"}, {"md_atom_id": "md_dmUR_ex_a015", "md_file": "knowledge_base/domains/UR/examples.md", "md_atom_type": "TABLE_ROW", "md_parent_section": "§UR.1 [Example 1]", "md_verbatim": "| 4 | ABC | UR | ABC-001-011 | 4 | HEMAIND | Hematoma Indicator | N | | N | | | KIDNEY | | | CT SCAN | 2016-03-30 |", "score": 0.4097, "match_basis": "verbatim_token+domain_route:UR"}, {"md_atom_id": "md_dmUR_ex_a022", "md_file": "knowledge_base/domains/UR/examples.md", "md_atom_type": "TABLE_ROW", "md_parent_section": "§UR.2 [Example 2]", "md_verbatim": "| 1 | DEF | UR | DEF-0123 | 1 | BLDFLRT | Blood Flow Rate | 20 | mL/min | 20 | 20 | mL/min | KIDNEY | BILATERAL | PARA-AMINO HIPPURIC ACID CLEARANCE | 1 | VISIT 1 | 2016-03-15 |", "score": 0.4081, "match_basis": "verbatim_token+domain_route:UR"}, {"md_atom_id": "md_dmUR_ex_a014", "md_file": "knowledge_base/domains/UR/examples.md", "md_atom_type": "TABLE_ROW", "md_parent_section": "§UR.1 [Example 1]", "md_verbatim": "| 3 | ABC | UR | ABC-001-011 | 3 | RNLVNUM | Number of Renal Veins | 1 | | 1 | 1 | | KIDNEY | LEFT | | CT SCAN | 2016-03-30 |", "score": 0.4047, "match_basis": "verbatim_token+domain_route:UR"}, {"md_atom_id": "md_dmUR_ex_a013", "md_file": "knowledge_base/domains/UR/examples.md", "md_atom_type": "TABLE_ROW", "md_parent_section": "§UR.1 [Example 1]", "md_verbatim": "| 2 | ABC | UR | ABC-001-011 | 2 | RNLANUM | Number of Renal Arteries | 2 | | 2 | 2 | | KIDNEY | LEFT | | CT SCAN | 2016-03-30 |", "score": 0.4046, "match_basis": "verbatim_token+domain_route:UR"}], "candidate_count": 5, "zero_candidate": false}
{"pdf_atom_id": "ig34_p0313_a019", "pdf_atom_type": "TABLE_ROW", "pdf_source": "SDTMIG_v3.4", "pdf_page": 313, "pdf_parent_section": "§6.3.7.8 Urinary System Findings (UR)", "pdf_verbatim": "| URDRVFL | Derived Flag | Char | (NY) | Record Qualifier | Used to indicate a derived record (e.g., a record that represents the average of other records such as a computed baseline). Should be \"Y\" or null. | Perm |", "figure_ref": null, "candidates": [{"md_atom_id": "md_dmUR_ex_a016", "md_file": "knowledge_base/domains/UR/examples.md", "md_atom_type": "TABLE_ROW", "md_parent_section": "§UR.1 [Example 1]", "md_verbatim": "| 5 | ABC | UR | ABC-001-011 | 5 | SGDMGIND | Surgical Damage Indicator | Y | | Y | | | KIDNEY, CORTEX | LEFT | SUPERIOR | CT SCAN | 2016-03-30 |", "score": 0.4495, "match_basis": "verbatim_token+domain_route:UR"}, {"md_atom_id": "md_dmUR_ex_a015", "md_file": "knowledge_base/domains/UR/examples.md", "md_atom_type": "TABLE_ROW", "md_parent_section": "§UR.1 [Example 1]", "md_verbatim": "| 4 | ABC | UR | ABC-001-011 | 4 | HEMAIND | Hematoma Indicator | N | | N | | | KIDNEY | | | CT SCAN | 2016-03-30 |", "score": 0.4319, "match_basis": "verbatim_token+domain_route:UR"}, {"md_atom_id": "md_dmUR_ex_a022", "md_file": "knowledge_base/domains/UR/examples.md", "md_atom_type": "TABLE_ROW", "md_parent_section": "§UR.2 [Example 2]", "md_verbatim": "| 1 | DEF | UR | DEF-0123 | 1 | BLDFLRT | Blood Flow Rate | 20 | mL/min | 20 | 20 | mL/min | KIDNEY | BILATERAL | PARA-AMINO HIPPURIC ACID CLEARANCE | 1 | VISIT 1 | 2016-03-15 |", "score": 0.4099, "match_basis": "verbatim_token+domain_route:UR"}, {"md_atom_id": "md_dmUR_ex_a013", "md_file": "knowledge_base/domains/UR/examples.md", "md_atom_type": "TABLE_ROW", "md_parent_section": "§UR.1 [Example 1]", "md_verbatim": "| 2 | ABC | UR | ABC-001-011 | 2 | RNLANUM | Number of Renal Arteries | 2 | | 2 | 2 | | KIDNEY | LEFT | | CT SCAN | 2016-03-30 |", "score": 0.4058, "match_basis": "verbatim_token+domain_route:UR"}, {"md_atom_id": "md_dmUR_ex_a023", "md_file": "knowledge_base/domains/UR/examples.md", "md_atom_type": "TABLE_ROW", "md_parent_section": "§UR.2 [Example 2]", "md_verbatim": "| 2 | DEF | UR | DEF-0123 | 2 | BLDFLRT | Blood Flow Rate | 10 | mL/min | 10 | 10 | mL/min | KIDNEY | LEFT | PARA-AMINO HIPPURIC ACID CLEARANCE | 2 | VISIT 2 | 2016-03-20 |", "score": 0.4051, "match_basis": "verbatim_token+domain_route:UR"}], "candidate_count": 5, "zero_candidate": false}
{"pdf_atom_id": "ig34_p0313_a020", "pdf_atom_type": "TABLE_ROW", "pdf_source": "SDTMIG_v3.4", "pdf_page": 313, "pdf_parent_section": "§6.3.7.8 Urinary System Findings (UR)", "pdf_verbatim": "| UREVAL | Evaluator | Char | (EVAL) | Record Qualifier | Role of the person who provided the evaluation. Used only for results that are subjective (e.g., assigned by a person or a group). Examples: \"ADJUDICATION COMMITTEE\", \"INDEPENDENT ASSESSOR\", \"RADIOLOGIST\". | Perm |", "figure_ref": null, "candidates": [{"md_atom_id": "md_dmUR_ex_a016", "md_file": "knowledge_base/domains/UR/examples.md", "md_atom_type": "TABLE_ROW", "md_parent_section": "§UR.1 [Example 1]", "md_verbatim": "| 5 | ABC | UR | ABC-001-011 | 5 | SGDMGIND | Surgical Damage Indicator | Y | | Y | | | KIDNEY, CORTEX | LEFT | SUPERIOR | CT SCAN | 2016-03-30 |", "score": 0.4324, "match_basis": "verbatim_token+domain_route:UR"}, {"md_atom_id": "md_dmUR_ex_a015", "md_file": "knowledge_base/domains/UR/examples.md", "md_atom_type": "TABLE_ROW", "md_parent_section": "§UR.1 [Example 1]", "md_verbatim": "| 4 | ABC | UR | ABC-001-011 | 4 | HEMAIND | Hematoma Indicator | N | | N | | | KIDNEY | | | CT SCAN | 2016-03-30 |", "score": 0.4275, "match_basis": "verbatim_token+domain_route:UR"}, {"md_atom_id": "md_dmUR_ex_a012", "md_file": "knowledge_base/domains/UR/examples.md", "md_atom_type": "TABLE_ROW", "md_parent_section": "§UR.1 [Example 1]", "md_verbatim": "| 1 | ABC | UR | ABC-001-011 | 1 | LENGTH | Length | 12.6 | cm | 126 | 126 | mm | KIDNEY | LEFT | | CT SCAN | 2016-03-30 |", "score": 0.4, "match_basis": "verbatim_token+domain_route:UR"}, {"md_atom_id": "md_dmUR_ex_a013", "md_file": "knowledge_base/domains/UR/examples.md", "md_atom_type": "TABLE_ROW", "md_parent_section": "§UR.1 [Example 1]", "md_verbatim": "| 2 | ABC | UR | ABC-001-011 | 2 | RNLANUM | Number of Renal Arteries | 2 | | 2 | 2 | | KIDNEY | LEFT | | CT SCAN | 2016-03-30 |", "score": 0.4, "match_basis": "verbatim_token+domain_route:UR"}, {"md_atom_id": "md_dmUR_ex_a014", "md_file": "knowledge_base/domains/UR/examples.md", "md_atom_type": "TABLE_ROW", "md_parent_section": "§UR.1 [Example 1]", "md_verbatim": "| 3 | ABC | UR | ABC-001-011 | 3 | RNLVNUM | Number of Renal Veins | 1 | | 1 | 1 | | KIDNEY | LEFT | | CT SCAN | 2016-03-30 |", "score": 0.4, "match_basis": "verbatim_token+domain_route:UR"}], "candidate_count": 5, "zero_candidate": false}
{"pdf_atom_id": "ig34_p0313_a021", "pdf_atom_type": "TABLE_ROW", "pdf_source": "SDTMIG_v3.4", "pdf_page": 313, "pdf_parent_section": "§6.3.7.8 Urinary System Findings (UR)", "pdf_verbatim": "| UREVALID | Evaluator Identifier | Char | (MEDEVAL) | Variable Qualifier | Used to distinguish multiple evaluators with the same role recorded in UREVAL. Examples: \"RADIOLOGIST1\", \"RADIOLOGIST2\". | Perm |", "figure_ref": null, "candidates": [{"md_atom_id": "md_dmUR_ex_a016", "md_file": "knowledge_base/domains/UR/examples.md", "md_atom_type": "TABLE_ROW", "md_parent_section": "§UR.1 [Example 1]", "md_verbatim": "| 5 | ABC | UR | ABC-001-011 | 5 | SGDMGIND | Surgical Damage Indicator | Y | | Y | | | KIDNEY, CORTEX | LEFT | SUPERIOR | CT SCAN | 2016-03-30 |", "score": 0.4198, "match_basis": "verbatim_token+domain_route:UR"}, {"md_atom_id": "md_dmUR_ex_a015", "md_file": "knowledge_base/domains/UR/examples.md", "md_atom_type": "TABLE_ROW", "md_parent_section": "§UR.1 [Example 1]", "md_verbatim": "| 4 | ABC | UR | ABC-001-011 | 4 | HEMAIND | Hematoma Indicator | N | | N | | | KIDNEY | | | CT SCAN | 2016-03-30 |", "score": 0.4115, "match_basis": "verbatim_token+domain_route:UR"}, {"md_atom_id": "md_dmUR_ex_a012", "md_file": "knowledge_base/domains/UR/examples.md", "md_atom_type": "TABLE_ROW", "md_parent_section": "§UR.1 [Example 1]", "md_verbatim": "| 1 | ABC | UR | ABC-001-011 | 1 | LENGTH | Length | 12.6 | cm | 126 | 126 | mm | KIDNEY | LEFT | | CT SCAN | 2016-03-30 |", "score": 0.4, "match_basis": "verbatim_token+domain_route:UR"}, {"md_atom_id": "md_dmUR_ex_a013", "md_file": "knowledge_base/domains/UR/examples.md", "md_atom_type": "TABLE_ROW", "md_parent_section": "§UR.1 [Example 1]", "md_verbatim": "| 2 | ABC | UR | ABC-001-011 | 2 | RNLANUM | Number of Renal Arteries | 2 | | 2 | 2 | | KIDNEY | LEFT | | CT SCAN | 2016-03-30 |", "score": 0.4, "match_basis": "verbatim_token+domain_route:UR"}, {"md_atom_id": "md_dmUR_ex_a014", "md_file": "knowledge_base/domains/UR/examples.md", "md_atom_type": "TABLE_ROW", "md_parent_section": "§UR.1 [Example 1]", "md_verbatim": "| 3 | ABC | UR | ABC-001-011 | 3 | RNLVNUM | Number of Renal Veins | 1 | | 1 | 1 | | KIDNEY | LEFT | | CT SCAN | 2016-03-30 |", "score": 0.4, "match_basis": "verbatim_token+domain_route:UR"}], "candidate_count": 5, "zero_candidate": false}
{"pdf_atom_id": "ig34_p0313_a022", "pdf_atom_type": "TABLE_ROW", "pdf_source": "SDTMIG_v3.4", "pdf_page": 313, "pdf_parent_section": "§6.3.7.8 Urinary System Findings (UR)", "pdf_verbatim": "| VISITNUM | Visit Number | Num | | Timing | Clinical encounter number. Numeric version of VISIT, used for sorting. | Exp |", "figure_ref": null, "candidates": [{"md_atom_id": "md_dmUR_ex_a013", "md_file": "knowledge_base/domains/UR/examples.md", "md_atom_type": "TABLE_ROW", "md_parent_section": "§UR.1 [Example 1]", "md_verbatim": "| 2 | ABC | UR | ABC-001-011 | 2 | RNLANUM | Number of Renal Arteries | 2 | | 2 | 2 | | KIDNEY | LEFT | | CT SCAN | 2016-03-30 |", "score": 0.4537, "match_basis": "verbatim_token+domain_route:UR"}, {"md_atom_id": "md_dmUR_ex_a022", "md_file": "knowledge_base/domains/UR/examples.md", "md_atom_type": "TABLE_ROW", "md_parent_section": "§UR.2 [Example 2]", "md_verbatim": "| 1 | DEF | UR | DEF-0123 | 1 | BLDFLRT | Blood Flow Rate | 20 | mL/min | 20 | 20 | mL/min | KIDNEY | BILATERAL | PARA-AMINO HIPPURIC ACID CLEARANCE | 1 | VISIT 1 | 2016-03-15 |", "score": 0.4419, "match_basis": "verbatim_token+domain_route:UR"}, {"md_atom_id": "md_dmUR_ex_a014", "md_file": "knowledge_base/domains/UR/examples.md", "md_atom_type": "TABLE_ROW", "md_parent_section": "§UR.1 [Example 1]", "md_verbatim": "| 3 | ABC | UR | ABC-001-011 | 3 | RNLVNUM | Number of Renal Veins | 1 | | 1 | 1 | | KIDNEY | LEFT | | CT SCAN | 2016-03-30 |", "score": 0.4364, "match_basis": "verbatim_token+domain_route:UR"}, {"md_atom_id": "md_dmUR_ex_a023", "md_file": "knowledge_base/domains/UR/examples.md", "md_atom_type": "TABLE_ROW", "md_parent_section": "§UR.2 [Example 2]", "md_verbatim": "| 2 | DEF | UR | DEF-0123 | 2 | BLDFLRT | Blood Flow Rate | 10 | mL/min | 10 | 10 | mL/min | KIDNEY | LEFT | PARA-AMINO HIPPURIC ACID CLEARANCE | 2 | VISIT 2 | 2016-03-20 |", "score": 0.4361, "match_basis": "verbatim_token+domain_route:UR"}, {"md_atom_id": "md_dmUR_ex_a024", "md_file": "knowledge_base/domains/UR/examples.md", "md_atom_type": "TABLE_ROW", "md_parent_section": "§UR.2 [Example 2]", "md_verbatim": "| 3 | DEF | UR | DEF-0123 | 3 | BLDFLRT | Blood Flow Rate | 10 | mL/min | 10 | 10 | mL/min | KIDNEY | RIGHT | PARA-AMINO HIPPURIC ACID CLEARANCE | 3 | VISIT 3 | 2016-04-07 |", "score": 0.4357, "match_basis": "verbatim_token+domain_route:UR"}], "candidate_count": 5, "zero_candidate": false}
{"pdf_atom_id": "ig34_p0313_a023", "pdf_atom_type": "TABLE_ROW", "pdf_source": "SDTMIG_v3.4", "pdf_page": 313, "pdf_parent_section": "§6.3.7.8 Urinary System Findings (UR)", "pdf_verbatim": "| VISIT | Visit Name | Char | | Timing | Protocol-defined description of a clinical encounter. | Perm |", "figure_ref": null, "candidates": [{"md_atom_id": "md_dmUR_ex_a022", "md_file": "knowledge_base/domains/UR/examples.md", "md_atom_type": "TABLE_ROW", "md_parent_section": "§UR.2 [Example 2]", "md_verbatim": "| 1 | DEF | UR | DEF-0123 | 1 | BLDFLRT | Blood Flow Rate | 20 | mL/min | 20 | 20 | mL/min | KIDNEY | BILATERAL | PARA-AMINO HIPPURIC ACID CLEARANCE | 1 | VISIT 1 | 2016-03-15 |", "score": 0.4404, "match_basis": "verbatim_token+domain_route:UR"}, {"md_atom_id": "md_dmUR_ex_a023", "md_file": "knowledge_base/domains/UR/examples.md", "md_atom_type": "TABLE_ROW", "md_parent_section": "§UR.2 [Example 2]", "md_verbatim": "| 2 | DEF | UR | DEF-0123 | 2 | BLDFLRT | Blood Flow Rate | 10 | mL/min | 10 | 10 | mL/min | KIDNEY | LEFT | PARA-AMINO HIPPURIC ACID CLEARANCE | 2 | VISIT 2 | 2016-03-20 |", "score": 0.4349, "match_basis": "verbatim_token+domain_route:UR"}, {"md_atom_id": "md_dmUR_ex_a024", "md_file": "knowledge_base/domains/UR/examples.md", "md_atom_type": "TABLE_ROW", "md_parent_section": "§UR.2 [Example 2]", "md_verbatim": "| 3 | DEF | UR | DEF-0123 | 3 | BLDFLRT | Blood Flow Rate | 10 | mL/min | 10 | 10 | mL/min | KIDNEY | RIGHT | PARA-AMINO HIPPURIC ACID CLEARANCE | 3 | VISIT 3 | 2016-04-07 |", "score": 0.4345, "match_basis": "verbatim_token+domain_route:UR"}, {"md_atom_id": "md_dmUR_ex_a016", "md_file": "knowledge_base/domains/UR/examples.md", "md_atom_type": "TABLE_ROW", "md_parent_section": "§UR.1 [Example 1]", "md_verbatim": "| 5 | ABC | UR | ABC-001-011 | 5 | SGDMGIND | Surgical Damage Indicator | Y | | Y | | | KIDNEY, CORTEX | LEFT | SUPERIOR | CT SCAN | 2016-03-30 |", "score": 0.4207, "match_basis": "verbatim_token+domain_route:UR"}, {"md_atom_id": "md_dmUR_ex_a015", "md_file": "knowledge_base/domains/UR/examples.md", "md_atom_type": "TABLE_ROW", "md_parent_section": "§UR.1 [Example 1]", "md_verbatim": "| 4 | ABC | UR | ABC-001-011 | 4 | HEMAIND | Hematoma Indicator | N | | N | | | KIDNEY | | | CT SCAN | 2016-03-30 |", "score": 0.4086, "match_basis": "verbatim_token+domain_route:UR"}], "candidate_count": 5, "zero_candidate": false}
{"pdf_atom_id": "ig34_p0313_a024", "pdf_atom_type": "TABLE_ROW", "pdf_source": "SDTMIG_v3.4", "pdf_page": 313, "pdf_parent_section": "§6.3.7.8 Urinary System Findings (UR)", "pdf_verbatim": "| VISITDY | Planned Study Day of Visit | Num | | Timing | Planned study day of VISIT. Should be an integer. | Perm |", "figure_ref": null, "candidates": [{"md_atom_id": "md_dmUR_ex_a023", "md_file": "knowledge_base/domains/UR/examples.md", "md_atom_type": "TABLE_ROW", "md_parent_section": "§UR.2 [Example 2]", "md_verbatim": "| 2 | DEF | UR | DEF-0123 | 2 | BLDFLRT | Blood Flow Rate | 10 | mL/min | 10 | 10 | mL/min | KIDNEY | LEFT | PARA-AMINO HIPPURIC ACID CLEARANCE | 2 | VISIT 2 | 2016-03-20 |", "score": 0.4338, "match_basis": "verbatim_token+domain_route:UR"}, {"md_atom_id": "md_dmUR_ex_a024", "md_file": "knowledge_base/domains/UR/examples.md", "md_atom_type": "TABLE_ROW", "md_parent_section": "§UR.2 [Example 2]", "md_verbatim": "| 3 | DEF | UR | DEF-0123 | 3 | BLDFLRT | Blood Flow Rate | 10 | mL/min | 10 | 10 | mL/min | KIDNEY | RIGHT | PARA-AMINO HIPPURIC ACID CLEARANCE | 3 | VISIT 3 | 2016-04-07 |", "score": 0.4333, "match_basis": "verbatim_token+domain_route:UR"}, {"md_atom_id": "md_dmUR_ex_a022", "md_file": "knowledge_base/domains/UR/examples.md", "md_atom_type": "TABLE_ROW", "md_parent_section": "§UR.2 [Example 2]", "md_verbatim": "| 1 | DEF | UR | DEF-0123 | 1 | BLDFLRT | Blood Flow Rate | 20 | mL/min | 20 | 20 | mL/min | KIDNEY | BILATERAL | PARA-AMINO HIPPURIC ACID CLEARANCE | 1 | VISIT 1 | 2016-03-15 |", "score": 0.432, "match_basis": "verbatim_token+domain_route:UR"}, {"md_atom_id": "md_dmUR_ex_a013", "md_file": "knowledge_base/domains/UR/examples.md", "md_atom_type": "TABLE_ROW", "md_parent_section": "§UR.1 [Example 1]", "md_verbatim": "| 2 | ABC | UR | ABC-001-011 | 2 | RNLANUM | Number of Renal Arteries | 2 | | 2 | 2 | | KIDNEY | LEFT | | CT SCAN | 2016-03-30 |", "score": 0.4207, "match_basis": "verbatim_token+domain_route:UR"}, {"md_atom_id": "md_dmUR_ex_a014", "md_file": "knowledge_base/domains/UR/examples.md", "md_atom_type": "TABLE_ROW", "md_parent_section": "§UR.1 [Example 1]", "md_verbatim": "| 3 | ABC | UR | ABC-001-011 | 3 | RNLVNUM | Number of Renal Veins | 1 | | 1 | 1 | | KIDNEY | LEFT | | CT SCAN | 2016-03-30 |", "score": 0.4107, "match_basis": "verbatim_token+domain_route:UR"}], "candidate_count": 5, "zero_candidate": false}
{"pdf_atom_id": "ig34_p0314_a001", "pdf_atom_type": "TABLE_ROW", "pdf_source": "SDTMIG_v3.4", "pdf_page": 314, "pdf_parent_section": "§6.3.7.8 Urinary System Findings (UR)", "pdf_verbatim": "| TAETORD | Planned Order of Element within Arm | Num | | Timing | Number that gives the planned order of the element within the arm for the element in which the observation was made. | Perm |", "figure_ref": null, "candidates": [{"md_atom_id": "md_dmUR_ex_a013", "md_file": "knowledge_base/domains/UR/examples.md", "md_atom_type": "TABLE_ROW", "md_parent_section": "§UR.1 [Example 1]", "md_verbatim": "| 2 | ABC | UR | ABC-001-011 | 2 | RNLANUM | Number of Renal Arteries | 2 | | 2 | 2 | | KIDNEY | LEFT | | CT SCAN | 2016-03-30 |", "score": 0.438, "match_basis": "verbatim_token+domain_route:UR"}, {"md_atom_id": "md_dmUR_ex_a014", "md_file": "knowledge_base/domains/UR/examples.md", "md_atom_type": "TABLE_ROW", "md_parent_section": "§UR.1 [Example 1]", "md_verbatim": "| 3 | ABC | UR | ABC-001-011 | 3 | RNLVNUM | Number of Renal Veins | 1 | | 1 | 1 | | KIDNEY | LEFT | | CT SCAN | 2016-03-30 |", "score": 0.4312, "match_basis": "verbatim_token+domain_route:UR"}, {"md_atom_id": "md_dmUR_ex_a016", "md_file": "knowledge_base/domains/UR/examples.md", "md_atom_type": "TABLE_ROW", "md_parent_section": "§UR.1 [Example 1]", "md_verbatim": "| 5 | ABC | UR | ABC-001-011 | 5 | SGDMGIND | Surgical Damage Indicator | Y | | Y | | | KIDNEY, CORTEX | LEFT | SUPERIOR | CT SCAN | 2016-03-30 |", "score": 0.4125, "match_basis": "verbatim_token+domain_route:UR"}, {"md_atom_id": "md_dmUR_ex_a015", "md_file": "knowledge_base/domains/UR/examples.md", "md_atom_type": "TABLE_ROW", "md_parent_section": "§UR.1 [Example 1]", "md_verbatim": "| 4 | ABC | UR | ABC-001-011 | 4 | HEMAIND | Hematoma Indicator | N | | N | | | KIDNEY | | | CT SCAN | 2016-03-30 |", "score": 0.4077, "match_basis": "verbatim_token+domain_route:UR"}, {"md_atom_id": "md_dmUR_ex_a023", "md_file": "knowledge_base/domains/UR/examples.md", "md_atom_type": "TABLE_ROW", "md_parent_section": "§UR.2 [Example 2]", "md_verbatim": "| 2 | DEF | UR | DEF-0123 | 2 | BLDFLRT | Blood Flow Rate | 10 | mL/min | 10 | 10 | mL/min | KIDNEY | LEFT | PARA-AMINO HIPPURIC ACID CLEARANCE | 2 | VISIT 2 | 2016-03-20 |", "score": 0.4061, "match_basis": "verbatim_token+domain_route:UR"}], "candidate_count": 5, "zero_candidate": false}
{"pdf_atom_id": "ig34_p0314_a002", "pdf_atom_type": "TABLE_ROW", "pdf_source": "SDTMIG_v3.4", "pdf_page": 314, "pdf_parent_section": "§6.3.7.8 Urinary System Findings (UR)", "pdf_verbatim": "| EPOCH | Epoch | Char | (EPOCH) | Timing | Epoch associated with the date/time at which the observation was made. | Perm |", "figure_ref": null, "candidates": [{"md_atom_id": "md_dmUR_ex_a023", "md_file": "knowledge_base/domains/UR/examples.md", "md_atom_type": "TABLE_ROW", "md_parent_section": "§UR.2 [Example 2]", "md_verbatim": "| 2 | DEF | UR | DEF-0123 | 2 | BLDFLRT | Blood Flow Rate | 10 | mL/min | 10 | 10 | mL/min | KIDNEY | LEFT | PARA-AMINO HIPPURIC ACID CLEARANCE | 2 | VISIT 2 | 2016-03-20 |", "score": 0.4146, "match_basis": "verbatim_token+domain_route:UR"}, {"md_atom_id": "md_dmUR_ex_a024", "md_file": "knowledge_base/domains/UR/examples.md", "md_atom_type": "TABLE_ROW", "md_parent_section": "§UR.2 [Example 2]", "md_verbatim": "| 3 | DEF | UR | DEF-0123 | 3 | BLDFLRT | Blood Flow Rate | 10 | mL/min | 10 | 10 | mL/min | KIDNEY | RIGHT | PARA-AMINO HIPPURIC ACID CLEARANCE | 3 | VISIT 3 | 2016-04-07 |", "score": 0.4145, "match_basis": "verbatim_token+domain_route:UR"}, {"md_atom_id": "md_dmUR_ex_a022", "md_file": "knowledge_base/domains/UR/examples.md", "md_atom_type": "TABLE_ROW", "md_parent_section": "§UR.2 [Example 2]", "md_verbatim": "| 1 | DEF | UR | DEF-0123 | 1 | BLDFLRT | Blood Flow Rate | 20 | mL/min | 20 | 20 | mL/min | KIDNEY | BILATERAL | PARA-AMINO HIPPURIC ACID CLEARANCE | 1 | VISIT 1 | 2016-03-15 |", "score": 0.414, "match_basis": "verbatim_token+domain_route:UR"}, {"md_atom_id": "md_dmUR_ex_a016", "md_file": "knowledge_base/domains/UR/examples.md", "md_atom_type": "TABLE_ROW", "md_parent_section": "§UR.1 [Example 1]", "md_verbatim": "| 5 | ABC | UR | ABC-001-011 | 5 | SGDMGIND | Surgical Damage Indicator | Y | | Y | | | KIDNEY, CORTEX | LEFT | SUPERIOR | CT SCAN | 2016-03-30 |", "score": 0.4073, "match_basis": "verbatim_token+domain_route:UR"}, {"md_atom_id": "md_dmUR_ex_a012", "md_file": "knowledge_base/domains/UR/examples.md", "md_atom_type": "TABLE_ROW", "md_parent_section": "§UR.1 [Example 1]", "md_verbatim": "| 1 | ABC | UR | ABC-001-011 | 1 | LENGTH | Length | 12.6 | cm | 126 | 126 | mm | KIDNEY | LEFT | | CT SCAN | 2016-03-30 |", "score": 0.4, "match_basis": "verbatim_token+domain_route:UR"}], "candidate_count": 5, "zero_candidate": false}
{"pdf_atom_id": "ig34_p0314_a003", "pdf_atom_type": "TABLE_ROW", "pdf_source": "SDTMIG_v3.4", "pdf_page": 314, "pdf_parent_section": "§6.3.7.8 Urinary System Findings (UR)", "pdf_verbatim": "| URDTC | Date/Time of Collection | Char | ISO 8601 datetime or interval | Timing | Collection date and time of an observation. | Exp |", "figure_ref": null, "candidates": [{"md_atom_id": "md_dmUR_ex_a022", "md_file": "knowledge_base/domains/UR/examples.md", "md_atom_type": "TABLE_ROW", "md_parent_section": "§UR.2 [Example 2]", "md_verbatim": "| 1 | DEF | UR | DEF-0123 | 1 | BLDFLRT | Blood Flow Rate | 20 | mL/min | 20 | 20 | mL/min | KIDNEY | BILATERAL | PARA-AMINO HIPPURIC ACID CLEARANCE | 1 | VISIT 1 | 2016-03-15 |", "score": 0.4214, "match_basis": "verbatim_token+domain_route:UR"}, {"md_atom_id": "md_dmUR_ex_a023", "md_file": "knowledge_base/domains/UR/examples.md", "md_atom_type": "TABLE_ROW", "md_parent_section": "§UR.2 [Example 2]", "md_verbatim": "| 2 | DEF | UR | DEF-0123 | 2 | BLDFLRT | Blood Flow Rate | 10 | mL/min | 10 | 10 | mL/min | KIDNEY | LEFT | PARA-AMINO HIPPURIC ACID CLEARANCE | 2 | VISIT 2 | 2016-03-20 |", "score": 0.4148, "match_basis": "verbatim_token+domain_route:UR"}, {"md_atom_id": "md_dmUR_ex_a024", "md_file": "knowledge_base/domains/UR/examples.md", "md_atom_type": "TABLE_ROW", "md_parent_section": "§UR.2 [Example 2]", "md_verbatim": "| 3 | DEF | UR | DEF-0123 | 3 | BLDFLRT | Blood Flow Rate | 10 | mL/min | 10 | 10 | mL/min | KIDNEY | RIGHT | PARA-AMINO HIPPURIC ACID CLEARANCE | 3 | VISIT 3 | 2016-04-07 |", "score": 0.4146, "match_basis": "verbatim_token+domain_route:UR"}, {"md_atom_id": "md_dmUR_ex_a013", "md_file": "knowledge_base/domains/UR/examples.md", "md_atom_type": "TABLE_ROW", "md_parent_section": "§UR.1 [Example 1]", "md_verbatim": "| 2 | ABC | UR | ABC-001-011 | 2 | RNLANUM | Number of Renal Arteries | 2 | | 2 | 2 | | KIDNEY | LEFT | | CT SCAN | 2016-03-30 |", "score": 0.409, "match_basis": "verbatim_token+domain_route:UR"}, {"md_atom_id": "md_dmUR_ex_a012", "md_file": "knowledge_base/domains/UR/examples.md", "md_atom_type": "TABLE_ROW", "md_parent_section": "§UR.1 [Example 1]", "md_verbatim": "| 1 | ABC | UR | ABC-001-011 | 1 | LENGTH | Length | 12.6 | cm | 126 | 126 | mm | KIDNEY | LEFT | | CT SCAN | 2016-03-30 |", "score": 0.4, "match_basis": "verbatim_token+domain_route:UR"}], "candidate_count": 5, "zero_candidate": false}
{"pdf_atom_id": "ig34_p0314_a004", "pdf_atom_type": "TABLE_ROW", "pdf_source": "SDTMIG_v3.4", "pdf_page": 314, "pdf_parent_section": "§6.3.7.8 Urinary System Findings (UR)", "pdf_verbatim": "| URDY | Study Day of Visit/Collection/Exam | Num | | Timing | Actual study day of visit/collection/exam expressed in integer days relative to the sponsor-defined RFSTDTC in Demographics. | Perm |", "figure_ref": null, "candidates": [{"md_atom_id": "md_dmUR_ex_a022", "md_file": "knowledge_base/domains/UR/examples.md", "md_atom_type": "TABLE_ROW", "md_parent_section": "§UR.2 [Example 2]", "md_verbatim": "| 1 | DEF | UR | DEF-0123 | 1 | BLDFLRT | Blood Flow Rate | 20 | mL/min | 20 | 20 | mL/min | KIDNEY | BILATERAL | PARA-AMINO HIPPURIC ACID CLEARANCE | 1 | VISIT 1 | 2016-03-15 |", "score": 0.4305, "match_basis": "verbatim_token+domain_route:UR"}, {"md_atom_id": "md_dmUR_ex_a023", "md_file": "knowledge_base/domains/UR/examples.md", "md_atom_type": "TABLE_ROW", "md_parent_section": "§UR.2 [Example 2]", "md_verbatim": "| 2 | DEF | UR | DEF-0123 | 2 | BLDFLRT | Blood Flow Rate | 10 | mL/min | 10 | 10 | mL/min | KIDNEY | LEFT | PARA-AMINO HIPPURIC ACID CLEARANCE | 2 | VISIT 2 | 2016-03-20 |", "score": 0.4261, "match_basis": "verbatim_token+domain_route:UR"}, {"md_atom_id": "md_dmUR_ex_a024", "md_file": "knowledge_base/domains/UR/examples.md", "md_atom_type": "TABLE_ROW", "md_parent_section": "§UR.2 [Example 2]", "md_verbatim": "| 3 | DEF | UR | DEF-0123 | 3 | BLDFLRT | Blood Flow Rate | 10 | mL/min | 10 | 10 | mL/min | KIDNEY | RIGHT | PARA-AMINO HIPPURIC ACID CLEARANCE | 3 | VISIT 3 | 2016-04-07 |", "score": 0.4259, "match_basis": "verbatim_token+domain_route:UR"}, {"md_atom_id": "md_dmUR_ex_a014", "md_file": "knowledge_base/domains/UR/examples.md", "md_atom_type": "TABLE_ROW", "md_parent_section": "§UR.1 [Example 1]", "md_verbatim": "| 3 | ABC | UR | ABC-001-011 | 3 | RNLVNUM | Number of Renal Veins | 1 | | 1 | 1 | | KIDNEY | LEFT | | CT SCAN | 2016-03-30 |", "score": 0.4059, "match_basis": "verbatim_token+domain_route:UR"}, {"md_atom_id": "md_dmUR_ex_a013", "md_file": "knowledge_base/domains/UR/examples.md", "md_atom_type": "TABLE_ROW", "md_parent_section": "§UR.1 [Example 1]", "md_verbatim": "| 2 | ABC | UR | ABC-001-011 | 2 | RNLANUM | Number of Renal Arteries | 2 | | 2 | 2 | | KIDNEY | LEFT | | CT SCAN | 2016-03-30 |", "score": 0.4058, "match_basis": "verbatim_token+domain_route:UR"}], "candidate_count": 5, "zero_candidate": false}
{"pdf_atom_id": "ig34_p0314_a005", "pdf_atom_type": "TABLE_ROW", "pdf_source": "SDTMIG_v3.4", "pdf_page": 314, "pdf_parent_section": "§6.3.7.8 Urinary System Findings (UR)", "pdf_verbatim": "| URTPT | Planned Time Point Name | Char | | Timing | Text description of time when a measurement or observation should be taken as defined in the protocol. This may be represented as an elapsed time relative to a fixed reference point (e.g., time of last dose). See URTPTNUM and URTPTREF. | Perm |", "figure_ref": null, "candidates": [{"md_atom_id": "md_dmUR_ex_a022", "md_file": "knowledge_base/domains/UR/examples.md", "md_atom_type": "TABLE_ROW", "md_parent_section": "§UR.2 [Example 2]", "md_verbatim": "| 1 | DEF | UR | DEF-0123 | 1 | BLDFLRT | Blood Flow Rate | 20 | mL/min | 20 | 20 | mL/min | KIDNEY | BILATERAL | PARA-AMINO HIPPURIC ACID CLEARANCE | 1 | VISIT 1 | 2016-03-15 |", "score": 0.4155, "match_basis": "verbatim_token+domain_route:UR"}, {"md_atom_id": "md_dmUR_ex_a013", "md_file": "knowledge_base/domains/UR/examples.md", "md_atom_type": "TABLE_ROW", "md_parent_section": "§UR.1 [Example 1]", "md_verbatim": "| 2 | ABC | UR | ABC-001-011 | 2 | RNLANUM | Number of Renal Arteries | 2 | | 2 | 2 | | KIDNEY | LEFT | | CT SCAN | 2016-03-30 |", "score": 0.4131, "match_basis": "verbatim_token+domain_route:UR"}, {"md_atom_id": "md_dmUR_ex_a016", "md_file": "knowledge_base/domains/UR/examples.md", "md_atom_type": "TABLE_ROW", "md_parent_section": "§UR.1 [Example 1]", "md_verbatim": "| 5 | ABC | UR | ABC-001-011 | 5 | SGDMGIND | Surgical Damage Indicator | Y | | Y | | | KIDNEY, CORTEX | LEFT | SUPERIOR | CT SCAN | 2016-03-30 |", "score": 0.4119, "match_basis": "verbatim_token+domain_route:UR"}, {"md_atom_id": "md_dmUR_ex_a023", "md_file": "knowledge_base/domains/UR/examples.md", "md_atom_type": "TABLE_ROW", "md_parent_section": "§UR.2 [Example 2]", "md_verbatim": "| 2 | DEF | UR | DEF-0123 | 2 | BLDFLRT | Blood Flow Rate | 10 | mL/min | 10 | 10 | mL/min | KIDNEY | LEFT | PARA-AMINO HIPPURIC ACID CLEARANCE | 2 | VISIT 2 | 2016-03-20 |", "score": 0.4118, "match_basis": "verbatim_token+domain_route:UR"}, {"md_atom_id": "md_dmUR_ex_a024", "md_file": "knowledge_base/domains/UR/examples.md", "md_atom_type": "TABLE_ROW", "md_parent_section": "§UR.2 [Example 2]", "md_verbatim": "| 3 | DEF | UR | DEF-0123 | 3 | BLDFLRT | Blood Flow Rate | 10 | mL/min | 10 | 10 | mL/min | KIDNEY | RIGHT | PARA-AMINO HIPPURIC ACID CLEARANCE | 3 | VISIT 3 | 2016-04-07 |", "score": 0.4118, "match_basis": "verbatim_token+domain_route:UR"}], "candidate_count": 5, "zero_candidate": false}
{"pdf_atom_id": "ig34_p0314_a006", "pdf_atom_type": "TABLE_ROW", "pdf_source": "SDTMIG_v3.4", "pdf_page": 314, "pdf_parent_section": "§6.3.7.8 Urinary System Findings (UR)", "pdf_verbatim": "| URTPTNUM | Planned Time Point Number | Num | | Timing | Numeric version of planned time point used in sorting. | Perm |", "figure_ref": null, "candidates": [{"md_atom_id": "md_dmUR_ex_a013", "md_file": "knowledge_base/domains/UR/examples.md", "md_atom_type": "TABLE_ROW", "md_parent_section": "§UR.1 [Example 1]", "md_verbatim": "| 2 | ABC | UR | ABC-001-011 | 2 | RNLANUM | Number of Renal Arteries | 2 | | 2 | 2 | | KIDNEY | LEFT | | CT SCAN | 2016-03-30 |", "score": 0.4571, "match_basis": "verbatim_token+domain_route:UR"}, {"md_atom_id": "md_dmUR_ex_a014", "md_file": "knowledge_base/domains/UR/examples.md", "md_atom_type": "TABLE_ROW", "md_parent_section": "§UR.1 [Example 1]", "md_verbatim": "| 3 | ABC | UR | ABC-001-011 | 3 | RNLVNUM | Number of Renal Veins | 1 | | 1 | 1 | | KIDNEY | LEFT | | CT SCAN | 2016-03-30 |", "score": 0.4387, "match_basis": "verbatim_token+domain_route:UR"}, {"md_atom_id": "md_dmUR_ex_a016", "md_file": "knowledge_base/domains/UR/examples.md", "md_atom_type": "TABLE_ROW", "md_parent_section": "§UR.1 [Example 1]", "md_verbatim": "| 5 | ABC | UR | ABC-001-011 | 5 | SGDMGIND | Surgical Damage Indicator | Y | | Y | | | KIDNEY, CORTEX | LEFT | SUPERIOR | CT SCAN | 2016-03-30 |", "score": 0.4225, "match_basis": "verbatim_token+domain_route:UR"}, {"md_atom_id": "md_dmUR_ex_a023", "md_file": "knowledge_base/domains/UR/examples.md", "md_atom_type": "TABLE_ROW", "md_parent_section": "§UR.2 [Example 2]", "md_verbatim": "| 2 | DEF | UR | DEF-0123 | 2 | BLDFLRT | Blood Flow Rate | 10 | mL/min | 10 | 10 | mL/min | KIDNEY | LEFT | PARA-AMINO HIPPURIC ACID CLEARANCE | 2 | VISIT 2 | 2016-03-20 |", "score": 0.4146, "match_basis": "verbatim_token+domain_route:UR"}, {"md_atom_id": "md_dmUR_ex_a024", "md_file": "knowledge_base/domains/UR/examples.md", "md_atom_type": "TABLE_ROW", "md_parent_section": "§UR.2 [Example 2]", "md_verbatim": "| 3 | DEF | UR | DEF-0123 | 3 | BLDFLRT | Blood Flow Rate | 10 | mL/min | 10 | 10 | mL/min | KIDNEY | RIGHT | PARA-AMINO HIPPURIC ACID CLEARANCE | 3 | VISIT 3 | 2016-04-07 |", "score": 0.4145, "match_basis": "verbatim_token+domain_route:UR"}], "candidate_count": 5, "zero_candidate": false}
{"pdf_atom_id": "ig34_p0314_a007", "pdf_atom_type": "TABLE_ROW", "pdf_source": "SDTMIG_v3.4", "pdf_page": 314, "pdf_parent_section": "§6.3.7.8 Urinary System Findings (UR)", "pdf_verbatim": "| URELTM | Planned Elapsed Time from Time Point Ref | Char | ISO 8601 duration | Timing | Planned elapsed time relative to a planned fixed reference (URTPTREF; e.g., \"PREVIOUS DOSE\", \"PREVIOUS MEAL\"). This variable is useful where there are repetitive measures. Not a clock time or a date/time variable, but an interval, represented as ISO duration. | Perm |", "figure_ref": null, "candidates": [{"md_atom_id": "md_dmUR_ex_a022", "md_file": "knowledge_base/domains/UR/examples.md", "md_atom_type": "TABLE_ROW", "md_parent_section": "§UR.2 [Example 2]", "md_verbatim": "| 1 | DEF | UR | DEF-0123 | 1 | BLDFLRT | Blood Flow Rate | 20 | mL/min | 20 | 20 | mL/min | KIDNEY | BILATERAL | PARA-AMINO HIPPURIC ACID CLEARANCE | 1 | VISIT 1 | 2016-03-15 |", "score": 0.4238, "match_basis": "verbatim_token+domain_route:UR"}, {"md_atom_id": "md_dmUR_ex_a023", "md_file": "knowledge_base/domains/UR/examples.md", "md_atom_type": "TABLE_ROW", "md_parent_section": "§UR.2 [Example 2]", "md_verbatim": "| 2 | DEF | UR | DEF-0123 | 2 | BLDFLRT | Blood Flow Rate | 10 | mL/min | 10 | 10 | mL/min | KIDNEY | LEFT | PARA-AMINO HIPPURIC ACID CLEARANCE | 2 | VISIT 2 | 2016-03-20 |", "score": 0.4161, "match_basis": "verbatim_token+domain_route:UR"}, {"md_atom_id": "md_dmUR_ex_a024", "md_file": "knowledge_base/domains/UR/examples.md", "md_atom_type": "TABLE_ROW", "md_parent_section": "§UR.2 [Example 2]", "md_verbatim": "| 3 | DEF | UR | DEF-0123 | 3 | BLDFLRT | Blood Flow Rate | 10 | mL/min | 10 | 10 | mL/min | KIDNEY | RIGHT | PARA-AMINO HIPPURIC ACID CLEARANCE | 3 | VISIT 3 | 2016-04-07 |", "score": 0.416, "match_basis": "verbatim_token+domain_route:UR"}, {"md_atom_id": "md_dmUR_ex_a013", "md_file": "knowledge_base/domains/UR/examples.md", "md_atom_type": "TABLE_ROW", "md_parent_section": "§UR.1 [Example 1]", "md_verbatim": "| 2 | ABC | UR | ABC-001-011 | 2 | RNLANUM | Number of Renal Arteries | 2 | | 2 | 2 | | KIDNEY | LEFT | | CT SCAN | 2016-03-30 |", "score": 0.4133, "match_basis": "verbatim_token+domain_route:UR"}, {"md_atom_id": "md_dmUR_ex_a016", "md_file": "knowledge_base/domains/UR/examples.md", "md_atom_type": "TABLE_ROW", "md_parent_section": "§UR.1 [Example 1]", "md_verbatim": "| 5 | ABC | UR | ABC-001-011 | 5 | SGDMGIND | Surgical Damage Indicator | Y | | Y | | | KIDNEY, CORTEX | LEFT | SUPERIOR | CT SCAN | 2016-03-30 |", "score": 0.408, "match_basis": "verbatim_token+domain_route:UR"}], "candidate_count": 5, "zero_candidate": false}
{"pdf_atom_id": "ig34_p0314_a008", "pdf_atom_type": "TABLE_ROW", "pdf_source": "SDTMIG_v3.4", "pdf_page": 314, "pdf_parent_section": "§6.3.7.8 Urinary System Findings (UR)", "pdf_verbatim": "| URTPTREF | Time Point Reference | Char | | Timing | Description of the fixed reference point referred to by URELTM, URTPTNUM, and URTPT. Examples: \"PREVIOUS DOSE\", \"PREVIOUS MEAL\". | Perm |", "figure_ref": null, "candidates": [{"md_atom_id": "md_dmUR_ex_a014", "md_file": "knowledge_base/domains/UR/examples.md", "md_atom_type": "TABLE_ROW", "md_parent_section": "§UR.1 [Example 1]", "md_verbatim": "| 3 | ABC | UR | ABC-001-011 | 3 | RNLVNUM | Number of Renal Veins | 1 | | 1 | 1 | | KIDNEY | LEFT | | CT SCAN | 2016-03-30 |", "score": 0.4135, "match_basis": "verbatim_token+domain_route:UR"}, {"md_atom_id": "md_dmUR_ex_a013", "md_file": "knowledge_base/domains/UR/examples.md", "md_atom_type": "TABLE_ROW", "md_parent_section": "§UR.1 [Example 1]", "md_verbatim": "| 2 | ABC | UR | ABC-001-011 | 2 | RNLANUM | Number of Renal Arteries | 2 | | 2 | 2 | | KIDNEY | LEFT | | CT SCAN | 2016-03-30 |", "score": 0.413, "match_basis": "verbatim_token+domain_route:UR"}, {"md_atom_id": "md_dmUR_ex_a023", "md_file": "knowledge_base/domains/UR/examples.md", "md_atom_type": "TABLE_ROW", "md_parent_section": "§UR.2 [Example 2]", "md_verbatim": "| 2 | DEF | UR | DEF-0123 | 2 | BLDFLRT | Blood Flow Rate | 10 | mL/min | 10 | 10 | mL/min | KIDNEY | LEFT | PARA-AMINO HIPPURIC ACID CLEARANCE | 2 | VISIT 2 | 2016-03-20 |", "score": 0.4112, "match_basis": "verbatim_token+domain_route:UR"}, {"md_atom_id": "md_dmUR_ex_a024", "md_file": "knowledge_base/domains/UR/examples.md", "md_atom_type": "TABLE_ROW", "md_parent_section": "§UR.2 [Example 2]", "md_verbatim": "| 3 | DEF | UR | DEF-0123 | 3 | BLDFLRT | Blood Flow Rate | 10 | mL/min | 10 | 10 | mL/min | KIDNEY | RIGHT | PARA-AMINO HIPPURIC ACID CLEARANCE | 3 | VISIT 3 | 2016-04-07 |", "score": 0.4111, "match_basis": "verbatim_token+domain_route:UR"}, {"md_atom_id": "md_dmUR_ex_a022", "md_file": "knowledge_base/domains/UR/examples.md", "md_atom_type": "TABLE_ROW", "md_parent_section": "§UR.2 [Example 2]", "md_verbatim": "| 1 | DEF | UR | DEF-0123 | 1 | BLDFLRT | Blood Flow Rate | 20 | mL/min | 20 | 20 | mL/min | KIDNEY | BILATERAL | PARA-AMINO HIPPURIC ACID CLEARANCE | 1 | VISIT 1 | 2016-03-15 |", "score": 0.4108, "match_basis": "verbatim_token+domain_route:UR"}], "candidate_count": 5, "zero_candidate": false}
{"pdf_atom_id": "ig34_p0314_a009", "pdf_atom_type": "TABLE_ROW", "pdf_source": "SDTMIG_v3.4", "pdf_page": 314, "pdf_parent_section": "§6.3.7.8 Urinary System Findings (UR)", "pdf_verbatim": "| URRFTDTC | Date/Time of Reference Time Point | Char | ISO 8601 datetime or interval | Timing | Date/time for a fixed reference time point defined by URTPTREF. | Perm |", "figure_ref": null, "candidates": [{"md_atom_id": "md_dmUR_ex_a022", "md_file": "knowledge_base/domains/UR/examples.md", "md_atom_type": "TABLE_ROW", "md_parent_section": "§UR.2 [Example 2]", "md_verbatim": "| 1 | DEF | UR | DEF-0123 | 1 | BLDFLRT | Blood Flow Rate | 20 | mL/min | 20 | 20 | mL/min | KIDNEY | BILATERAL | PARA-AMINO HIPPURIC ACID CLEARANCE | 1 | VISIT 1 | 2016-03-15 |", "score": 0.4316, "match_basis": "verbatim_token+domain_route:UR"}, {"md_atom_id": "md_dmUR_ex_a023", "md_file": "knowledge_base/domains/UR/examples.md", "md_atom_type": "TABLE_ROW", "md_parent_section": "§UR.2 [Example 2]", "md_verbatim": "| 2 | DEF | UR | DEF-0123 | 2 | BLDFLRT | Blood Flow Rate | 10 | mL/min | 10 | 10 | mL/min | KIDNEY | LEFT | PARA-AMINO HIPPURIC ACID CLEARANCE | 2 | VISIT 2 | 2016-03-20 |", "score": 0.4261, "match_basis": "verbatim_token+domain_route:UR"}, {"md_atom_id": "md_dmUR_ex_a024", "md_file": "knowledge_base/domains/UR/examples.md", "md_atom_type": "TABLE_ROW", "md_parent_section": "§UR.2 [Example 2]", "md_verbatim": "| 3 | DEF | UR | DEF-0123 | 3 | BLDFLRT | Blood Flow Rate | 10 | mL/min | 10 | 10 | mL/min | KIDNEY | RIGHT | PARA-AMINO HIPPURIC ACID CLEARANCE | 3 | VISIT 3 | 2016-04-07 |", "score": 0.4258, "match_basis": "verbatim_token+domain_route:UR"}, {"md_atom_id": "md_dmUR_ex_a013", "md_file": "knowledge_base/domains/UR/examples.md", "md_atom_type": "TABLE_ROW", "md_parent_section": "§UR.1 [Example 1]", "md_verbatim": "| 2 | ABC | UR | ABC-001-011 | 2 | RNLANUM | Number of Renal Arteries | 2 | | 2 | 2 | | KIDNEY | LEFT | | CT SCAN | 2016-03-30 |", "score": 0.4152, "match_basis": "verbatim_token+domain_route:UR"}, {"md_atom_id": "md_dmUR_ex_a014", "md_file": "knowledge_base/domains/UR/examples.md", "md_atom_type": "TABLE_ROW", "md_parent_section": "§UR.1 [Example 1]", "md_verbatim": "| 3 | ABC | UR | ABC-001-011 | 3 | RNLVNUM | Number of Renal Veins | 1 | | 1 | 1 | | KIDNEY | LEFT | | CT SCAN | 2016-03-30 |", "score": 0.4078, "match_basis": "verbatim_token+domain_route:UR"}], "candidate_count": 5, "zero_candidate": false}
{"pdf_atom_id": "ig34_p0314_a010", "pdf_atom_type": "NOTE", "pdf_source": "SDTMIG_v3.4", "pdf_page": 314, "pdf_parent_section": "§6.3.7.8 Urinary System Findings (UR)", "pdf_verbatim": "1In this column, an asterisk (*) indicates that the variable may be subject to controlled terminology. CDISC/NCI codelist values are enclosed in parentheses.", "figure_ref": null, "candidates": [{"md_atom_id": "md_dmUR_ex_a005", "md_file": "knowledge_base/domains/UR/examples.md", "md_atom_type": "NOTE", "md_parent_section": "§UR.1 [Example 1]", "md_verbatim": "**Row 2:** Shows that the subject's left kidney had 2 renal arteries.", "score": 0.4688, "match_basis": "verbatim_token+domain_route:UR"}, {"md_atom_id": "md_dmUR_ex_a006", "md_file": "knowledge_base/domains/UR/examples.md", "md_atom_type": "NOTE", "md_parent_section": "§UR.1 [Example 1]", "md_verbatim": "**Row 3:** Shows that the subject's left kidney had 1 renal vein.", "score": 0.4574, "match_basis": "verbatim_token+domain_route:UR"}, {"md_atom_id": "md_dmUR_ex_a007", "md_file": "knowledge_base/domains/UR/examples.md", "md_atom_type": "NOTE", "md_parent_section": "§UR.1 [Example 1]", "md_verbatim": "**Row 4:** Shows that no hematomas were found in the kidney. If a hematoma had been present, the variable URLOC (with URDIR as necessary) would have specified where within the kidney.", "score": 0.4533, "match_basis": "verbatim_token+domain_route:UR"}, {"md_atom_id": "md_dmUR_ex_a004", "md_file": "knowledge_base/domains/UR/examples.md", "md_atom_type": "NOTE", "md_parent_section": "§UR.1 [Example 1]", "md_verbatim": "**Row 1:** Shows that the subject's left kidney was measured to be 126 mm long.", "score": 0.4485, "match_basis": "verbatim_token+domain_route:UR"}, {"md_atom_id": "md_dmUR_ex_a008", "md_file": "knowledge_base/domains/UR/examples.md", "md_atom_type": "NOTE", "md_parent_section": "§UR.1 [Example 1]", "md_verbatim": "**Row 5:** Shows that surgical damage was noted in the superior portion of the kidney cortex. Note that in SDTM, there is no way to clearly distinguish between the use of --LOC as a qualifier of --TEST vs. as a qualifier of results, as it is used here.", "score": 0.436, "match_basis": "verbatim_token+domain_route:UR"}], "candidate_count": 5, "zero_candidate": false}
{"pdf_atom_id": "ig34_p0314_a011", "pdf_atom_type": "HEADING", "pdf_source": "SDTMIG_v3.4", "pdf_page": 314, "pdf_parent_section": "§6.3.7.8 Urinary System Findings (UR)", "pdf_verbatim": "UR – Assumptions", "figure_ref": null, "candidates": [{"md_atom_id": "md_dmUR_assn_a001", "md_file": "knowledge_base/domains/UR/assumptions.md", "md_atom_type": "HEADING", "md_parent_section": "§UR [UR — Assumptions]", "md_verbatim": "# UR — Assumptions", "score": 1.0, "match_basis": "verbatim_token+domain_route:UR"}, {"md_atom_id": "md_dmUR_ex_a001", "md_file": "knowledge_base/domains/UR/examples.md", "md_atom_type": "HEADING", "md_parent_section": "§UR [UR — Examples]", "md_verbatim": "# UR — Examples", "score": 0.4, "match_basis": "verbatim_token+domain_route:UR"}, {"md_atom_id": "md_dmUR_ex_a002", "md_file": "knowledge_base/domains/UR/examples.md", "md_atom_type": "HEADING", "md_parent_section": "§UR [UR — Examples]", "md_verbatim": "## Example 1", "score": 0.4, "match_basis": "verbatim_token+domain_route:UR"}, {"md_atom_id": "md_dmUR_ex_a017", "md_file": "knowledge_base/domains/UR/examples.md", "md_atom_type": "HEADING", "md_parent_section": "§UR [UR — Examples]", "md_verbatim": "## Example 2", "score": 0.4, "match_basis": "verbatim_token+domain_route:UR"}], "candidate_count": 4, "zero_candidate": false}
{"pdf_atom_id": "ig34_p0314_a012", "pdf_atom_type": "LIST_ITEM", "pdf_source": "SDTMIG_v3.4", "pdf_page": 314, "pdf_parent_section": "§6.3.7.8 Urinary System Findings (UR)", "pdf_verbatim": "1.\tAny Identifiers, Timing variables, or Findings general observation class qualifiers may be added to the UR domain, but the following qualifiers would not generally be used: --MODIFY, --BODSYS, --ORNRLO, --ORNRHI, --STNRLO, --STNRHI, --NRIND, --LOINC, --SPCCND, --FAST, --TOX, --TOXGR, --SEV, --LLOQ.", "figure_ref": null, "candidates": [{"md_atom_id": "md_dmUR_assn_a002", "md_file": "knowledge_base/domains/UR/assumptions.md", "md_atom_type": "LIST_ITEM", "md_parent_section": "§UR [UR — Assumptions]", "md_verbatim": "1. Any Identifiers, Timing variables, or Findings general observation class qualifiers may be added to the UR domain, but the following qualifiers would not generally be used: --MODIFY, --BODSYS, --ORNRLO, --ORNRHI, --STNRLO, --STNRHI, --NRIND, --LOINC, --SPCCND, --FAST, --TOX, --TOXGR, --SEV, --LLOQ.", "score": 1.0, "match_basis": "verbatim_token+domain_route:UR"}, {"md_atom_id": "md_dmUR_ex_a003", "md_file": "knowledge_base/domains/UR/examples.md", "md_atom_type": "SENTENCE", "md_parent_section": "§UR.1 [Example 1]", "md_verbatim": "This example shows measurements of the kidney, number of renal arteries and veins, and presence/absence results for prespecified abnormalities of the kidneys. These findings were made using computed tomography (CT) imaging.", "score": 0.3467, "match_basis": "verbatim_token+domain_route:UR"}, {"md_atom_id": "md_dmUR_ex_a018", "md_file": "knowledge_base/domains/UR/examples.md", "md_atom_type": "SENTENCE", "md_parent_section": "§UR.2 [Example 2]", "md_verbatim": "This example shows a subject's renal blood flow measurement for each visit based on the subject's para-amino hippuric acid (PAH) clearance, indicated by URMETHOD = \"PARA-AMINO HIPPURIC ACID CLEARANCE\".", "score": 0.3346, "match_basis": "verbatim_token+domain_route:UR"}, {"md_atom_id": "md_dmUR_ex_a007", "md_file": "knowledge_base/domains/UR/examples.md", "md_atom_type": "NOTE", "md_parent_section": "§UR.1 [Example 1]", "md_verbatim": "**Row 4:** Shows that no hematomas were found in the kidney. If a hematoma had been present, the variable URLOC (with URDIR as necessary) would have specified where within the kidney.", "score": 0.3077, "match_basis": "verbatim_token+domain_route:UR"}, {"md_atom_id": "md_dmUR_ex_a008", "md_file": "knowledge_base/domains/UR/examples.md", "md_atom_type": "NOTE", "md_parent_section": "§UR.1 [Example 1]", "md_verbatim": "**Row 5:** Shows that surgical damage was noted in the superior portion of the kidney cortex. Note that in SDTM, there is no way to clearly distinguish between the use of --LOC as a qualifier of --TEST vs. as a qualifier of results, as it is used here.", "score": 0.2997, "match_basis": "verbatim_token+domain_route:UR"}], "candidate_count": 5, "zero_candidate": false}
{"pdf_atom_id": "ig34_p0314_a013", "pdf_atom_type": "HEADING", "pdf_source": "SDTMIG_v3.4", "pdf_page": 314, "pdf_parent_section": "§6.3.7.8 Urinary System Findings (UR)", "pdf_verbatim": "UR – Examples", "figure_ref": null, "candidates": [{"md_atom_id": "md_dmUR_ex_a001", "md_file": "knowledge_base/domains/UR/examples.md", "md_atom_type": "HEADING", "md_parent_section": "§UR [UR — Examples]", "md_verbatim": "# UR — Examples", "score": 1.0, "match_basis": "verbatim_token+domain_route:UR"}, {"md_atom_id": "md_dmUR_ex_a002", "md_file": "knowledge_base/domains/UR/examples.md", "md_atom_type": "HEADING", "md_parent_section": "§UR [UR — Examples]", "md_verbatim": "## Example 1", "score": 0.9, "match_basis": "verbatim_token+domain_route:UR"}, {"md_atom_id": "md_dmUR_ex_a017", "md_file": "knowledge_base/domains/UR/examples.md", "md_atom_type": "HEADING", "md_parent_section": "§UR [UR — Examples]", "md_verbatim": "## Example 2", "score": 0.9, "match_basis": "verbatim_token+domain_route:UR"}, {"md_atom_id": "md_dmUR_assn_a001", "md_file": "knowledge_base/domains/UR/assumptions.md", "md_atom_type": "HEADING", "md_parent_section": "§UR [UR — Assumptions]", "md_verbatim": "# UR — Assumptions", "score": 0.4, "match_basis": "verbatim_token+domain_route:UR"}], "candidate_count": 4, "zero_candidate": false}
{"pdf_atom_id": "ig34_p0314_a014", "pdf_atom_type": "HEADING", "pdf_source": "SDTMIG_v3.4", "pdf_page": 314, "pdf_parent_section": "§6.3.7.8 Urinary System Findings (UR)", "pdf_verbatim": "Example 1", "figure_ref": null, "candidates": [{"md_atom_id": "md_dmUR_ex_a002", "md_file": "knowledge_base/domains/UR/examples.md", "md_atom_type": "HEADING", "md_parent_section": "§UR [UR — Examples]", "md_verbatim": "## Example 1", "score": 1.0, "match_basis": "verbatim_token+domain_route:UR"}, {"md_atom_id": "md_dmUR_ex_a017", "md_file": "knowledge_base/domains/UR/examples.md", "md_atom_type": "HEADING", "md_parent_section": "§UR [UR — Examples]", "md_verbatim": "## Example 2", "score": 1.0, "match_basis": "verbatim_token+domain_route:UR"}, {"md_atom_id": "md_dmUR_ex_a001", "md_file": "knowledge_base/domains/UR/examples.md", "md_atom_type": "HEADING", "md_parent_section": "§UR [UR — Examples]", "md_verbatim": "# UR — Examples", "score": 0.9, "match_basis": "verbatim_token+domain_route:UR"}, {"md_atom_id": "md_dmUR_assn_a001", "md_file": "knowledge_base/domains/UR/assumptions.md", "md_atom_type": "HEADING", "md_parent_section": "§UR [UR — Assumptions]", "md_verbatim": "# UR — Assumptions", "score": 0.4, "match_basis": "verbatim_token+domain_route:UR"}], "candidate_count": 4, "zero_candidate": false}
{"pdf_atom_id": "ig34_p0314_a015", "pdf_atom_type": "SENTENCE", "pdf_source": "SDTMIG_v3.4", "pdf_page": 314, "pdf_parent_section": "§6.3.7.8 Urinary System Findings (UR)", "pdf_verbatim": "This example shows measurements of the kidney, number of renal arteries and veins, and presence/absence results for prespecified abnormalities of the kidneys.", "figure_ref": null, "candidates": [{"md_atom_id": "md_dmUR_ex_a003", "md_file": "knowledge_base/domains/UR/examples.md", "md_atom_type": "SENTENCE", "md_parent_section": "§UR.1 [Example 1]", "md_verbatim": "This example shows measurements of the kidney, number of renal arteries and veins, and presence/absence results for prespecified abnormalities of the kidneys. These findings were made using computed tomography (CT) imaging.", "score": 0.8229, "match_basis": "verbatim_token+domain_route:UR"}, {"md_atom_id": "md_dmUR_ex_a018", "md_file": "knowledge_base/domains/UR/examples.md", "md_atom_type": "SENTENCE", "md_parent_section": "§UR.2 [Example 2]", "md_verbatim": "This example shows a subject's renal blood flow measurement for each visit based on the subject's para-amino hippuric acid (PAH) clearance, indicated by URMETHOD = \"PARA-AMINO HIPPURIC ACID CLEARANCE\".", "score": 0.521, "match_basis": "verbatim_token+domain_route:UR"}, {"md_atom_id": "md_dmUR_ex_a005", "md_file": "knowledge_base/domains/UR/examples.md", "md_atom_type": "NOTE", "md_parent_section": "§UR.1 [Example 1]", "md_verbatim": "**Row 2:** Shows that the subject's left kidney had 2 renal arteries.", "score": 0.43, "match_basis": "verbatim_token+domain_route:UR"}, {"md_atom_id": "md_dmUR_ex_a007", "md_file": "knowledge_base/domains/UR/examples.md", "md_atom_type": "NOTE", "md_parent_section": "§UR.1 [Example 1]", "md_verbatim": "**Row 4:** Shows that no hematomas were found in the kidney. If a hematoma had been present, the variable URLOC (with URDIR as necessary) would have specified where within the kidney.", "score": 0.4141, "match_basis": "verbatim_token+domain_route:UR"}, {"md_atom_id": "md_dmUR_ex_a006", "md_file": "knowledge_base/domains/UR/examples.md", "md_atom_type": "NOTE", "md_parent_section": "§UR.1 [Example 1]", "md_verbatim": "**Row 3:** Shows that the subject's left kidney had 1 renal vein.", "score": 0.4018, "match_basis": "verbatim_token+domain_route:UR"}], "candidate_count": 5, "zero_candidate": false}
{"pdf_atom_id": "ig34_p0314_a016", "pdf_atom_type": "SENTENCE", "pdf_source": "SDTMIG_v3.4", "pdf_page": 314, "pdf_parent_section": "§6.3.7.8 Urinary System Findings (UR)", "pdf_verbatim": "These findings were made using computed tomography (CT) imaging.", "figure_ref": null, "candidates": [{"md_atom_id": "md_dmUR_ex_a003", "md_file": "knowledge_base/domains/UR/examples.md", "md_atom_type": "SENTENCE", "md_parent_section": "§UR.1 [Example 1]", "md_verbatim": "This example shows measurements of the kidney, number of renal arteries and veins, and presence/absence results for prespecified abnormalities of the kidneys. These findings were made using computed tomography (CT) imaging.", "score": 0.5886, "match_basis": "verbatim_token+domain_route:UR"}, {"md_atom_id": "md_dmUR_ex_a018", "md_file": "knowledge_base/domains/UR/examples.md", "md_atom_type": "SENTENCE", "md_parent_section": "§UR.2 [Example 2]", "md_verbatim": "This example shows a subject's renal blood flow measurement for each visit based on the subject's para-amino hippuric acid (PAH) clearance, indicated by URMETHOD = \"PARA-AMINO HIPPURIC ACID CLEARANCE\".", "score": 0.4231, "match_basis": "verbatim_token+domain_route:UR"}, {"md_atom_id": "md_dmUR_assn_a002", "md_file": "knowledge_base/domains/UR/assumptions.md", "md_atom_type": "LIST_ITEM", "md_parent_section": "§UR [UR — Assumptions]", "md_verbatim": "1. Any Identifiers, Timing variables, or Findings general observation class qualifiers may be added to the UR domain, but the following qualifiers would not generally be used: --MODIFY, --BODSYS, --ORNRLO, --ORNRHI, --STNRLO, --STNRHI, --NRIND, --LOINC, --SPCCND, --FAST, --TOX, --TOXGR, --SEV, --LLOQ.", "score": 0.3426, "match_basis": "verbatim_token+domain_route:UR"}, {"md_atom_id": "md_dmUR_ex_a007", "md_file": "knowledge_base/domains/UR/examples.md", "md_atom_type": "NOTE", "md_parent_section": "§UR.1 [Example 1]", "md_verbatim": "**Row 4:** Shows that no hematomas were found in the kidney. If a hematoma had been present, the variable URLOC (with URDIR as necessary) would have specified where within the kidney.", "score": 0.3412, "match_basis": "verbatim_token+domain_route:UR"}, {"md_atom_id": "md_dmUR_ex_a008", "md_file": "knowledge_base/domains/UR/examples.md", "md_atom_type": "NOTE", "md_parent_section": "§UR.1 [Example 1]", "md_verbatim": "**Row 5:** Shows that surgical damage was noted in the superior portion of the kidney cortex. Note that in SDTM, there is no way to clearly distinguish between the use of --LOC as a qualifier of --TEST vs. as a qualifier of results, as it is used here.", "score": 0.3378, "match_basis": "verbatim_token+domain_route:UR"}], "candidate_count": 5, "zero_candidate": false}
{"pdf_atom_id": "ig34_p0314_a017", "pdf_atom_type": "LIST_ITEM", "pdf_source": "SDTMIG_v3.4", "pdf_page": 314, "pdf_parent_section": "§6.3.7.8 Urinary System Findings (UR)", "pdf_verbatim": "Row 1:\tShows that the subject's left kidney was measured to be 126 mm long.", "figure_ref": null, "candidates": [{"md_atom_id": "md_dmUR_ex_a004", "md_file": "knowledge_base/domains/UR/examples.md", "md_atom_type": "NOTE", "md_parent_section": "§UR.1 [Example 1]", "md_verbatim": "**Row 1:** Shows that the subject's left kidney was measured to be 126 mm long.", "score": 0.85, "match_basis": "verbatim_token+domain_route:UR"}, {"md_atom_id": "md_dmUR_ex_a006", "md_file": "knowledge_base/domains/UR/examples.md", "md_atom_type": "NOTE", "md_parent_section": "§UR.1 [Example 1]", "md_verbatim": "**Row 3:** Shows that the subject's left kidney had 1 renal vein.", "score": 0.5676, "match_basis": "verbatim_token+domain_route:UR"}, {"md_atom_id": "md_dmUR_ex_a005", "md_file": "knowledge_base/domains/UR/examples.md", "md_atom_type": "NOTE", "md_parent_section": "§UR.1 [Example 1]", "md_verbatim": "**Row 2:** Shows that the subject's left kidney had 2 renal arteries.", "score": 0.5342, "match_basis": "verbatim_token+domain_route:UR"}, {"md_atom_id": "md_dmUR_assn_a002", "md_file": "knowledge_base/domains/UR/assumptions.md", "md_atom_type": "LIST_ITEM", "md_parent_section": "§UR [UR — Assumptions]", "md_verbatim": "1. Any Identifiers, Timing variables, or Findings general observation class qualifiers may be added to the UR domain, but the following qualifiers would not generally be used: --MODIFY, --BODSYS, --ORNRLO, --ORNRHI, --STNRLO, --STNRHI, --NRIND, --LOINC, --SPCCND, --FAST, --TOX, --TOXGR, --SEV, --LLOQ.", "score": 0.4046, "match_basis": "verbatim_token+domain_route:UR"}, {"md_atom_id": "md_dmUR_ex_a018", "md_file": "knowledge_base/domains/UR/examples.md", "md_atom_type": "SENTENCE", "md_parent_section": "§UR.2 [Example 2]", "md_verbatim": "This example shows a subject's renal blood flow measurement for each visit based on the subject's para-amino hippuric acid (PAH) clearance, indicated by URMETHOD = \"PARA-AMINO HIPPURIC ACID CLEARANCE\".", "score": 0.4044, "match_basis": "verbatim_token+domain_route:UR"}], "candidate_count": 5, "zero_candidate": false}
{"pdf_atom_id": "ig34_p0314_a018", "pdf_atom_type": "LIST_ITEM", "pdf_source": "SDTMIG_v3.4", "pdf_page": 314, "pdf_parent_section": "§6.3.7.8 Urinary System Findings (UR)", "pdf_verbatim": "Row 2:\tShows that the subject's left kidney had 2 renal arteries.", "figure_ref": null, "candidates": [{"md_atom_id": "md_dmUR_ex_a005", "md_file": "knowledge_base/domains/UR/examples.md", "md_atom_type": "NOTE", "md_parent_section": "§UR.1 [Example 1]", "md_verbatim": "**Row 2:** Shows that the subject's left kidney had 2 renal arteries.", "score": 0.85, "match_basis": "verbatim_token+domain_route:UR"}, {"md_atom_id": "md_dmUR_ex_a006", "md_file": "knowledge_base/domains/UR/examples.md", "md_atom_type": "NOTE", "md_parent_section": "§UR.1 [Example 1]", "md_verbatim": "**Row 3:** Shows that the subject's left kidney had 1 renal vein.", "score": 0.69, "match_basis": "verbatim_token+domain_route:UR"}, {"md_atom_id": "md_dmUR_ex_a004", "md_file": "knowledge_base/domains/UR/examples.md", "md_atom_type": "NOTE", "md_parent_section": "§UR.1 [Example 1]", "md_verbatim": "**Row 1:** Shows that the subject's left kidney was measured to be 126 mm long.", "score": 0.5342, "match_basis": "verbatim_token+domain_route:UR"}, {"md_atom_id": "md_dmUR_ex_a013", "md_file": "knowledge_base/domains/UR/examples.md", "md_atom_type": "TABLE_ROW", "md_parent_section": "§UR.1 [Example 1]", "md_verbatim": "| 2 | ABC | UR | ABC-001-011 | 2 | RNLANUM | Number of Renal Arteries | 2 | | 2 | 2 | | KIDNEY | LEFT | | CT SCAN | 2016-03-30 |", "score": 0.4593, "match_basis": "verbatim_token+domain_route:UR"}, {"md_atom_id": "md_dmUR_assn_a002", "md_file": "knowledge_base/domains/UR/assumptions.md", "md_atom_type": "LIST_ITEM", "md_parent_section": "§UR [UR — Assumptions]", "md_verbatim": "1. Any Identifiers, Timing variables, or Findings general observation class qualifiers may be added to the UR domain, but the following qualifiers would not generally be used: --MODIFY, --BODSYS, --ORNRLO, --ORNRHI, --STNRLO, --STNRHI, --NRIND, --LOINC, --SPCCND, --FAST, --TOX, --TOXGR, --SEV, --LLOQ.", "score": 0.4046, "match_basis": "verbatim_token+domain_route:UR"}], "candidate_count": 5, "zero_candidate": false}
{"pdf_atom_id": "ig34_p0314_a019", "pdf_atom_type": "LIST_ITEM", "pdf_source": "SDTMIG_v3.4", "pdf_page": 314, "pdf_parent_section": "§6.3.7.8 Urinary System Findings (UR)", "pdf_verbatim": "Row 3:\tShows that the subject's left kidney had 1 renal vein.", "figure_ref": null, "candidates": [{"md_atom_id": "md_dmUR_ex_a006", "md_file": "knowledge_base/domains/UR/examples.md", "md_atom_type": "NOTE", "md_parent_section": "§UR.1 [Example 1]", "md_verbatim": "**Row 3:** Shows that the subject's left kidney had 1 renal vein.", "score": 0.85, "match_basis": "verbatim_token+domain_route:UR"}, {"md_atom_id": "md_dmUR_ex_a005", "md_file": "knowledge_base/domains/UR/examples.md", "md_atom_type": "NOTE", "md_parent_section": "§UR.1 [Example 1]", "md_verbatim": "**Row 2:** Shows that the subject's left kidney had 2 renal arteries.", "score": 0.69, "match_basis": "verbatim_token+domain_route:UR"}, {"md_atom_id": "md_dmUR_ex_a004", "md_file": "knowledge_base/domains/UR/examples.md", "md_atom_type": "NOTE", "md_parent_section": "§UR.1 [Example 1]", "md_verbatim": "**Row 1:** Shows that the subject's left kidney was measured to be 126 mm long.", "score": 0.5676, "match_basis": "verbatim_token+domain_route:UR"}, {"md_atom_id": "md_dmUR_ex_a014", "md_file": "knowledge_base/domains/UR/examples.md", "md_atom_type": "TABLE_ROW", "md_parent_section": "§UR.1 [Example 1]", "md_verbatim": "| 3 | ABC | UR | ABC-001-011 | 3 | RNLVNUM | Number of Renal Veins | 1 | | 1 | 1 | | KIDNEY | LEFT | | CT SCAN | 2016-03-30 |", "score": 0.415, "match_basis": "verbatim_token+domain_route:UR"}, {"md_atom_id": "md_dmUR_assn_a002", "md_file": "knowledge_base/domains/UR/assumptions.md", "md_atom_type": "LIST_ITEM", "md_parent_section": "§UR [UR — Assumptions]", "md_verbatim": "1. Any Identifiers, Timing variables, or Findings general observation class qualifiers may be added to the UR domain, but the following qualifiers would not generally be used: --MODIFY, --BODSYS, --ORNRLO, --ORNRHI, --STNRLO, --STNRHI, --NRIND, --LOINC, --SPCCND, --FAST, --TOX, --TOXGR, --SEV, --LLOQ.", "score": 0.4048, "match_basis": "verbatim_token+domain_route:UR"}], "candidate_count": 5, "zero_candidate": false}
{"pdf_atom_id": "ig34_p0314_a020", "pdf_atom_type": "LIST_ITEM", "pdf_source": "SDTMIG_v3.4", "pdf_page": 314, "pdf_parent_section": "§6.3.7.8 Urinary System Findings (UR)", "pdf_verbatim": "Row 4:\tShows that no hematomas were found in the kidney. If a hematoma had been present, the variable URLOC (with URDIR as necessary) would have specified where within the kidney.", "figure_ref": null, "candidates": [{"md_atom_id": "md_dmUR_ex_a007", "md_file": "knowledge_base/domains/UR/examples.md", "md_atom_type": "NOTE", "md_parent_section": "§UR.1 [Example 1]", "md_verbatim": "**Row 4:** Shows that no hematomas were found in the kidney. If a hematoma had been present, the variable URLOC (with URDIR as necessary) would have specified where within the kidney.", "score": 0.85, "match_basis": "verbatim_token+domain_route:UR"}, {"md_atom_id": "md_dmUR_assn_a002", "md_file": "knowledge_base/domains/UR/assumptions.md", "md_atom_type": "LIST_ITEM", "md_parent_section": "§UR [UR — Assumptions]", "md_verbatim": "1. Any Identifiers, Timing variables, or Findings general observation class qualifiers may be added to the UR domain, but the following qualifiers would not generally be used: --MODIFY, --BODSYS, --ORNRLO, --ORNRHI, --STNRLO, --STNRHI, --NRIND, --LOINC, --SPCCND, --FAST, --TOX, --TOXGR, --SEV, --LLOQ.", "score": 0.4577, "match_basis": "verbatim_token+domain_route:UR"}, {"md_atom_id": "md_dmUR_ex_a003", "md_file": "knowledge_base/domains/UR/examples.md", "md_atom_type": "SENTENCE", "md_parent_section": "§UR.1 [Example 1]", "md_verbatim": "This example shows measurements of the kidney, number of renal arteries and veins, and presence/absence results for prespecified abnormalities of the kidneys. These findings were made using computed tomography (CT) imaging.", "score": 0.4066, "match_basis": "verbatim_token+domain_route:UR"}, {"md_atom_id": "md_dmUR_ex_a006", "md_file": "knowledge_base/domains/UR/examples.md", "md_atom_type": "NOTE", "md_parent_section": "§UR.1 [Example 1]", "md_verbatim": "**Row 3:** Shows that the subject's left kidney had 1 renal vein.", "score": 0.34, "match_basis": "verbatim_token+domain_route:UR"}, {"md_atom_id": "md_dmUR_ex_a018", "md_file": "knowledge_base/domains/UR/examples.md", "md_atom_type": "SENTENCE", "md_parent_section": "§UR.2 [Example 2]", "md_verbatim": "This example shows a subject's renal blood flow measurement for each visit based on the subject's para-amino hippuric acid (PAH) clearance, indicated by URMETHOD = \"PARA-AMINO HIPPURIC ACID CLEARANCE\".", "score": 0.3363, "match_basis": "verbatim_token+domain_route:UR"}], "candidate_count": 5, "zero_candidate": false}
{"pdf_atom_id": "ig34_p0314_a021", "pdf_atom_type": "LIST_ITEM", "pdf_source": "SDTMIG_v3.4", "pdf_page": 314, "pdf_parent_section": "§6.3.7.8 Urinary System Findings (UR)", "pdf_verbatim": "Row 5:\tShows that surgical damage was noted in the superior portion of the kidney cortex. Note that in SDTM, there is no way to clearly distinguish between the use of --LOC as a qualifier of --TEST vs. as a qualifier of results, as it is used here.", "figure_ref": null, "candidates": [{"md_atom_id": "md_dmUR_ex_a008", "md_file": "knowledge_base/domains/UR/examples.md", "md_atom_type": "NOTE", "md_parent_section": "§UR.1 [Example 1]", "md_verbatim": "**Row 5:** Shows that surgical damage was noted in the superior portion of the kidney cortex. Note that in SDTM, there is no way to clearly distinguish between the use of --LOC as a qualifier of --TEST vs. as a qualifier of results, as it is used here.", "score": 0.85, "match_basis": "verbatim_token+domain_route:UR"}, {"md_atom_id": "md_dmUR_assn_a002", "md_file": "knowledge_base/domains/UR/assumptions.md", "md_atom_type": "LIST_ITEM", "md_parent_section": "§UR [UR — Assumptions]", "md_verbatim": "1. Any Identifiers, Timing variables, or Findings general observation class qualifiers may be added to the UR domain, but the following qualifiers would not generally be used: --MODIFY, --BODSYS, --ORNRLO, --ORNRHI, --STNRLO, --STNRHI, --NRIND, --LOINC, --SPCCND, --FAST, --TOX, --TOXGR, --SEV, --LLOQ.", "score": 0.4497, "match_basis": "verbatim_token+domain_route:UR"}, {"md_atom_id": "md_dmUR_ex_a003", "md_file": "knowledge_base/domains/UR/examples.md", "md_atom_type": "SENTENCE", "md_parent_section": "§UR.1 [Example 1]", "md_verbatim": "This example shows measurements of the kidney, number of renal arteries and veins, and presence/absence results for prespecified abnormalities of the kidneys. These findings were made using computed tomography (CT) imaging.", "score": 0.3952, "match_basis": "verbatim_token+domain_route:UR"}, {"md_atom_id": "md_dmUR_ex_a016", "md_file": "knowledge_base/domains/UR/examples.md", "md_atom_type": "TABLE_ROW", "md_parent_section": "§UR.1 [Example 1]", "md_verbatim": "| 5 | ABC | UR | ABC-001-011 | 5 | SGDMGIND | Surgical Damage Indicator | Y | | Y | | | KIDNEY, CORTEX | LEFT | SUPERIOR | CT SCAN | 2016-03-30 |", "score": 0.394, "match_basis": "verbatim_token+domain_route:UR"}, {"md_atom_id": "md_dmUR_ex_a018", "md_file": "knowledge_base/domains/UR/examples.md", "md_atom_type": "SENTENCE", "md_parent_section": "§UR.2 [Example 2]", "md_verbatim": "This example shows a subject's renal blood flow measurement for each visit based on the subject's para-amino hippuric acid (PAH) clearance, indicated by URMETHOD = \"PARA-AMINO HIPPURIC ACID CLEARANCE\".", "score": 0.3558, "match_basis": "verbatim_token+domain_route:UR"}], "candidate_count": 5, "zero_candidate": false}
{"pdf_atom_id": "ig34_p0315_a001", "pdf_atom_type": "CODE_LITERAL", "pdf_source": "SDTMIG_v3.4", "pdf_page": 315, "pdf_parent_section": "§6.3.7.8 Urinary System Findings (UR)", "pdf_verbatim": "ur.xpt", "figure_ref": null, "candidates": [{"md_atom_id": "md_dmUR_ex_a009", "md_file": "knowledge_base/domains/UR/examples.md", "md_atom_type": "NOTE", "md_parent_section": "§UR.1 [Example 1]", "md_verbatim": "ur.xpt", "score": 0.79, "match_basis": "verbatim_token+domain_route:UR"}, {"md_atom_id": "md_dmUR_ex_a019", "md_file": "knowledge_base/domains/UR/examples.md", "md_atom_type": "NOTE", "md_parent_section": "§UR.2 [Example 2]", "md_verbatim": "ur.xpt", "score": 0.79, "match_basis": "verbatim_token+domain_route:UR"}, {"md_atom_id": "md_dmUR_assn_a001", "md_file": "knowledge_base/domains/UR/assumptions.md", "md_atom_type": "HEADING", "md_parent_section": "§UR [UR — Assumptions]", "md_verbatim": "# UR — Assumptions", "score": 0.19, "match_basis": "verbatim_token+domain_route:UR"}, {"md_atom_id": "md_dmUR_assn_a002", "md_file": "knowledge_base/domains/UR/assumptions.md", "md_atom_type": "LIST_ITEM", "md_parent_section": "§UR [UR — Assumptions]", "md_verbatim": "1. Any Identifiers, Timing variables, or Findings general observation class qualifiers may be added to the UR domain, but the following qualifiers would not generally be used: --MODIFY, --BODSYS, --ORNRLO, --ORNRHI, --STNRLO, --STNRHI, --NRIND, --LOINC, --SPCCND, --FAST, --TOX, --TOXGR, --SEV, --LLOQ.", "score": 0.19, "match_basis": "verbatim_token+domain_route:UR"}, {"md_atom_id": "md_dmUR_ex_a001", "md_file": "knowledge_base/domains/UR/examples.md", "md_atom_type": "HEADING", "md_parent_section": "§UR [UR — Examples]", "md_verbatim": "# UR — Examples", "score": 0.19, "match_basis": "verbatim_token+domain_route:UR"}, {"md_atom_id": "md_dmUR_ex_a002", "md_file": "knowledge_base/domains/UR/examples.md", "md_atom_type": "HEADING", "md_parent_section": "§UR [UR — Examples]", "md_verbatim": "## Example 1", "score": 0.19, "match_basis": "verbatim_token+domain_route:UR"}, {"md_atom_id": "md_dmUR_ex_a003", "md_file": "knowledge_base/domains/UR/examples.md", "md_atom_type": "SENTENCE", "md_parent_section": "§UR.1 [Example 1]", "md_verbatim": "This example shows measurements of the kidney, number of renal arteries and veins, and presence/absence results for prespecified abnormalities of the kidneys. These findings were made using computed tomography (CT) imaging.", "score": 0.19, "match_basis": "verbatim_token+domain_route:UR"}, {"md_atom_id": "md_dmUR_ex_a004", "md_file": "knowledge_base/domains/UR/examples.md", "md_atom_type": "NOTE", "md_parent_section": "§UR.1 [Example 1]", "md_verbatim": "**Row 1:** Shows that the subject's left kidney was measured to be 126 mm long.", "score": 0.19, "match_basis": "verbatim_token+domain_route:UR"}, {"md_atom_id": "md_dmUR_ex_a005", "md_file": "knowledge_base/domains/UR/examples.md", "md_atom_type": "NOTE", "md_parent_section": "§UR.1 [Example 1]", "md_verbatim": "**Row 2:** Shows that the subject's left kidney had 2 renal arteries.", "score": 0.19, "match_basis": "verbatim_token+domain_route:UR"}, {"md_atom_id": "md_dmUR_ex_a006", "md_file": "knowledge_base/domains/UR/examples.md", "md_atom_type": "NOTE", "md_parent_section": "§UR.1 [Example 1]", "md_verbatim": "**Row 3:** Shows that the subject's left kidney had 1 renal vein.", "score": 0.19, "match_basis": "verbatim_token+domain_route:UR"}], "candidate_count": 10, "zero_candidate": false}
{"pdf_atom_id": "ig34_p0315_a002", "pdf_atom_type": "TABLE_HEADER", "pdf_source": "SDTMIG_v3.4", "pdf_page": 315, "pdf_parent_section": "§6.3.7.8 Urinary System Findings (UR)", "pdf_verbatim": "| Row | STUDYID | DOMAIN | USUBJID | URSEQ | URTESTCD | URTEST | URORRES | URORRESU | URSTRESC | URSTRESN | URSTRESU | URLOC | URLAT | URDIR | URMETHOD | URDTC |", "figure_ref": null, "candidates": [{"md_atom_id": "md_dmUR_ex_a010", "md_file": "knowledge_base/domains/UR/examples.md", "md_atom_type": "TABLE_HEADER", "md_parent_section": "§UR.1 [Example 1]", "md_verbatim": "| Row | STUDYID | DOMAIN | USUBJID | URSEQ | URTESTCD | URTEST | URORRES | URORRESU | URSTRESC | URSTRESN | URSTRESU | URLOC | URLAT | URDIR | URMETHOD | URDTC |", "score": 1.0, "match_basis": "verbatim_token+domain_route:UR"}, {"md_atom_id": "md_dmUR_ex_a020", "md_file": "knowledge_base/domains/UR/examples.md", "md_atom_type": "TABLE_HEADER", "md_parent_section": "§UR.2 [Example 2]", "md_verbatim": "| Row | STUDYID | DOMAIN | USUBJID | URSEQ | URTESTCD | URTEST | URORRES | URORRESU | URSTRESC | URSTRESN | URSTRESU | URLOC | URLAT | URMETHOD | VISITNUM | VISIT | URDTC |", "score": 0.9158, "match_basis": "verbatim_token+domain_route:UR"}, {"md_atom_id": "md_dmUR_ex_a011", "md_file": "knowledge_base/domains/UR/examples.md", "md_atom_type": "TABLE_HEADER", "md_parent_section": "§UR.1 [Example 1]", "md_verbatim": "|-----|---------|--------|---------|-------|----------|--------|---------|----------|----------|----------|----------|-------|-------|-------|----------|-------|", "score": 0.4, "match_basis": "verbatim_token+domain_route:UR"}, {"md_atom_id": "md_dmUR_ex_a021", "md_file": "knowledge_base/domains/UR/examples.md", "md_atom_type": "TABLE_HEADER", "md_parent_section": "§UR.2 [Example 2]", "md_verbatim": "|-----|---------|--------|---------|-------|----------|--------|---------|----------|----------|----------|----------|-------|-------|----------|----------|-------|-------|", "score": 0.4, "match_basis": "verbatim_token+domain_route:UR"}, {"md_atom_id": "md_dmUR_ex_a015", "md_file": "knowledge_base/domains/UR/examples.md", "md_atom_type": "TABLE_ROW", "md_parent_section": "§UR.1 [Example 1]", "md_verbatim": "| 4 | ABC | UR | ABC-001-011 | 4 | HEMAIND | Hematoma Indicator | N | | N | | | KIDNEY | | | CT SCAN | 2016-03-30 |", "score": 0.3647, "match_basis": "verbatim_token+domain_route:UR"}], "candidate_count": 5, "zero_candidate": false}
{"pdf_atom_id": "ig34_p0315_a003", "pdf_atom_type": "TABLE_ROW", "pdf_source": "SDTMIG_v3.4", "pdf_page": 315, "pdf_parent_section": "§6.3.7.8 Urinary System Findings (UR)", "pdf_verbatim": "| 1 | ABC | UR | ABC-001-011 | 1 | LENGTH | Length | 12.6 | cm | 126 | 126 | mm | KIDNEY | LEFT | | CT SCAN | 2016-03-30 |", "figure_ref": null, "candidates": [{"md_atom_id": "md_dmUR_ex_a012", "md_file": "knowledge_base/domains/UR/examples.md", "md_atom_type": "TABLE_ROW", "md_parent_section": "§UR.1 [Example 1]", "md_verbatim": "| 1 | ABC | UR | ABC-001-011 | 1 | LENGTH | Length | 12.6 | cm | 126 | 126 | mm | KIDNEY | LEFT | | CT SCAN | 2016-03-30 |", "score": 1.0, "match_basis": "verbatim_token+domain_route:UR"}, {"md_atom_id": "md_dmUR_ex_a014", "md_file": "knowledge_base/domains/UR/examples.md", "md_atom_type": "TABLE_ROW", "md_parent_section": "§UR.1 [Example 1]", "md_verbatim": "| 3 | ABC | UR | ABC-001-011 | 3 | RNLVNUM | Number of Renal Veins | 1 | | 1 | 1 | | KIDNEY | LEFT | | CT SCAN | 2016-03-30 |", "score": 0.6437, "match_basis": "verbatim_token+domain_route:UR"}, {"md_atom_id": "md_dmUR_ex_a013", "md_file": "knowledge_base/domains/UR/examples.md", "md_atom_type": "TABLE_ROW", "md_parent_section": "§UR.1 [Example 1]", "md_verbatim": "| 2 | ABC | UR | ABC-001-011 | 2 | RNLANUM | Number of Renal Arteries | 2 | | 2 | 2 | | KIDNEY | LEFT | | CT SCAN | 2016-03-30 |", "score": 0.6229, "match_basis": "verbatim_token+domain_route:UR"}, {"md_atom_id": "md_dmUR_ex_a015", "md_file": "knowledge_base/domains/UR/examples.md", "md_atom_type": "TABLE_ROW", "md_parent_section": "§UR.1 [Example 1]", "md_verbatim": "| 4 | ABC | UR | ABC-001-011 | 4 | HEMAIND | Hematoma Indicator | N | | N | | | KIDNEY | | | CT SCAN | 2016-03-30 |", "score": 0.6062, "match_basis": "verbatim_token+domain_route:UR"}, {"md_atom_id": "md_dmUR_ex_a016", "md_file": "knowledge_base/domains/UR/examples.md", "md_atom_type": "TABLE_ROW", "md_parent_section": "§UR.1 [Example 1]", "md_verbatim": "| 5 | ABC | UR | ABC-001-011 | 5 | SGDMGIND | Surgical Damage Indicator | Y | | Y | | | KIDNEY, CORTEX | LEFT | SUPERIOR | CT SCAN | 2016-03-30 |", "score": 0.5592, "match_basis": "verbatim_token+domain_route:UR"}], "candidate_count": 5, "zero_candidate": false}
{"pdf_atom_id": "ig34_p0315_a004", "pdf_atom_type": "TABLE_ROW", "pdf_source": "SDTMIG_v3.4", "pdf_page": 315, "pdf_parent_section": "§6.3.7.8 Urinary System Findings (UR)", "pdf_verbatim": "| 2 | ABC | UR | ABC-001-011 | 2 | RNLANUM | Number of Renal Arteries | 2 | | 2 | 2 | | KIDNEY | LEFT | | CT SCAN | 2016-03-30 |", "figure_ref": null, "candidates": [{"md_atom_id": "md_dmUR_ex_a013", "md_file": "knowledge_base/domains/UR/examples.md", "md_atom_type": "TABLE_ROW", "md_parent_section": "§UR.1 [Example 1]", "md_verbatim": "| 2 | ABC | UR | ABC-001-011 | 2 | RNLANUM | Number of Renal Arteries | 2 | | 2 | 2 | | KIDNEY | LEFT | | CT SCAN | 2016-03-30 |", "score": 1.0, "match_basis": "verbatim_token+domain_route:UR"}, {"md_atom_id": "md_dmUR_ex_a014", "md_file": "knowledge_base/domains/UR/examples.md", "md_atom_type": "TABLE_ROW", "md_parent_section": "§UR.1 [Example 1]", "md_verbatim": "| 3 | ABC | UR | ABC-001-011 | 3 | RNLVNUM | Number of Renal Veins | 1 | | 1 | 1 | | KIDNEY | LEFT | | CT SCAN | 2016-03-30 |", "score": 0.75, "match_basis": "verbatim_token+domain_route:UR"}, {"md_atom_id": "md_dmUR_ex_a012", "md_file": "knowledge_base/domains/UR/examples.md", "md_atom_type": "TABLE_ROW", "md_parent_section": "§UR.1 [Example 1]", "md_verbatim": "| 1 | ABC | UR | ABC-001-011 | 1 | LENGTH | Length | 12.6 | cm | 126 | 126 | mm | KIDNEY | LEFT | | CT SCAN | 2016-03-30 |", "score": 0.6229, "match_basis": "verbatim_token+domain_route:UR"}, {"md_atom_id": "md_dmUR_ex_a016", "md_file": "knowledge_base/domains/UR/examples.md", "md_atom_type": "TABLE_ROW", "md_parent_section": "§UR.1 [Example 1]", "md_verbatim": "| 5 | ABC | UR | ABC-001-011 | 5 | SGDMGIND | Surgical Damage Indicator | Y | | Y | | | KIDNEY, CORTEX | LEFT | SUPERIOR | CT SCAN | 2016-03-30 |", "score": 0.5525, "match_basis": "verbatim_token+domain_route:UR"}, {"md_atom_id": "md_dmUR_ex_a015", "md_file": "knowledge_base/domains/UR/examples.md", "md_atom_type": "TABLE_ROW", "md_parent_section": "§UR.1 [Example 1]", "md_verbatim": "| 4 | ABC | UR | ABC-001-011 | 4 | HEMAIND | Hematoma Indicator | N | | N | | | KIDNEY | | | CT SCAN | 2016-03-30 |", "score": 0.55, "match_basis": "verbatim_token+domain_route:UR"}], "candidate_count": 5, "zero_candidate": false}
{"pdf_atom_id": "ig34_p0315_a005", "pdf_atom_type": "TABLE_ROW", "pdf_source": "SDTMIG_v3.4", "pdf_page": 315, "pdf_parent_section": "§6.3.7.8 Urinary System Findings (UR)", "pdf_verbatim": "| 3 | ABC | UR | ABC-001-011 | 3 | RNLVNUM | Number of Renal Veins | 1 | | 1 | 1 | | KIDNEY | LEFT | | CT SCAN | 2016-03-30 |", "figure_ref": null, "candidates": [{"md_atom_id": "md_dmUR_ex_a014", "md_file": "knowledge_base/domains/UR/examples.md", "md_atom_type": "TABLE_ROW", "md_parent_section": "§UR.1 [Example 1]", "md_verbatim": "| 3 | ABC | UR | ABC-001-011 | 3 | RNLVNUM | Number of Renal Veins | 1 | | 1 | 1 | | KIDNEY | LEFT | | CT SCAN | 2016-03-30 |", "score": 1.0, "match_basis": "verbatim_token+domain_route:UR"}, {"md_atom_id": "md_dmUR_ex_a013", "md_file": "knowledge_base/domains/UR/examples.md", "md_atom_type": "TABLE_ROW", "md_parent_section": "§UR.1 [Example 1]", "md_verbatim": "| 2 | ABC | UR | ABC-001-011 | 2 | RNLANUM | Number of Renal Arteries | 2 | | 2 | 2 | | KIDNEY | LEFT | | CT SCAN | 2016-03-30 |", "score": 0.75, "match_basis": "verbatim_token+domain_route:UR"}, {"md_atom_id": "md_dmUR_ex_a012", "md_file": "knowledge_base/domains/UR/examples.md", "md_atom_type": "TABLE_ROW", "md_parent_section": "§UR.1 [Example 1]", "md_verbatim": "| 1 | ABC | UR | ABC-001-011 | 1 | LENGTH | Length | 12.6 | cm | 126 | 126 | mm | KIDNEY | LEFT | | CT SCAN | 2016-03-30 |", "score": 0.6437, "match_basis": "verbatim_token+domain_route:UR"}, {"md_atom_id": "md_dmUR_ex_a015", "md_file": "knowledge_base/domains/UR/examples.md", "md_atom_type": "TABLE_ROW", "md_parent_section": "§UR.1 [Example 1]", "md_verbatim": "| 4 | ABC | UR | ABC-001-011 | 4 | HEMAIND | Hematoma Indicator | N | | N | | | KIDNEY | | | CT SCAN | 2016-03-30 |", "score": 0.561, "match_basis": "verbatim_token+domain_route:UR"}, {"md_atom_id": "md_dmUR_ex_a016", "md_file": "knowledge_base/domains/UR/examples.md", "md_atom_type": "TABLE_ROW", "md_parent_section": "§UR.1 [Example 1]", "md_verbatim": "| 5 | ABC | UR | ABC-001-011 | 5 | SGDMGIND | Surgical Damage Indicator | Y | | Y | | | KIDNEY, CORTEX | LEFT | SUPERIOR | CT SCAN | 2016-03-30 |", "score": 0.5345, "match_basis": "verbatim_token+domain_route:UR"}], "candidate_count": 5, "zero_candidate": false}
{"pdf_atom_id": "ig34_p0315_a006", "pdf_atom_type": "TABLE_ROW", "pdf_source": "SDTMIG_v3.4", "pdf_page": 315, "pdf_parent_section": "§6.3.7.8 Urinary System Findings (UR)", "pdf_verbatim": "| 4 | ABC | UR | ABC-001-011 | 4 | HEMAIND | Hematoma Indicator | N | | N | | | KIDNEY | | | CT SCAN | 2016-03-30 |", "figure_ref": null, "candidates": [{"md_atom_id": "md_dmUR_ex_a015", "md_file": "knowledge_base/domains/UR/examples.md", "md_atom_type": "TABLE_ROW", "md_parent_section": "§UR.1 [Example 1]", "md_verbatim": "| 4 | ABC | UR | ABC-001-011 | 4 | HEMAIND | Hematoma Indicator | N | | N | | | KIDNEY | | | CT SCAN | 2016-03-30 |", "score": 1.0, "match_basis": "verbatim_token+domain_route:UR"}, {"md_atom_id": "md_dmUR_ex_a016", "md_file": "knowledge_base/domains/UR/examples.md", "md_atom_type": "TABLE_ROW", "md_parent_section": "§UR.1 [Example 1]", "md_verbatim": "| 5 | ABC | UR | ABC-001-011 | 5 | SGDMGIND | Surgical Damage Indicator | Y | | Y | | | KIDNEY, CORTEX | LEFT | SUPERIOR | CT SCAN | 2016-03-30 |", "score": 0.6118, "match_basis": "verbatim_token+domain_route:UR"}, {"md_atom_id": "md_dmUR_ex_a012", "md_file": "knowledge_base/domains/UR/examples.md", "md_atom_type": "TABLE_ROW", "md_parent_section": "§UR.1 [Example 1]", "md_verbatim": "| 1 | ABC | UR | ABC-001-011 | 1 | LENGTH | Length | 12.6 | cm | 126 | 126 | mm | KIDNEY | LEFT | | CT SCAN | 2016-03-30 |", "score": 0.6062, "match_basis": "verbatim_token+domain_route:UR"}, {"md_atom_id": "md_dmUR_ex_a014", "md_file": "knowledge_base/domains/UR/examples.md", "md_atom_type": "TABLE_ROW", "md_parent_section": "§UR.1 [Example 1]", "md_verbatim": "| 3 | ABC | UR | ABC-001-011 | 3 | RNLVNUM | Number of Renal Veins | 1 | | 1 | 1 | | KIDNEY | LEFT | | CT SCAN | 2016-03-30 |", "score": 0.561, "match_basis": "verbatim_token+domain_route:UR"}, {"md_atom_id": "md_dmUR_ex_a013", "md_file": "knowledge_base/domains/UR/examples.md", "md_atom_type": "TABLE_ROW", "md_parent_section": "§UR.1 [Example 1]", "md_verbatim": "| 2 | ABC | UR | ABC-001-011 | 2 | RNLANUM | Number of Renal Arteries | 2 | | 2 | 2 | | KIDNEY | LEFT | | CT SCAN | 2016-03-30 |", "score": 0.55, "match_basis": "verbatim_token+domain_route:UR"}], "candidate_count": 5, "zero_candidate": false}
{"pdf_atom_id": "ig34_p0315_a007", "pdf_atom_type": "TABLE_ROW", "pdf_source": "SDTMIG_v3.4", "pdf_page": 315, "pdf_parent_section": "§6.3.7.8 Urinary System Findings (UR)", "pdf_verbatim": "| 5 | ABC | UR | ABC-001-011 | 5 | SGDMGIND | Surgical Damage Indicator | Y | | Y | | | KIDNEY, CORTEX | LEFT | SUPERIOR | CT SCAN | 2016-03-30 |", "figure_ref": null, "candidates": [{"md_atom_id": "md_dmUR_ex_a016", "md_file": "knowledge_base/domains/UR/examples.md", "md_atom_type": "TABLE_ROW", "md_parent_section": "§UR.1 [Example 1]", "md_verbatim": "| 5 | ABC | UR | ABC-001-011 | 5 | SGDMGIND | Surgical Damage Indicator | Y | | Y | | | KIDNEY, CORTEX | LEFT | SUPERIOR | CT SCAN | 2016-03-30 |", "score": 1.0, "match_basis": "verbatim_token+domain_route:UR"}, {"md_atom_id": "md_dmUR_ex_a015", "md_file": "knowledge_base/domains/UR/examples.md", "md_atom_type": "TABLE_ROW", "md_parent_section": "§UR.1 [Example 1]", "md_verbatim": "| 4 | ABC | UR | ABC-001-011 | 4 | HEMAIND | Hematoma Indicator | N | | N | | | KIDNEY | | | CT SCAN | 2016-03-30 |", "score": 0.6118, "match_basis": "verbatim_token+domain_route:UR"}, {"md_atom_id": "md_dmUR_ex_a012", "md_file": "knowledge_base/domains/UR/examples.md", "md_atom_type": "TABLE_ROW", "md_parent_section": "§UR.1 [Example 1]", "md_verbatim": "| 1 | ABC | UR | ABC-001-011 | 1 | LENGTH | Length | 12.6 | cm | 126 | 126 | mm | KIDNEY | LEFT | | CT SCAN | 2016-03-30 |", "score": 0.5592, "match_basis": "verbatim_token+domain_route:UR"}, {"md_atom_id": "md_dmUR_ex_a013", "md_file": "knowledge_base/domains/UR/examples.md", "md_atom_type": "TABLE_ROW", "md_parent_section": "§UR.1 [Example 1]", "md_verbatim": "| 2 | ABC | UR | ABC-001-011 | 2 | RNLANUM | Number of Renal Arteries | 2 | | 2 | 2 | | KIDNEY | LEFT | | CT SCAN | 2016-03-30 |", "score": 0.5525, "match_basis": "verbatim_token+domain_route:UR"}, {"md_atom_id": "md_dmUR_ex_a014", "md_file": "knowledge_base/domains/UR/examples.md", "md_atom_type": "TABLE_ROW", "md_parent_section": "§UR.1 [Example 1]", "md_verbatim": "| 3 | ABC | UR | ABC-001-011 | 3 | RNLVNUM | Number of Renal Veins | 1 | | 1 | 1 | | KIDNEY | LEFT | | CT SCAN | 2016-03-30 |", "score": 0.5345, "match_basis": "verbatim_token+domain_route:UR"}], "candidate_count": 5, "zero_candidate": false}
{"pdf_atom_id": "ig34_p0315_a008", "pdf_atom_type": "HEADING", "pdf_source": "SDTMIG_v3.4", "pdf_page": 315, "pdf_parent_section": "§6.3.7.8 Urinary System Findings (UR)", "pdf_verbatim": "Example 2", "figure_ref": null, "candidates": [{"md_atom_id": "md_dmUR_ex_a002", "md_file": "knowledge_base/domains/UR/examples.md", "md_atom_type": "HEADING", "md_parent_section": "§UR [UR — Examples]", "md_verbatim": "## Example 1", "score": 1.0, "match_basis": "verbatim_token+domain_route:UR"}, {"md_atom_id": "md_dmUR_ex_a017", "md_file": "knowledge_base/domains/UR/examples.md", "md_atom_type": "HEADING", "md_parent_section": "§UR [UR — Examples]", "md_verbatim": "## Example 2", "score": 1.0, "match_basis": "verbatim_token+domain_route:UR"}, {"md_atom_id": "md_dmUR_ex_a001", "md_file": "knowledge_base/domains/UR/examples.md", "md_atom_type": "HEADING", "md_parent_section": "§UR [UR — Examples]", "md_verbatim": "# UR — Examples", "score": 0.9, "match_basis": "verbatim_token+domain_route:UR"}, {"md_atom_id": "md_dmUR_assn_a001", "md_file": "knowledge_base/domains/UR/assumptions.md", "md_atom_type": "HEADING", "md_parent_section": "§UR [UR — Assumptions]", "md_verbatim": "# UR — Assumptions", "score": 0.4, "match_basis": "verbatim_token+domain_route:UR"}], "candidate_count": 4, "zero_candidate": false}
{"pdf_atom_id": "ig34_p0315_a009", "pdf_atom_type": "SENTENCE", "pdf_source": "SDTMIG_v3.4", "pdf_page": 315, "pdf_parent_section": "§6.3.7.8 Urinary System Findings (UR)", "pdf_verbatim": "This example shows a subject's renal blood flow measurement for each visit based on the subject's para-amino hippuric acid (PAH) clearance, indicated by URMETHOD = \"PARA-AMINO HIPPURIC ACID CLEARANCE\".", "figure_ref": null, "candidates": [{"md_atom_id": "md_dmUR_ex_a018", "md_file": "knowledge_base/domains/UR/examples.md", "md_atom_type": "SENTENCE", "md_parent_section": "§UR.2 [Example 2]", "md_verbatim": "This example shows a subject's renal blood flow measurement for each visit based on the subject's para-amino hippuric acid (PAH) clearance, indicated by URMETHOD = \"PARA-AMINO HIPPURIC ACID CLEARANCE\".", "score": 1.0, "match_basis": "verbatim_token+domain_route:UR"}, {"md_atom_id": "md_dmUR_ex_a003", "md_file": "knowledge_base/domains/UR/examples.md", "md_atom_type": "SENTENCE", "md_parent_section": "§UR.1 [Example 1]", "md_verbatim": "This example shows measurements of the kidney, number of renal arteries and veins, and presence/absence results for prespecified abnormalities of the kidneys. These findings were made using computed tomography (CT) imaging.", "score": 0.5105, "match_basis": "verbatim_token+domain_route:UR"}, {"md_atom_id": "md_dmUR_ex_a004", "md_file": "knowledge_base/domains/UR/examples.md", "md_atom_type": "NOTE", "md_parent_section": "§UR.1 [Example 1]", "md_verbatim": "**Row 1:** Shows that the subject's left kidney was measured to be 126 mm long.", "score": 0.4044, "match_basis": "verbatim_token+domain_route:UR"}, {"md_atom_id": "md_dmUR_ex_a023", "md_file": "knowledge_base/domains/UR/examples.md", "md_atom_type": "TABLE_ROW", "md_parent_section": "§UR.2 [Example 2]", "md_verbatim": "| 2 | DEF | UR | DEF-0123 | 2 | BLDFLRT | Blood Flow Rate | 10 | mL/min | 10 | 10 | mL/min | KIDNEY | LEFT | PARA-AMINO HIPPURIC ACID CLEARANCE | 2 | VISIT 2 | 2016-03-20 |", "score": 0.4026, "match_basis": "verbatim_token+domain_route:UR"}, {"md_atom_id": "md_dmUR_ex_a024", "md_file": "knowledge_base/domains/UR/examples.md", "md_atom_type": "TABLE_ROW", "md_parent_section": "§UR.2 [Example 2]", "md_verbatim": "| 3 | DEF | UR | DEF-0123 | 3 | BLDFLRT | Blood Flow Rate | 10 | mL/min | 10 | 10 | mL/min | KIDNEY | RIGHT | PARA-AMINO HIPPURIC ACID CLEARANCE | 3 | VISIT 3 | 2016-04-07 |", "score": 0.4006, "match_basis": "verbatim_token+domain_route:UR"}], "candidate_count": 5, "zero_candidate": false}
{"pdf_atom_id": "ig34_p0315_a010", "pdf_atom_type": "CODE_LITERAL", "pdf_source": "SDTMIG_v3.4", "pdf_page": 315, "pdf_parent_section": "§6.3.7.8 Urinary System Findings (UR)", "pdf_verbatim": "ur.xpt", "figure_ref": null, "candidates": [{"md_atom_id": "md_dmUR_ex_a009", "md_file": "knowledge_base/domains/UR/examples.md", "md_atom_type": "NOTE", "md_parent_section": "§UR.1 [Example 1]", "md_verbatim": "ur.xpt", "score": 0.79, "match_basis": "verbatim_token+domain_route:UR"}, {"md_atom_id": "md_dmUR_ex_a019", "md_file": "knowledge_base/domains/UR/examples.md", "md_atom_type": "NOTE", "md_parent_section": "§UR.2 [Example 2]", "md_verbatim": "ur.xpt", "score": 0.79, "match_basis": "verbatim_token+domain_route:UR"}, {"md_atom_id": "md_dmUR_assn_a001", "md_file": "knowledge_base/domains/UR/assumptions.md", "md_atom_type": "HEADING", "md_parent_section": "§UR [UR — Assumptions]", "md_verbatim": "# UR — Assumptions", "score": 0.19, "match_basis": "verbatim_token+domain_route:UR"}, {"md_atom_id": "md_dmUR_assn_a002", "md_file": "knowledge_base/domains/UR/assumptions.md", "md_atom_type": "LIST_ITEM", "md_parent_section": "§UR [UR — Assumptions]", "md_verbatim": "1. Any Identifiers, Timing variables, or Findings general observation class qualifiers may be added to the UR domain, but the following qualifiers would not generally be used: --MODIFY, --BODSYS, --ORNRLO, --ORNRHI, --STNRLO, --STNRHI, --NRIND, --LOINC, --SPCCND, --FAST, --TOX, --TOXGR, --SEV, --LLOQ.", "score": 0.19, "match_basis": "verbatim_token+domain_route:UR"}, {"md_atom_id": "md_dmUR_ex_a001", "md_file": "knowledge_base/domains/UR/examples.md", "md_atom_type": "HEADING", "md_parent_section": "§UR [UR — Examples]", "md_verbatim": "# UR — Examples", "score": 0.19, "match_basis": "verbatim_token+domain_route:UR"}, {"md_atom_id": "md_dmUR_ex_a002", "md_file": "knowledge_base/domains/UR/examples.md", "md_atom_type": "HEADING", "md_parent_section": "§UR [UR — Examples]", "md_verbatim": "## Example 1", "score": 0.19, "match_basis": "verbatim_token+domain_route:UR"}, {"md_atom_id": "md_dmUR_ex_a003", "md_file": "knowledge_base/domains/UR/examples.md", "md_atom_type": "SENTENCE", "md_parent_section": "§UR.1 [Example 1]", "md_verbatim": "This example shows measurements of the kidney, number of renal arteries and veins, and presence/absence results for prespecified abnormalities of the kidneys. These findings were made using computed tomography (CT) imaging.", "score": 0.19, "match_basis": "verbatim_token+domain_route:UR"}, {"md_atom_id": "md_dmUR_ex_a004", "md_file": "knowledge_base/domains/UR/examples.md", "md_atom_type": "NOTE", "md_parent_section": "§UR.1 [Example 1]", "md_verbatim": "**Row 1:** Shows that the subject's left kidney was measured to be 126 mm long.", "score": 0.19, "match_basis": "verbatim_token+domain_route:UR"}, {"md_atom_id": "md_dmUR_ex_a005", "md_file": "knowledge_base/domains/UR/examples.md", "md_atom_type": "NOTE", "md_parent_section": "§UR.1 [Example 1]", "md_verbatim": "**Row 2:** Shows that the subject's left kidney had 2 renal arteries.", "score": 0.19, "match_basis": "verbatim_token+domain_route:UR"}, {"md_atom_id": "md_dmUR_ex_a006", "md_file": "knowledge_base/domains/UR/examples.md", "md_atom_type": "NOTE", "md_parent_section": "§UR.1 [Example 1]", "md_verbatim": "**Row 3:** Shows that the subject's left kidney had 1 renal vein.", "score": 0.19, "match_basis": "verbatim_token+domain_route:UR"}], "candidate_count": 10, "zero_candidate": false}
{"pdf_atom_id": "ig34_p0315_a011", "pdf_atom_type": "TABLE_HEADER", "pdf_source": "SDTMIG_v3.4", "pdf_page": 315, "pdf_parent_section": "§6.3.7.8 Urinary System Findings (UR)", "pdf_verbatim": "| Row | STUDYID | DOMAIN | USUBJID | URSEQ | URTESTCD | URTEST | URORRES | URORRESU | URSTRESC | URSTRESN | URSTRESU | URLOC | URLAT | URMETHOD | VISITNUM | VISIT | URDTC |", "figure_ref": null, "candidates": [{"md_atom_id": "md_dmUR_ex_a020", "md_file": "knowledge_base/domains/UR/examples.md", "md_atom_type": "TABLE_HEADER", "md_parent_section": "§UR.2 [Example 2]", "md_verbatim": "| Row | STUDYID | DOMAIN | USUBJID | URSEQ | URTESTCD | URTEST | URORRES | URORRESU | URSTRESC | URSTRESN | URSTRESU | URLOC | URLAT | URMETHOD | VISITNUM | VISIT | URDTC |", "score": 1.0, "match_basis": "verbatim_token+domain_route:UR"}, {"md_atom_id": "md_dmUR_ex_a010", "md_file": "knowledge_base/domains/UR/examples.md", "md_atom_type": "TABLE_HEADER", "md_parent_section": "§UR.1 [Example 1]", "md_verbatim": "| Row | STUDYID | DOMAIN | USUBJID | URSEQ | URTESTCD | URTEST | URORRES | URORRESU | URSTRESC | URSTRESN | URSTRESU | URLOC | URLAT | URDIR | URMETHOD | URDTC |", "score": 0.9158, "match_basis": "verbatim_token+domain_route:UR"}, {"md_atom_id": "md_dmUR_ex_a011", "md_file": "knowledge_base/domains/UR/examples.md", "md_atom_type": "TABLE_HEADER", "md_parent_section": "§UR.1 [Example 1]", "md_verbatim": "|-----|---------|--------|---------|-------|----------|--------|---------|----------|----------|----------|----------|-------|-------|-------|----------|-------|", "score": 0.4, "match_basis": "verbatim_token+domain_route:UR"}, {"md_atom_id": "md_dmUR_ex_a021", "md_file": "knowledge_base/domains/UR/examples.md", "md_atom_type": "TABLE_HEADER", "md_parent_section": "§UR.2 [Example 2]", "md_verbatim": "|-----|---------|--------|---------|-------|----------|--------|---------|----------|----------|----------|----------|-------|-------|----------|----------|-------|-------|", "score": 0.4, "match_basis": "verbatim_token+domain_route:UR"}, {"md_atom_id": "md_dmUR_ex_a022", "md_file": "knowledge_base/domains/UR/examples.md", "md_atom_type": "TABLE_ROW", "md_parent_section": "§UR.2 [Example 2]", "md_verbatim": "| 1 | DEF | UR | DEF-0123 | 1 | BLDFLRT | Blood Flow Rate | 20 | mL/min | 20 | 20 | mL/min | KIDNEY | BILATERAL | PARA-AMINO HIPPURIC ACID CLEARANCE | 1 | VISIT 1 | 2016-03-15 |", "score": 0.364, "match_basis": "verbatim_token+domain_route:UR"}], "candidate_count": 5, "zero_candidate": false}
{"pdf_atom_id": "ig34_p0315_a012", "pdf_atom_type": "TABLE_ROW", "pdf_source": "SDTMIG_v3.4", "pdf_page": 315, "pdf_parent_section": "§6.3.7.8 Urinary System Findings (UR)", "pdf_verbatim": "| 1 | DEF | UR | DEF-0123 | 1 | BLDFLRT | Blood Flow Rate | 20 | mL/min | 20 | 20 | mL/min | KIDNEY | BILATERAL | PARA-AMINO HIPPURIC ACID CLEARANCE | 1 | VISIT 1 | 2016-03-15 |", "figure_ref": null, "candidates": [{"md_atom_id": "md_dmUR_ex_a022", "md_file": "knowledge_base/domains/UR/examples.md", "md_atom_type": "TABLE_ROW", "md_parent_section": "§UR.2 [Example 2]", "md_verbatim": "| 1 | DEF | UR | DEF-0123 | 1 | BLDFLRT | Blood Flow Rate | 20 | mL/min | 20 | 20 | mL/min | KIDNEY | BILATERAL | PARA-AMINO HIPPURIC ACID CLEARANCE | 1 | VISIT 1 | 2016-03-15 |", "score": 1.0, "match_basis": "verbatim_token+domain_route:UR"}, {"md_atom_id": "md_dmUR_ex_a023", "md_file": "knowledge_base/domains/UR/examples.md", "md_atom_type": "TABLE_ROW", "md_parent_section": "§UR.2 [Example 2]", "md_verbatim": "| 2 | DEF | UR | DEF-0123 | 2 | BLDFLRT | Blood Flow Rate | 10 | mL/min | 10 | 10 | mL/min | KIDNEY | LEFT | PARA-AMINO HIPPURIC ACID CLEARANCE | 2 | VISIT 2 | 2016-03-20 |", "score": 0.9059, "match_basis": "verbatim_token+domain_route:UR"}, {"md_atom_id": "md_dmUR_ex_a024", "md_file": "knowledge_base/domains/UR/examples.md", "md_atom_type": "TABLE_ROW", "md_parent_section": "§UR.2 [Example 2]", "md_verbatim": "| 3 | DEF | UR | DEF-0123 | 3 | BLDFLRT | Blood Flow Rate | 10 | mL/min | 10 | 10 | mL/min | KIDNEY | RIGHT | PARA-AMINO HIPPURIC ACID CLEARANCE | 3 | VISIT 3 | 2016-04-07 |", "score": 0.8962, "match_basis": "verbatim_token+domain_route:UR"}, {"md_atom_id": "md_dmUR_ex_a012", "md_file": "knowledge_base/domains/UR/examples.md", "md_atom_type": "TABLE_ROW", "md_parent_section": "§UR.1 [Example 1]", "md_verbatim": "| 1 | ABC | UR | ABC-001-011 | 1 | LENGTH | Length | 12.6 | cm | 126 | 126 | mm | KIDNEY | LEFT | | CT SCAN | 2016-03-30 |", "score": 0.459, "match_basis": "verbatim_token+domain_route:UR"}, {"md_atom_id": "md_dmUR_ex_a013", "md_file": "knowledge_base/domains/UR/examples.md", "md_atom_type": "TABLE_ROW", "md_parent_section": "§UR.1 [Example 1]", "md_verbatim": "| 2 | ABC | UR | ABC-001-011 | 2 | RNLANUM | Number of Renal Arteries | 2 | | 2 | 2 | | KIDNEY | LEFT | | CT SCAN | 2016-03-30 |", "score": 0.4583, "match_basis": "verbatim_token+domain_route:UR"}], "candidate_count": 5, "zero_candidate": false}
{"pdf_atom_id": "ig34_p0315_a013", "pdf_atom_type": "TABLE_ROW", "pdf_source": "SDTMIG_v3.4", "pdf_page": 315, "pdf_parent_section": "§6.3.7.8 Urinary System Findings (UR)", "pdf_verbatim": "| 2 | DEF | UR | DEF-0123 | 2 | BLDFLRT | Blood Flow Rate | 10 | mL/min | 10 | 10 | mL/min | KIDNEY | LEFT | PARA-AMINO HIPPURIC ACID CLEARANCE | 2 | VISIT 2 | 2016-03-20 |", "figure_ref": null, "candidates": [{"md_atom_id": "md_dmUR_ex_a023", "md_file": "knowledge_base/domains/UR/examples.md", "md_atom_type": "TABLE_ROW", "md_parent_section": "§UR.2 [Example 2]", "md_verbatim": "| 2 | DEF | UR | DEF-0123 | 2 | BLDFLRT | Blood Flow Rate | 10 | mL/min | 10 | 10 | mL/min | KIDNEY | LEFT | PARA-AMINO HIPPURIC ACID CLEARANCE | 2 | VISIT 2 | 2016-03-20 |", "score": 1.0, "match_basis": "verbatim_token+domain_route:UR"}, {"md_atom_id": "md_dmUR_ex_a024", "md_file": "knowledge_base/domains/UR/examples.md", "md_atom_type": "TABLE_ROW", "md_parent_section": "§UR.2 [Example 2]", "md_verbatim": "| 3 | DEF | UR | DEF-0123 | 3 | BLDFLRT | Blood Flow Rate | 10 | mL/min | 10 | 10 | mL/min | KIDNEY | RIGHT | PARA-AMINO HIPPURIC ACID CLEARANCE | 3 | VISIT 3 | 2016-04-07 |", "score": 0.9375, "match_basis": "verbatim_token+domain_route:UR"}, {"md_atom_id": "md_dmUR_ex_a022", "md_file": "knowledge_base/domains/UR/examples.md", "md_atom_type": "TABLE_ROW", "md_parent_section": "§UR.2 [Example 2]", "md_verbatim": "| 1 | DEF | UR | DEF-0123 | 1 | BLDFLRT | Blood Flow Rate | 20 | mL/min | 20 | 20 | mL/min | KIDNEY | BILATERAL | PARA-AMINO HIPPURIC ACID CLEARANCE | 1 | VISIT 1 | 2016-03-15 |", "score": 0.9059, "match_basis": "verbatim_token+domain_route:UR"}, {"md_atom_id": "md_dmUR_ex_a012", "md_file": "knowledge_base/domains/UR/examples.md", "md_atom_type": "TABLE_ROW", "md_parent_section": "§UR.1 [Example 1]", "md_verbatim": "| 1 | ABC | UR | ABC-001-011 | 1 | LENGTH | Length | 12.6 | cm | 126 | 126 | mm | KIDNEY | LEFT | | CT SCAN | 2016-03-30 |", "score": 0.4873, "match_basis": "verbatim_token+domain_route:UR"}, {"md_atom_id": "md_dmUR_ex_a014", "md_file": "knowledge_base/domains/UR/examples.md", "md_atom_type": "TABLE_ROW", "md_parent_section": "§UR.1 [Example 1]", "md_verbatim": "| 3 | ABC | UR | ABC-001-011 | 3 | RNLVNUM | Number of Renal Veins | 1 | | 1 | 1 | | KIDNEY | LEFT | | CT SCAN | 2016-03-30 |", "score": 0.475, "match_basis": "verbatim_token+domain_route:UR"}], "candidate_count": 5, "zero_candidate": false}
{"pdf_atom_id": "ig34_p0315_a014", "pdf_atom_type": "TABLE_ROW", "pdf_source": "SDTMIG_v3.4", "pdf_page": 315, "pdf_parent_section": "§6.3.7.8 Urinary System Findings (UR)", "pdf_verbatim": "| 3 | DEF | UR | DEF-0123 | 3 | BLDFLRT | Blood Flow Rate | 10 | mL/min | 10 | 10 | mL/min | KIDNEY | RIGHT | PARA-AMINO HIPPURIC ACID CLEARANCE | 3 | VISIT 3 | 2016-04-07 |", "figure_ref": null, "candidates": [{"md_atom_id": "md_dmUR_ex_a024", "md_file": "knowledge_base/domains/UR/examples.md", "md_atom_type": "TABLE_ROW", "md_parent_section": "§UR.2 [Example 2]", "md_verbatim": "| 3 | DEF | UR | DEF-0123 | 3 | BLDFLRT | Blood Flow Rate | 10 | mL/min | 10 | 10 | mL/min | KIDNEY | RIGHT | PARA-AMINO HIPPURIC ACID CLEARANCE | 3 | VISIT 3 | 2016-04-07 |", "score": 1.0, "match_basis": "verbatim_token+domain_route:UR"}, {"md_atom_id": "md_dmUR_ex_a023", "md_file": "knowledge_base/domains/UR/examples.md", "md_atom_type": "TABLE_ROW", "md_parent_section": "§UR.2 [Example 2]", "md_verbatim": "| 2 | DEF | UR | DEF-0123 | 2 | BLDFLRT | Blood Flow Rate | 10 | mL/min | 10 | 10 | mL/min | KIDNEY | LEFT | PARA-AMINO HIPPURIC ACID CLEARANCE | 2 | VISIT 2 | 2016-03-20 |", "score": 0.9375, "match_basis": "verbatim_token+domain_route:UR"}, {"md_atom_id": "md_dmUR_ex_a022", "md_file": "knowledge_base/domains/UR/examples.md", "md_atom_type": "TABLE_ROW", "md_parent_section": "§UR.2 [Example 2]", "md_verbatim": "| 1 | DEF | UR | DEF-0123 | 1 | BLDFLRT | Blood Flow Rate | 20 | mL/min | 20 | 20 | mL/min | KIDNEY | BILATERAL | PARA-AMINO HIPPURIC ACID CLEARANCE | 1 | VISIT 1 | 2016-03-15 |", "score": 0.8962, "match_basis": "verbatim_token+domain_route:UR"}, {"md_atom_id": "md_dmUR_ex_a012", "md_file": "knowledge_base/domains/UR/examples.md", "md_atom_type": "TABLE_ROW", "md_parent_section": "§UR.1 [Example 1]", "md_verbatim": "| 1 | ABC | UR | ABC-001-011 | 1 | LENGTH | Length | 12.6 | cm | 126 | 126 | mm | KIDNEY | LEFT | | CT SCAN | 2016-03-30 |", "score": 0.4621, "match_basis": "verbatim_token+domain_route:UR"}, {"md_atom_id": "md_dmUR_ex_a015", "md_file": "knowledge_base/domains/UR/examples.md", "md_atom_type": "TABLE_ROW", "md_parent_section": "§UR.1 [Example 1]", "md_verbatim": "| 4 | ABC | UR | ABC-001-011 | 4 | HEMAIND | Hematoma Indicator | N | | N | | | KIDNEY | | | CT SCAN | 2016-03-30 |", "score": 0.4554, "match_basis": "verbatim_token+domain_route:UR"}], "candidate_count": 5, "zero_candidate": false}
{"pdf_atom_id": "ig34_p0315_a015", "pdf_atom_type": "HEADING", "pdf_source": "SDTMIG_v3.4", "pdf_page": 315, "pdf_parent_section": "§6.3 [MODELS FOR FINDINGS DOMAINS]", "pdf_verbatim": "6.3.8  Physical Examination (PE)", "figure_ref": null, "candidates": [{"md_atom_id": "md_varindex_a1126", "md_file": "knowledge_base/VARIABLE_INDEX.md", "md_atom_type": "HEADING", "md_parent_section": "§ 二、领域专属变量（仅 1 个域，共 1499 个），按域分组", "md_verbatim": "### PE — Physical Examination (Findings)", "score": 0.7286, "match_basis": "verbatim_token+global_search"}, {"md_atom_id": "md_varindex_a1040", "md_file": "knowledge_base/VARIABLE_INDEX.md", "md_atom_type": "HEADING", "md_parent_section": "§ 二、领域专属变量（仅 1 个域，共 1499 个），按域分组", "md_verbatim": "### OE — Ophthalmic Examinations (Findings)", "score": 0.48, "match_basis": "verbatim_token+global_search"}, {"md_atom_id": "md_dmRS_ex_a044", "md_file": "knowledge_base/domains/RS/examples.md", "md_atom_type": "HEADING", "md_parent_section": "§RS [RS — Examples]", "md_verbatim": "## RS — Examples - Clinical Classifications", "score": 0.4313, "match_basis": "verbatim_token+global_search"}, {"md_atom_id": "md_model06_a029", "md_file": "knowledge_base/model/06_relationship_datasets.md", "md_atom_type": "HEADING", "md_parent_section": "§6.1 Related Records (RELREC)", "md_verbatim": "### RELTYPE Combinations", "score": 0.42, "match_basis": "verbatim_token+global_search"}, {"md_atom_id": "md_ch08_a276", "md_file": "knowledge_base/chapters/ch08_relationships.md", "md_atom_type": "HEADING", "md_parent_section": "§8.7 [Related Subjects (RELSUB)]", "md_verbatim": "### Specification", "score": 0.4091, "match_basis": "verbatim_token+global_search"}], "candidate_count": 5, "zero_candidate": false}
{"pdf_atom_id": "ig34_p0315_a016", "pdf_atom_type": "HEADING", "pdf_source": "SDTMIG_v3.4", "pdf_page": 315, "pdf_parent_section": "§6.3.8 Physical Examination (PE)", "pdf_verbatim": "PE - Proposed Removal of --MODIFY and --BODSYS", "figure_ref": null, "candidates": [{"md_atom_id": "md_dmPE_assn_a001", "md_file": "knowledge_base/domains/PE/assumptions.md", "md_atom_type": "HEADING", "md_parent_section": "§PE [PE — Assumptions]", "md_verbatim": "# PE — Assumptions", "score": 0.4, "match_basis": "verbatim_token+domain_route:PE"}, {"md_atom_id": "md_dmPE_ex_a001", "md_file": "knowledge_base/domains/PE/examples.md", "md_atom_type": "HEADING", "md_parent_section": "§PE [PE — Examples]", "md_verbatim": "# PE — Examples", "score": 0.4, "match_basis": "verbatim_token+domain_route:PE"}, {"md_atom_id": "md_dmPE_ex_a002", "md_file": "knowledge_base/domains/PE/examples.md", "md_atom_type": "HEADING", "md_parent_section": "§PE [PE — Examples]", "md_verbatim": "## Example 1", "score": 0.4, "match_basis": "verbatim_token+domain_route:PE"}], "candidate_count": 3, "zero_candidate": false}
{"pdf_atom_id": "ig34_p0315_a017", "pdf_atom_type": "SENTENCE", "pdf_source": "SDTMIG_v3.4", "pdf_page": 315, "pdf_parent_section": "§6.3.8 Physical Examination (PE)", "pdf_verbatim": "In the version of the SDTM associated with the next version of the SDTMIG, --MODIFY is being considered for deprecation as a qualifier variable for findings class domains and --BODSYS will be considered for restriction to use in nonclinical studies.", "figure_ref": null, "candidates": [{"md_atom_id": "md_dmPE_ex_a005", "md_file": "knowledge_base/domains/PE/examples.md", "md_atom_type": "SENTENCE", "md_parent_section": "§PE.1 [Example 1]", "md_verbatim": "**Rows 3-5:** Show how PESPID is used to show the sponsor-defined identifier, which in this case is the CRF sequence number used for identifying abnormalities within a body system. Additionally, the abnormalities were encoded; PESTRESC represents the MedDRA Preferred Term and PEBODSYS represents the MedDRA system organ class.", "score": 0.5016, "match_basis": "verbatim_token+domain_route:PE"}, {"md_atom_id": "md_dmPE_assn_a004", "md_file": "knowledge_base/domains/PE/assumptions.md", "md_atom_type": "LIST_ITEM", "md_parent_section": "§PE [PE — Assumptions]", "md_verbatim": "3. Any Identifiers, Timing variables, or Findings general observation class qualifiers may be added to the PE domain, but the following qualifiers would generally not be used: --XFN, --NAM, --LOINC, --FAST, --TOX, --TOXGR.", "score": 0.4438, "match_basis": "verbatim_token+domain_route:PE"}, {"md_atom_id": "md_dmPE_ex_a003", "md_file": "knowledge_base/domains/PE/examples.md", "md_atom_type": "SENTENCE", "md_parent_section": "§PE.1 [Example 1]", "md_verbatim": "This example shows data for 1 subject collected at 1 visit. The data come from a general physical examination.", "score": 0.4338, "match_basis": "verbatim_token+domain_route:PE"}, {"md_atom_id": "md_dmPE_ex_a004", "md_file": "knowledge_base/domains/PE/examples.md", "md_atom_type": "SENTENCE", "md_parent_section": "§PE.1 [Example 1]", "md_verbatim": "**Rows 1-2, 6:** Show how PESTRESC is populated if result is \"NORMAL\".", "score": 0.4252, "match_basis": "verbatim_token+domain_route:PE"}, {"md_atom_id": "md_dmPE_ex_a006", "md_file": "knowledge_base/domains/PE/examples.md", "md_atom_type": "SENTENCE", "md_parent_section": "§PE.1 [Example 1]", "md_verbatim": "**pe.xpt**", "score": 0.4, "match_basis": "verbatim_token+domain_route:PE"}], "candidate_count": 5, "zero_candidate": false}
{"pdf_atom_id": "ig34_p0315_a018", "pdf_atom_type": "HEADING", "pdf_source": "SDTMIG_v3.4", "pdf_page": 315, "pdf_parent_section": "§6.3.8 Physical Examination (PE)", "pdf_verbatim": "PE - Alignment with CDASH Best Practice", "figure_ref": null, "candidates": [{"md_atom_id": "md_dmPE_assn_a001", "md_file": "knowledge_base/domains/PE/assumptions.md", "md_atom_type": "HEADING", "md_parent_section": "§PE [PE — Assumptions]", "md_verbatim": "# PE — Assumptions", "score": 0.4, "match_basis": "verbatim_token+domain_route:PE"}, {"md_atom_id": "md_dmPE_ex_a001", "md_file": "knowledge_base/domains/PE/examples.md", "md_atom_type": "HEADING", "md_parent_section": "§PE [PE — Examples]", "md_verbatim": "# PE — Examples", "score": 0.4, "match_basis": "verbatim_token+domain_route:PE"}, {"md_atom_id": "md_dmPE_ex_a002", "md_file": "knowledge_base/domains/PE/examples.md", "md_atom_type": "HEADING", "md_parent_section": "§PE [PE — Examples]", "md_verbatim": "## Example 1", "score": 0.4, "match_basis": "verbatim_token+domain_route:PE"}], "candidate_count": 3, "zero_candidate": false}
{"pdf_atom_id": "ig34_p0315_a019", "pdf_atom_type": "SENTENCE", "pdf_source": "SDTMIG_v3.4", "pdf_page": 315, "pdf_parent_section": "§6.3.8 Physical Examination (PE)", "pdf_verbatim": "In the CDASH \"Best Practice\" approach as described in the CDASHIG, which is becoming common in human clinical trials, the PE domain is not used to record the “findings” from a physical exam.", "figure_ref": null, "candidates": [{"md_atom_id": "md_dmPE_ex_a003", "md_file": "knowledge_base/domains/PE/examples.md", "md_atom_type": "SENTENCE", "md_parent_section": "§PE.1 [Example 1]", "md_verbatim": "This example shows data for 1 subject collected at 1 visit. The data come from a general physical examination.", "score": 0.4696, "match_basis": "verbatim_token+domain_route:PE"}, {"md_atom_id": "md_dmPE_ex_a005", "md_file": "knowledge_base/domains/PE/examples.md", "md_atom_type": "SENTENCE", "md_parent_section": "§PE.1 [Example 1]", "md_verbatim": "**Rows 3-5:** Show how PESPID is used to show the sponsor-defined identifier, which in this case is the CRF sequence number used for identifying abnormalities within a body system. Additionally, the abnormalities were encoded; PESTRESC represents the MedDRA Preferred Term and PEBODSYS represents the MedDRA system organ class.", "score": 0.4323, "match_basis": "verbatim_token+domain_route:PE"}, {"md_atom_id": "md_dmPE_ex_a004", "md_file": "knowledge_base/domains/PE/examples.md", "md_atom_type": "SENTENCE", "md_parent_section": "§PE.1 [Example 1]", "md_verbatim": "**Rows 1-2, 6:** Show how PESTRESC is populated if result is \"NORMAL\".", "score": 0.4124, "match_basis": "verbatim_token+domain_route:PE"}, {"md_atom_id": "md_dmPE_ex_a006", "md_file": "knowledge_base/domains/PE/examples.md", "md_atom_type": "SENTENCE", "md_parent_section": "§PE.1 [Example 1]", "md_verbatim": "**pe.xpt**", "score": 0.4, "match_basis": "verbatim_token+domain_route:PE"}, {"md_atom_id": "md_dmPE_assn_a004", "md_file": "knowledge_base/domains/PE/assumptions.md", "md_atom_type": "LIST_ITEM", "md_parent_section": "§PE [PE — Assumptions]", "md_verbatim": "3. Any Identifiers, Timing variables, or Findings general observation class qualifiers may be added to the PE domain, but the following qualifiers would generally not be used: --XFN, --NAM, --LOINC, --FAST, --TOX, --TOXGR.", "score": 0.3786, "match_basis": "verbatim_token+domain_route:PE"}], "candidate_count": 5, "zero_candidate": false}
{"pdf_atom_id": "ig34_p0315_a020", "pdf_atom_type": "SENTENCE", "pdf_source": "SDTMIG_v3.4", "pdf_page": 315, "pdf_parent_section": "§6.3.8 Physical Examination (PE)", "pdf_verbatim": "The abnormalities found are recorded in the appropriate events-class domain.", "figure_ref": null, "candidates": [{"md_atom_id": "md_dmPE_ex_a005", "md_file": "knowledge_base/domains/PE/examples.md", "md_atom_type": "SENTENCE", "md_parent_section": "§PE.1 [Example 1]", "md_verbatim": "**Rows 3-5:** Show how PESPID is used to show the sponsor-defined identifier, which in this case is the CRF sequence number used for identifying abnormalities within a body system. Additionally, the abnormalities were encoded; PESTRESC represents the MedDRA Preferred Term and PEBODSYS represents the MedDRA system organ class.", "score": 0.4745, "match_basis": "verbatim_token+domain_route:PE"}, {"md_atom_id": "md_dmPE_ex_a004", "md_file": "knowledge_base/domains/PE/examples.md", "md_atom_type": "SENTENCE", "md_parent_section": "§PE.1 [Example 1]", "md_verbatim": "**Rows 1-2, 6:** Show how PESTRESC is populated if result is \"NORMAL\".", "score": 0.4492, "match_basis": "verbatim_token+domain_route:PE"}, {"md_atom_id": "md_dmPE_ex_a003", "md_file": "knowledge_base/domains/PE/examples.md", "md_atom_type": "SENTENCE", "md_parent_section": "§PE.1 [Example 1]", "md_verbatim": "This example shows data for 1 subject collected at 1 visit. The data come from a general physical examination.", "score": 0.4066, "match_basis": "verbatim_token+domain_route:PE"}, {"md_atom_id": "md_dmPE_ex_a006", "md_file": "knowledge_base/domains/PE/examples.md", "md_atom_type": "SENTENCE", "md_parent_section": "§PE.1 [Example 1]", "md_verbatim": "**pe.xpt**", "score": 0.4, "match_basis": "verbatim_token+domain_route:PE"}, {"md_atom_id": "md_dmPE_assn_a003", "md_file": "knowledge_base/domains/PE/assumptions.md", "md_atom_type": "LIST_ITEM", "md_parent_section": "§PE [PE — Assumptions]", "md_verbatim": "2. Abnormalities observed during a physical examination may be encoded. When collected/reported as a PE finding, the verbatim value is represented in PEORRES and the encoded value in PESTRESC. When collected/reported as medical history or an adverse event, the verbatim value is represented in MHTERM or AETERM and the encoded value is represented in MHDECOD or AEDECOD, respectively.", "score": 0.3803, "match_basis": "verbatim_token+domain_route:PE"}], "candidate_count": 5, "zero_candidate": false}
{"pdf_atom_id": "ig34_p0315_a021", "pdf_atom_type": "SENTENCE", "pdf_source": "SDTMIG_v3.4", "pdf_page": 315, "pdf_parent_section": "§6.3.8 Physical Examination (PE)", "pdf_verbatim": "An abnormality is recorded in Medical History (MH) when found to previously exist at a baseline or screening examination.", "figure_ref": null, "candidates": [{"md_atom_id": "md_dmPE_ex_a003", "md_file": "knowledge_base/domains/PE/examples.md", "md_atom_type": "SENTENCE", "md_parent_section": "§PE.1 [Example 1]", "md_verbatim": "This example shows data for 1 subject collected at 1 visit. The data come from a general physical examination.", "score": 0.472, "match_basis": "verbatim_token+domain_route:PE"}, {"md_atom_id": "md_dmPE_ex_a005", "md_file": "knowledge_base/domains/PE/examples.md", "md_atom_type": "SENTENCE", "md_parent_section": "§PE.1 [Example 1]", "md_verbatim": "**Rows 3-5:** Show how PESPID is used to show the sponsor-defined identifier, which in this case is the CRF sequence number used for identifying abnormalities within a body system. Additionally, the abnormalities were encoded; PESTRESC represents the MedDRA Preferred Term and PEBODSYS represents the MedDRA system organ class.", "score": 0.4614, "match_basis": "verbatim_token+domain_route:PE"}, {"md_atom_id": "md_dmPE_assn_a003", "md_file": "knowledge_base/domains/PE/assumptions.md", "md_atom_type": "LIST_ITEM", "md_parent_section": "§PE [PE — Assumptions]", "md_verbatim": "2. Abnormalities observed during a physical examination may be encoded. When collected/reported as a PE finding, the verbatim value is represented in PEORRES and the encoded value in PESTRESC. When collected/reported as medical history or an adverse event, the verbatim value is represented in MHTERM or AETERM and the encoded value is represented in MHDECOD or AEDECOD, respectively.", "score": 0.4429, "match_basis": "verbatim_token+domain_route:PE"}, {"md_atom_id": "md_dmPE_ex_a004", "md_file": "knowledge_base/domains/PE/examples.md", "md_atom_type": "SENTENCE", "md_parent_section": "§PE.1 [Example 1]", "md_verbatim": "**Rows 1-2, 6:** Show how PESTRESC is populated if result is \"NORMAL\".", "score": 0.4293, "match_basis": "verbatim_token+domain_route:PE"}, {"md_atom_id": "md_dmPE_ex_a006", "md_file": "knowledge_base/domains/PE/examples.md", "md_atom_type": "SENTENCE", "md_parent_section": "§PE.1 [Example 1]", "md_verbatim": "**pe.xpt**", "score": 0.4, "match_basis": "verbatim_token+domain_route:PE"}], "candidate_count": 5, "zero_candidate": false}
{"pdf_atom_id": "ig34_p0315_a022", "pdf_atom_type": "SENTENCE", "pdf_source": "SDTMIG_v3.4", "pdf_page": 315, "pdf_parent_section": "§6.3.8 Physical Examination (PE)", "pdf_verbatim": "Abnormalities identified after baseline or screening, or worsening abnormalities, are recorded on the Adverse Events (AE) form (or possibly on a Clinical Events form).", "figure_ref": null, "candidates": [{"md_atom_id": "md_dmPE_ex_a005", "md_file": "knowledge_base/domains/PE/examples.md", "md_atom_type": "SENTENCE", "md_parent_section": "§PE.1 [Example 1]", "md_verbatim": "**Rows 3-5:** Show how PESPID is used to show the sponsor-defined identifier, which in this case is the CRF sequence number used for identifying abnormalities within a body system. Additionally, the abnormalities were encoded; PESTRESC represents the MedDRA Preferred Term and PEBODSYS represents the MedDRA system organ class.", "score": 0.5012, "match_basis": "verbatim_token+domain_route:PE"}, {"md_atom_id": "md_dmPE_ex_a004", "md_file": "knowledge_base/domains/PE/examples.md", "md_atom_type": "SENTENCE", "md_parent_section": "§PE.1 [Example 1]", "md_verbatim": "**Rows 1-2, 6:** Show how PESTRESC is populated if result is \"NORMAL\".", "score": 0.4279, "match_basis": "verbatim_token+domain_route:PE"}, {"md_atom_id": "md_dmPE_ex_a003", "md_file": "knowledge_base/domains/PE/examples.md", "md_atom_type": "SENTENCE", "md_parent_section": "§PE.1 [Example 1]", "md_verbatim": "This example shows data for 1 subject collected at 1 visit. The data come from a general physical examination.", "score": 0.4214, "match_basis": "verbatim_token+domain_route:PE"}, {"md_atom_id": "md_dmPE_assn_a003", "md_file": "knowledge_base/domains/PE/assumptions.md", "md_atom_type": "LIST_ITEM", "md_parent_section": "§PE [PE — Assumptions]", "md_verbatim": "2. Abnormalities observed during a physical examination may be encoded. When collected/reported as a PE finding, the verbatim value is represented in PEORRES and the encoded value in PESTRESC. When collected/reported as medical history or an adverse event, the verbatim value is represented in MHTERM or AETERM and the encoded value is represented in MHDECOD or AEDECOD, respectively.", "score": 0.4119, "match_basis": "verbatim_token+domain_route:PE"}, {"md_atom_id": "md_dmPE_ex_a006", "md_file": "knowledge_base/domains/PE/examples.md", "md_atom_type": "SENTENCE", "md_parent_section": "§PE.1 [Example 1]", "md_verbatim": "**pe.xpt**", "score": 0.4, "match_basis": "verbatim_token+domain_route:PE"}], "candidate_count": 5, "zero_candidate": false}
{"pdf_atom_id": "ig34_p0315_a023", "pdf_atom_type": "SENTENCE", "pdf_source": "SDTMIG_v3.4", "pdf_page": 315, "pdf_parent_section": "§6.3.8 Physical Examination (PE)", "pdf_verbatim": "When following this approach, the PE domain is not used in SDTM.", "figure_ref": null, "candidates": [{"md_atom_id": "md_dmPE_ex_a003", "md_file": "knowledge_base/domains/PE/examples.md", "md_atom_type": "SENTENCE", "md_parent_section": "§PE.1 [Example 1]", "md_verbatim": "This example shows data for 1 subject collected at 1 visit. The data come from a general physical examination.", "score": 0.4329, "match_basis": "verbatim_token+domain_route:PE"}, {"md_atom_id": "md_dmPE_ex_a005", "md_file": "knowledge_base/domains/PE/examples.md", "md_atom_type": "SENTENCE", "md_parent_section": "§PE.1 [Example 1]", "md_verbatim": "**Rows 3-5:** Show how PESPID is used to show the sponsor-defined identifier, which in this case is the CRF sequence number used for identifying abnormalities within a body system. Additionally, the abnormalities were encoded; PESTRESC represents the MedDRA Preferred Term and PEBODSYS represents the MedDRA system organ class.", "score": 0.4254, "match_basis": "verbatim_token+domain_route:PE"}, {"md_atom_id": "md_dmPE_assn_a004", "md_file": "knowledge_base/domains/PE/assumptions.md", "md_atom_type": "LIST_ITEM", "md_parent_section": "§PE [PE — Assumptions]", "md_verbatim": "3. Any Identifiers, Timing variables, or Findings general observation class qualifiers may be added to the PE domain, but the following qualifiers would generally not be used: --XFN, --NAM, --LOINC, --FAST, --TOX, --TOXGR.", "score": 0.4068, "match_basis": "verbatim_token+domain_route:PE"}, {"md_atom_id": "md_dmPE_ex_a004", "md_file": "knowledge_base/domains/PE/examples.md", "md_atom_type": "SENTENCE", "md_parent_section": "§PE.1 [Example 1]", "md_verbatim": "**Rows 1-2, 6:** Show how PESTRESC is populated if result is \"NORMAL\".", "score": 0.4, "match_basis": "verbatim_token+domain_route:PE"}, {"md_atom_id": "md_dmPE_ex_a006", "md_file": "knowledge_base/domains/PE/examples.md", "md_atom_type": "SENTENCE", "md_parent_section": "§PE.1 [Example 1]", "md_verbatim": "**pe.xpt**", "score": 0.4, "match_basis": "verbatim_token+domain_route:PE"}], "candidate_count": 5, "zero_candidate": false}
{"pdf_atom_id": "ig34_p0315_a024", "pdf_atom_type": "SENTENCE", "pdf_source": "SDTMIG_v3.4", "pdf_page": 315, "pdf_parent_section": "§6.3.8 Physical Examination (PE)", "pdf_verbatim": "The Procedure (PR) domain is used to document the examination details (e.g., occurrence, date) using a Procedure record for each physical exam.", "figure_ref": null, "candidates": [{"md_atom_id": "md_dmPE_ex_a003", "md_file": "knowledge_base/domains/PE/examples.md", "md_atom_type": "SENTENCE", "md_parent_section": "§PE.1 [Example 1]", "md_verbatim": "This example shows data for 1 subject collected at 1 visit. The data come from a general physical examination.", "score": 0.5174, "match_basis": "verbatim_token+domain_route:PE"}, {"md_atom_id": "md_dmPE_ex_a005", "md_file": "knowledge_base/domains/PE/examples.md", "md_atom_type": "SENTENCE", "md_parent_section": "§PE.1 [Example 1]", "md_verbatim": "**Rows 3-5:** Show how PESPID is used to show the sponsor-defined identifier, which in this case is the CRF sequence number used for identifying abnormalities within a body system. Additionally, the abnormalities were encoded; PESTRESC represents the MedDRA Preferred Term and PEBODSYS represents the MedDRA system organ class.", "score": 0.4388, "match_basis": "verbatim_token+domain_route:PE"}, {"md_atom_id": "md_dmPE_ex_a004", "md_file": "knowledge_base/domains/PE/examples.md", "md_atom_type": "SENTENCE", "md_parent_section": "§PE.1 [Example 1]", "md_verbatim": "**Rows 1-2, 6:** Show how PESTRESC is populated if result is \"NORMAL\".", "score": 0.4072, "match_basis": "verbatim_token+domain_route:PE"}, {"md_atom_id": "md_dmPE_ex_a006", "md_file": "knowledge_base/domains/PE/examples.md", "md_atom_type": "SENTENCE", "md_parent_section": "§PE.1 [Example 1]", "md_verbatim": "**pe.xpt**", "score": 0.4, "match_basis": "verbatim_token+domain_route:PE"}, {"md_atom_id": "md_dmPE_assn_a003", "md_file": "knowledge_base/domains/PE/assumptions.md", "md_atom_type": "LIST_ITEM", "md_parent_section": "§PE [PE — Assumptions]", "md_verbatim": "2. Abnormalities observed during a physical examination may be encoded. When collected/reported as a PE finding, the verbatim value is represented in PEORRES and the encoded value in PESTRESC. When collected/reported as medical history or an adverse event, the verbatim value is represented in MHTERM or AETERM and the encoded value is represented in MHDECOD or AEDECOD, respectively.", "score": 0.3935, "match_basis": "verbatim_token+domain_route:PE"}], "candidate_count": 5, "zero_candidate": false}
{"pdf_atom_id": "ig34_p0315_a025", "pdf_atom_type": "HEADING", "pdf_source": "SDTMIG_v3.4", "pdf_page": 315, "pdf_parent_section": "§6.3.8 Physical Examination (PE)", "pdf_verbatim": "PE – Description/Overview", "figure_ref": null, "candidates": [{"md_atom_id": "md_dmPE_assn_a001", "md_file": "knowledge_base/domains/PE/assumptions.md", "md_atom_type": "HEADING", "md_parent_section": "§PE [PE — Assumptions]", "md_verbatim": "# PE — Assumptions", "score": 0.4857, "match_basis": "verbatim_token+domain_route:PE"}, {"md_atom_id": "md_dmPE_ex_a001", "md_file": "knowledge_base/domains/PE/examples.md", "md_atom_type": "HEADING", "md_parent_section": "§PE [PE — Examples]", "md_verbatim": "# PE — Examples", "score": 0.4, "match_basis": "verbatim_token+domain_route:PE"}, {"md_atom_id": "md_dmPE_ex_a002", "md_file": "knowledge_base/domains/PE/examples.md", "md_atom_type": "HEADING", "md_parent_section": "§PE [PE — Examples]", "md_verbatim": "## Example 1", "score": 0.4, "match_basis": "verbatim_token+domain_route:PE"}], "candidate_count": 3, "zero_candidate": false}
{"pdf_atom_id": "ig34_p0315_a026", "pdf_atom_type": "SENTENCE", "pdf_source": "SDTMIG_v3.4", "pdf_page": 315, "pdf_parent_section": "§6.3.8 Physical Examination (PE)", "pdf_verbatim": "A findings domain that contains findings observed during a physical examination where the body is evaluated by inspection, palpation, percussion, and auscultation.", "figure_ref": null, "candidates": [{"md_atom_id": "md_dmPE_ex_a003", "md_file": "knowledge_base/domains/PE/examples.md", "md_atom_type": "SENTENCE", "md_parent_section": "§PE.1 [Example 1]", "md_verbatim": "This example shows data for 1 subject collected at 1 visit. The data come from a general physical examination.", "score": 0.4982, "match_basis": "verbatim_token+domain_route:PE"}, {"md_atom_id": "md_dmPE_assn_a002", "md_file": "knowledge_base/domains/PE/assumptions.md", "md_atom_type": "LIST_ITEM", "md_parent_section": "§PE [PE — Assumptions]", "md_verbatim": "1. PE findings reflect the presence or absence of physical signs of disease or abnormality observed during a general physical examination. Multiple body systems are assessed during a physical examination, often starting at the head and ending at the toes, where the body is evaluated by inspection, palpation (feeling with the hands), percussion (tapping with fingers), and auscultation (listening). The examination often includes macro assessments (e.g., normal/abnormal) of appearance, general health, behavior, and body system review from head to toe.\n   a. Evaluation of targeted body systems (e.g., cardiovascular, ophthalmic, reproductive) as part of therapeutic specific assessments should be represented in the appropriate body system domain (e.g., CV, OE, RP, respectively).\n   b. See CDASHIG Section 8.3.11, PE - Physical Examination (available at https://www.cdisc.org/standards/foundational/cdash/), for additional collection guidance.", "score": 0.46, "match_basis": "verbatim_token+domain_route:PE"}, {"md_atom_id": "md_dmPE_assn_a003", "md_file": "knowledge_base/domains/PE/assumptions.md", "md_atom_type": "LIST_ITEM", "md_parent_section": "§PE [PE — Assumptions]", "md_verbatim": "2. Abnormalities observed during a physical examination may be encoded. When collected/reported as a PE finding, the verbatim value is represented in PEORRES and the encoded value in PESTRESC. When collected/reported as medical history or an adverse event, the verbatim value is represented in MHTERM or AETERM and the encoded value is represented in MHDECOD or AEDECOD, respectively.", "score": 0.4572, "match_basis": "verbatim_token+domain_route:PE"}, {"md_atom_id": "md_dmPE_ex_a005", "md_file": "knowledge_base/domains/PE/examples.md", "md_atom_type": "SENTENCE", "md_parent_section": "§PE.1 [Example 1]", "md_verbatim": "**Rows 3-5:** Show how PESPID is used to show the sponsor-defined identifier, which in this case is the CRF sequence number used for identifying abnormalities within a body system. Additionally, the abnormalities were encoded; PESTRESC represents the MedDRA Preferred Term and PEBODSYS represents the MedDRA system organ class.", "score": 0.4284, "match_basis": "verbatim_token+domain_route:PE"}, {"md_atom_id": "md_dmPE_ex_a004", "md_file": "knowledge_base/domains/PE/examples.md", "md_atom_type": "SENTENCE", "md_parent_section": "§PE.1 [Example 1]", "md_verbatim": "**Rows 1-2, 6:** Show how PESTRESC is populated if result is \"NORMAL\".", "score": 0.4182, "match_basis": "verbatim_token+domain_route:PE"}], "candidate_count": 5, "zero_candidate": false}
{"pdf_atom_id": "ig34_p0316_a001", "pdf_atom_type": "HEADING", "pdf_source": "SDTMIG_v3.4", "pdf_page": 316, "pdf_parent_section": "§6.3.8 Physical Examination (PE)", "pdf_verbatim": "PE – Specification", "figure_ref": null, "candidates": [{"md_atom_id": "md_dmPE_assn_a001", "md_file": "knowledge_base/domains/PE/assumptions.md", "md_atom_type": "HEADING", "md_parent_section": "§PE [PE — Assumptions]", "md_verbatim": "# PE — Assumptions", "score": 0.4667, "match_basis": "verbatim_token+domain_route:PE"}, {"md_atom_id": "md_dmPE_ex_a001", "md_file": "knowledge_base/domains/PE/examples.md", "md_atom_type": "HEADING", "md_parent_section": "§PE [PE — Examples]", "md_verbatim": "# PE — Examples", "score": 0.4, "match_basis": "verbatim_token+domain_route:PE"}, {"md_atom_id": "md_dmPE_ex_a002", "md_file": "knowledge_base/domains/PE/examples.md", "md_atom_type": "HEADING", "md_parent_section": "§PE [PE — Examples]", "md_verbatim": "## Example 1", "score": 0.4, "match_basis": "verbatim_token+domain_route:PE"}], "candidate_count": 3, "zero_candidate": false}
{"pdf_atom_id": "ig34_p0316_a002", "pdf_atom_type": "CODE_LITERAL", "pdf_source": "SDTMIG_v3.4", "pdf_page": 316, "pdf_parent_section": "§6.3.8 Physical Examination (PE)", "pdf_verbatim": "pe.xpt", "figure_ref": null, "candidates": [{"md_atom_id": "md_dmPE_ex_a006", "md_file": "knowledge_base/domains/PE/examples.md", "md_atom_type": "SENTENCE", "md_parent_section": "§PE.1 [Example 1]", "md_verbatim": "**pe.xpt**", "score": 0.79, "match_basis": "verbatim_token+domain_route:PE"}, {"md_atom_id": "md_dmPE_assn_a001", "md_file": "knowledge_base/domains/PE/assumptions.md", "md_atom_type": "HEADING", "md_parent_section": "§PE [PE — Assumptions]", "md_verbatim": "# PE — Assumptions", "score": 0.19, "match_basis": "verbatim_token+domain_route:PE"}, {"md_atom_id": "md_dmPE_assn_a002", "md_file": "knowledge_base/domains/PE/assumptions.md", "md_atom_type": "LIST_ITEM", "md_parent_section": "§PE [PE — Assumptions]", "md_verbatim": "1. PE findings reflect the presence or absence of physical signs of disease or abnormality observed during a general physical examination. Multiple body systems are assessed during a physical examination, often starting at the head and ending at the toes, where the body is evaluated by inspection, palpation (feeling with the hands), percussion (tapping with fingers), and auscultation (listening). The examination often includes macro assessments (e.g., normal/abnormal) of appearance, general health, behavior, and body system review from head to toe.\n   a. Evaluation of targeted body systems (e.g., cardiovascular, ophthalmic, reproductive) as part of therapeutic specific assessments should be represented in the appropriate body system domain (e.g., CV, OE, RP, respectively).\n   b. See CDASHIG Section 8.3.11, PE - Physical Examination (available at https://www.cdisc.org/standards/foundational/cdash/), for additional collection guidance.", "score": 0.19, "match_basis": "verbatim_token+domain_route:PE"}, {"md_atom_id": "md_dmPE_assn_a003", "md_file": "knowledge_base/domains/PE/assumptions.md", "md_atom_type": "LIST_ITEM", "md_parent_section": "§PE [PE — Assumptions]", "md_verbatim": "2. Abnormalities observed during a physical examination may be encoded. When collected/reported as a PE finding, the verbatim value is represented in PEORRES and the encoded value in PESTRESC. When collected/reported as medical history or an adverse event, the verbatim value is represented in MHTERM or AETERM and the encoded value is represented in MHDECOD or AEDECOD, respectively.", "score": 0.19, "match_basis": "verbatim_token+domain_route:PE"}, {"md_atom_id": "md_dmPE_assn_a004", "md_file": "knowledge_base/domains/PE/assumptions.md", "md_atom_type": "LIST_ITEM", "md_parent_section": "§PE [PE — Assumptions]", "md_verbatim": "3. Any Identifiers, Timing variables, or Findings general observation class qualifiers may be added to the PE domain, but the following qualifiers would generally not be used: --XFN, --NAM, --LOINC, --FAST, --TOX, --TOXGR.", "score": 0.19, "match_basis": "verbatim_token+domain_route:PE"}, {"md_atom_id": "md_dmPE_ex_a001", "md_file": "knowledge_base/domains/PE/examples.md", "md_atom_type": "HEADING", "md_parent_section": "§PE [PE — Examples]", "md_verbatim": "# PE — Examples", "score": 0.19, "match_basis": "verbatim_token+domain_route:PE"}, {"md_atom_id": "md_dmPE_ex_a002", "md_file": "knowledge_base/domains/PE/examples.md", "md_atom_type": "HEADING", "md_parent_section": "§PE [PE — Examples]", "md_verbatim": "## Example 1", "score": 0.19, "match_basis": "verbatim_token+domain_route:PE"}, {"md_atom_id": "md_dmPE_ex_a003", "md_file": "knowledge_base/domains/PE/examples.md", "md_atom_type": "SENTENCE", "md_parent_section": "§PE.1 [Example 1]", "md_verbatim": "This example shows data for 1 subject collected at 1 visit. The data come from a general physical examination.", "score": 0.19, "match_basis": "verbatim_token+domain_route:PE"}, {"md_atom_id": "md_dmPE_ex_a004", "md_file": "knowledge_base/domains/PE/examples.md", "md_atom_type": "SENTENCE", "md_parent_section": "§PE.1 [Example 1]", "md_verbatim": "**Rows 1-2, 6:** Show how PESTRESC is populated if result is \"NORMAL\".", "score": 0.19, "match_basis": "verbatim_token+domain_route:PE"}, {"md_atom_id": "md_dmPE_ex_a005", "md_file": "knowledge_base/domains/PE/examples.md", "md_atom_type": "SENTENCE", "md_parent_section": "§PE.1 [Example 1]", "md_verbatim": "**Rows 3-5:** Show how PESPID is used to show the sponsor-defined identifier, which in this case is the CRF sequence number used for identifying abnormalities within a body system. Additionally, the abnormalities were encoded; PESTRESC represents the MedDRA Preferred Term and PEBODSYS represents the MedDRA system organ class.", "score": 0.19, "match_basis": "verbatim_token+domain_route:PE"}], "candidate_count": 10, "zero_candidate": false}
{"pdf_atom_id": "ig34_p0316_a003", "pdf_atom_type": "SENTENCE", "pdf_source": "SDTMIG_v3.4", "pdf_page": 316, "pdf_parent_section": "§6.3.8 Physical Examination (PE)", "pdf_verbatim": "pe.xpt, Physical Examination — Findings. One record per body system or abnormality per visit per subject, Tabulation.", "figure_ref": null, "candidates": [{"md_atom_id": "md_dmPE_ex_a003", "md_file": "knowledge_base/domains/PE/examples.md", "md_atom_type": "SENTENCE", "md_parent_section": "§PE.1 [Example 1]", "md_verbatim": "This example shows data for 1 subject collected at 1 visit. The data come from a general physical examination.", "score": 0.5663, "match_basis": "verbatim_token+domain_route:PE"}, {"md_atom_id": "md_dmPE_ex_a005", "md_file": "knowledge_base/domains/PE/examples.md", "md_atom_type": "SENTENCE", "md_parent_section": "§PE.1 [Example 1]", "md_verbatim": "**Rows 3-5:** Show how PESPID is used to show the sponsor-defined identifier, which in this case is the CRF sequence number used for identifying abnormalities within a body system. Additionally, the abnormalities were encoded; PESTRESC represents the MedDRA Preferred Term and PEBODSYS represents the MedDRA system organ class.", "score": 0.4679, "match_basis": "verbatim_token+domain_route:PE"}, {"md_atom_id": "md_dmPE_ex_a004", "md_file": "knowledge_base/domains/PE/examples.md", "md_atom_type": "SENTENCE", "md_parent_section": "§PE.1 [Example 1]", "md_verbatim": "**Rows 1-2, 6:** Show how PESTRESC is populated if result is \"NORMAL\".", "score": 0.4486, "match_basis": "verbatim_token+domain_route:PE"}, {"md_atom_id": "md_dmPE_assn_a003", "md_file": "knowledge_base/domains/PE/assumptions.md", "md_atom_type": "LIST_ITEM", "md_parent_section": "§PE [PE — Assumptions]", "md_verbatim": "2. Abnormalities observed during a physical examination may be encoded. When collected/reported as a PE finding, the verbatim value is represented in PEORRES and the encoded value in PESTRESC. When collected/reported as medical history or an adverse event, the verbatim value is represented in MHTERM or AETERM and the encoded value is represented in MHDECOD or AEDECOD, respectively.", "score": 0.4333, "match_basis": "verbatim_token+domain_route:PE"}, {"md_atom_id": "md_dmPE_ex_a006", "md_file": "knowledge_base/domains/PE/examples.md", "md_atom_type": "SENTENCE", "md_parent_section": "§PE.1 [Example 1]", "md_verbatim": "**pe.xpt**", "score": 0.4107, "match_basis": "verbatim_token+domain_route:PE"}], "candidate_count": 5, "zero_candidate": false}
{"pdf_atom_id": "ig34_p0316_a004", "pdf_atom_type": "TABLE_HEADER", "pdf_source": "SDTMIG_v3.4", "pdf_page": 316, "pdf_parent_section": "§6.3.8 Physical Examination (PE)", "pdf_verbatim": "| Variable Name | Variable Label | Type | Controlled Terms, Codelist or Format1 | Role | CDISC Notes | Core |", "figure_ref": null, "candidates": [{"md_atom_id": "md_dmPE_ex_a007", "md_file": "knowledge_base/domains/PE/examples.md", "md_atom_type": "TABLE_HEADER", "md_parent_section": "§PE.1 [Example 1]", "md_verbatim": "| Row | STUDYID | DOMAIN | USUBJID | PESEQ | PESPID | PETESTCD | PETEST | PELOC | PELAT | PEBODSYS | PEORRES | PESTRESC | VISITNUM | VISIT | VISITDY | PEDTC | PEDY |\n|-----|---------|--------|---------|-------|--------|----------|--------|-------|-------|----------|---------|----------|----------|-------|---------|-------|------|", "score": 0.4059, "match_basis": "verbatim_token+domain_route:PE"}, {"md_atom_id": "md_dmPE_ex_a011", "md_file": "knowledge_base/domains/PE/examples.md", "md_atom_type": "TABLE_ROW", "md_parent_section": "§PE.1 [Example 1]", "md_verbatim": "| 4 | ABC | PE | ABC-001-001 | 4 | 2 | SKIN | Skin | HANDS | | Skin and subcutaneous tissue disorder | DERMATITIS | Dermatitis | -1 | BASELINE | -1 | 1999-06-06 | -3 |", "score": 0.3775, "match_basis": "verbatim_token+domain_route:PE"}, {"md_atom_id": "md_dmPE_ex_a008", "md_file": "knowledge_base/domains/PE/examples.md", "md_atom_type": "TABLE_ROW", "md_parent_section": "§PE.1 [Example 1]", "md_verbatim": "| 1 | ABC | PE | ABC-001-001 | 1 | | HEAD | Head | | | | NORMAL | NORMAL | -1 | BASELINE | -1 | 1999-06-06 | -3 |", "score": 0.3716, "match_basis": "verbatim_token+domain_route:PE"}, {"md_atom_id": "md_dmPE_ex_a013", "md_file": "knowledge_base/domains/PE/examples.md", "md_atom_type": "TABLE_ROW", "md_parent_section": "§PE.1 [Example 1]", "md_verbatim": "| 6 | ABC | PE | ABC-001-001 | 6 | | HEART | Heart | | | | NORMAL | NORMAL | -1 | BASELINE | -1 | 1999-06-06 | -3 |", "score": 0.371, "match_basis": "verbatim_token+domain_route:PE"}, {"md_atom_id": "md_dmPE_ex_a009", "md_file": "knowledge_base/domains/PE/examples.md", "md_atom_type": "TABLE_ROW", "md_parent_section": "§PE.1 [Example 1]", "md_verbatim": "| 2 | ABC | PE | ABC-001-001 | 2 | | ENT | Ear/Nose/Throat | | | | NORMAL | NORMAL | -1 | BASELINE | -1 | 1999-06-06 | -3 |", "score": 0.3686, "match_basis": "verbatim_token+domain_route:PE"}], "candidate_count": 5, "zero_candidate": false}
{"pdf_atom_id": "ig34_p0316_a005", "pdf_atom_type": "TABLE_ROW", "pdf_source": "SDTMIG_v3.4", "pdf_page": 316, "pdf_parent_section": "§6.3.8 Physical Examination (PE)", "pdf_verbatim": "| STUDYID | Study Identifier | Char | | Identifier | Unique identifier for a study. | Req |", "figure_ref": null, "candidates": [{"md_atom_id": "md_dmPE_ex_a009", "md_file": "knowledge_base/domains/PE/examples.md", "md_atom_type": "TABLE_ROW", "md_parent_section": "§PE.1 [Example 1]", "md_verbatim": "| 2 | ABC | PE | ABC-001-001 | 2 | | ENT | Ear/Nose/Throat | | | | NORMAL | NORMAL | -1 | BASELINE | -1 | 1999-06-06 | -3 |", "score": 0.4143, "match_basis": "verbatim_token+domain_route:PE"}, {"md_atom_id": "md_dmPE_ex_a008", "md_file": "knowledge_base/domains/PE/examples.md", "md_atom_type": "TABLE_ROW", "md_parent_section": "§PE.1 [Example 1]", "md_verbatim": "| 1 | ABC | PE | ABC-001-001 | 1 | | HEAD | Head | | | | NORMAL | NORMAL | -1 | BASELINE | -1 | 1999-06-06 | -3 |", "score": 0.4, "match_basis": "verbatim_token+domain_route:PE"}, {"md_atom_id": "md_dmPE_ex_a010", "md_file": "knowledge_base/domains/PE/examples.md", "md_atom_type": "TABLE_ROW", "md_parent_section": "§PE.1 [Example 1]", "md_verbatim": "| 3 | ABC | PE | ABC-001-001 | 3 | 1 | SKIN | Skin | FACE | | Skin and subcutaneous tissue disorder | ACNE | Acne | -1 | BASELINE | -1 | 1999-06-06 | -3 |", "score": 0.4, "match_basis": "verbatim_token+domain_route:PE"}, {"md_atom_id": "md_dmPE_ex_a011", "md_file": "knowledge_base/domains/PE/examples.md", "md_atom_type": "TABLE_ROW", "md_parent_section": "§PE.1 [Example 1]", "md_verbatim": "| 4 | ABC | PE | ABC-001-001 | 4 | 2 | SKIN | Skin | HANDS | | Skin and subcutaneous tissue disorder | DERMATITIS | Dermatitis | -1 | BASELINE | -1 | 1999-06-06 | -3 |", "score": 0.4, "match_basis": "verbatim_token+domain_route:PE"}, {"md_atom_id": "md_dmPE_ex_a012", "md_file": "knowledge_base/domains/PE/examples.md", "md_atom_type": "TABLE_ROW", "md_parent_section": "§PE.1 [Example 1]", "md_verbatim": "| 5 | ABC | PE | ABC-001-001 | 5 | 3 | SKIN | Skin | ARM | LEFT | Skin and subcutaneous tissue disorder | SKIN RASH | Rash | -1 | BASELINE | -1 | 1999-06-06 | -3 |", "score": 0.4, "match_basis": "verbatim_token+domain_route:PE"}], "candidate_count": 5, "zero_candidate": false}
{"pdf_atom_id": "ig34_p0316_a006", "pdf_atom_type": "TABLE_ROW", "pdf_source": "SDTMIG_v3.4", "pdf_page": 316, "pdf_parent_section": "§6.3.8 Physical Examination (PE)", "pdf_verbatim": "| DOMAIN | Domain Abbreviation | Char | PE | Identifier | Two-character abbreviation for the domain. | Req |", "figure_ref": null, "candidates": [{"md_atom_id": "md_dmPE_ex_a009", "md_file": "knowledge_base/domains/PE/examples.md", "md_atom_type": "TABLE_ROW", "md_parent_section": "§PE.1 [Example 1]", "md_verbatim": "| 2 | ABC | PE | ABC-001-001 | 2 | | ENT | Ear/Nose/Throat | | | | NORMAL | NORMAL | -1 | BASELINE | -1 | 1999-06-06 | -3 |", "score": 0.4111, "match_basis": "verbatim_token+domain_route:PE"}, {"md_atom_id": "md_dmPE_ex_a011", "md_file": "knowledge_base/domains/PE/examples.md", "md_atom_type": "TABLE_ROW", "md_parent_section": "§PE.1 [Example 1]", "md_verbatim": "| 4 | ABC | PE | ABC-001-001 | 4 | 2 | SKIN | Skin | HANDS | | Skin and subcutaneous tissue disorder | DERMATITIS | Dermatitis | -1 | BASELINE | -1 | 1999-06-06 | -3 |", "score": 0.4082, "match_basis": "verbatim_token+domain_route:PE"}, {"md_atom_id": "md_dmPE_ex_a008", "md_file": "knowledge_base/domains/PE/examples.md", "md_atom_type": "TABLE_ROW", "md_parent_section": "§PE.1 [Example 1]", "md_verbatim": "| 1 | ABC | PE | ABC-001-001 | 1 | | HEAD | Head | | | | NORMAL | NORMAL | -1 | BASELINE | -1 | 1999-06-06 | -3 |", "score": 0.4, "match_basis": "verbatim_token+domain_route:PE"}, {"md_atom_id": "md_dmPE_ex_a010", "md_file": "knowledge_base/domains/PE/examples.md", "md_atom_type": "TABLE_ROW", "md_parent_section": "§PE.1 [Example 1]", "md_verbatim": "| 3 | ABC | PE | ABC-001-001 | 3 | 1 | SKIN | Skin | FACE | | Skin and subcutaneous tissue disorder | ACNE | Acne | -1 | BASELINE | -1 | 1999-06-06 | -3 |", "score": 0.4, "match_basis": "verbatim_token+domain_route:PE"}, {"md_atom_id": "md_dmPE_ex_a012", "md_file": "knowledge_base/domains/PE/examples.md", "md_atom_type": "TABLE_ROW", "md_parent_section": "§PE.1 [Example 1]", "md_verbatim": "| 5 | ABC | PE | ABC-001-001 | 5 | 3 | SKIN | Skin | ARM | LEFT | Skin and subcutaneous tissue disorder | SKIN RASH | Rash | -1 | BASELINE | -1 | 1999-06-06 | -3 |", "score": 0.4, "match_basis": "verbatim_token+domain_route:PE"}], "candidate_count": 5, "zero_candidate": false}
{"pdf_atom_id": "ig34_p0316_a007", "pdf_atom_type": "TABLE_ROW", "pdf_source": "SDTMIG_v3.4", "pdf_page": 316, "pdf_parent_section": "§6.3.8 Physical Examination (PE)", "pdf_verbatim": "| USUBJID | Unique Subject Identifier | Char | | Identifier | Identifier used to uniquely identify a subject across all studies for all applications or submissions involving the product. | Req |", "figure_ref": null, "candidates": [{"md_atom_id": "md_dmPE_ex_a011", "md_file": "knowledge_base/domains/PE/examples.md", "md_atom_type": "TABLE_ROW", "md_parent_section": "§PE.1 [Example 1]", "md_verbatim": "| 4 | ABC | PE | ABC-001-001 | 4 | 2 | SKIN | Skin | HANDS | | Skin and subcutaneous tissue disorder | DERMATITIS | Dermatitis | -1 | BASELINE | -1 | 1999-06-06 | -3 |", "score": 0.417, "match_basis": "verbatim_token+domain_route:PE"}, {"md_atom_id": "md_dmPE_ex_a010", "md_file": "knowledge_base/domains/PE/examples.md", "md_atom_type": "TABLE_ROW", "md_parent_section": "§PE.1 [Example 1]", "md_verbatim": "| 3 | ABC | PE | ABC-001-001 | 3 | 1 | SKIN | Skin | FACE | | Skin and subcutaneous tissue disorder | ACNE | Acne | -1 | BASELINE | -1 | 1999-06-06 | -3 |", "score": 0.4117, "match_basis": "verbatim_token+domain_route:PE"}, {"md_atom_id": "md_dmPE_ex_a012", "md_file": "knowledge_base/domains/PE/examples.md", "md_atom_type": "TABLE_ROW", "md_parent_section": "§PE.1 [Example 1]", "md_verbatim": "| 5 | ABC | PE | ABC-001-001 | 5 | 3 | SKIN | Skin | ARM | LEFT | Skin and subcutaneous tissue disorder | SKIN RASH | Rash | -1 | BASELINE | -1 | 1999-06-06 | -3 |", "score": 0.4115, "match_basis": "verbatim_token+domain_route:PE"}, {"md_atom_id": "md_dmPE_ex_a009", "md_file": "knowledge_base/domains/PE/examples.md", "md_atom_type": "TABLE_ROW", "md_parent_section": "§PE.1 [Example 1]", "md_verbatim": "| 2 | ABC | PE | ABC-001-001 | 2 | | ENT | Ear/Nose/Throat | | | | NORMAL | NORMAL | -1 | BASELINE | -1 | 1999-06-06 | -3 |", "score": 0.4067, "match_basis": "verbatim_token+domain_route:PE"}, {"md_atom_id": "md_dmPE_ex_a008", "md_file": "knowledge_base/domains/PE/examples.md", "md_atom_type": "TABLE_ROW", "md_parent_section": "§PE.1 [Example 1]", "md_verbatim": "| 1 | ABC | PE | ABC-001-001 | 1 | | HEAD | Head | | | | NORMAL | NORMAL | -1 | BASELINE | -1 | 1999-06-06 | -3 |", "score": 0.4, "match_basis": "verbatim_token+domain_route:PE"}], "candidate_count": 5, "zero_candidate": false}
{"pdf_atom_id": "ig34_p0316_a008", "pdf_atom_type": "TABLE_ROW", "pdf_source": "SDTMIG_v3.4", "pdf_page": 316, "pdf_parent_section": "§6.3.8 Physical Examination (PE)", "pdf_verbatim": "| PESEQ | Sequence Number | Num | | Identifier | Sequence number to ensure uniqueness of records within a dataset for a subject. May be any valid number. | Req |", "figure_ref": null, "candidates": [{"md_atom_id": "md_dmPE_ex_a010", "md_file": "knowledge_base/domains/PE/examples.md", "md_atom_type": "TABLE_ROW", "md_parent_section": "§PE.1 [Example 1]", "md_verbatim": "| 3 | ABC | PE | ABC-001-001 | 3 | 1 | SKIN | Skin | FACE | | Skin and subcutaneous tissue disorder | ACNE | Acne | -1 | BASELINE | -1 | 1999-06-06 | -3 |", "score": 0.42, "match_basis": "verbatim_token+domain_route:PE"}, {"md_atom_id": "md_dmPE_ex_a012", "md_file": "knowledge_base/domains/PE/examples.md", "md_atom_type": "TABLE_ROW", "md_parent_section": "§PE.1 [Example 1]", "md_verbatim": "| 5 | ABC | PE | ABC-001-001 | 5 | 3 | SKIN | Skin | ARM | LEFT | Skin and subcutaneous tissue disorder | SKIN RASH | Rash | -1 | BASELINE | -1 | 1999-06-06 | -3 |", "score": 0.4198, "match_basis": "verbatim_token+domain_route:PE"}, {"md_atom_id": "md_dmPE_ex_a011", "md_file": "knowledge_base/domains/PE/examples.md", "md_atom_type": "TABLE_ROW", "md_parent_section": "§PE.1 [Example 1]", "md_verbatim": "| 4 | ABC | PE | ABC-001-001 | 4 | 2 | SKIN | Skin | HANDS | | Skin and subcutaneous tissue disorder | DERMATITIS | Dermatitis | -1 | BASELINE | -1 | 1999-06-06 | -3 |", "score": 0.4191, "match_basis": "verbatim_token+domain_route:PE"}, {"md_atom_id": "md_dmPE_ex_a009", "md_file": "knowledge_base/domains/PE/examples.md", "md_atom_type": "TABLE_ROW", "md_parent_section": "§PE.1 [Example 1]", "md_verbatim": "| 2 | ABC | PE | ABC-001-001 | 2 | | ENT | Ear/Nose/Throat | | | | NORMAL | NORMAL | -1 | BASELINE | -1 | 1999-06-06 | -3 |", "score": 0.4158, "match_basis": "verbatim_token+domain_route:PE"}, {"md_atom_id": "md_dmPE_ex_a008", "md_file": "knowledge_base/domains/PE/examples.md", "md_atom_type": "TABLE_ROW", "md_parent_section": "§PE.1 [Example 1]", "md_verbatim": "| 1 | ABC | PE | ABC-001-001 | 1 | | HEAD | Head | | | | NORMAL | NORMAL | -1 | BASELINE | -1 | 1999-06-06 | -3 |", "score": 0.4085, "match_basis": "verbatim_token+domain_route:PE"}], "candidate_count": 5, "zero_candidate": false}
{"pdf_atom_id": "ig34_p0316_a009", "pdf_atom_type": "TABLE_ROW", "pdf_source": "SDTMIG_v3.4", "pdf_page": 316, "pdf_parent_section": "§6.3.8 Physical Examination (PE)", "pdf_verbatim": "| PEGRPID | Group ID | Char | | Identifier | Used to link together a block of related records in a single domain for a subject. | Perm |", "figure_ref": null, "candidates": [{"md_atom_id": "md_dmPE_ex_a011", "md_file": "knowledge_base/domains/PE/examples.md", "md_atom_type": "TABLE_ROW", "md_parent_section": "§PE.1 [Example 1]", "md_verbatim": "| 4 | ABC | PE | ABC-001-001 | 4 | 2 | SKIN | Skin | HANDS | | Skin and subcutaneous tissue disorder | DERMATITIS | Dermatitis | -1 | BASELINE | -1 | 1999-06-06 | -3 |", "score": 0.4255, "match_basis": "verbatim_token+domain_route:PE"}, {"md_atom_id": "md_dmPE_ex_a010", "md_file": "knowledge_base/domains/PE/examples.md", "md_atom_type": "TABLE_ROW", "md_parent_section": "§PE.1 [Example 1]", "md_verbatim": "| 3 | ABC | PE | ABC-001-001 | 3 | 1 | SKIN | Skin | FACE | | Skin and subcutaneous tissue disorder | ACNE | Acne | -1 | BASELINE | -1 | 1999-06-06 | -3 |", "score": 0.4198, "match_basis": "verbatim_token+domain_route:PE"}, {"md_atom_id": "md_dmPE_ex_a012", "md_file": "knowledge_base/domains/PE/examples.md", "md_atom_type": "TABLE_ROW", "md_parent_section": "§PE.1 [Example 1]", "md_verbatim": "| 5 | ABC | PE | ABC-001-001 | 5 | 3 | SKIN | Skin | ARM | LEFT | Skin and subcutaneous tissue disorder | SKIN RASH | Rash | -1 | BASELINE | -1 | 1999-06-06 | -3 |", "score": 0.4196, "match_basis": "verbatim_token+domain_route:PE"}, {"md_atom_id": "md_dmPE_ex_a009", "md_file": "knowledge_base/domains/PE/examples.md", "md_atom_type": "TABLE_ROW", "md_parent_section": "§PE.1 [Example 1]", "md_verbatim": "| 2 | ABC | PE | ABC-001-001 | 2 | | ENT | Ear/Nose/Throat | | | | NORMAL | NORMAL | -1 | BASELINE | -1 | 1999-06-06 | -3 |", "score": 0.4156, "match_basis": "verbatim_token+domain_route:PE"}, {"md_atom_id": "md_dmPE_ex_a008", "md_file": "knowledge_base/domains/PE/examples.md", "md_atom_type": "TABLE_ROW", "md_parent_section": "§PE.1 [Example 1]", "md_verbatim": "| 1 | ABC | PE | ABC-001-001 | 1 | | HEAD | Head | | | | NORMAL | NORMAL | -1 | BASELINE | -1 | 1999-06-06 | -3 |", "score": 0.4083, "match_basis": "verbatim_token+domain_route:PE"}], "candidate_count": 5, "zero_candidate": false}
{"pdf_atom_id": "ig34_p0316_a010", "pdf_atom_type": "TABLE_ROW", "pdf_source": "SDTMIG_v3.4", "pdf_page": 316, "pdf_parent_section": "§6.3.8 Physical Examination (PE)", "pdf_verbatim": "| PESPID | Sponsor-Defined Identifier | Char | | Identifier | Sponsor-defined reference number. Perhaps preprinted on the CRF as an explicit line identifier or defined in the sponsor's operational database. Example: Line number on a CRF. | Perm |", "figure_ref": null, "candidates": [{"md_atom_id": "md_dmPE_ex_a011", "md_file": "knowledge_base/domains/PE/examples.md", "md_atom_type": "TABLE_ROW", "md_parent_section": "§PE.1 [Example 1]", "md_verbatim": "| 4 | ABC | PE | ABC-001-001 | 4 | 2 | SKIN | Skin | HANDS | | Skin and subcutaneous tissue disorder | DERMATITIS | Dermatitis | -1 | BASELINE | -1 | 1999-06-06 | -3 |", "score": 0.4378, "match_basis": "verbatim_token+domain_route:PE"}, {"md_atom_id": "md_dmPE_ex_a009", "md_file": "knowledge_base/domains/PE/examples.md", "md_atom_type": "TABLE_ROW", "md_parent_section": "§PE.1 [Example 1]", "md_verbatim": "| 2 | ABC | PE | ABC-001-001 | 2 | | ENT | Ear/Nose/Throat | | | | NORMAL | NORMAL | -1 | BASELINE | -1 | 1999-06-06 | -3 |", "score": 0.4319, "match_basis": "verbatim_token+domain_route:PE"}, {"md_atom_id": "md_dmPE_ex_a010", "md_file": "knowledge_base/domains/PE/examples.md", "md_atom_type": "TABLE_ROW", "md_parent_section": "§PE.1 [Example 1]", "md_verbatim": "| 3 | ABC | PE | ABC-001-001 | 3 | 1 | SKIN | Skin | FACE | | Skin and subcutaneous tissue disorder | ACNE | Acne | -1 | BASELINE | -1 | 1999-06-06 | -3 |", "score": 0.4275, "match_basis": "verbatim_token+domain_route:PE"}, {"md_atom_id": "md_dmPE_ex_a012", "md_file": "knowledge_base/domains/PE/examples.md", "md_atom_type": "TABLE_ROW", "md_parent_section": "§PE.1 [Example 1]", "md_verbatim": "| 5 | ABC | PE | ABC-001-001 | 5 | 3 | SKIN | Skin | ARM | LEFT | Skin and subcutaneous tissue disorder | SKIN RASH | Rash | -1 | BASELINE | -1 | 1999-06-06 | -3 |", "score": 0.4273, "match_basis": "verbatim_token+domain_route:PE"}, {"md_atom_id": "md_dmPE_ex_a008", "md_file": "knowledge_base/domains/PE/examples.md", "md_atom_type": "TABLE_ROW", "md_parent_section": "§PE.1 [Example 1]", "md_verbatim": "| 1 | ABC | PE | ABC-001-001 | 1 | | HEAD | Head | | | | NORMAL | NORMAL | -1 | BASELINE | -1 | 1999-06-06 | -3 |", "score": 0.427, "match_basis": "verbatim_token+domain_route:PE"}], "candidate_count": 5, "zero_candidate": false}
{"pdf_atom_id": "ig34_p0316_a011", "pdf_atom_type": "TABLE_ROW", "pdf_source": "SDTMIG_v3.4", "pdf_page": 316, "pdf_parent_section": "§6.3.8 Physical Examination (PE)", "pdf_verbatim": "| PETESTCD | Body System Examined Short Name | Char | * | Topic | Short name of a part of the body examined in a physical examination. It can be used as a column name when converting a dataset from a vertical to a horizontal format. The value in PETESTCD cannot be longer than 8 characters, nor can it start with a number (e.g., \"1TEST\" is not valid). PETESTCD cannot contain characters other than letters, numbers, or underscores. Examples: \"HEAD\", \"ENT\". If the results of the entire physical examination are represented in one record, value should be \"PHYSEXAM\". | Req |", "figure_ref": null, "candidates": [{"md_atom_id": "md_dmPE_ex_a008", "md_file": "knowledge_base/domains/PE/examples.md", "md_atom_type": "TABLE_ROW", "md_parent_section": "§PE.1 [Example 1]", "md_verbatim": "| 1 | ABC | PE | ABC-001-001 | 1 | | HEAD | Head | | | | NORMAL | NORMAL | -1 | BASELINE | -1 | 1999-06-06 | -3 |", "score": 0.4256, "match_basis": "verbatim_token+domain_route:PE"}, {"md_atom_id": "md_dmPE_ex_a011", "md_file": "knowledge_base/domains/PE/examples.md", "md_atom_type": "TABLE_ROW", "md_parent_section": "§PE.1 [Example 1]", "md_verbatim": "| 4 | ABC | PE | ABC-001-001 | 4 | 2 | SKIN | Skin | HANDS | | Skin and subcutaneous tissue disorder | DERMATITIS | Dermatitis | -1 | BASELINE | -1 | 1999-06-06 | -3 |", "score": 0.4255, "match_basis": "verbatim_token+domain_route:PE"}, {"md_atom_id": "md_dmPE_ex_a013", "md_file": "knowledge_base/domains/PE/examples.md", "md_atom_type": "TABLE_ROW", "md_parent_section": "§PE.1 [Example 1]", "md_verbatim": "| 6 | ABC | PE | ABC-001-001 | 6 | | HEART | Heart | | | | NORMAL | NORMAL | -1 | BASELINE | -1 | 1999-06-06 | -3 |", "score": 0.4255, "match_basis": "verbatim_token+domain_route:PE"}, {"md_atom_id": "md_dmPE_ex_a009", "md_file": "knowledge_base/domains/PE/examples.md", "md_atom_type": "TABLE_ROW", "md_parent_section": "§PE.1 [Example 1]", "md_verbatim": "| 2 | ABC | PE | ABC-001-001 | 2 | | ENT | Ear/Nose/Throat | | | | NORMAL | NORMAL | -1 | BASELINE | -1 | 1999-06-06 | -3 |", "score": 0.4211, "match_basis": "verbatim_token+domain_route:PE"}, {"md_atom_id": "md_dmPE_ex_a010", "md_file": "knowledge_base/domains/PE/examples.md", "md_atom_type": "TABLE_ROW", "md_parent_section": "§PE.1 [Example 1]", "md_verbatim": "| 3 | ABC | PE | ABC-001-001 | 3 | 1 | SKIN | Skin | FACE | | Skin and subcutaneous tissue disorder | ACNE | Acne | -1 | BASELINE | -1 | 1999-06-06 | -3 |", "score": 0.4128, "match_basis": "verbatim_token+domain_route:PE"}], "candidate_count": 5, "zero_candidate": false}
{"pdf_atom_id": "ig34_p0316_a012", "pdf_atom_type": "TABLE_ROW", "pdf_source": "SDTMIG_v3.4", "pdf_page": 316, "pdf_parent_section": "§6.3.8 Physical Examination (PE)", "pdf_verbatim": "| PETEST | Body System Examined | Char | * | Synonym Qualifier | Long name of a part of the body examined in a physical examination. The value in PETEST cannot be longer than 40 characters. Examples: \"Head\", \"Ear/Nose/Throat\". If the results of the entire physical examination are represented in one record, value should be \"Physical Examination\". | Req |", "figure_ref": null, "candidates": [{"md_atom_id": "md_dmPE_ex_a009", "md_file": "knowledge_base/domains/PE/examples.md", "md_atom_type": "TABLE_ROW", "md_parent_section": "§PE.1 [Example 1]", "md_verbatim": "| 2 | ABC | PE | ABC-001-001 | 2 | | ENT | Ear/Nose/Throat | | | | NORMAL | NORMAL | -1 | BASELINE | -1 | 1999-06-06 | -3 |", "score": 0.4458, "match_basis": "verbatim_token+domain_route:PE"}, {"md_atom_id": "md_dmPE_ex_a013", "md_file": "knowledge_base/domains/PE/examples.md", "md_atom_type": "TABLE_ROW", "md_parent_section": "§PE.1 [Example 1]", "md_verbatim": "| 6 | ABC | PE | ABC-001-001 | 6 | | HEART | Heart | | | | NORMAL | NORMAL | -1 | BASELINE | -1 | 1999-06-06 | -3 |", "score": 0.4203, "match_basis": "verbatim_token+domain_route:PE"}, {"md_atom_id": "md_dmPE_ex_a011", "md_file": "knowledge_base/domains/PE/examples.md", "md_atom_type": "TABLE_ROW", "md_parent_section": "§PE.1 [Example 1]", "md_verbatim": "| 4 | ABC | PE | ABC-001-001 | 4 | 2 | SKIN | Skin | HANDS | | Skin and subcutaneous tissue disorder | DERMATITIS | Dermatitis | -1 | BASELINE | -1 | 1999-06-06 | -3 |", "score": 0.4169, "match_basis": "verbatim_token+domain_route:PE"}, {"md_atom_id": "md_dmPE_ex_a008", "md_file": "knowledge_base/domains/PE/examples.md", "md_atom_type": "TABLE_ROW", "md_parent_section": "§PE.1 [Example 1]", "md_verbatim": "| 1 | ABC | PE | ABC-001-001 | 1 | | HEAD | Head | | | | NORMAL | NORMAL | -1 | BASELINE | -1 | 1999-06-06 | -3 |", "score": 0.4153, "match_basis": "verbatim_token+domain_route:PE"}, {"md_atom_id": "md_dmPE_ex_a010", "md_file": "knowledge_base/domains/PE/examples.md", "md_atom_type": "TABLE_ROW", "md_parent_section": "§PE.1 [Example 1]", "md_verbatim": "| 3 | ABC | PE | ABC-001-001 | 3 | 1 | SKIN | Skin | FACE | | Skin and subcutaneous tissue disorder | ACNE | Acne | -1 | BASELINE | -1 | 1999-06-06 | -3 |", "score": 0.4086, "match_basis": "verbatim_token+domain_route:PE"}], "candidate_count": 5, "zero_candidate": false}
