{"pdf_atom_id": "sv20_p0048_a005", "pdf_atom_type": "TABLE_ROW", "pdf_source": "SDTM_v2.0", "pdf_page": 48, "pdf_parent_section": "§3.2.3.3 [Subject Visits]", "pdf_verbatim": "3 | USUBJID | Unique Subject Identifier | Char | | Identifier | | | C69256 | A sequence of characters used to uniquely identify a subject across all studies for all applications or submissions involving the product. | | ", "figure_ref": null, "candidates": [{"md_atom_id": "md_ch03_a071", "md_file": "knowledge_base/chapters/ch03_submitting_data.md", "md_atom_type": "TABLE_ROW", "md_parent_section": "§3.2.1 [Dataset-level Metadata]", "md_verbatim": "| TU | Tumor/Lesion Identification | Findings | One record per identified tumor per subject per assessor | Tabulation | STUDYID, USUBJID, TUEVALID, TULNKID | tu.xpt |", "score": 0.4143, "match_basis": "verbatim_token+chapter_route:ch03"}, {"md_atom_id": "md_ch03_a084", "md_file": "knowledge_base/chapters/ch03_submitting_data.md", "md_atom_type": "TABLE_ROW", "md_parent_section": "§3.2.1 [Dataset-level Metadata]", "md_verbatim": "| RELSPEC | Related Specimens | Relationship | One record per specimen identifier per subject | Tabulation | STUDYID, USUBJID, REFID | relspec.xpt |", "score": 0.4138, "match_basis": "verbatim_token+chapter_route:ch03"}, {"md_atom_id": "md_ch03_a034", "md_file": "knowledge_base/chapters/ch03_submitting_data.md", "md_atom_type": "TABLE_ROW", "md_parent_section": "§3.2.1 [Dataset-level Metadata]", "md_verbatim": "| ML | Meal Data | Interventions | One record per food product occurrence or constant intake interval per subject | Tabulation | STUDYID, USUBJID, MLTRT, MLSTDTC | ml.xpt |", "score": 0.4091, "match_basis": "verbatim_token+chapter_route:ch03"}, {"md_atom_id": "md_ch03_a038", "md_file": "knowledge_base/chapters/ch03_submitting_data.md", "md_atom_type": "TABLE_ROW", "md_parent_section": "§3.2.1 [Dataset-level Metadata]", "md_verbatim": "| BE | Biospecimen Events | Events | One record per instance per biospecimen event per biospecimen identifier per subject | Tabulation | STUDYID, USUBJID, BEREFID, BETERM, BESTDTC | be.xpt |", "score": 0.4087, "match_basis": "verbatim_token+chapter_route:ch03"}, {"md_atom_id": "md_ch03_a068", "md_file": "knowledge_base/chapters/ch03_submitting_data.md", "md_atom_type": "TABLE_ROW", "md_parent_section": "§3.2.1 [Dataset-level Metadata]", "md_verbatim": "| SC | Subject Characteristics | Findings | One record per characteristic per visit per subject. | Tabulation | STUDYID, USUBJID, SCTESTCD, VISITNUM | sc.xpt |", "score": 0.4059, "match_basis": "verbatim_token+chapter_route:ch03"}], "candidate_count": 5, "zero_candidate": false}
{"pdf_atom_id": "sv20_p0048_a006", "pdf_atom_type": "TABLE_ROW", "pdf_source": "SDTM_v2.0", "pdf_page": 48, "pdf_parent_section": "§3.2.3.3 [Subject Visits]", "pdf_verbatim": "4 | VISITNUM | Visit Number | Num | | Topic | | | C83101 | An assigned numeric identifier that aligns to the chronological order of a clinical encounter. | Decimal numbering may be useful for inserting unplanned visits. Used for sorting. | ", "figure_ref": null, "candidates": [{"md_atom_id": "md_ch03_a067", "md_file": "knowledge_base/chapters/ch03_submitting_data.md", "md_atom_type": "TABLE_ROW", "md_parent_section": "§3.2.1 [Dataset-level Metadata]", "md_verbatim": "| RS | Disease Response and Clin Classification | Findings | One record per response assessment or clinical classification assessment per time point per visit per subject per assessor per medical evaluator | Tabulation | STUDYID, USUBJID, RSTESTCD, VISITNUM, RSTPTREF, RSEVAL, RSPTPNUM, RSEVALID | rs.xpt |", "score": 0.3689, "match_basis": "verbatim_token+chapter_route:ch03"}, {"md_atom_id": "md_ch03_a082", "md_file": "knowledge_base/chapters/ch03_submitting_data.md", "md_atom_type": "TABLE_ROW", "md_parent_section": "§3.2.1 [Dataset-level Metadata]", "md_verbatim": "| TV | Trial Visits | Trial Design | One record per planned Visit per Arm | Tabulation | STUDYID, ARM, VISIT | tv.xpt |", "score": 0.3605, "match_basis": "verbatim_token+chapter_route:ch03"}, {"md_atom_id": "md_ch03_a038", "md_file": "knowledge_base/chapters/ch03_submitting_data.md", "md_atom_type": "TABLE_ROW", "md_parent_section": "§3.2.1 [Dataset-level Metadata]", "md_verbatim": "| BE | Biospecimen Events | Events | One record per instance per biospecimen event per biospecimen identifier per subject | Tabulation | STUDYID, USUBJID, BEREFID, BETERM, BESTDTC | be.xpt |", "score": 0.3568, "match_basis": "verbatim_token+chapter_route:ch03"}, {"md_atom_id": "md_ch03_a077", "md_file": "knowledge_base/chapters/ch03_submitting_data.md", "md_atom_type": "TABLE_ROW", "md_parent_section": "§3.2.1 [Dataset-level Metadata]", "md_verbatim": "| TD | Trial Disease Assessments | Trial Design | One record per planned constant assessment period | Tabulation | STUDYID, TDORDER | td.xpt |", "score": 0.3557, "match_basis": "verbatim_token+chapter_route:ch03"}, {"md_atom_id": "md_ch03_a029", "md_file": "knowledge_base/chapters/ch03_submitting_data.md", "md_atom_type": "TABLE_ROW", "md_parent_section": "§3.2.1 [Dataset-level Metadata]", "md_verbatim": "| SV | Subject Visits | Special Purpose | One record per actual or planned visit per subject | Tabulation | STUDYID, USUBJID, SVTERM | sv.xpt |", "score": 0.3526, "match_basis": "verbatim_token+chapter_route:ch03"}], "candidate_count": 5, "zero_candidate": false}
{"pdf_atom_id": "sv20_p0048_a007", "pdf_atom_type": "TABLE_ROW", "pdf_source": "SDTM_v2.0", "pdf_page": 48, "pdf_parent_section": "§3.2.3.3 [Subject Visits]", "pdf_verbatim": "5 | VISIT | Visit Name | Char | | Synonym Qualifier | VISITNUM | | C171010 | The label for a protocol-defined clinical encounter. | May be used in addition to VISITNUM and/or VISITDY. | ", "figure_ref": null, "candidates": [{"md_atom_id": "md_ch03_a067", "md_file": "knowledge_base/chapters/ch03_submitting_data.md", "md_atom_type": "TABLE_ROW", "md_parent_section": "§3.2.1 [Dataset-level Metadata]", "md_verbatim": "| RS | Disease Response and Clin Classification | Findings | One record per response assessment or clinical classification assessment per time point per visit per subject per assessor per medical evaluator | Tabulation | STUDYID, USUBJID, RSTESTCD, VISITNUM, RSTPTREF, RSEVAL, RSPTPNUM, RSEVALID | rs.xpt |", "score": 0.3675, "match_basis": "verbatim_token+chapter_route:ch03"}, {"md_atom_id": "md_ch03_a068", "md_file": "knowledge_base/chapters/ch03_submitting_data.md", "md_atom_type": "TABLE_ROW", "md_parent_section": "§3.2.1 [Dataset-level Metadata]", "md_verbatim": "| SC | Subject Characteristics | Findings | One record per characteristic per visit per subject. | Tabulation | STUDYID, USUBJID, SCTESTCD, VISITNUM | sc.xpt |", "score": 0.3632, "match_basis": "verbatim_token+chapter_route:ch03"}, {"md_atom_id": "md_ch03_a063", "md_file": "knowledge_base/chapters/ch03_submitting_data.md", "md_atom_type": "TABLE_ROW", "md_parent_section": "§3.2.1 [Dataset-level Metadata]", "md_verbatim": "| PP | Pharmacokinetics Parameters | Findings | One record per PK parameter per time-concentration profile per modeling method per subject | Tabulation | STUDYID, USUBJID, PPTESTCD, PPCAT, VISITNUM, PPRFTDTC | pp.xpt |", "score": 0.3588, "match_basis": "verbatim_token+chapter_route:ch03"}, {"md_atom_id": "md_ch03_a086", "md_file": "knowledge_base/chapters/ch03_submitting_data.md", "md_atom_type": "TABLE_ROW", "md_parent_section": "§3.2.1 [Dataset-level Metadata]", "md_verbatim": "| SUPP-- | Supplemental Qualifiers for [domain name] | Relationship | One record per supplemental qualifier per related parent domain record(s) | Tabulation | STUDYID, RDOMAIN, USUBJID, IDVAR, IDVARVAL, QNAM | supp--.xpt |", "score": 0.3576, "match_basis": "verbatim_token+chapter_route:ch03"}, {"md_atom_id": "md_ch03_a062", "md_file": "knowledge_base/chapters/ch03_submitting_data.md", "md_atom_type": "TABLE_ROW", "md_parent_section": "§3.2.1 [Dataset-level Metadata]", "md_verbatim": "| PE | Physical Examination | Findings | One record per body system or abnormality per visit per subject | Tabulation | STUDYID, USUBJID, PETESTCD, VISITNUM | pe.xpt |", "score": 0.3558, "match_basis": "verbatim_token+chapter_route:ch03"}], "candidate_count": 5, "zero_candidate": false}
{"pdf_atom_id": "sv20_p0048_a008", "pdf_atom_type": "TABLE_ROW", "pdf_source": "SDTM_v2.0", "pdf_page": 48, "pdf_parent_section": "§3.2.3.3 [Subject Visits]", "pdf_verbatim": "6 | SVPRESP | Pre-Specified | Char | | Variable Qualifier | VISITNUM | | | | | An indication that the visit is planned. Values should be \"Y\" or null.", "figure_ref": null, "candidates": [{"md_atom_id": "md_ch03_a029", "md_file": "knowledge_base/chapters/ch03_submitting_data.md", "md_atom_type": "TABLE_ROW", "md_parent_section": "§3.2.1 [Dataset-level Metadata]", "md_verbatim": "| SV | Subject Visits | Special Purpose | One record per actual or planned visit per subject | Tabulation | STUDYID, USUBJID, SVTERM | sv.xpt |", "score": 0.3928, "match_basis": "verbatim_token+chapter_route:ch03"}, {"md_atom_id": "md_ch03_a082", "md_file": "knowledge_base/chapters/ch03_submitting_data.md", "md_atom_type": "TABLE_ROW", "md_parent_section": "§3.2.1 [Dataset-level Metadata]", "md_verbatim": "| TV | Trial Visits | Trial Design | One record per planned Visit per Arm | Tabulation | STUDYID, ARM, VISIT | tv.xpt |", "score": 0.3878, "match_basis": "verbatim_token+chapter_route:ch03"}, {"md_atom_id": "md_ch03_a067", "md_file": "knowledge_base/chapters/ch03_submitting_data.md", "md_atom_type": "TABLE_ROW", "md_parent_section": "§3.2.1 [Dataset-level Metadata]", "md_verbatim": "| RS | Disease Response and Clin Classification | Findings | One record per response assessment or clinical classification assessment per time point per visit per subject per assessor per medical evaluator | Tabulation | STUDYID, USUBJID, RSTESTCD, VISITNUM, RSTPTREF, RSEVAL, RSPTPNUM, RSEVALID | rs.xpt |", "score": 0.3816, "match_basis": "verbatim_token+chapter_route:ch03"}, {"md_atom_id": "md_ch03_a064", "md_file": "knowledge_base/chapters/ch03_submitting_data.md", "md_atom_type": "TABLE_ROW", "md_parent_section": "§3.2.1 [Dataset-level Metadata]", "md_verbatim": "| QS | Questionnaires | Findings | One record per questionnaire per question per time point per visit per subject | Tabulation | STUDYID, USUBJID, QSCAT, QSSCAT, VISITNUM, QSTESTCD | qs.xpt |", "score": 0.3778, "match_basis": "verbatim_token+chapter_route:ch03"}, {"md_atom_id": "md_ch03_a068", "md_file": "knowledge_base/chapters/ch03_submitting_data.md", "md_atom_type": "TABLE_ROW", "md_parent_section": "§3.2.1 [Dataset-level Metadata]", "md_verbatim": "| SC | Subject Characteristics | Findings | One record per characteristic per visit per subject. | Tabulation | STUDYID, USUBJID, SCTESTCD, VISITNUM | sc.xpt |", "score": 0.3765, "match_basis": "verbatim_token+chapter_route:ch03"}], "candidate_count": 5, "zero_candidate": false}
{"pdf_atom_id": "sv20_p0048_a009", "pdf_atom_type": "TABLE_ROW", "pdf_source": "SDTM_v2.0", "pdf_page": 48, "pdf_parent_section": "§3.2.3.3 [Subject Visits]", "pdf_verbatim": "7 | SVOCCUR | Occurrence | Char | | Record Qualifier | | | | | | An indication as to whether a prespecified (planned) visit has occurred.", "figure_ref": null, "candidates": [{"md_atom_id": "md_ch03_a029", "md_file": "knowledge_base/chapters/ch03_submitting_data.md", "md_atom_type": "TABLE_ROW", "md_parent_section": "§3.2.1 [Dataset-level Metadata]", "md_verbatim": "| SV | Subject Visits | Special Purpose | One record per actual or planned visit per subject | Tabulation | STUDYID, USUBJID, SVTERM | sv.xpt |", "score": 0.4267, "match_basis": "verbatim_token+chapter_route:ch03"}, {"md_atom_id": "md_ch03_a082", "md_file": "knowledge_base/chapters/ch03_submitting_data.md", "md_atom_type": "TABLE_ROW", "md_parent_section": "§3.2.1 [Dataset-level Metadata]", "md_verbatim": "| TV | Trial Visits | Trial Design | One record per planned Visit per Arm | Tabulation | STUDYID, ARM, VISIT | tv.xpt |", "score": 0.4184, "match_basis": "verbatim_token+chapter_route:ch03"}, {"md_atom_id": "md_ch03_a035", "md_file": "knowledge_base/chapters/ch03_submitting_data.md", "md_atom_type": "TABLE_ROW", "md_parent_section": "§3.2.1 [Dataset-level Metadata]", "md_verbatim": "| PR | Procedures | Interventions | One record per recorded procedure per occurrence per subject | Tabulation | STUDYID, USUBJID, PRTRT, PRSTDTC | pr.xpt |", "score": 0.395, "match_basis": "verbatim_token+chapter_route:ch03"}, {"md_atom_id": "md_ch03_a031", "md_file": "knowledge_base/chapters/ch03_submitting_data.md", "md_atom_type": "TABLE_ROW", "md_parent_section": "§3.2.1 [Dataset-level Metadata]", "md_verbatim": "| CM | Concomitant/Prior Medications | Interventions | One record per recorded intervention occurrence or constant-dosing interval per subject | Tabulation | STUDYID, USUBJID, CMTRT, CMSTDTC | cm.xpt |", "score": 0.3931, "match_basis": "verbatim_token+chapter_route:ch03"}, {"md_atom_id": "md_ch03_a078", "md_file": "knowledge_base/chapters/ch03_submitting_data.md", "md_atom_type": "TABLE_ROW", "md_parent_section": "§3.2.1 [Dataset-level Metadata]", "md_verbatim": "| TE | Trial Elements | Trial Design | One record per planned Element | Tabulation | STUDYID, ETCD | te.xpt |", "score": 0.3878, "match_basis": "verbatim_token+chapter_route:ch03"}], "candidate_count": 5, "zero_candidate": false}
{"pdf_atom_id": "sv20_p0048_a010", "pdf_atom_type": "TABLE_ROW", "pdf_source": "SDTM_v2.0", "pdf_page": 48, "pdf_parent_section": "§3.2.3.3 [Subject Visits]", "pdf_verbatim": "8 | SVREASOC | Reason for Occur Value | Char | | Record Qualifier | | | | | | The reason for the value in SVOCCUR. If SVOCCUR=\"N\", SVREASOC is the reason the visit did not occur.", "figure_ref": null, "candidates": [{"md_atom_id": "md_ch03_a086", "md_file": "knowledge_base/chapters/ch03_submitting_data.md", "md_atom_type": "TABLE_ROW", "md_parent_section": "§3.2.1 [Dataset-level Metadata]", "md_verbatim": "| SUPP-- | Supplemental Qualifiers for [domain name] | Relationship | One record per supplemental qualifier per related parent domain record(s) | Tabulation | STUDYID, RDOMAIN, USUBJID, IDVAR, IDVARVAL, QNAM | supp--.xpt |", "score": 0.3857, "match_basis": "verbatim_token+chapter_route:ch03"}, {"md_atom_id": "md_ch03_a082", "md_file": "knowledge_base/chapters/ch03_submitting_data.md", "md_atom_type": "TABLE_ROW", "md_parent_section": "§3.2.1 [Dataset-level Metadata]", "md_verbatim": "| TV | Trial Visits | Trial Design | One record per planned Visit per Arm | Tabulation | STUDYID, ARM, VISIT | tv.xpt |", "score": 0.3646, "match_basis": "verbatim_token+chapter_route:ch03"}, {"md_atom_id": "md_ch03_a068", "md_file": "knowledge_base/chapters/ch03_submitting_data.md", "md_atom_type": "TABLE_ROW", "md_parent_section": "§3.2.1 [Dataset-level Metadata]", "md_verbatim": "| SC | Subject Characteristics | Findings | One record per characteristic per visit per subject. | Tabulation | STUDYID, USUBJID, SCTESTCD, VISITNUM | sc.xpt |", "score": 0.3643, "match_basis": "verbatim_token+chapter_route:ch03"}, {"md_atom_id": "md_ch03_a029", "md_file": "knowledge_base/chapters/ch03_submitting_data.md", "md_atom_type": "TABLE_ROW", "md_parent_section": "§3.2.1 [Dataset-level Metadata]", "md_verbatim": "| SV | Subject Visits | Special Purpose | One record per actual or planned visit per subject | Tabulation | STUDYID, USUBJID, SVTERM | sv.xpt |", "score": 0.3585, "match_basis": "verbatim_token+chapter_route:ch03"}, {"md_atom_id": "md_ch03_a070", "md_file": "knowledge_base/chapters/ch03_submitting_data.md", "md_atom_type": "TABLE_ROW", "md_parent_section": "§3.2.1 [Dataset-level Metadata]", "md_verbatim": "| TR | Tumor/Lesion Results | Findings | One record per tumor measurement/assessment per visit per subject per assessor | Tabulation | STUDYID, USUBJID, TRTESTCD, TREVALID, VISITNUM | tr.xpt |", "score": 0.3571, "match_basis": "verbatim_token+chapter_route:ch03"}], "candidate_count": 5, "zero_candidate": false}
{"pdf_atom_id": "sv20_p0048_a011", "pdf_atom_type": "TABLE_ROW", "pdf_source": "SDTM_v2.0", "pdf_page": 48, "pdf_parent_section": "§3.2.3.3 [Subject Visits]", "pdf_verbatim": "9 | SVCNTMOD | Contact Mode | Char | | Record Qualifier | | | | | | The way in which the visit or contact was conducted. | \"IN PERSON\", \"TELEPHONE\", \"IVRS\".", "figure_ref": null, "candidates": [{"md_atom_id": "md_ch03_a086", "md_file": "knowledge_base/chapters/ch03_submitting_data.md", "md_atom_type": "TABLE_ROW", "md_parent_section": "§3.2.1 [Dataset-level Metadata]", "md_verbatim": "| SUPP-- | Supplemental Qualifiers for [domain name] | Relationship | One record per supplemental qualifier per related parent domain record(s) | Tabulation | STUDYID, RDOMAIN, USUBJID, IDVAR, IDVARVAL, QNAM | supp--.xpt |", "score": 0.3906, "match_basis": "verbatim_token+chapter_route:ch03"}, {"md_atom_id": "md_ch03_a068", "md_file": "knowledge_base/chapters/ch03_submitting_data.md", "md_atom_type": "TABLE_ROW", "md_parent_section": "§3.2.1 [Dataset-level Metadata]", "md_verbatim": "| SC | Subject Characteristics | Findings | One record per characteristic per visit per subject. | Tabulation | STUDYID, USUBJID, SCTESTCD, VISITNUM | sc.xpt |", "score": 0.3796, "match_basis": "verbatim_token+chapter_route:ch03"}, {"md_atom_id": "md_ch03_a029", "md_file": "knowledge_base/chapters/ch03_submitting_data.md", "md_atom_type": "TABLE_ROW", "md_parent_section": "§3.2.1 [Dataset-level Metadata]", "md_verbatim": "| SV | Subject Visits | Special Purpose | One record per actual or planned visit per subject | Tabulation | STUDYID, USUBJID, SVTERM | sv.xpt |", "score": 0.368, "match_basis": "verbatim_token+chapter_route:ch03"}, {"md_atom_id": "md_ch03_a082", "md_file": "knowledge_base/chapters/ch03_submitting_data.md", "md_atom_type": "TABLE_ROW", "md_parent_section": "§3.2.1 [Dataset-level Metadata]", "md_verbatim": "| TV | Trial Visits | Trial Design | One record per planned Visit per Arm | Tabulation | STUDYID, ARM, VISIT | tv.xpt |", "score": 0.3667, "match_basis": "verbatim_token+chapter_route:ch03"}, {"md_atom_id": "md_ch03_a087", "md_file": "knowledge_base/chapters/ch03_submitting_data.md", "md_atom_type": "TABLE_ROW", "md_parent_section": "§3.2.1 [Dataset-level Metadata]", "md_verbatim": "| OI | Non-host Organism Identifiers | Study Reference | One record per taxon per non-host organism | Tabulation | NHOID, OISEQ | oi.xpt |", "score": 0.3632, "match_basis": "verbatim_token+chapter_route:ch03"}], "candidate_count": 5, "zero_candidate": false}
{"pdf_atom_id": "sv20_p0048_a012", "pdf_atom_type": "TABLE_ROW", "pdf_source": "SDTM_v2.0", "pdf_page": 48, "pdf_parent_section": "§3.2.3.3 [Subject Visits]", "pdf_verbatim": "10 | SVEPCHGI | Epi/Pandemic Related Change Indicator | Char | | Record Qualifier | | | | | | Indicates whether the visit was changed due to an epidemic or pandemic.", "figure_ref": null, "candidates": [{"md_atom_id": "md_ch03_a086", "md_file": "knowledge_base/chapters/ch03_submitting_data.md", "md_atom_type": "TABLE_ROW", "md_parent_section": "§3.2.1 [Dataset-level Metadata]", "md_verbatim": "| SUPP-- | Supplemental Qualifiers for [domain name] | Relationship | One record per supplemental qualifier per related parent domain record(s) | Tabulation | STUDYID, RDOMAIN, USUBJID, IDVAR, IDVARVAL, QNAM | supp--.xpt |", "score": 0.3889, "match_basis": "verbatim_token+chapter_route:ch03"}, {"md_atom_id": "md_ch03_a058", "md_file": "knowledge_base/chapters/ch03_submitting_data.md", "md_atom_type": "TABLE_ROW", "md_parent_section": "§3.2.1 [Dataset-level Metadata]", "md_verbatim": "| MS | Microbiology Susceptibility | Findings | One record per microbiology susceptibility test (or other organism-related finding) per organism found in MB | Tabulation | STUDYID, USUBJID, MSTESTCD, VISITNUM, MSTPTREF, MSTPTNUM | ms.xpt |", "score": 0.3871, "match_basis": "verbatim_token+chapter_route:ch03"}, {"md_atom_id": "md_ch03_a084", "md_file": "knowledge_base/chapters/ch03_submitting_data.md", "md_atom_type": "TABLE_ROW", "md_parent_section": "§3.2.1 [Dataset-level Metadata]", "md_verbatim": "| RELSPEC | Related Specimens | Relationship | One record per specimen identifier per subject | Tabulation | STUDYID, USUBJID, REFID | relspec.xpt |", "score": 0.3796, "match_basis": "verbatim_token+chapter_route:ch03"}, {"md_atom_id": "md_ch03_a067", "md_file": "knowledge_base/chapters/ch03_submitting_data.md", "md_atom_type": "TABLE_ROW", "md_parent_section": "§3.2.1 [Dataset-level Metadata]", "md_verbatim": "| RS | Disease Response and Clin Classification | Findings | One record per response assessment or clinical classification assessment per time point per visit per subject per assessor per medical evaluator | Tabulation | STUDYID, USUBJID, RSTESTCD, VISITNUM, RSTPTREF, RSEVAL, RSPTPNUM, RSEVALID | rs.xpt |", "score": 0.3781, "match_basis": "verbatim_token+chapter_route:ch03"}, {"md_atom_id": "md_ch03_a068", "md_file": "knowledge_base/chapters/ch03_submitting_data.md", "md_atom_type": "TABLE_ROW", "md_parent_section": "§3.2.1 [Dataset-level Metadata]", "md_verbatim": "| SC | Subject Characteristics | Findings | One record per characteristic per visit per subject. | Tabulation | STUDYID, USUBJID, SCTESTCD, VISITNUM | sc.xpt |", "score": 0.378, "match_basis": "verbatim_token+chapter_route:ch03"}], "candidate_count": 5, "zero_candidate": false}
{"pdf_atom_id": "sv20_p0048_a013", "pdf_atom_type": "TABLE_ROW", "pdf_source": "SDTM_v2.0", "pdf_page": 48, "pdf_parent_section": "§3.2.3.3 [Subject Visits]", "pdf_verbatim": "11 | VISITDY | Planned Study Day of Visit | Num | | Timing | | | C171011 | The planned study day of a clinical encounter relative to the sponsor-defined reference start date. | The reference start date is RFSTDTC in Demographics. | ", "figure_ref": null, "candidates": [{"md_atom_id": "md_ch03_a061", "md_file": "knowledge_base/chapters/ch03_submitting_data.md", "md_atom_type": "TABLE_ROW", "md_parent_section": "§3.2.1 [Dataset-level Metadata]", "md_verbatim": "| PC | Pharmacokinetics Concentrations | Findings | One record per sample characteristic or time-point concentration per reference time point or per analyte per subject | Tabulation | STUDYID, USUBJID, PCTESTCD, VISITNUM, PCTPTREF, PCTPTNUM | pc.xpt |", "score": 0.3868, "match_basis": "verbatim_token+chapter_route:ch03"}, {"md_atom_id": "md_ch03_a067", "md_file": "knowledge_base/chapters/ch03_submitting_data.md", "md_atom_type": "TABLE_ROW", "md_parent_section": "§3.2.1 [Dataset-level Metadata]", "md_verbatim": "| RS | Disease Response and Clin Classification | Findings | One record per response assessment or clinical classification assessment per time point per visit per subject per assessor per medical evaluator | Tabulation | STUDYID, USUBJID, RSTESTCD, VISITNUM, RSTPTREF, RSEVAL, RSPTPNUM, RSEVALID | rs.xpt |", "score": 0.3831, "match_basis": "verbatim_token+chapter_route:ch03"}, {"md_atom_id": "md_ch03_a039", "md_file": "knowledge_base/chapters/ch03_submitting_data.md", "md_atom_type": "TABLE_ROW", "md_parent_section": "§3.2.1 [Dataset-level Metadata]", "md_verbatim": "| CE | Clinical Events | Events | One record per event per subject | Tabulation | STUDYID, USUBJID, CETERM, CESTDTC | ce.xpt |", "score": 0.3811, "match_basis": "verbatim_token+chapter_route:ch03"}, {"md_atom_id": "md_ch03_a026", "md_file": "knowledge_base/chapters/ch03_submitting_data.md", "md_atom_type": "TABLE_ROW", "md_parent_section": "§3.2.1 [Dataset-level Metadata]", "md_verbatim": "| DM | Demographics | Special Purpose | One record per subject | Tabulation | STUDYID, USUBJID | dm.xpt |", "score": 0.3804, "match_basis": "verbatim_token+chapter_route:ch03"}, {"md_atom_id": "md_ch03_a031", "md_file": "knowledge_base/chapters/ch03_submitting_data.md", "md_atom_type": "TABLE_ROW", "md_parent_section": "§3.2.1 [Dataset-level Metadata]", "md_verbatim": "| CM | Concomitant/Prior Medications | Interventions | One record per recorded intervention occurrence or constant-dosing interval per subject | Tabulation | STUDYID, USUBJID, CMTRT, CMSTDTC | cm.xpt |", "score": 0.3766, "match_basis": "verbatim_token+chapter_route:ch03"}], "candidate_count": 5, "zero_candidate": false}
{"pdf_atom_id": "sv20_p0048_a014", "pdf_atom_type": "TABLE_ROW", "pdf_source": "SDTM_v2.0", "pdf_page": 48, "pdf_parent_section": "§3.2.3.3 [Subject Visits]", "pdf_verbatim": "12 | SVSTDTC | Start Date/Time of Visit | Char | ISO 8601 datetime or interval | Timing | | | | | | Start date or start date and time for a subject's visit.", "figure_ref": null, "candidates": [{"md_atom_id": "md_ch03_a074", "md_file": "knowledge_base/chapters/ch03_submitting_data.md", "md_atom_type": "TABLE_ROW", "md_parent_section": "§3.2.1 [Dataset-level Metadata]", "md_verbatim": "| FA | Findings About Events or Interventions | Findings About | One record per finding, per object, per time point, per visit per subject | Tabulation | STUDYID, USUBJID, FATESTCD, FAOBJ, VISITNUM, FATPTREF, FATPTNUM | fa.xpt |", "score": 0.4011, "match_basis": "verbatim_token+chapter_route:ch03"}, {"md_atom_id": "md_ch03_a034", "md_file": "knowledge_base/chapters/ch03_submitting_data.md", "md_atom_type": "TABLE_ROW", "md_parent_section": "§3.2.1 [Dataset-level Metadata]", "md_verbatim": "| ML | Meal Data | Interventions | One record per food product occurrence or constant intake interval per subject | Tabulation | STUDYID, USUBJID, MLTRT, MLSTDTC | ml.xpt |", "score": 0.4, "match_basis": "verbatim_token+chapter_route:ch03"}, {"md_atom_id": "md_ch03_a031", "md_file": "knowledge_base/chapters/ch03_submitting_data.md", "md_atom_type": "TABLE_ROW", "md_parent_section": "§3.2.1 [Dataset-level Metadata]", "md_verbatim": "| CM | Concomitant/Prior Medications | Interventions | One record per recorded intervention occurrence or constant-dosing interval per subject | Tabulation | STUDYID, USUBJID, CMTRT, CMSTDTC | cm.xpt |", "score": 0.3941, "match_basis": "verbatim_token+chapter_route:ch03"}, {"md_atom_id": "md_ch03_a033", "md_file": "knowledge_base/chapters/ch03_submitting_data.md", "md_atom_type": "TABLE_ROW", "md_parent_section": "§3.2.1 [Dataset-level Metadata]", "md_verbatim": "| EX | Exposure | Interventions | One record per protocol-specified study treatment, constant-dosing interval, per subject | Tabulation | STUDYID, USUBJID, EXTRT, EXSTDTC | ex.xpt |", "score": 0.3932, "match_basis": "verbatim_token+chapter_route:ch03"}, {"md_atom_id": "md_ch03_a049", "md_file": "knowledge_base/chapters/ch03_submitting_data.md", "md_atom_type": "TABLE_ROW", "md_parent_section": "§3.2.1 [Dataset-level Metadata]", "md_verbatim": "| EG | ECG Test Results | Findings | One record per ECG observation per replicate per time point or one record per ECG observation per beat per visit per subject | Tabulation | STUDYID, USUBJID, EGTESTCD, VISITNUM, EGTPTREF, EGTPTNUM, EGREPNUM | eg.xpt |", "score": 0.3857, "match_basis": "verbatim_token+chapter_route:ch03"}], "candidate_count": 5, "zero_candidate": false}
{"pdf_atom_id": "sv20_p0048_a015", "pdf_atom_type": "TABLE_ROW", "pdf_source": "SDTM_v2.0", "pdf_page": 48, "pdf_parent_section": "§3.2.3.3 [Subject Visits]", "pdf_verbatim": "13 | SVENDTC | End Date/Time of Visit | Char | ISO 8601 datetime or interval | Timing | | | | | | End date/time of a subject's visit.", "figure_ref": null, "candidates": [{"md_atom_id": "md_ch03_a074", "md_file": "knowledge_base/chapters/ch03_submitting_data.md", "md_atom_type": "TABLE_ROW", "md_parent_section": "§3.2.1 [Dataset-level Metadata]", "md_verbatim": "| FA | Findings About Events or Interventions | Findings About | One record per finding, per object, per time point, per visit per subject | Tabulation | STUDYID, USUBJID, FATESTCD, FAOBJ, VISITNUM, FATPTREF, FATPTNUM | fa.xpt |", "score": 0.4146, "match_basis": "verbatim_token+chapter_route:ch03"}, {"md_atom_id": "md_ch03_a068", "md_file": "knowledge_base/chapters/ch03_submitting_data.md", "md_atom_type": "TABLE_ROW", "md_parent_section": "§3.2.1 [Dataset-level Metadata]", "md_verbatim": "| SC | Subject Characteristics | Findings | One record per characteristic per visit per subject. | Tabulation | STUDYID, USUBJID, SCTESTCD, VISITNUM | sc.xpt |", "score": 0.3911, "match_basis": "verbatim_token+chapter_route:ch03"}, {"md_atom_id": "md_ch03_a034", "md_file": "knowledge_base/chapters/ch03_submitting_data.md", "md_atom_type": "TABLE_ROW", "md_parent_section": "§3.2.1 [Dataset-level Metadata]", "md_verbatim": "| ML | Meal Data | Interventions | One record per food product occurrence or constant intake interval per subject | Tabulation | STUDYID, USUBJID, MLTRT, MLSTDTC | ml.xpt |", "score": 0.3903, "match_basis": "verbatim_token+chapter_route:ch03"}, {"md_atom_id": "md_ch03_a049", "md_file": "knowledge_base/chapters/ch03_submitting_data.md", "md_atom_type": "TABLE_ROW", "md_parent_section": "§3.2.1 [Dataset-level Metadata]", "md_verbatim": "| EG | ECG Test Results | Findings | One record per ECG observation per replicate per time point or one record per ECG observation per beat per visit per subject | Tabulation | STUDYID, USUBJID, EGTESTCD, VISITNUM, EGTPTREF, EGTPTNUM, EGREPNUM | eg.xpt |", "score": 0.39, "match_basis": "verbatim_token+chapter_route:ch03"}, {"md_atom_id": "md_ch03_a059", "md_file": "knowledge_base/chapters/ch03_submitting_data.md", "md_atom_type": "TABLE_ROW", "md_parent_section": "§3.2.1 [Dataset-level Metadata]", "md_verbatim": "| NV | Nervous System Findings | Findings | One record per finding per location per time point per visit per subject | Tabulation | STUDYID, USUBJID, VISITNUM, NVTPTNUM, NVLOC, NVTESTCD | nv.xpt |", "score": 0.3886, "match_basis": "verbatim_token+chapter_route:ch03"}], "candidate_count": 5, "zero_candidate": false}
{"pdf_atom_id": "sv20_p0048_a016", "pdf_atom_type": "TABLE_ROW", "pdf_source": "SDTM_v2.0", "pdf_page": 48, "pdf_parent_section": "§3.2.3.3 [Subject Visits]", "pdf_verbatim": "14 | SVSTDY | Study Day of Start of Visit | Num | | Timing | | | | | | Study day of start of visit relative to the sponsor-defined RFSTDTC.", "figure_ref": null, "candidates": [{"md_atom_id": "md_ch03_a075", "md_file": "knowledge_base/chapters/ch03_submitting_data.md", "md_atom_type": "TABLE_ROW", "md_parent_section": "§3.2.1 [Dataset-level Metadata]", "md_verbatim": "| SR | Skin Response | Findings About | One record per finding, per object, per time point, per visit per subject | Tabulation | STUDYID, USUBJID, SRTESTCD, SROBJ, VISITNUM, SRTPTREF, SRTPTNUM | sr.xpt |", "score": 0.3937, "match_basis": "verbatim_token+chapter_route:ch03"}, {"md_atom_id": "md_ch03_a069", "md_file": "knowledge_base/chapters/ch03_submitting_data.md", "md_atom_type": "TABLE_ROW", "md_parent_section": "§3.2.1 [Dataset-level Metadata]", "md_verbatim": "| SS | Subject Status | Findings | One record per status per visit per subject | Tabulation | STUDYID, USUBJID, SSTESTCD, VISITNUM | ss.xpt |", "score": 0.3923, "match_basis": "verbatim_token+chapter_route:ch03"}, {"md_atom_id": "md_ch03_a060", "md_file": "knowledge_base/chapters/ch03_submitting_data.md", "md_atom_type": "TABLE_ROW", "md_parent_section": "§3.2.1 [Dataset-level Metadata]", "md_verbatim": "| OE | Ophthalmic Examinations | Findings | One record per ophthalmic finding per method per location, per time point per visit per subject | Tabulation | STUDYID, USUBJID, FOCID, OETESTCD, OETSTDTL, OEMETHOD, OELOC, OELAT, OEDIR, VISITNUM, OEDTC, OETPTREF, OETPTNUM, OEREPNUM | oe.xpt |", "score": 0.3871, "match_basis": "verbatim_token+chapter_route:ch03"}, {"md_atom_id": "md_ch03_a066", "md_file": "knowledge_base/chapters/ch03_submitting_data.md", "md_atom_type": "TABLE_ROW", "md_parent_section": "§3.2.1 [Dataset-level Metadata]", "md_verbatim": "| RP | Reproductive System Findings | Findings | One record per finding or result per time point per visit per subject | Tabulation | STUDYID, DOMAIN, USUBJID, RPTESTCD, VISITNUM | rp.xpt |", "score": 0.3848, "match_basis": "verbatim_token+chapter_route:ch03"}, {"md_atom_id": "md_ch03_a082", "md_file": "knowledge_base/chapters/ch03_submitting_data.md", "md_atom_type": "TABLE_ROW", "md_parent_section": "§3.2.1 [Dataset-level Metadata]", "md_verbatim": "| TV | Trial Visits | Trial Design | One record per planned Visit per Arm | Tabulation | STUDYID, ARM, VISIT | tv.xpt |", "score": 0.3794, "match_basis": "verbatim_token+chapter_route:ch03"}], "candidate_count": 5, "zero_candidate": false}
{"pdf_atom_id": "sv20_p0048_a017", "pdf_atom_type": "TABLE_ROW", "pdf_source": "SDTM_v2.0", "pdf_page": 48, "pdf_parent_section": "§3.2.3.3 [Subject Visits]", "pdf_verbatim": "15 | SVENDY | Study Day of End of Visit | Num | | Timing | | | | | | Study day of end of visit relative to the sponsor-defined RFSTDTC.", "figure_ref": null, "candidates": [{"md_atom_id": "md_ch03_a075", "md_file": "knowledge_base/chapters/ch03_submitting_data.md", "md_atom_type": "TABLE_ROW", "md_parent_section": "§3.2.1 [Dataset-level Metadata]", "md_verbatim": "| SR | Skin Response | Findings About | One record per finding, per object, per time point, per visit per subject | Tabulation | STUDYID, USUBJID, SRTESTCD, SROBJ, VISITNUM, SRTPTREF, SRTPTNUM | sr.xpt |", "score": 0.3957, "match_basis": "verbatim_token+chapter_route:ch03"}, {"md_atom_id": "md_ch03_a060", "md_file": "knowledge_base/chapters/ch03_submitting_data.md", "md_atom_type": "TABLE_ROW", "md_parent_section": "§3.2.1 [Dataset-level Metadata]", "md_verbatim": "| OE | Ophthalmic Examinations | Findings | One record per ophthalmic finding per method per location, per time point per visit per subject | Tabulation | STUDYID, USUBJID, FOCID, OETESTCD, OETSTDTL, OEMETHOD, OELOC, OELAT, OEDIR, VISITNUM, OEDTC, OETPTREF, OETPTNUM, OEREPNUM | oe.xpt |", "score": 0.3885, "match_basis": "verbatim_token+chapter_route:ch03"}, {"md_atom_id": "md_ch03_a066", "md_file": "knowledge_base/chapters/ch03_submitting_data.md", "md_atom_type": "TABLE_ROW", "md_parent_section": "§3.2.1 [Dataset-level Metadata]", "md_verbatim": "| RP | Reproductive System Findings | Findings | One record per finding or result per time point per visit per subject | Tabulation | STUDYID, DOMAIN, USUBJID, RPTESTCD, VISITNUM | rp.xpt |", "score": 0.3866, "match_basis": "verbatim_token+chapter_route:ch03"}, {"md_atom_id": "md_ch03_a074", "md_file": "knowledge_base/chapters/ch03_submitting_data.md", "md_atom_type": "TABLE_ROW", "md_parent_section": "§3.2.1 [Dataset-level Metadata]", "md_verbatim": "| FA | Findings About Events or Interventions | Findings About | One record per finding, per object, per time point, per visit per subject | Tabulation | STUDYID, USUBJID, FATESTCD, FAOBJ, VISITNUM, FATPTREF, FATPTNUM | fa.xpt |", "score": 0.3866, "match_basis": "verbatim_token+chapter_route:ch03"}, {"md_atom_id": "md_ch03_a069", "md_file": "knowledge_base/chapters/ch03_submitting_data.md", "md_atom_type": "TABLE_ROW", "md_parent_section": "§3.2.1 [Dataset-level Metadata]", "md_verbatim": "| SS | Subject Status | Findings | One record per status per visit per subject | Tabulation | STUDYID, USUBJID, SSTESTCD, VISITNUM | ss.xpt |", "score": 0.3857, "match_basis": "verbatim_token+chapter_route:ch03"}], "candidate_count": 5, "zero_candidate": false}
{"pdf_atom_id": "sv20_p0048_a018", "pdf_atom_type": "TABLE_ROW", "pdf_source": "SDTM_v2.0", "pdf_page": 48, "pdf_parent_section": "§3.2.3.3 [Subject Visits]", "pdf_verbatim": "16 | SVUPDES | Description of Unplanned Visit | Char | | Record Qualifier | | | | | | Description of what happened to the subject during an unplanned visit. Null for protocol-defined visits.", "figure_ref": null, "candidates": [{"md_atom_id": "md_ch03_a029", "md_file": "knowledge_base/chapters/ch03_submitting_data.md", "md_atom_type": "TABLE_ROW", "md_parent_section": "§3.2.1 [Dataset-level Metadata]", "md_verbatim": "| SV | Subject Visits | Special Purpose | One record per actual or planned visit per subject | Tabulation | STUDYID, USUBJID, SVTERM | sv.xpt |", "score": 0.4248, "match_basis": "verbatim_token+chapter_route:ch03"}, {"md_atom_id": "md_ch03_a082", "md_file": "knowledge_base/chapters/ch03_submitting_data.md", "md_atom_type": "TABLE_ROW", "md_parent_section": "§3.2.1 [Dataset-level Metadata]", "md_verbatim": "| TV | Trial Visits | Trial Design | One record per planned Visit per Arm | Tabulation | STUDYID, ARM, VISIT | tv.xpt |", "score": 0.4091, "match_basis": "verbatim_token+chapter_route:ch03"}, {"md_atom_id": "md_ch03_a068", "md_file": "knowledge_base/chapters/ch03_submitting_data.md", "md_atom_type": "TABLE_ROW", "md_parent_section": "§3.2.1 [Dataset-level Metadata]", "md_verbatim": "| SC | Subject Characteristics | Findings | One record per characteristic per visit per subject. | Tabulation | STUDYID, USUBJID, SCTESTCD, VISITNUM | sc.xpt |", "score": 0.4009, "match_basis": "verbatim_token+chapter_route:ch03"}, {"md_atom_id": "md_ch03_a041", "md_file": "knowledge_base/chapters/ch03_submitting_data.md", "md_atom_type": "TABLE_ROW", "md_parent_section": "§3.2.1 [Dataset-level Metadata]", "md_verbatim": "| DV | Protocol Deviations | Events | One record per protocol deviation per subject | Tabulation | STUDYID, USUBJID, DVTERM, DVSTDTC | dv.xpt |", "score": 0.4, "match_basis": "verbatim_token+chapter_route:ch03"}, {"md_atom_id": "md_ch03_a040", "md_file": "knowledge_base/chapters/ch03_submitting_data.md", "md_atom_type": "TABLE_ROW", "md_parent_section": "§3.2.1 [Dataset-level Metadata]", "md_verbatim": "| DS | Disposition | Events | One record per disposition status or protocol milestone per subject | Tabulation | STUDYID, USUBJID, DSDECOD, DSSTDTC | ds.xpt |", "score": 0.3956, "match_basis": "verbatim_token+chapter_route:ch03"}], "candidate_count": 5, "zero_candidate": false}
{"pdf_atom_id": "sv20_p0049_a001", "pdf_atom_type": "HEADING", "pdf_source": "SDTM_v2.0", "pdf_page": 49, "pdf_parent_section": "§3.2.3 [Subject Summary Domains]", "pdf_verbatim": "3.2.3.4 Subject Disease Milestones", "figure_ref": null, "candidates": [{"md_atom_id": "md_ch03_a013", "md_file": "knowledge_base/chapters/ch03_submitting_data.md", "md_atom_type": "HEADING", "md_parent_section": "§3 [Submitting Data in Standard Format]", "md_verbatim": "## 3.2 Using the CDISC Domain Models in Regulatory Submissions — Dataset Metadata", "score": 0.3321, "match_basis": "verbatim_token+chapter_route:ch03"}, {"md_atom_id": "md_ch03_a102", "md_file": "knowledge_base/chapters/ch03_submitting_data.md", "md_atom_type": "HEADING", "md_parent_section": "§3.2.1 [Dataset-level Metadata]", "md_verbatim": "### 3.2.1.2 CDISC Submission Value-level Metadata", "score": 0.3308, "match_basis": "verbatim_token+chapter_route:ch03"}, {"md_atom_id": "md_ch03_a021", "md_file": "knowledge_base/chapters/ch03_submitting_data.md", "md_atom_type": "HEADING", "md_parent_section": "§3.2 [Using the CDISC Domain Models in Regulatory Submissions — Dataset Metadata]", "md_verbatim": "### 3.2.1 Dataset-level Metadata", "score": 0.3207, "match_basis": "verbatim_token+chapter_route:ch03"}, {"md_atom_id": "md_ch03_a001", "md_file": "knowledge_base/chapters/ch03_submitting_data.md", "md_atom_type": "HEADING", "md_parent_section": "§3 [Submitting Data in Standard Format]", "md_verbatim": "# SDTMIG v3.4 — Chapter 3: Submitting Data in Standard Format", "score": 0.313, "match_basis": "verbatim_token+chapter_route:ch03"}, {"md_atom_id": "md_ch03_a003", "md_file": "knowledge_base/chapters/ch03_submitting_data.md", "md_atom_type": "HEADING", "md_parent_section": "§3 [Submitting Data in Standard Format]", "md_verbatim": "## 3.1 Standard Metadata for Dataset Contents and Attributes", "score": 0.3128, "match_basis": "verbatim_token+chapter_route:ch03"}], "candidate_count": 5, "zero_candidate": false}
{"pdf_atom_id": "sv20_p0049_a002", "pdf_atom_type": "SENTENCE", "pdf_source": "SDTM_v2.0", "pdf_page": 49, "pdf_parent_section": "§3.2.3.4 [Subject Disease Milestones]", "pdf_verbatim": "Subject Disease Milestones is designed to record the timing, for each subject, of defined trial disease milestones (see Section 5.1.4.3, Trial Disease Milestones).", "figure_ref": null, "candidates": [{"md_atom_id": "md_ch03_a093", "md_file": "knowledge_base/chapters/ch03_submitting_data.md", "md_atom_type": "SENTENCE", "md_parent_section": "§3.2.1.1 [Primary Keys]", "md_verbatim": "These keys should define uniqueness for records in a dataset, and may define a record sort order.", "score": 0.3973, "match_basis": "verbatim_token+chapter_route:ch03"}, {"md_atom_id": "md_ch03_a094", "md_file": "knowledge_base/chapters/ch03_submitting_data.md", "md_atom_type": "SENTENCE", "md_parent_section": "§3.2.1.1 [Primary Keys]", "md_verbatim": "The identified keys for each dataset should be consistent with the description of the dataset structure as described in the Define-XML document.", "score": 0.3742, "match_basis": "verbatim_token+chapter_route:ch03"}, {"md_atom_id": "md_ch03_a107", "md_file": "knowledge_base/chapters/ch03_submitting_data.md", "md_atom_type": "SENTENCE", "md_parent_section": "§3.2.1.2 [CDISC Submission Value-level Metadata]", "md_verbatim": "The value-level metadata should be provided as a separate section of the Define-XML document.", "score": 0.3723, "match_basis": "verbatim_token+chapter_route:ch03"}, {"md_atom_id": "md_ch03_a091", "md_file": "knowledge_base/chapters/ch03_submitting_data.md", "md_atom_type": "SENTENCE", "md_parent_section": "§3.2.1.1 [Primary Keys]", "md_verbatim": "The table in Section 3.2.1, Dataset-level Metadata, shows examples of what a sponsor might submit as variables that comprise the primary key for SDTM datasets.", "score": 0.372, "match_basis": "verbatim_token+chapter_route:ch03"}, {"md_atom_id": "md_ch03_a098", "md_file": "knowledge_base/chapters/ch03_submitting_data.md", "md_atom_type": "SENTENCE", "md_parent_section": "§3.2.1.1 [Primary Keys]", "md_verbatim": "See Section 4.1.9, Assigning Natural Keys in the Metadata, for how this should be represented, and for additional information on keys.", "score": 0.3702, "match_basis": "verbatim_token+chapter_route:ch03"}], "candidate_count": 5, "zero_candidate": false}
{"pdf_atom_id": "sv20_p0049_a003", "pdf_atom_type": "SENTENCE", "pdf_source": "SDTM_v2.0", "pdf_page": 49, "pdf_parent_section": "§3.2.3.4 [Subject Disease Milestones]", "pdf_verbatim": "See the implementation guides for further guidance regarding use of additional identifier and timing variables.", "figure_ref": null, "candidates": [{"md_atom_id": "md_ch03_a089", "md_file": "knowledge_base/chapters/ch03_submitting_data.md", "md_atom_type": "SENTENCE", "md_parent_section": "§3.2.1 [Dataset-level Metadata]", "md_verbatim": "See Section 8.4, Relating Non-standard Variable Values to a Parent Domain.", "score": 0.4037, "match_basis": "verbatim_token+chapter_route:ch03"}, {"md_atom_id": "md_ch03_a097", "md_file": "knowledge_base/chapters/ch03_submitting_data.md", "md_atom_type": "SENTENCE", "md_parent_section": "§3.2.1.1 [Primary Keys]", "md_verbatim": "In certain instances, a supplemental qualifier (SUPP--) variable might also contribute to the natural key of a record for a particular domain.", "score": 0.4036, "match_basis": "verbatim_token+chapter_route:ch03"}, {"md_atom_id": "md_ch03_a098", "md_file": "knowledge_base/chapters/ch03_submitting_data.md", "md_atom_type": "SENTENCE", "md_parent_section": "§3.2.1.1 [Primary Keys]", "md_verbatim": "See Section 4.1.9, Assigning Natural Keys in the Metadata, for how this should be represented, and for additional information on keys.", "score": 0.39, "match_basis": "verbatim_token+chapter_route:ch03"}, {"md_atom_id": "md_ch03_a095", "md_file": "knowledge_base/chapters/ch03_submitting_data.md", "md_atom_type": "SENTENCE", "md_parent_section": "§3.2.1.1 [Primary Keys]", "md_verbatim": "For all the general observation-class domains (and for some special-purpose domains), the --SEQ variable was created so that a unique record could be identified consistently across all of these domains via its use, along with STUDYID, USUBJID, and DOMAIN.", "score": 0.3839, "match_basis": "verbatim_token+chapter_route:ch03"}, {"md_atom_id": "md_ch03_a015", "md_file": "knowledge_base/chapters/ch03_submitting_data.md", "md_atom_type": "SENTENCE", "md_parent_section": "§3.2 [Using the CDISC Domain Models in Regulatory Submissions — Dataset Metadata]", "md_verbatim": "In addition, comments can also be provided where needed.", "score": 0.38, "match_basis": "verbatim_token+chapter_route:ch03"}], "candidate_count": 5, "zero_candidate": false}
{"pdf_atom_id": "sv20_p0049_a004", "pdf_atom_type": "HEADING", "pdf_source": "SDTM_v2.0", "pdf_page": 49, "pdf_parent_section": "§3.2.3.4 [Subject Disease Milestones]", "pdf_verbatim": "Subject Disease Milestones—One Record per Disease Milestone, per Subject", "figure_ref": null, "candidates": [{"md_atom_id": "md_ch03_a013", "md_file": "knowledge_base/chapters/ch03_submitting_data.md", "md_atom_type": "HEADING", "md_parent_section": "§3 [Submitting Data in Standard Format]", "md_verbatim": "## 3.2 Using the CDISC Domain Models in Regulatory Submissions — Dataset Metadata", "score": 0.3295, "match_basis": "verbatim_token+chapter_route:ch03"}, {"md_atom_id": "md_ch03_a102", "md_file": "knowledge_base/chapters/ch03_submitting_data.md", "md_atom_type": "HEADING", "md_parent_section": "§3.2.1 [Dataset-level Metadata]", "md_verbatim": "### 3.2.1.2 CDISC Submission Value-level Metadata", "score": 0.3273, "match_basis": "verbatim_token+chapter_route:ch03"}, {"md_atom_id": "md_ch03_a021", "md_file": "knowledge_base/chapters/ch03_submitting_data.md", "md_atom_type": "HEADING", "md_parent_section": "§3.2 [Using the CDISC Domain Models in Regulatory Submissions — Dataset Metadata]", "md_verbatim": "### 3.2.1 Dataset-level Metadata", "score": 0.3176, "match_basis": "verbatim_token+chapter_route:ch03"}, {"md_atom_id": "md_ch03_a001", "md_file": "knowledge_base/chapters/ch03_submitting_data.md", "md_atom_type": "HEADING", "md_parent_section": "§3 [Submitting Data in Standard Format]", "md_verbatim": "# SDTMIG v3.4 — Chapter 3: Submitting Data in Standard Format", "score": 0.3118, "match_basis": "verbatim_token+chapter_route:ch03"}, {"md_atom_id": "md_ch03_a003", "md_file": "knowledge_base/chapters/ch03_submitting_data.md", "md_atom_type": "HEADING", "md_parent_section": "§3 [Submitting Data in Standard Format]", "md_verbatim": "## 3.1 Standard Metadata for Dataset Contents and Attributes", "score": 0.3115, "match_basis": "verbatim_token+chapter_route:ch03"}], "candidate_count": 5, "zero_candidate": false}
{"pdf_atom_id": "sv20_p0049_a005", "pdf_atom_type": "TABLE_HEADER", "pdf_source": "SDTM_v2.0", "pdf_page": 49, "pdf_parent_section": "§3.2.3.4 [Subject Disease Milestones]", "pdf_verbatim": "# | Variable Name | Variable Label | Type | Format | Role | Variable(s) Qualified | Usage Restrictions | Variable C-code | Definition | Notes | Examples", "figure_ref": null, "candidates": [{"md_atom_id": "md_ch03_a024", "md_file": "knowledge_base/chapters/ch03_submitting_data.md", "md_atom_type": "TABLE_HEADER", "md_parent_section": "§3.2.1 [Dataset-level Metadata]", "md_verbatim": "| Dataset | Description | Class | Structure | Purpose | Keys | Location |\n|---------|-------------|-------|-----------|---------|------|----------|", "score": 0.3205, "match_basis": "verbatim_token+chapter_route:ch03"}, {"md_atom_id": "md_ch03_a086", "md_file": "knowledge_base/chapters/ch03_submitting_data.md", "md_atom_type": "TABLE_ROW", "md_parent_section": "§3.2.1 [Dataset-level Metadata]", "md_verbatim": "| SUPP-- | Supplemental Qualifiers for [domain name] | Relationship | One record per supplemental qualifier per related parent domain record(s) | Tabulation | STUDYID, RDOMAIN, USUBJID, IDVAR, IDVARVAL, QNAM | supp--.xpt |", "score": 0.3157, "match_basis": "verbatim_token+chapter_route:ch03"}, {"md_atom_id": "md_ch03_a080", "md_file": "knowledge_base/chapters/ch03_submitting_data.md", "md_atom_type": "TABLE_ROW", "md_parent_section": "§3.2.1 [Dataset-level Metadata]", "md_verbatim": "| TM | Trial Disease Milestones | Trial Design | One record per Disease Milestone type | Tabulation | STUDYID, MIDSTYPE | tm.xpt |", "score": 0.2916, "match_basis": "verbatim_token+chapter_route:ch03"}, {"md_atom_id": "md_ch03_a062", "md_file": "knowledge_base/chapters/ch03_submitting_data.md", "md_atom_type": "TABLE_ROW", "md_parent_section": "§3.2.1 [Dataset-level Metadata]", "md_verbatim": "| PE | Physical Examination | Findings | One record per body system or abnormality per visit per subject | Tabulation | STUDYID, USUBJID, PETESTCD, VISITNUM | pe.xpt |", "score": 0.2904, "match_basis": "verbatim_token+chapter_route:ch03"}, {"md_atom_id": "md_ch03_a071", "md_file": "knowledge_base/chapters/ch03_submitting_data.md", "md_atom_type": "TABLE_ROW", "md_parent_section": "§3.2.1 [Dataset-level Metadata]", "md_verbatim": "| TU | Tumor/Lesion Identification | Findings | One record per identified tumor per subject per assessor | Tabulation | STUDYID, USUBJID, TUEVALID, TULNKID | tu.xpt |", "score": 0.2814, "match_basis": "verbatim_token+chapter_route:ch03"}], "candidate_count": 5, "zero_candidate": false}
{"pdf_atom_id": "sv20_p0049_a006", "pdf_atom_type": "TABLE_ROW", "pdf_source": "SDTM_v2.0", "pdf_page": 49, "pdf_parent_section": "§3.2.3.4 [Subject Disease Milestones]", "pdf_verbatim": "1 | STUDYID | Study Identifier | Char | | Identifier | | | C83082 | A sequence of characters used by the sponsor to uniquely identify the study. | | ", "figure_ref": null, "candidates": [{"md_atom_id": "md_ch03_a087", "md_file": "knowledge_base/chapters/ch03_submitting_data.md", "md_atom_type": "TABLE_ROW", "md_parent_section": "§3.2.1 [Dataset-level Metadata]", "md_verbatim": "| OI | Non-host Organism Identifiers | Study Reference | One record per taxon per non-host organism | Tabulation | NHOID, OISEQ | oi.xpt |", "score": 0.4098, "match_basis": "verbatim_token+chapter_route:ch03"}, {"md_atom_id": "md_ch03_a084", "md_file": "knowledge_base/chapters/ch03_submitting_data.md", "md_atom_type": "TABLE_ROW", "md_parent_section": "§3.2.1 [Dataset-level Metadata]", "md_verbatim": "| RELSPEC | Related Specimens | Relationship | One record per specimen identifier per subject | Tabulation | STUDYID, USUBJID, REFID | relspec.xpt |", "score": 0.3966, "match_basis": "verbatim_token+chapter_route:ch03"}, {"md_atom_id": "md_ch03_a038", "md_file": "knowledge_base/chapters/ch03_submitting_data.md", "md_atom_type": "TABLE_ROW", "md_parent_section": "§3.2.1 [Dataset-level Metadata]", "md_verbatim": "| BE | Biospecimen Events | Events | One record per instance per biospecimen event per biospecimen identifier per subject | Tabulation | STUDYID, USUBJID, BEREFID, BETERM, BESTDTC | be.xpt |", "score": 0.3918, "match_basis": "verbatim_token+chapter_route:ch03"}, {"md_atom_id": "md_ch03_a068", "md_file": "knowledge_base/chapters/ch03_submitting_data.md", "md_atom_type": "TABLE_ROW", "md_parent_section": "§3.2.1 [Dataset-level Metadata]", "md_verbatim": "| SC | Subject Characteristics | Findings | One record per characteristic per visit per subject. | Tabulation | STUDYID, USUBJID, SCTESTCD, VISITNUM | sc.xpt |", "score": 0.3791, "match_basis": "verbatim_token+chapter_route:ch03"}, {"md_atom_id": "md_ch03_a071", "md_file": "knowledge_base/chapters/ch03_submitting_data.md", "md_atom_type": "TABLE_ROW", "md_parent_section": "§3.2.1 [Dataset-level Metadata]", "md_verbatim": "| TU | Tumor/Lesion Identification | Findings | One record per identified tumor per subject per assessor | Tabulation | STUDYID, USUBJID, TUEVALID, TULNKID | tu.xpt |", "score": 0.378, "match_basis": "verbatim_token+chapter_route:ch03"}], "candidate_count": 5, "zero_candidate": false}
{"pdf_atom_id": "sv20_p0049_a007", "pdf_atom_type": "TABLE_ROW", "pdf_source": "SDTM_v2.0", "pdf_page": 49, "pdf_parent_section": "§3.2.3.4 [Subject Disease Milestones]", "pdf_verbatim": "2 | DOMAIN | Domain Abbreviation | Char | | Identifier | | | C49558 | An abbreviation for a collection of observations, with a topic-specific commonality. | 2-character abbreviation, which must be \"SM\". | ", "figure_ref": null, "candidates": [{"md_atom_id": "md_ch03_a032", "md_file": "knowledge_base/chapters/ch03_submitting_data.md", "md_atom_type": "TABLE_ROW", "md_parent_section": "§3.2.1 [Dataset-level Metadata]", "md_verbatim": "| EC | Exposure as Collected | Interventions | One record per protocol-specified study treatment, collected-dosing interval, per subject, per mood | Tabulation | STUDYID, USUBJID, ECTRT, ECSTDTC, ECMOOD | ec.xpt |", "score": 0.394, "match_basis": "verbatim_token+chapter_route:ch03"}, {"md_atom_id": "md_ch03_a084", "md_file": "knowledge_base/chapters/ch03_submitting_data.md", "md_atom_type": "TABLE_ROW", "md_parent_section": "§3.2.1 [Dataset-level Metadata]", "md_verbatim": "| RELSPEC | Related Specimens | Relationship | One record per specimen identifier per subject | Tabulation | STUDYID, USUBJID, REFID | relspec.xpt |", "score": 0.3865, "match_basis": "verbatim_token+chapter_route:ch03"}, {"md_atom_id": "md_ch03_a038", "md_file": "knowledge_base/chapters/ch03_submitting_data.md", "md_atom_type": "TABLE_ROW", "md_parent_section": "§3.2.1 [Dataset-level Metadata]", "md_verbatim": "| BE | Biospecimen Events | Events | One record per instance per biospecimen event per biospecimen identifier per subject | Tabulation | STUDYID, USUBJID, BEREFID, BETERM, BESTDTC | be.xpt |", "score": 0.378, "match_basis": "verbatim_token+chapter_route:ch03"}, {"md_atom_id": "md_ch03_a033", "md_file": "knowledge_base/chapters/ch03_submitting_data.md", "md_atom_type": "TABLE_ROW", "md_parent_section": "§3.2.1 [Dataset-level Metadata]", "md_verbatim": "| EX | Exposure | Interventions | One record per protocol-specified study treatment, constant-dosing interval, per subject | Tabulation | STUDYID, USUBJID, EXTRT, EXSTDTC | ex.xpt |", "score": 0.3756, "match_basis": "verbatim_token+chapter_route:ch03"}, {"md_atom_id": "md_ch03_a044", "md_file": "knowledge_base/chapters/ch03_submitting_data.md", "md_atom_type": "TABLE_ROW", "md_parent_section": "§3.2.1 [Dataset-level Metadata]", "md_verbatim": "| BS | Biospecimen Findings | Findings | One record per measurement per biospecimen identifier per subject | Tabulation | STUDYID, USUBJID, BSREFID, BSTESTCD | bs.xpt |", "score": 0.372, "match_basis": "verbatim_token+chapter_route:ch03"}], "candidate_count": 5, "zero_candidate": false}
{"pdf_atom_id": "sv20_p0049_a008", "pdf_atom_type": "TABLE_ROW", "pdf_source": "SDTM_v2.0", "pdf_page": 49, "pdf_parent_section": "§3.2.3.4 [Subject Disease Milestones]", "pdf_verbatim": "3 | USUBJID | Unique Subject Identifier | Char | | Identifier | | | C69256 | A sequence of characters used to uniquely identify a subject across all studies for all applications or submissions involving the product. | | ", "figure_ref": null, "candidates": [{"md_atom_id": "md_ch03_a071", "md_file": "knowledge_base/chapters/ch03_submitting_data.md", "md_atom_type": "TABLE_ROW", "md_parent_section": "§3.2.1 [Dataset-level Metadata]", "md_verbatim": "| TU | Tumor/Lesion Identification | Findings | One record per identified tumor per subject per assessor | Tabulation | STUDYID, USUBJID, TUEVALID, TULNKID | tu.xpt |", "score": 0.4143, "match_basis": "verbatim_token+chapter_route:ch03"}, {"md_atom_id": "md_ch03_a084", "md_file": "knowledge_base/chapters/ch03_submitting_data.md", "md_atom_type": "TABLE_ROW", "md_parent_section": "§3.2.1 [Dataset-level Metadata]", "md_verbatim": "| RELSPEC | Related Specimens | Relationship | One record per specimen identifier per subject | Tabulation | STUDYID, USUBJID, REFID | relspec.xpt |", "score": 0.4138, "match_basis": "verbatim_token+chapter_route:ch03"}, {"md_atom_id": "md_ch03_a034", "md_file": "knowledge_base/chapters/ch03_submitting_data.md", "md_atom_type": "TABLE_ROW", "md_parent_section": "§3.2.1 [Dataset-level Metadata]", "md_verbatim": "| ML | Meal Data | Interventions | One record per food product occurrence or constant intake interval per subject | Tabulation | STUDYID, USUBJID, MLTRT, MLSTDTC | ml.xpt |", "score": 0.4091, "match_basis": "verbatim_token+chapter_route:ch03"}, {"md_atom_id": "md_ch03_a038", "md_file": "knowledge_base/chapters/ch03_submitting_data.md", "md_atom_type": "TABLE_ROW", "md_parent_section": "§3.2.1 [Dataset-level Metadata]", "md_verbatim": "| BE | Biospecimen Events | Events | One record per instance per biospecimen event per biospecimen identifier per subject | Tabulation | STUDYID, USUBJID, BEREFID, BETERM, BESTDTC | be.xpt |", "score": 0.4087, "match_basis": "verbatim_token+chapter_route:ch03"}, {"md_atom_id": "md_ch03_a068", "md_file": "knowledge_base/chapters/ch03_submitting_data.md", "md_atom_type": "TABLE_ROW", "md_parent_section": "§3.2.1 [Dataset-level Metadata]", "md_verbatim": "| SC | Subject Characteristics | Findings | One record per characteristic per visit per subject. | Tabulation | STUDYID, USUBJID, SCTESTCD, VISITNUM | sc.xpt |", "score": 0.4059, "match_basis": "verbatim_token+chapter_route:ch03"}], "candidate_count": 5, "zero_candidate": false}
{"pdf_atom_id": "sv20_p0049_a009", "pdf_atom_type": "TABLE_ROW", "pdf_source": "SDTM_v2.0", "pdf_page": 49, "pdf_parent_section": "§3.2.3.4 [Subject Disease Milestones]", "pdf_verbatim": "4 | SMSEQ | Sequence Number | Num | | Identifier | | | | | | Sequence number given to ensure uniqueness of subject records. Should be assigned to be consistent with chronological order.", "figure_ref": null, "candidates": [{"md_atom_id": "md_ch03_a084", "md_file": "knowledge_base/chapters/ch03_submitting_data.md", "md_atom_type": "TABLE_ROW", "md_parent_section": "§3.2.1 [Dataset-level Metadata]", "md_verbatim": "| RELSPEC | Related Specimens | Relationship | One record per specimen identifier per subject | Tabulation | STUDYID, USUBJID, REFID | relspec.xpt |", "score": 0.4018, "match_basis": "verbatim_token+chapter_route:ch03"}, {"md_atom_id": "md_ch03_a038", "md_file": "knowledge_base/chapters/ch03_submitting_data.md", "md_atom_type": "TABLE_ROW", "md_parent_section": "§3.2.1 [Dataset-level Metadata]", "md_verbatim": "| BE | Biospecimen Events | Events | One record per instance per biospecimen event per biospecimen identifier per subject | Tabulation | STUDYID, USUBJID, BEREFID, BETERM, BESTDTC | be.xpt |", "score": 0.3976, "match_basis": "verbatim_token+chapter_route:ch03"}, {"md_atom_id": "md_ch03_a044", "md_file": "knowledge_base/chapters/ch03_submitting_data.md", "md_atom_type": "TABLE_ROW", "md_parent_section": "§3.2.1 [Dataset-level Metadata]", "md_verbatim": "| BS | Biospecimen Findings | Findings | One record per measurement per biospecimen identifier per subject | Tabulation | STUDYID, USUBJID, BSREFID, BSTESTCD | bs.xpt |", "score": 0.3968, "match_basis": "verbatim_token+chapter_route:ch03"}, {"md_atom_id": "md_ch03_a071", "md_file": "knowledge_base/chapters/ch03_submitting_data.md", "md_atom_type": "TABLE_ROW", "md_parent_section": "§3.2.1 [Dataset-level Metadata]", "md_verbatim": "| TU | Tumor/Lesion Identification | Findings | One record per identified tumor per subject per assessor | Tabulation | STUDYID, USUBJID, TUEVALID, TULNKID | tu.xpt |", "score": 0.3919, "match_basis": "verbatim_token+chapter_route:ch03"}, {"md_atom_id": "md_ch03_a035", "md_file": "knowledge_base/chapters/ch03_submitting_data.md", "md_atom_type": "TABLE_ROW", "md_parent_section": "§3.2.1 [Dataset-level Metadata]", "md_verbatim": "| PR | Procedures | Interventions | One record per recorded procedure per occurrence per subject | Tabulation | STUDYID, USUBJID, PRTRT, PRSTDTC | pr.xpt |", "score": 0.3843, "match_basis": "verbatim_token+chapter_route:ch03"}], "candidate_count": 5, "zero_candidate": false}
{"pdf_atom_id": "sv20_p0049_a010", "pdf_atom_type": "TABLE_ROW", "pdf_source": "SDTM_v2.0", "pdf_page": 49, "pdf_parent_section": "§3.2.3.4 [Subject Disease Milestones]", "pdf_verbatim": "5 | MIDS | Disease Milestone Instance Name | Char | | Topic | | | | | | Name of the specific disease milestone. For disease milestones that can occur multiple times, the name will end with a sequence number. | \"HYPO1\"", "figure_ref": null, "candidates": [{"md_atom_id": "md_ch03_a028", "md_file": "knowledge_base/chapters/ch03_submitting_data.md", "md_atom_type": "TABLE_ROW", "md_parent_section": "§3.2.1 [Dataset-level Metadata]", "md_verbatim": "| SM | Subject Disease Milestones | Special Purpose | One record per Disease Milestone per subject | Tabulation | STUDYID, USUBJID, MIDS | sm.xpt |", "score": 0.4059, "match_basis": "verbatim_token+chapter_route:ch03"}, {"md_atom_id": "md_ch03_a080", "md_file": "knowledge_base/chapters/ch03_submitting_data.md", "md_atom_type": "TABLE_ROW", "md_parent_section": "§3.2.1 [Dataset-level Metadata]", "md_verbatim": "| TM | Trial Disease Milestones | Trial Design | One record per Disease Milestone type | Tabulation | STUDYID, MIDSTYPE | tm.xpt |", "score": 0.3918, "match_basis": "verbatim_token+chapter_route:ch03"}, {"md_atom_id": "md_ch03_a038", "md_file": "knowledge_base/chapters/ch03_submitting_data.md", "md_atom_type": "TABLE_ROW", "md_parent_section": "§3.2.1 [Dataset-level Metadata]", "md_verbatim": "| BE | Biospecimen Events | Events | One record per instance per biospecimen event per biospecimen identifier per subject | Tabulation | STUDYID, USUBJID, BEREFID, BETERM, BESTDTC | be.xpt |", "score": 0.3689, "match_basis": "verbatim_token+chapter_route:ch03"}, {"md_atom_id": "md_ch03_a077", "md_file": "knowledge_base/chapters/ch03_submitting_data.md", "md_atom_type": "TABLE_ROW", "md_parent_section": "§3.2.1 [Dataset-level Metadata]", "md_verbatim": "| TD | Trial Disease Assessments | Trial Design | One record per planned constant assessment period | Tabulation | STUDYID, TDORDER | td.xpt |", "score": 0.3458, "match_basis": "verbatim_token+chapter_route:ch03"}, {"md_atom_id": "md_ch03_a040", "md_file": "knowledge_base/chapters/ch03_submitting_data.md", "md_atom_type": "TABLE_ROW", "md_parent_section": "§3.2.1 [Dataset-level Metadata]", "md_verbatim": "| DS | Disposition | Events | One record per disposition status or protocol milestone per subject | Tabulation | STUDYID, USUBJID, DSDECOD, DSSTDTC | ds.xpt |", "score": 0.3439, "match_basis": "verbatim_token+chapter_route:ch03"}], "candidate_count": 5, "zero_candidate": false}
{"pdf_atom_id": "sv20_p0049_a011", "pdf_atom_type": "TABLE_ROW", "pdf_source": "SDTM_v2.0", "pdf_page": 49, "pdf_parent_section": "§3.2.3.4 [Subject Disease Milestones]", "pdf_verbatim": "6 | MIDSTYPE | Disease Milestone Type | Char | | Record Qualifier | | | | | | The type of disease milestone. | \"HYPOGLYCEMIC EVENT\"", "figure_ref": null, "candidates": [{"md_atom_id": "md_ch03_a080", "md_file": "knowledge_base/chapters/ch03_submitting_data.md", "md_atom_type": "TABLE_ROW", "md_parent_section": "§3.2.1 [Dataset-level Metadata]", "md_verbatim": "| TM | Trial Disease Milestones | Trial Design | One record per Disease Milestone type | Tabulation | STUDYID, MIDSTYPE | tm.xpt |", "score": 0.4941, "match_basis": "verbatim_token+chapter_route:ch03"}, {"md_atom_id": "md_ch03_a028", "md_file": "knowledge_base/chapters/ch03_submitting_data.md", "md_atom_type": "TABLE_ROW", "md_parent_section": "§3.2.1 [Dataset-level Metadata]", "md_verbatim": "| SM | Subject Disease Milestones | Special Purpose | One record per Disease Milestone per subject | Tabulation | STUDYID, USUBJID, MIDS | sm.xpt |", "score": 0.4367, "match_basis": "verbatim_token+chapter_route:ch03"}, {"md_atom_id": "md_ch03_a040", "md_file": "knowledge_base/chapters/ch03_submitting_data.md", "md_atom_type": "TABLE_ROW", "md_parent_section": "§3.2.1 [Dataset-level Metadata]", "md_verbatim": "| DS | Disposition | Events | One record per disposition status or protocol milestone per subject | Tabulation | STUDYID, USUBJID, DSDECOD, DSSTDTC | ds.xpt |", "score": 0.3957, "match_basis": "verbatim_token+chapter_route:ch03"}, {"md_atom_id": "md_ch03_a086", "md_file": "knowledge_base/chapters/ch03_submitting_data.md", "md_atom_type": "TABLE_ROW", "md_parent_section": "§3.2.1 [Dataset-level Metadata]", "md_verbatim": "| SUPP-- | Supplemental Qualifiers for [domain name] | Relationship | One record per supplemental qualifier per related parent domain record(s) | Tabulation | STUDYID, RDOMAIN, USUBJID, IDVAR, IDVARVAL, QNAM | supp--.xpt |", "score": 0.3772, "match_basis": "verbatim_token+chapter_route:ch03"}, {"md_atom_id": "md_ch03_a038", "md_file": "knowledge_base/chapters/ch03_submitting_data.md", "md_atom_type": "TABLE_ROW", "md_parent_section": "§3.2.1 [Dataset-level Metadata]", "md_verbatim": "| BE | Biospecimen Events | Events | One record per instance per biospecimen event per biospecimen identifier per subject | Tabulation | STUDYID, USUBJID, BEREFID, BETERM, BESTDTC | be.xpt |", "score": 0.3713, "match_basis": "verbatim_token+chapter_route:ch03"}], "candidate_count": 5, "zero_candidate": false}
{"pdf_atom_id": "sv20_p0049_a012", "pdf_atom_type": "TABLE_ROW", "pdf_source": "SDTM_v2.0", "pdf_page": 49, "pdf_parent_section": "§3.2.3.4 [Subject Disease Milestones]", "pdf_verbatim": "7 | SMSTDTC | Start Date/Time of Milestone | Char | ISO 8601 datetime or interval | Timing | | | | | | Start date or start date and time of milestone instance (if milestone is an intervention or event), or date of milestone if the milestone is a finding.", "figure_ref": null, "candidates": [{"md_atom_id": "md_ch03_a074", "md_file": "knowledge_base/chapters/ch03_submitting_data.md", "md_atom_type": "TABLE_ROW", "md_parent_section": "§3.2.1 [Dataset-level Metadata]", "md_verbatim": "| FA | Findings About Events or Interventions | Findings About | One record per finding, per object, per time point, per visit per subject | Tabulation | STUDYID, USUBJID, FATESTCD, FAOBJ, VISITNUM, FATPTREF, FATPTNUM | fa.xpt |", "score": 0.42, "match_basis": "verbatim_token+chapter_route:ch03"}, {"md_atom_id": "md_ch03_a031", "md_file": "knowledge_base/chapters/ch03_submitting_data.md", "md_atom_type": "TABLE_ROW", "md_parent_section": "§3.2.1 [Dataset-level Metadata]", "md_verbatim": "| CM | Concomitant/Prior Medications | Interventions | One record per recorded intervention occurrence or constant-dosing interval per subject | Tabulation | STUDYID, USUBJID, CMTRT, CMSTDTC | cm.xpt |", "score": 0.4189, "match_basis": "verbatim_token+chapter_route:ch03"}, {"md_atom_id": "md_ch03_a034", "md_file": "knowledge_base/chapters/ch03_submitting_data.md", "md_atom_type": "TABLE_ROW", "md_parent_section": "§3.2.1 [Dataset-level Metadata]", "md_verbatim": "| ML | Meal Data | Interventions | One record per food product occurrence or constant intake interval per subject | Tabulation | STUDYID, USUBJID, MLTRT, MLSTDTC | ml.xpt |", "score": 0.4189, "match_basis": "verbatim_token+chapter_route:ch03"}, {"md_atom_id": "md_ch03_a038", "md_file": "knowledge_base/chapters/ch03_submitting_data.md", "md_atom_type": "TABLE_ROW", "md_parent_section": "§3.2.1 [Dataset-level Metadata]", "md_verbatim": "| BE | Biospecimen Events | Events | One record per instance per biospecimen event per biospecimen identifier per subject | Tabulation | STUDYID, USUBJID, BEREFID, BETERM, BESTDTC | be.xpt |", "score": 0.4118, "match_basis": "verbatim_token+chapter_route:ch03"}, {"md_atom_id": "md_ch03_a036", "md_file": "knowledge_base/chapters/ch03_submitting_data.md", "md_atom_type": "TABLE_ROW", "md_parent_section": "§3.2.1 [Dataset-level Metadata]", "md_verbatim": "| SU | Substance Use | Interventions | One record per substance type per reported occurrence per subject | Tabulation | STUDYID, USUBJID, SUTRT, SUSTDTC | su.xpt |", "score": 0.4059, "match_basis": "verbatim_token+chapter_route:ch03"}], "candidate_count": 5, "zero_candidate": false}
{"pdf_atom_id": "sv20_p0049_a013", "pdf_atom_type": "TABLE_ROW", "pdf_source": "SDTM_v2.0", "pdf_page": 49, "pdf_parent_section": "§3.2.3.4 [Subject Disease Milestones]", "pdf_verbatim": "8 | SMENDTC | End Date/Time of Milestone | Char | ISO 8601 datetime or interval | Timing | | | | | | End date/time of disease milestone Instance.", "figure_ref": null, "candidates": [{"md_atom_id": "md_ch03_a080", "md_file": "knowledge_base/chapters/ch03_submitting_data.md", "md_atom_type": "TABLE_ROW", "md_parent_section": "§3.2.1 [Dataset-level Metadata]", "md_verbatim": "| TM | Trial Disease Milestones | Trial Design | One record per Disease Milestone type | Tabulation | STUDYID, MIDSTYPE | tm.xpt |", "score": 0.3947, "match_basis": "verbatim_token+chapter_route:ch03"}, {"md_atom_id": "md_ch03_a028", "md_file": "knowledge_base/chapters/ch03_submitting_data.md", "md_atom_type": "TABLE_ROW", "md_parent_section": "§3.2.1 [Dataset-level Metadata]", "md_verbatim": "| SM | Subject Disease Milestones | Special Purpose | One record per Disease Milestone per subject | Tabulation | STUDYID, USUBJID, MIDS | sm.xpt |", "score": 0.3867, "match_basis": "verbatim_token+chapter_route:ch03"}, {"md_atom_id": "md_ch03_a034", "md_file": "knowledge_base/chapters/ch03_submitting_data.md", "md_atom_type": "TABLE_ROW", "md_parent_section": "§3.2.1 [Dataset-level Metadata]", "md_verbatim": "| ML | Meal Data | Interventions | One record per food product occurrence or constant intake interval per subject | Tabulation | STUDYID, USUBJID, MLTRT, MLSTDTC | ml.xpt |", "score": 0.375, "match_basis": "verbatim_token+chapter_route:ch03"}, {"md_atom_id": "md_ch03_a038", "md_file": "knowledge_base/chapters/ch03_submitting_data.md", "md_atom_type": "TABLE_ROW", "md_parent_section": "§3.2.1 [Dataset-level Metadata]", "md_verbatim": "| BE | Biospecimen Events | Events | One record per instance per biospecimen event per biospecimen identifier per subject | Tabulation | STUDYID, USUBJID, BEREFID, BETERM, BESTDTC | be.xpt |", "score": 0.3727, "match_basis": "verbatim_token+chapter_route:ch03"}, {"md_atom_id": "md_ch03_a077", "md_file": "knowledge_base/chapters/ch03_submitting_data.md", "md_atom_type": "TABLE_ROW", "md_parent_section": "§3.2.1 [Dataset-level Metadata]", "md_verbatim": "| TD | Trial Disease Assessments | Trial Design | One record per planned constant assessment period | Tabulation | STUDYID, TDORDER | td.xpt |", "score": 0.3725, "match_basis": "verbatim_token+chapter_route:ch03"}], "candidate_count": 5, "zero_candidate": false}
{"pdf_atom_id": "sv20_p0049_a014", "pdf_atom_type": "TABLE_ROW", "pdf_source": "SDTM_v2.0", "pdf_page": 49, "pdf_parent_section": "§3.2.3.4 [Subject Disease Milestones]", "pdf_verbatim": "9 | SMSTDY | Study Day of Start of Milestone | Num | | Timing | | | | | | Study day of start of disease milestone instance, relative to the sponsor-defined RFSTDTC.", "figure_ref": null, "candidates": [{"md_atom_id": "md_ch03_a080", "md_file": "knowledge_base/chapters/ch03_submitting_data.md", "md_atom_type": "TABLE_ROW", "md_parent_section": "§3.2.1 [Dataset-level Metadata]", "md_verbatim": "| TM | Trial Disease Milestones | Trial Design | One record per Disease Milestone type | Tabulation | STUDYID, MIDSTYPE | tm.xpt |", "score": 0.4244, "match_basis": "verbatim_token+chapter_route:ch03"}, {"md_atom_id": "md_ch03_a028", "md_file": "knowledge_base/chapters/ch03_submitting_data.md", "md_atom_type": "TABLE_ROW", "md_parent_section": "§3.2.1 [Dataset-level Metadata]", "md_verbatim": "| SM | Subject Disease Milestones | Special Purpose | One record per Disease Milestone per subject | Tabulation | STUDYID, USUBJID, MIDS | sm.xpt |", "score": 0.4146, "match_basis": "verbatim_token+chapter_route:ch03"}, {"md_atom_id": "md_ch03_a040", "md_file": "knowledge_base/chapters/ch03_submitting_data.md", "md_atom_type": "TABLE_ROW", "md_parent_section": "§3.2.1 [Dataset-level Metadata]", "md_verbatim": "| DS | Disposition | Events | One record per disposition status or protocol milestone per subject | Tabulation | STUDYID, USUBJID, DSDECOD, DSSTDTC | ds.xpt |", "score": 0.408, "match_basis": "verbatim_token+chapter_route:ch03"}, {"md_atom_id": "md_ch03_a077", "md_file": "knowledge_base/chapters/ch03_submitting_data.md", "md_atom_type": "TABLE_ROW", "md_parent_section": "§3.2.1 [Dataset-level Metadata]", "md_verbatim": "| TD | Trial Disease Assessments | Trial Design | One record per planned constant assessment period | Tabulation | STUDYID, TDORDER | td.xpt |", "score": 0.399, "match_basis": "verbatim_token+chapter_route:ch03"}, {"md_atom_id": "md_ch03_a038", "md_file": "knowledge_base/chapters/ch03_submitting_data.md", "md_atom_type": "TABLE_ROW", "md_parent_section": "§3.2.1 [Dataset-level Metadata]", "md_verbatim": "| BE | Biospecimen Events | Events | One record per instance per biospecimen event per biospecimen identifier per subject | Tabulation | STUDYID, USUBJID, BEREFID, BETERM, BESTDTC | be.xpt |", "score": 0.3971, "match_basis": "verbatim_token+chapter_route:ch03"}], "candidate_count": 5, "zero_candidate": false}
{"pdf_atom_id": "sv20_p0049_a015", "pdf_atom_type": "TABLE_ROW", "pdf_source": "SDTM_v2.0", "pdf_page": 49, "pdf_parent_section": "§3.2.3.4 [Subject Disease Milestones]", "pdf_verbatim": "10 | SMENDY | Study Day of End of Milestone | Num | | Timing | | | | | | Study day of end of disease milestone instance, relative to the sponsor-defined RFSTDTC.", "figure_ref": null, "candidates": [{"md_atom_id": "md_ch03_a080", "md_file": "knowledge_base/chapters/ch03_submitting_data.md", "md_atom_type": "TABLE_ROW", "md_parent_section": "§3.2.1 [Dataset-level Metadata]", "md_verbatim": "| TM | Trial Disease Milestones | Trial Design | One record per Disease Milestone type | Tabulation | STUDYID, MIDSTYPE | tm.xpt |", "score": 0.4259, "match_basis": "verbatim_token+chapter_route:ch03"}, {"md_atom_id": "md_ch03_a028", "md_file": "knowledge_base/chapters/ch03_submitting_data.md", "md_atom_type": "TABLE_ROW", "md_parent_section": "§3.2.1 [Dataset-level Metadata]", "md_verbatim": "| SM | Subject Disease Milestones | Special Purpose | One record per Disease Milestone per subject | Tabulation | STUDYID, USUBJID, MIDS | sm.xpt |", "score": 0.4159, "match_basis": "verbatim_token+chapter_route:ch03"}, {"md_atom_id": "md_ch03_a077", "md_file": "knowledge_base/chapters/ch03_submitting_data.md", "md_atom_type": "TABLE_ROW", "md_parent_section": "§3.2.1 [Dataset-level Metadata]", "md_verbatim": "| TD | Trial Disease Assessments | Trial Design | One record per planned constant assessment period | Tabulation | STUDYID, TDORDER | td.xpt |", "score": 0.4149, "match_basis": "verbatim_token+chapter_route:ch03"}, {"md_atom_id": "md_ch03_a040", "md_file": "knowledge_base/chapters/ch03_submitting_data.md", "md_atom_type": "TABLE_ROW", "md_parent_section": "§3.2.1 [Dataset-level Metadata]", "md_verbatim": "| DS | Disposition | Events | One record per disposition status or protocol milestone per subject | Tabulation | STUDYID, USUBJID, DSDECOD, DSSTDTC | ds.xpt |", "score": 0.4091, "match_basis": "verbatim_token+chapter_route:ch03"}, {"md_atom_id": "md_ch03_a038", "md_file": "knowledge_base/chapters/ch03_submitting_data.md", "md_atom_type": "TABLE_ROW", "md_parent_section": "§3.2.1 [Dataset-level Metadata]", "md_verbatim": "| BE | Biospecimen Events | Events | One record per instance per biospecimen event per biospecimen identifier per subject | Tabulation | STUDYID, USUBJID, BEREFID, BETERM, BESTDTC | be.xpt |", "score": 0.4049, "match_basis": "verbatim_token+chapter_route:ch03"}], "candidate_count": 5, "zero_candidate": false}
{"pdf_atom_id": "sv20_p0051_a001", "pdf_atom_type": "HEADING", "pdf_source": "SDTM_v2.0", "pdf_page": 51, "pdf_parent_section": "§5 [STUDY-LEVEL DATA]", "pdf_verbatim": "5 Study-level Data", "figure_ref": null, "candidates": [{"md_atom_id": "md_model05_a001", "md_file": "knowledge_base/model/05_study_level_data.md", "md_atom_type": "HEADING", "md_parent_section": "§ SDTM v2.0 — Chapter 5: Study-level Data", "md_verbatim": "# SDTM v2.0 — Chapter 5: Study-level Data", "score": 0.62, "match_basis": "verbatim_token+global_search"}, {"md_atom_id": "md_ch03_a021", "md_file": "knowledge_base/chapters/ch03_submitting_data.md", "md_atom_type": "HEADING", "md_parent_section": "§3.2 [Using the CDISC Domain Models in Regulatory Submissions — Dataset Metadata]", "md_verbatim": "### 3.2.1 Dataset-level Metadata", "score": 0.5, "match_basis": "verbatim_token+global_search"}, {"md_atom_id": "md_ch03_a102", "md_file": "knowledge_base/chapters/ch03_submitting_data.md", "md_atom_type": "HEADING", "md_parent_section": "§3.2.1 [Dataset-level Metadata]", "md_verbatim": "### 3.2.1.2 CDISC Submission Value-level Metadata", "score": 0.4154, "match_basis": "verbatim_token+global_search"}, {"md_atom_id": "md_model02_a199", "md_file": "knowledge_base/model/02_observation_classes.md", "md_atom_type": "HEADING", "md_parent_section": "§3.1.5 > Study Day Variables", "md_verbatim": "### Study Day Variables", "score": 0.4125, "match_basis": "verbatim_token+global_search"}, {"md_atom_id": "md_model05_a162", "md_file": "knowledge_base/model/05_study_level_data.md", "md_atom_type": "HEADING", "md_parent_section": "§ 5.2 Study References", "md_verbatim": "## 5.2 Study References", "score": 0.4125, "match_basis": "verbatim_token+global_search"}], "candidate_count": 5, "zero_candidate": false}
{"pdf_atom_id": "sv20_p0051_a002", "pdf_atom_type": "SENTENCE", "pdf_source": "SDTM_v2.0", "pdf_page": 51, "pdf_parent_section": "§5 [STUDY-LEVEL DATA]", "pdf_verbatim": "The SDTM includes 2 types of study-level data: trial design data and study reference data.", "figure_ref": null, "candidates": [{"md_atom_id": "md_model05_a004", "md_file": "knowledge_base/model/05_study_level_data.md", "md_atom_type": "SENTENCE", "md_parent_section": "§ Overview", "md_verbatim": "The SDTM includes 2 types of study-level data: trial design data and study reference data.", "score": 0.9, "match_basis": "verbatim_token+global_search"}, {"md_atom_id": "md_index_a013", "md_file": "knowledge_base/INDEX.md", "md_atom_type": "TABLE_ROW", "md_parent_section": "§ Model (SDTM v2.0 Conceptual Model)", "md_verbatim": "| [study_level_data.md](model/05_study_level_data.md) | SDTM v2.0 Ch5 | Trial Design (TE/TA/TX/TT/TP/TV/TD/TM/TI/TS/AC) + Study References (DI/OI) |", "score": 0.4892, "match_basis": "verbatim_token+global_search"}, {"md_atom_id": "md_model01_a053", "md_file": "knowledge_base/model/01_concepts_and_terms.md", "md_atom_type": "SENTENCE", "md_parent_section": "§2.1 [Model Concepts and Terms — Variables]", "md_verbatim": "The Device-subject Relationships dataset includes the variable DOMAIN, but other study reference datasets do not.", "score": 0.469, "match_basis": "verbatim_token+global_search"}, {"md_atom_id": "md_ch04_a009", "md_file": "knowledge_base/chapters/ch04_general_assumptions.md", "md_atom_type": "SENTENCE", "md_parent_section": "§4.1.1 [Review Study Data Tabulation Model and Implementation Guide]", "md_verbatim": "The SDTM describes the general conceptual framework, including the general observation classes (Interventions, Events, Findings), special-purpose domains, trial design model datasets, relationship datasets, and study references.", "score": 0.4436, "match_basis": "verbatim_token+global_search"}, {"md_atom_id": "md_dmTA_ex_a002", "md_file": "knowledge_base/domains/TA/examples.md", "md_atom_type": "SENTENCE", "md_parent_section": "§TA [TA — Examples]", "md_verbatim": "The core of the Trial Design Model is the TA dataset.", "score": 0.4429, "match_basis": "verbatim_token+global_search"}], "candidate_count": 5, "zero_candidate": false}
{"pdf_atom_id": "sv20_p0051_a003", "pdf_atom_type": "HEADING", "pdf_source": "SDTM_v2.0", "pdf_page": 51, "pdf_parent_section": "§5 [STUDY-LEVEL DATA]", "pdf_verbatim": "5.1 The Trial Design Model", "figure_ref": null, "candidates": [{"md_atom_id": "md_model05_a005", "md_file": "knowledge_base/model/05_study_level_data.md", "md_atom_type": "HEADING", "md_parent_section": "§ 5.1 Trial Design Model", "md_verbatim": "## 5.1 Trial Design Model", "score": 0.8455, "match_basis": "verbatim_token+global_search"}, {"md_atom_id": "md_varindex_a1501", "md_file": "knowledge_base/VARIABLE_INDEX.md", "md_atom_type": "HEADING", "md_parent_section": "§ 二、领域专属变量（仅 1 个域，共 1499 个），按域分组", "md_verbatim": "### TA — Trial Arms (Trial Design)", "score": 0.6231, "match_basis": "verbatim_token+global_search"}, {"md_atom_id": "md_varindex_a1589", "md_file": "knowledge_base/VARIABLE_INDEX.md", "md_atom_type": "HEADING", "md_parent_section": "§ 二、领域专属变量（仅 1 个域，共 1499 个），按域分组", "md_verbatim": "### TV — Trial Visits (Trial Design)", "score": 0.58, "match_basis": "verbatim_token+global_search"}, {"md_atom_id": "md_index_a087", "md_file": "knowledge_base/INDEX.md", "md_atom_type": "HEADING", "md_parent_section": "§ Domains (63 domains)", "md_verbatim": "### Trial Design Domains", "score": 0.5625, "match_basis": "verbatim_token+global_search"}, {"md_atom_id": "md_varindex_a1553", "md_file": "knowledge_base/VARIABLE_INDEX.md", "md_atom_type": "HEADING", "md_parent_section": "§ 二、领域专属变量（仅 1 个域，共 1499 个），按域分组", "md_verbatim": "### TS — Trial Summary (Trial Design)", "score": 0.5625, "match_basis": "verbatim_token+global_search"}], "candidate_count": 5, "zero_candidate": false}
{"pdf_atom_id": "sv20_p0051_a004", "pdf_atom_type": "SENTENCE", "pdf_source": "SDTM_v2.0", "pdf_page": 51, "pdf_parent_section": "§5.1 [The Trial Design Model]", "pdf_verbatim": "The Trial Design Model defines a standard structure for representing the planned sequence of activities and the treatment plan for the trial.", "figure_ref": null, "candidates": [{"md_atom_id": "md_model05_a006", "md_file": "knowledge_base/model/05_study_level_data.md", "md_atom_type": "SENTENCE", "md_parent_section": "§ 5.1 Trial Design Model", "md_verbatim": "The Trial Design Model (TDM) defines a standard structure for representing the planned sequence of activities and the treatment plan for the trial.", "score": 0.8909, "match_basis": "verbatim_token+global_search"}, {"md_atom_id": "md_dmDS_ex_a145", "md_file": "knowledge_base/domains/DS/examples.md", "md_atom_type": "SENTENCE", "md_parent_section": "§DS.10 [Example 10]", "md_verbatim": "**Rows 2, 6:** Represents the planned initial treatment arm of either \"DRUG1\" or \"DRUG2\".", "score": 0.4595, "match_basis": "verbatim_token+global_search"}, {"md_atom_id": "md_model03_a109", "md_file": "knowledge_base/model/03_special_purpose_domains.md", "md_atom_type": "SENTENCE", "md_parent_section": "§ Subject Repro Stages", "md_verbatim": "Planned repro stages are described in the Trial Design Model.", "score": 0.45, "match_basis": "verbatim_token+global_search"}, {"md_atom_id": "md_model03_a088", "md_file": "knowledge_base/model/03_special_purpose_domains.md", "md_atom_type": "SENTENCE", "md_parent_section": "§ Subject Elements (SE)", "md_verbatim": "Planned elements are described in the Trial Design Model.", "score": 0.4421, "match_basis": "verbatim_token+global_search"}, {"md_atom_id": "md_model05_a018", "md_file": "knowledge_base/model/05_study_level_data.md", "md_atom_type": "SENTENCE", "md_parent_section": "§ Trial Elements (TE)", "md_verbatim": "Describes the basic building blocks of a trial design — discrete periods of time during which a specific type of treatment or activity is planned.", "score": 0.4418, "match_basis": "verbatim_token+global_search"}], "candidate_count": 5, "zero_candidate": false}
{"pdf_atom_id": "sv20_p0051_a005", "pdf_atom_type": "SENTENCE", "pdf_source": "SDTM_v2.0", "pdf_page": 51, "pdf_parent_section": "§5.1 [The Trial Design Model]", "pdf_verbatim": "These include ways to represent:", "figure_ref": null, "candidates": [{"md_atom_id": "md_model05_a007", "md_file": "knowledge_base/model/05_study_level_data.md", "md_atom_type": "SENTENCE", "md_parent_section": "§ 5.1 Trial Design Model", "md_verbatim": "These include ways to represent:", "score": 0.9, "match_basis": "verbatim_token+global_search"}, {"md_atom_id": "md_ch02_a039", "md_file": "knowledge_base/chapters/ch02_fundamentals.md", "md_atom_type": "SENTENCE", "md_parent_section": "§2.2 [Datasets and Domains]", "md_verbatim": "Data represented in SDTM datasets include:", "score": 0.5769, "match_basis": "verbatim_token+global_search"}, {"md_atom_id": "md_model01_a010", "md_file": "knowledge_base/model/01_concepts_and_terms.md", "md_atom_type": "SENTENCE", "md_parent_section": "§2.1 [Model Concepts and Terms — Variables]", "md_verbatim": "The SDTM includes a general model for representing data in 3 \"general observation\" classes.", "score": 0.466, "match_basis": "verbatim_token+global_search"}, {"md_atom_id": "md_dmMH_ex_a033", "md_file": "knowledge_base/domains/MH/examples.md", "md_atom_type": "SENTENCE", "md_parent_section": "§MH.2 [Example 2]", "md_verbatim": "The coded terms are represented in MHDECOD.", "score": 0.4655, "match_basis": "verbatim_token+global_search"}, {"md_atom_id": "md_dmCE_ex_a025", "md_file": "knowledge_base/domains/CE/examples.md", "md_atom_type": "SENTENCE", "md_parent_section": "§CE.2 [Example 2]", "md_verbatim": "These data are about the event as a whole, so they are represented in the CE domain.", "score": 0.4588, "match_basis": "verbatim_token+global_search"}], "candidate_count": 5, "zero_candidate": false}
{"pdf_atom_id": "sv20_p0051_a006", "pdf_atom_type": "LIST_ITEM", "pdf_source": "SDTM_v2.0", "pdf_page": 51, "pdf_parent_section": "§5.1 [The Trial Design Model]", "pdf_verbatim": "Planned treatment arms (Section 5.1.1, Trial Arms and Trial Elements)", "figure_ref": null, "candidates": [{"md_atom_id": "md_model05_a008", "md_file": "knowledge_base/model/05_study_level_data.md", "md_atom_type": "LIST_ITEM", "md_parent_section": "§ 5.1 Trial Design Model", "md_verbatim": "- Planned treatment arms (Section 5.1.1, Trial Arms and Trial Elements)", "score": 0.9, "match_basis": "verbatim_token+global_search"}, {"md_atom_id": "md_model05_a009", "md_file": "knowledge_base/model/05_study_level_data.md", "md_atom_type": "LIST_ITEM", "md_parent_section": "§ 5.1 Trial Design Model", "md_verbatim": "- Planned groups of subjects (Section 5.1.2, Trial Sets)", "score": 0.5053, "match_basis": "verbatim_token+global_search"}, {"md_atom_id": "md_dmDM_assn_a017", "md_file": "knowledge_base/domains/DM/assumptions.md", "md_atom_type": "LIST_ITEM", "md_parent_section": "§DM [DM — Assumptions]", "md_verbatim": "         3. Section 5.3, Subject Elements, Example 2 illustrates a situation in which a subject received a set of treatments different from that for any of the planned arms.", "score": 0.489, "match_basis": "verbatim_token+global_search"}, {"md_atom_id": "md_model05_a011", "md_file": "knowledge_base/model/05_study_level_data.md", "md_atom_type": "LIST_ITEM", "md_parent_section": "§ 5.1 Trial Design Model", "md_verbatim": "- Planned schedules for activities and data collection (Section 5.1.4, Trial Planned Data Collection)", "score": 0.475, "match_basis": "verbatim_token+global_search"}, {"md_atom_id": "md_model05_a010", "md_file": "knowledge_base/model/05_study_level_data.md", "md_atom_type": "LIST_ITEM", "md_parent_section": "§ 5.1 Trial Design Model", "md_verbatim": "- Planned sequences of reproductive stages (Section 5.1.3, Trial Repro Stages and Trial Repro Paths)", "score": 0.468, "match_basis": "verbatim_token+global_search"}], "candidate_count": 5, "zero_candidate": false}
{"pdf_atom_id": "sv20_p0051_a007", "pdf_atom_type": "LIST_ITEM", "pdf_source": "SDTM_v2.0", "pdf_page": 51, "pdf_parent_section": "§5.1 [The Trial Design Model]", "pdf_verbatim": "Planned groups of subjects (Section 5.1.2, Trial Sets)", "figure_ref": null, "candidates": [{"md_atom_id": "md_model05_a009", "md_file": "knowledge_base/model/05_study_level_data.md", "md_atom_type": "LIST_ITEM", "md_parent_section": "§ 5.1 Trial Design Model", "md_verbatim": "- Planned groups of subjects (Section 5.1.2, Trial Sets)", "score": 0.9, "match_basis": "verbatim_token+global_search"}, {"md_atom_id": "md_model05_a008", "md_file": "knowledge_base/model/05_study_level_data.md", "md_atom_type": "LIST_ITEM", "md_parent_section": "§ 5.1 Trial Design Model", "md_verbatim": "- Planned treatment arms (Section 5.1.1, Trial Arms and Trial Elements)", "score": 0.5053, "match_basis": "verbatim_token+global_search"}, {"md_atom_id": "md_model05_a011", "md_file": "knowledge_base/model/05_study_level_data.md", "md_atom_type": "LIST_ITEM", "md_parent_section": "§ 5.1 Trial Design Model", "md_verbatim": "- Planned schedules for activities and data collection (Section 5.1.4, Trial Planned Data Collection)", "score": 0.4696, "match_basis": "verbatim_token+global_search"}, {"md_atom_id": "md_model05_a010", "md_file": "knowledge_base/model/05_study_level_data.md", "md_atom_type": "LIST_ITEM", "md_parent_section": "§ 5.1 Trial Design Model", "md_verbatim": "- Planned sequences of reproductive stages (Section 5.1.3, Trial Repro Stages and Trial Repro Paths)", "score": 0.4625, "match_basis": "verbatim_token+global_search"}, {"md_atom_id": "md_ch01_a058", "md_file": "knowledge_base/chapters/ch01_introduction.md", "md_atom_type": "LIST_ITEM", "md_parent_section": "§1.4 [How to Read this Implementation Guide]", "md_verbatim": "5. Read Section 7, Trial Design Model Datasets", "score": 0.4622, "match_basis": "verbatim_token+global_search"}], "candidate_count": 5, "zero_candidate": false}
{"pdf_atom_id": "sv20_p0051_a008", "pdf_atom_type": "LIST_ITEM", "pdf_source": "SDTM_v2.0", "pdf_page": 51, "pdf_parent_section": "§5.1 [The Trial Design Model]", "pdf_verbatim": "Planned sequences of reproductive stages (animal developmental and reproductive toxicology studies; Section 5.1.3, Trial Repro Stages and Trial Repro Paths)", "figure_ref": null, "candidates": [{"md_atom_id": "md_model05_a010", "md_file": "knowledge_base/model/05_study_level_data.md", "md_atom_type": "LIST_ITEM", "md_parent_section": "§ 5.1 Trial Design Model", "md_verbatim": "- Planned sequences of reproductive stages (Section 5.1.3, Trial Repro Stages and Trial Repro Paths)", "score": 0.6415, "match_basis": "verbatim_token+global_search"}, {"md_atom_id": "md_model05_a008", "md_file": "knowledge_base/model/05_study_level_data.md", "md_atom_type": "LIST_ITEM", "md_parent_section": "§ 5.1 Trial Design Model", "md_verbatim": "- Planned treatment arms (Section 5.1.1, Trial Arms and Trial Elements)", "score": 0.4263, "match_basis": "verbatim_token+global_search"}, {"md_atom_id": "md_model05_a011", "md_file": "knowledge_base/model/05_study_level_data.md", "md_atom_type": "LIST_ITEM", "md_parent_section": "§ 5.1 Trial Design Model", "md_verbatim": "- Planned schedules for activities and data collection (Section 5.1.4, Trial Planned Data Collection)", "score": 0.4229, "match_basis": "verbatim_token+global_search"}, {"md_atom_id": "md_model05_a009", "md_file": "knowledge_base/model/05_study_level_data.md", "md_atom_type": "LIST_ITEM", "md_parent_section": "§ 5.1 Trial Design Model", "md_verbatim": "- Planned groups of subjects (Section 5.1.2, Trial Sets)", "score": 0.4026, "match_basis": "verbatim_token+global_search"}, {"md_atom_id": "md_dmFT_assn_a035", "md_file": "knowledge_base/domains/FT/assumptions.md", "md_atom_type": "LIST_ITEM", "md_parent_section": "§FT [FT — Assumptions]", "md_verbatim": "   a. Sponsors may participate and/or request the development of additional QRS supplements and terminology through the CDISC SDS QRS subteam and the Controlled Terminology QRS subteam.", "score": 0.3857, "match_basis": "verbatim_token+global_search"}], "candidate_count": 5, "zero_candidate": false}
{"pdf_atom_id": "sv20_p0051_a009", "pdf_atom_type": "LIST_ITEM", "pdf_source": "SDTM_v2.0", "pdf_page": 51, "pdf_parent_section": "§5.1 [The Trial Design Model]", "pdf_verbatim": "Planned schedules for activities and data collection (Section 5.1.4, Trial Planned Data Collection)", "figure_ref": null, "candidates": [{"md_atom_id": "md_model05_a011", "md_file": "knowledge_base/model/05_study_level_data.md", "md_atom_type": "LIST_ITEM", "md_parent_section": "§ 5.1 Trial Design Model", "md_verbatim": "- Planned schedules for activities and data collection (Section 5.1.4, Trial Planned Data Collection)", "score": 0.9, "match_basis": "verbatim_token+global_search"}, {"md_atom_id": "md_model05_a008", "md_file": "knowledge_base/model/05_study_level_data.md", "md_atom_type": "LIST_ITEM", "md_parent_section": "§ 5.1 Trial Design Model", "md_verbatim": "- Planned treatment arms (Section 5.1.1, Trial Arms and Trial Elements)", "score": 0.475, "match_basis": "verbatim_token+global_search"}, {"md_atom_id": "md_model05_a009", "md_file": "knowledge_base/model/05_study_level_data.md", "md_atom_type": "LIST_ITEM", "md_parent_section": "§ 5.1 Trial Design Model", "md_verbatim": "- Planned groups of subjects (Section 5.1.2, Trial Sets)", "score": 0.4696, "match_basis": "verbatim_token+global_search"}, {"md_atom_id": "md_model05_a010", "md_file": "knowledge_base/model/05_study_level_data.md", "md_atom_type": "LIST_ITEM", "md_parent_section": "§ 5.1 Trial Design Model", "md_verbatim": "- Planned sequences of reproductive stages (Section 5.1.3, Trial Repro Stages and Trial Repro Paths)", "score": 0.4579, "match_basis": "verbatim_token+global_search"}, {"md_atom_id": "md_ch01_a058", "md_file": "knowledge_base/chapters/ch01_introduction.md", "md_atom_type": "LIST_ITEM", "md_parent_section": "§1.4 [How to Read this Implementation Guide]", "md_verbatim": "5. Read Section 7, Trial Design Model Datasets", "score": 0.425, "match_basis": "verbatim_token+global_search"}], "candidate_count": 5, "zero_candidate": false}
{"pdf_atom_id": "sv20_p0051_a010", "pdf_atom_type": "LIST_ITEM", "pdf_source": "SDTM_v2.0", "pdf_page": 51, "pdf_parent_section": "§5.1 [The Trial Design Model]", "pdf_verbatim": "Study eligibility criteria (Section 5.1.5, Trial Inclusion/Exclusion Criteria)", "figure_ref": null, "candidates": [{"md_atom_id": "md_model05_a012", "md_file": "knowledge_base/model/05_study_level_data.md", "md_atom_type": "LIST_ITEM", "md_parent_section": "§ 5.1 Trial Design Model", "md_verbatim": "- Study eligibility criteria (Section 5.1.5, Trial Inclusion/Exclusion Criteria)", "score": 0.9, "match_basis": "verbatim_token+global_search"}, {"md_atom_id": "md_model05_a120", "md_file": "knowledge_base/model/05_study_level_data.md", "md_atom_type": "SENTENCE", "md_parent_section": "§ Trial Inclusion/Exclusion Criteria (TI)", "md_verbatim": "Describes the inclusion and exclusion criteria for the trial.", "score": 0.4529, "match_basis": "verbatim_token+global_search"}, {"md_atom_id": "md_dmIE_assn_a002", "md_file": "knowledge_base/domains/IE/assumptions.md", "md_atom_type": "LIST_ITEM", "md_parent_section": "§IE [IE — Assumptions]", "md_verbatim": "1. The intent of the IE domain model is to collect responses to only those criteria that the subject did not meet, and not the responses to all criteria. For the complete list of inclusion/exclusion criteria, see Section 7.4.1, Trial Inclusion/Exclusion Criteria.", "score": 0.4518, "match_basis": "verbatim_token+global_search"}, {"md_atom_id": "md_dmIE_assn_a003", "md_file": "knowledge_base/domains/IE/assumptions.md", "md_atom_type": "LIST_ITEM", "md_parent_section": "§IE [IE — Assumptions]", "md_verbatim": "2. This domain should be used to document the exceptions to inclusion or exclusion criteria at the time that eligibility for study entry is determined (e.g., at the end of a run-in period or immediately before randomization). This domain should not be used to collect protocol deviations/violations incurred during the course of the study, typically after randomization or start of study medication. See Section 6.2.7, Protocol Deviations, for the model that is used to submit protocol deviations/violations.", "score": 0.4257, "match_basis": "verbatim_token+global_search"}, {"md_atom_id": "md_dmIE_assn_a004", "md_file": "knowledge_base/domains/IE/assumptions.md", "md_atom_type": "LIST_ITEM", "md_parent_section": "§IE [IE — Assumptions]", "md_verbatim": "3. IETEST is to be used only for the verbatim description of the inclusion or exclusion criteria. If the text is no more than 200 characters, it goes in IETEST; if the text is more than 200 characters, put meaningful text in IETEST and describe the full text in the study metadata. See Section 4.5.3.1, Test Name (--TEST) Greater than 40 Characters, for further information.", "score": 0.4245, "match_basis": "verbatim_token+global_search"}], "candidate_count": 5, "zero_candidate": false}
{"pdf_atom_id": "sv20_p0051_a011", "pdf_atom_type": "LIST_ITEM", "pdf_source": "SDTM_v2.0", "pdf_page": 51, "pdf_parent_section": "§5.1 [The Trial Design Model]", "pdf_verbatim": "Other aspects of a study, expressed as a series of parameters (Section 5.1.6, Trial Summary Information)", "figure_ref": null, "candidates": [{"md_atom_id": "md_model05_a013", "md_file": "knowledge_base/model/05_study_level_data.md", "md_atom_type": "LIST_ITEM", "md_parent_section": "§ 5.1 Trial Design Model", "md_verbatim": "- Other aspects of a study, expressed as parameters (Section 5.1.6, Trial Summary Information)", "score": 0.851, "match_basis": "verbatim_token+global_search"}, {"md_atom_id": "md_dmTS_assn_a007", "md_file": "knowledge_base/domains/TS/assumptions.md", "md_atom_type": "LIST_ITEM", "md_parent_section": "§TS [TS — Assumptions]", "md_verbatim": "2. Recipients may specify their requirements for which trial summary parameters should be included under which conditions. For example, the US FDA includes such information in their Study Data Technical Conformance Guide.", "score": 0.459, "match_basis": "verbatim_token+global_search"}, {"md_atom_id": "md_dmTS_assn_a006", "md_file": "knowledge_base/domains/TS/assumptions.md", "md_atom_type": "LIST_ITEM", "md_parent_section": "§TS [TS — Assumptions]", "md_verbatim": "1. The intent of this dataset is to provide a summary of trial information. This is not subject-level data.", "score": 0.4562, "match_basis": "verbatim_token+global_search"}, {"md_atom_id": "md_dmTI_assn_a008", "md_file": "knowledge_base/domains/TI/assumptions.md", "md_atom_type": "LIST_ITEM", "md_parent_section": "§TI [TI — Assumptions]", "md_verbatim": "5. If a criterion text is <200 characters, it goes in IETEST; if the text is >200 characters, put meaningful text in IETEST and describe the full text in the study metadata. See Section 4.5.3.1, Test Name (--TEST) Greater than 40 Characters, for further information.", "score": 0.4469, "match_basis": "verbatim_token+global_search"}, {"md_atom_id": "md_dmSV_assn_a009", "md_file": "knowledge_base/domains/SV/assumptions.md", "md_atom_type": "LIST_ITEM", "md_parent_section": "§SV [SV — Assumptions]", "md_verbatim": "   d. See Section 4.5.7, Presence or Absence of Prespecified Interventions and Events, for more information on the use of --PRESP and --OCCUR.", "score": 0.4367, "match_basis": "verbatim_token+global_search"}], "candidate_count": 5, "zero_candidate": false}
{"pdf_atom_id": "sv20_p0051_a012", "pdf_atom_type": "LIST_ITEM", "pdf_source": "SDTM_v2.0", "pdf_page": 51, "pdf_parent_section": "§5.1 [The Trial Design Model]", "pdf_verbatim": "Characteristics of a study challenge agent (Section 5.1.7, Challenge Agent Characterization)", "figure_ref": null, "candidates": [{"md_atom_id": "md_model05_a014", "md_file": "knowledge_base/model/05_study_level_data.md", "md_atom_type": "LIST_ITEM", "md_parent_section": "§ 5.1 Trial Design Model", "md_verbatim": "- Characteristics of a study challenge agent (Section 5.1.7, Challenge Agent Characterization)", "score": 0.9, "match_basis": "verbatim_token+global_search"}, {"md_atom_id": "md_ch08_a201", "md_file": "knowledge_base/chapters/ch08_relationships.md", "md_atom_type": "LIST_ITEM", "md_parent_section": "§8.4.4 [When Not to Use Supplemental Qualifiers]", "md_verbatim": "- Subject-level objective data that fit in Subject Characteristics (SC; e.g., national origin, twin type)", "score": 0.48, "match_basis": "verbatim_token+global_search"}, {"md_atom_id": "md_dmSUPPQUAL_assn_a012", "md_file": "knowledge_base/domains/SUPPQUAL/assumptions.md", "md_atom_type": "LIST_ITEM", "md_parent_section": "§SUPPQUAL [SUPPQUAL — Assumptions]", "md_verbatim": "- Subject-level objective data that fit in Subject Characteristics (SC; e.g., national origin, twin type)", "score": 0.48, "match_basis": "verbatim_token+global_search"}, {"md_atom_id": "md_model05_a145", "md_file": "knowledge_base/model/05_study_level_data.md", "md_atom_type": "HEADING", "md_parent_section": "§ Challenge Agent Characterization (AC)", "md_verbatim": "### Challenge Agent Characterization (AC)", "score": 0.4659, "match_basis": "verbatim_token+global_search"}, {"md_atom_id": "md_dmMB_assn_a010", "md_file": "knowledge_base/domains/MB/assumptions.md", "md_atom_type": "LIST_ITEM", "md_parent_section": "§MB [MB — Assumptions]", "md_verbatim": "      iii. MBGRPID should be used to group characteristic records with the identification record of the organism to which the characteristics apply.", "score": 0.4325, "match_basis": "verbatim_token+global_search"}], "candidate_count": 5, "zero_candidate": false}
{"pdf_atom_id": "sv20_p0051_a013", "pdf_atom_type": "SENTENCE", "pdf_source": "SDTM_v2.0", "pdf_page": 51, "pdf_parent_section": "§5.1 [The Trial Design Model]", "pdf_verbatim": "Many Trial Design domains define study-specific terminology (e.g., for study arms, visits, and eligibility criteria), and variables and variable values from these domains are used in subject-level domains.", "figure_ref": null, "candidates": [{"md_atom_id": "md_model05_a015", "md_file": "knowledge_base/model/05_study_level_data.md", "md_atom_type": "SENTENCE", "md_parent_section": "§ 5.1 Trial Design Model", "md_verbatim": "Many Trial Design domains define study-specific terminology, and variables and variable values from these domains are used in subject-level domains.", "score": 0.7554, "match_basis": "verbatim_token+global_search"}, {"md_atom_id": "md_ch08_a080", "md_file": "knowledge_base/chapters/ch08_relationships.md", "md_atom_type": "SENTENCE", "md_parent_section": "§8.2.1 [Related Records (RELREC)]", "md_verbatim": "^1^ In this column, an asterisk (*) indicates that the variable may be subject to controlled terminology. CDISC/NCI codelist values are enclosed in parentheses.", "score": 0.4431, "match_basis": "verbatim_token+global_search"}, {"md_atom_id": "md_ch08_a168", "md_file": "knowledge_base/chapters/ch08_relationships.md", "md_atom_type": "SENTENCE", "md_parent_section": "§8.4.1 [Supplemental Qualifiers (SUPP--)]", "md_verbatim": "^1^ In this column, an asterisk (*) indicates that the variable may be subject to controlled terminology. CDISC/NCI codelist values are enclosed in parentheses.", "score": 0.4431, "match_basis": "verbatim_token+global_search"}, {"md_atom_id": "md_model01_a047", "md_file": "knowledge_base/model/01_concepts_and_terms.md", "md_atom_type": "SENTENCE", "md_parent_section": "§2.1 [Model Concepts and Terms — Variables]", "md_verbatim": "**Domain-specific variables** are for use in a limited number of designated domains based on general observation classes.", "score": 0.4409, "match_basis": "verbatim_token+global_search"}, {"md_atom_id": "md_ch04_a778", "md_file": "knowledge_base/chapters/ch04_general_assumptions.md", "md_atom_type": "SENTENCE", "md_parent_section": "§4.4.11 [Disease Milestones and Disease Milestone Timing Variables]", "md_verbatim": "The types of disease milestones for a study are defined in the study-level Trial Disease Milestones (TM) dataset; the times at which disease milestones occurred for a particular subject are summarized in the special-purpose Subject Disease Milestones (SM) domain.", "score": 0.4324, "match_basis": "verbatim_token+global_search"}], "candidate_count": 5, "zero_candidate": false}
{"pdf_atom_id": "sv20_p0051_a014", "pdf_atom_type": "HEADING", "pdf_source": "SDTM_v2.0", "pdf_page": 51, "pdf_parent_section": "§5.1 [The Trial Design Model]", "pdf_verbatim": "5.1.1 Trial Arms and Trial Elements", "figure_ref": null, "candidates": [{"md_atom_id": "md_model05_a016", "md_file": "knowledge_base/model/05_study_level_data.md", "md_atom_type": "HEADING", "md_parent_section": "§ Trial Elements (TE)", "md_verbatim": "### Trial Elements (TE)", "score": 0.75, "match_basis": "verbatim_token+global_search"}, {"md_atom_id": "md_varindex_a1514", "md_file": "knowledge_base/VARIABLE_INDEX.md", "md_atom_type": "HEADING", "md_parent_section": "§ 二、领域专属变量（仅 1 个域，共 1499 个），按域分组", "md_verbatim": "### TE — Trial Elements (Trial Design)", "score": 0.6375, "match_basis": "verbatim_token+global_search"}, {"md_atom_id": "md_dmTE_ex_a036", "md_file": "knowledge_base/domains/TE/examples.md", "md_atom_type": "HEADING", "md_parent_section": "§TE [TE — Examples]", "md_verbatim": "## Trial Elements Issues", "score": 0.6375, "match_basis": "verbatim_token+global_search"}, {"md_atom_id": "md_dmTE_ex_a037", "md_file": "knowledge_base/domains/TE/examples.md", "md_atom_type": "HEADING", "md_parent_section": "§TE.4 [Trial Elements Issues]", "md_verbatim": "### Granularity of Trial Elements", "score": 0.5571, "match_basis": "verbatim_token+global_search"}, {"md_atom_id": "md_model05_a028", "md_file": "knowledge_base/model/05_study_level_data.md", "md_atom_type": "HEADING", "md_parent_section": "§ Trial Arms (TA)", "md_verbatim": "### Trial Arms (TA)", "score": 0.55, "match_basis": "verbatim_token+global_search"}], "candidate_count": 5, "zero_candidate": false}
{"pdf_atom_id": "sv20_p0051_a015", "pdf_atom_type": "SENTENCE", "pdf_source": "SDTM_v2.0", "pdf_page": 51, "pdf_parent_section": "§5.1.1 Trial Arms and Trial Elements", "pdf_verbatim": "The Trial Arms dataset describes arms as sequences of trial elements, with trial elements described in the Trial Elements dataset.", "figure_ref": null, "candidates": [{"md_atom_id": "md_dmDS_ex_a211", "md_file": "knowledge_base/domains/DS/examples.md", "md_atom_type": "SENTENCE", "md_parent_section": "§DS.11 [Example 11]", "md_verbatim": "The TE dataset shows the elements of the trial.", "score": 0.5432, "match_basis": "verbatim_token+global_search"}, {"md_atom_id": "md_model03_a088", "md_file": "knowledge_base/model/03_special_purpose_domains.md", "md_atom_type": "SENTENCE", "md_parent_section": "§ Subject Elements (SE)", "md_verbatim": "Planned elements are described in the Trial Design Model.", "score": 0.5217, "match_basis": "verbatim_token+global_search"}, {"md_atom_id": "md_dmDS_ex_a143", "md_file": "knowledge_base/domains/DS/examples.md", "md_atom_type": "SENTENCE", "md_parent_section": "§DS.10 [Example 10]", "md_verbatim": "The TA dataset describes the design of the study.", "score": 0.495, "match_basis": "verbatim_token+global_search"}, {"md_atom_id": "md_dmTA_ex_a003", "md_file": "knowledge_base/domains/TA/examples.md", "md_atom_type": "SENTENCE", "md_parent_section": "§TA [TA — Examples]", "md_verbatim": "For each arm of the trial, the TA dataset contains 1 record for each occurrence of an element in the path of the arm.", "score": 0.4855, "match_basis": "verbatim_token+global_search"}, {"md_atom_id": "md_dmTE_assn_a002", "md_file": "knowledge_base/domains/TE/assumptions.md", "md_atom_type": "SENTENCE", "md_parent_section": "§TE [TE — Assumptions]", "md_verbatim": "The Trial Elements (TE) dataset contains the definitions of the elements that appear in the Trial Arms (TA) dataset.", "score": 0.4855, "match_basis": "verbatim_token+global_search"}], "candidate_count": 5, "zero_candidate": false}
{"pdf_atom_id": "sv20_p0051_a016", "pdf_atom_type": "HEADING", "pdf_source": "SDTM_v2.0", "pdf_page": 51, "pdf_parent_section": "§5.1.1 Trial Arms and Trial Elements", "pdf_verbatim": "5.1.1.1 Trial Elements", "figure_ref": null, "candidates": [{"md_atom_id": "md_model05_a016", "md_file": "knowledge_base/model/05_study_level_data.md", "md_atom_type": "HEADING", "md_parent_section": "§ Trial Elements (TE)", "md_verbatim": "### Trial Elements (TE)", "score": 0.9, "match_basis": "verbatim_token+global_search"}, {"md_atom_id": "md_varindex_a1514", "md_file": "knowledge_base/VARIABLE_INDEX.md", "md_atom_type": "HEADING", "md_parent_section": "§ 二、领域专属变量（仅 1 个域，共 1499 个），按域分组", "md_verbatim": "### TE — Trial Elements (Trial Design)", "score": 0.7154, "match_basis": "verbatim_token+global_search"}, {"md_atom_id": "md_dmTE_ex_a036", "md_file": "knowledge_base/domains/TE/examples.md", "md_atom_type": "HEADING", "md_parent_section": "§TE [TE — Examples]", "md_verbatim": "## Trial Elements Issues", "score": 0.7154, "match_basis": "verbatim_token+global_search"}, {"md_atom_id": "md_dmTE_ex_a037", "md_file": "knowledge_base/domains/TE/examples.md", "md_atom_type": "HEADING", "md_parent_section": "§TE.4 [Trial Elements Issues]", "md_verbatim": "### Granularity of Trial Elements", "score": 0.6, "match_basis": "verbatim_token+global_search"}, {"md_atom_id": "md_model03_a085", "md_file": "knowledge_base/model/03_special_purpose_domains.md", "md_atom_type": "HEADING", "md_parent_section": "§ Subject Elements (SE)", "md_verbatim": "## Subject Elements (SE)", "score": 0.5571, "match_basis": "verbatim_token+global_search"}], "candidate_count": 5, "zero_candidate": false}
{"pdf_atom_id": "sv20_p0051_a017", "pdf_atom_type": "SENTENCE", "pdf_source": "SDTM_v2.0", "pdf_page": 51, "pdf_parent_section": "§5.1.1.1 Trial Elements", "pdf_verbatim": "Trial Elements describes the periods of times through which subjects pass in the course of a trial.", "figure_ref": null, "candidates": [{"md_atom_id": "md_dmDM_ex_a053", "md_file": "knowledge_base/domains/DM/examples.md", "md_atom_type": "SENTENCE", "md_parent_section": "§DM.3 [Example 3]", "md_verbatim": "**Rows 1-3:** Show that the subject passed through all 3 elements for the AA arm.", "score": 0.5036, "match_basis": "verbatim_token+global_search"}, {"md_atom_id": "md_model03_a087", "md_file": "knowledge_base/model/03_special_purpose_domains.md", "md_atom_type": "SENTENCE", "md_parent_section": "§ Subject Elements (SE)", "md_verbatim": "Describes the actual Elements (blocks of time) experienced by each subject during the study.", "score": 0.5, "match_basis": "verbatim_token+global_search"}, {"md_atom_id": "md_dmDM_ex_a054", "md_file": "knowledge_base/domains/DM/examples.md", "md_atom_type": "SENTENCE", "md_parent_section": "§DM.3 [Example 3]", "md_verbatim": "**Rows 4-5:** Show the 2 elements (\"Screen\" and \"Treatment A\") the subject passed through.", "score": 0.5, "match_basis": "verbatim_token+global_search"}, {"md_atom_id": "md_dmDM_ex_a055", "md_file": "knowledge_base/domains/DM/examples.md", "md_atom_type": "SENTENCE", "md_parent_section": "§DM.3 [Example 3]", "md_verbatim": "**Rows 6-8:** Show that the subject passed through the 3 elements associated with the \"B-Rescue\" arm.", "score": 0.4818, "match_basis": "verbatim_token+global_search"}, {"md_atom_id": "md_model03_a088", "md_file": "knowledge_base/model/03_special_purpose_domains.md", "md_atom_type": "SENTENCE", "md_parent_section": "§ Subject Elements (SE)", "md_verbatim": "Planned elements are described in the Trial Design Model.", "score": 0.4655, "match_basis": "verbatim_token+global_search"}], "candidate_count": 5, "zero_candidate": false}
{"pdf_atom_id": "sv20_p0051_a018", "pdf_atom_type": "SENTENCE", "pdf_source": "SDTM_v2.0", "pdf_page": 51, "pdf_parent_section": "§5.1.1.1 Trial Elements", "pdf_verbatim": "The domain is identified by the domain code \"TE\".", "figure_ref": null, "candidates": [{"md_atom_id": "md_model05_a019", "md_file": "knowledge_base/model/05_study_level_data.md", "md_atom_type": "SENTENCE", "md_parent_section": "§ Trial Elements (TE)", "md_verbatim": "The domain is identified by the domain code \"TE\".", "score": 0.9, "match_basis": "verbatim_token+global_search"}, {"md_atom_id": "md_dmAG_ex_a045", "md_file": "knowledge_base/domains/AG/examples.md", "md_atom_type": "SENTENCE", "md_parent_section": "§AG.2 [Example 2]", "md_verbatim": "The identifier for the device used in the test was established in the Device Identifier (DI) domain.", "score": 0.5118, "match_basis": "verbatim_token+global_search"}, {"md_atom_id": "md_dmCE_assn_a013", "md_file": "knowledge_base/domains/CE/assumptions.md", "md_atom_type": "LIST_ITEM", "md_parent_section": "§CE [CE — Assumptions]", "md_verbatim": "4. Any identifier variable may be added to the CE domain.", "score": 0.4767, "match_basis": "verbatim_token+global_search"}, {"md_atom_id": "md_dmTU_ex_a004", "md_file": "knowledge_base/domains/TU/examples.md", "md_atom_type": "SENTENCE", "md_parent_section": "§TU.1 [Example 1]", "md_verbatim": "This is an example of using the TU domain to represent non-cancerous lesions identified in the heart.", "score": 0.466, "match_basis": "verbatim_token+global_search"}, {"md_atom_id": "md_model06_a055", "md_file": "knowledge_base/model/06_relationship_datasets.md", "md_atom_type": "SENTENCE", "md_parent_section": "§6.2 Supplemental Qualifiers (SUPP--)", "md_verbatim": "The RDOMAIN variable identifies which parent domain the supplemental data belongs to.", "score": 0.46, "match_basis": "verbatim_token+global_search"}], "candidate_count": 5, "zero_candidate": false}
{"pdf_atom_id": "sv20_p0051_a019", "pdf_atom_type": "HEADING", "pdf_source": "SDTM_v2.0", "pdf_page": 51, "pdf_parent_section": "§5.1.1.1 Trial Elements", "pdf_verbatim": "Trial Elements—One Record per Trial Element", "figure_ref": null, "candidates": [{"md_atom_id": "md_model05_a016", "md_file": "knowledge_base/model/05_study_level_data.md", "md_atom_type": "HEADING", "md_parent_section": "§ Trial Elements (TE)", "md_verbatim": "### Trial Elements (TE)", "score": 0.66, "match_basis": "verbatim_token+global_search"}, {"md_atom_id": "md_varindex_a1514", "md_file": "knowledge_base/VARIABLE_INDEX.md", "md_atom_type": "HEADING", "md_parent_section": "§ 二、领域专属变量（仅 1 个域，共 1499 个），按域分组", "md_verbatim": "### TE — Trial Elements (Trial Design)", "score": 0.5842, "match_basis": "verbatim_token+global_search"}, {"md_atom_id": "md_dmTE_ex_a036", "md_file": "knowledge_base/domains/TE/examples.md", "md_atom_type": "HEADING", "md_parent_section": "§TE [TE — Examples]", "md_verbatim": "## Trial Elements Issues", "score": 0.5842, "match_basis": "verbatim_token+global_search"}, {"md_atom_id": "md_dmTE_ex_a037", "md_file": "knowledge_base/domains/TE/examples.md", "md_atom_type": "HEADING", "md_parent_section": "§TE.4 [Trial Elements Issues]", "md_verbatim": "### Granularity of Trial Elements", "score": 0.525, "match_basis": "verbatim_token+global_search"}, {"md_atom_id": "md_model03_a085", "md_file": "knowledge_base/model/03_special_purpose_domains.md", "md_atom_type": "HEADING", "md_parent_section": "§ Subject Elements (SE)", "md_verbatim": "## Subject Elements (SE)", "score": 0.48, "match_basis": "verbatim_token+global_search"}], "candidate_count": 5, "zero_candidate": false}
{"pdf_atom_id": "sv20_p0051_a020", "pdf_atom_type": "TABLE_HEADER", "pdf_source": "SDTM_v2.0", "pdf_page": 51, "pdf_parent_section": "§5.1.1.1 Trial Elements", "pdf_verbatim": "# | Variable Name | Variable Label | Type | Format | Role | Variable(s) Qualified | Usage Restrictions | Variable C-code | Definition | Notes | Examples", "figure_ref": null, "candidates": [{"md_atom_id": "md_model02_a195", "md_file": "knowledge_base/model/02_observation_classes.md", "md_atom_type": "TABLE_HEADER", "md_parent_section": "§3.1.5 > Date/Time Variables", "md_verbatim": "| # | Variable | Label | Type | Format | Notes |\n|---|----------|-------|------|--------|-------|", "score": 0.4929, "match_basis": "verbatim_token+global_search"}, {"md_atom_id": "md_ch08_a072", "md_file": "knowledge_base/chapters/ch08_relationships.md", "md_atom_type": "TABLE_HEADER", "md_parent_section": "§8.2.1 [Related Records (RELREC)]", "md_verbatim": "| Variable Name | Variable Label | Type | Controlled Terms, Codelist or Format | Role | CDISC Notes | Core |\n|--------------|----------------|------|--------------------------------------|------|-------------|------|", "score": 0.492, "match_basis": "verbatim_token+global_search"}, {"md_atom_id": "md_ch08_a157", "md_file": "knowledge_base/chapters/ch08_relationships.md", "md_atom_type": "TABLE_HEADER", "md_parent_section": "§8.4.1 [Supplemental Qualifiers (SUPP--)]", "md_verbatim": "| Variable Name | Variable Label | Type | Controlled Terms, Codelist or Format | Role | CDISC Notes | Core |\n|--------------|----------------|------|--------------------------------------|------|-------------|------|", "score": 0.492, "match_basis": "verbatim_token+global_search"}, {"md_atom_id": "md_ch08_a320", "md_file": "knowledge_base/chapters/ch08_relationships.md", "md_atom_type": "TABLE_HEADER", "md_parent_section": "§8.8 [Related Specimens (RELSPEC)]", "md_verbatim": "| Variable Name | Variable Label | Type | Controlled Terms, Codelist or Format | Role | CDISC Notes | Core |\n|--------------|----------------|------|--------------------------------------|------|-------------|------|", "score": 0.492, "match_basis": "verbatim_token+global_search"}, {"md_atom_id": "md_model04_a018", "md_file": "knowledge_base/model/04_associated_persons.md", "md_atom_type": "TABLE_HEADER", "md_parent_section": "§4 [SDTM v2.0 — Chapter 4: Associated Persons Data]", "md_verbatim": "| Variable | Label | Type | Role | Notes |\n|----------|-------|------|------|-------|", "score": 0.4714, "match_basis": "verbatim_token+global_search"}], "candidate_count": 5, "zero_candidate": false}
{"pdf_atom_id": "sv20_p0051_a021", "pdf_atom_type": "TABLE_ROW", "pdf_source": "SDTM_v2.0", "pdf_page": 51, "pdf_parent_section": "§5.1.1.1 Trial Elements", "pdf_verbatim": "1 | STUDYID | Study Identifier | Char | | Identifier | | | C83082 | A sequence of characters used by the sponsor to uniquely identify the study. | | ", "figure_ref": null, "candidates": [{"md_atom_id": "md_ch08_a073", "md_file": "knowledge_base/chapters/ch08_relationships.md", "md_atom_type": "TABLE_ROW", "md_parent_section": "§8.2.1 [Related Records (RELREC)]", "md_verbatim": "| STUDYID | Study Identifier | Char | | Identifier | Unique identifier for a study. | Req |", "score": 0.5426, "match_basis": "verbatim_token+global_search"}, {"md_atom_id": "md_ch08_a321", "md_file": "knowledge_base/chapters/ch08_relationships.md", "md_atom_type": "TABLE_ROW", "md_parent_section": "§8.8 [Related Specimens (RELSPEC)]", "md_verbatim": "| STUDYID | Study Identifier | Char | | Identifier | Unique identifier for a study. | Req |", "score": 0.5426, "match_basis": "verbatim_token+global_search"}, {"md_atom_id": "md_model02_a173", "md_file": "knowledge_base/model/02_observation_classes.md", "md_atom_type": "TABLE_ROW", "md_parent_section": "§3.1.4 Identifiers for All Classes", "md_verbatim": "| 9 | --SEQ | Sequence Number | Num | Identifier | Unique within STUDYID, USUBJID, and DOMAIN |", "score": 0.5095, "match_basis": "verbatim_token+global_search"}, {"md_atom_id": "md_model06_a019", "md_file": "knowledge_base/model/06_relationship_datasets.md", "md_atom_type": "TABLE_ROW", "md_parent_section": "§6.1 Related Records (RELREC)", "md_verbatim": "| 1 | STUDYID | Study Identifier | Char | Identifier | |", "score": 0.5, "match_basis": "verbatim_token+global_search"}, {"md_atom_id": "md_model06_a040", "md_file": "knowledge_base/model/06_relationship_datasets.md", "md_atom_type": "TABLE_ROW", "md_parent_section": "§6.2 Supplemental Qualifiers (SUPP--)", "md_verbatim": "| 1 | STUDYID | Study Identifier | Char | Identifier | |", "score": 0.5, "match_basis": "verbatim_token+global_search"}], "candidate_count": 5, "zero_candidate": false}
{"pdf_atom_id": "sv20_p0051_a022", "pdf_atom_type": "TABLE_ROW", "pdf_source": "SDTM_v2.0", "pdf_page": 51, "pdf_parent_section": "§5.1.1.1 Trial Elements", "pdf_verbatim": "2 | DOMAIN | Domain Abbreviation | Char | | Identifier | | | C49558 | An abbreviation for a collection of observations, with a topic-specific commonality. | 2-character abbreviation, which must be \"TE\". | ", "figure_ref": null, "candidates": [{"md_atom_id": "md_ch10_a023", "md_file": "knowledge_base/chapters/ch10_appendices.md", "md_atom_type": "TABLE_ROW", "md_parent_section": "§10.B [Glossary and Abbreviations]", "md_verbatim": "| Domain | A collection of observations with a topic-specific commonality |", "score": 0.638, "match_basis": "verbatim_token+global_search"}, {"md_atom_id": "md_model02_a166", "md_file": "knowledge_base/model/02_observation_classes.md", "md_atom_type": "TABLE_ROW", "md_parent_section": "§3.1.4 Identifiers for All Classes", "md_verbatim": "| 2 | DOMAIN | Domain Abbreviation | Char | Identifier | Two-character abbreviation for the domain |", "score": 0.5466, "match_basis": "verbatim_token+global_search"}, {"md_atom_id": "md_model06_a020", "md_file": "knowledge_base/model/06_relationship_datasets.md", "md_atom_type": "TABLE_ROW", "md_parent_section": "§6.1 Related Records (RELREC)", "md_verbatim": "| 2 | RDOMAIN | Related Domain Abbreviation | Char | Identifier | 2-character abbreviation for the domain of the parent record(s) |", "score": 0.5118, "match_basis": "verbatim_token+global_search"}, {"md_atom_id": "md_model06_a041", "md_file": "knowledge_base/model/06_relationship_datasets.md", "md_atom_type": "TABLE_ROW", "md_parent_section": "§6.2 Supplemental Qualifiers (SUPP--)", "md_verbatim": "| 2 | RDOMAIN | Related Domain Abbreviation | Char | Identifier | 2-character abbreviation for the domain of the parent record(s) |", "score": 0.5118, "match_basis": "verbatim_token+global_search"}, {"md_atom_id": "md_ch08_a159", "md_file": "knowledge_base/chapters/ch08_relationships.md", "md_atom_type": "TABLE_ROW", "md_parent_section": "§8.4.1 [Supplemental Qualifiers (SUPP--)]", "md_verbatim": "| RDOMAIN | Related Domain Abbreviation | Char | (DOMAIN) | Identifier | Two-character abbreviation for the domain of the parent record(s). | Req |", "score": 0.5069, "match_basis": "verbatim_token+global_search"}], "candidate_count": 5, "zero_candidate": false}
{"pdf_atom_id": "sv20_p0051_a023", "pdf_atom_type": "TABLE_ROW", "pdf_source": "SDTM_v2.0", "pdf_page": 51, "pdf_parent_section": "§5.1.1.1 Trial Elements", "pdf_verbatim": "3 | ETCD | Element Code | Char | | Topic | | | | | ETCD (the companion to ELEMENT) is limited to 8 characters and does not have special character restrictions. These values should be short for ease of use in programming, but it is not expected that ETCD will need to serve as a variable name. | ", "figure_ref": null, "candidates": [{"md_atom_id": "md_ch04_a178", "md_file": "knowledge_base/chapters/ch04_general_assumptions.md", "md_atom_type": "LIST_ITEM", "md_parent_section": "§4.2.1 [Variable-Naming Conventions]", "md_verbatim": "- ETCD (the companion to ELEMENT) and TSPARMCD (the companion to TSPARM) are limited to 8 characters and do not have the character restrictions that apply to --TESTCD. These values should be short for ease of use in programming, but it is not expected that they will need to serve as variable names.", "score": 0.5873, "match_basis": "verbatim_token+global_search"}, {"md_atom_id": "md_model06_a048", "md_file": "knowledge_base/model/06_relationship_datasets.md", "md_atom_type": "TABLE_ROW", "md_parent_section": "§6.2 Supplemental Qualifiers (SUPP--)", "md_verbatim": "| 9 | QNAM | Qualifier Variable Name | Char | Topic | 8-character name for the supplemental qualifier |", "score": 0.4274, "match_basis": "verbatim_token+global_search"}, {"md_atom_id": "md_ch08_a163", "md_file": "knowledge_base/chapters/ch08_relationships.md", "md_atom_type": "TABLE_ROW", "md_parent_section": "§8.4.1 [Supplemental Qualifiers (SUPP--)]", "md_verbatim": "| QNAM | Qualifier Variable Name | Char | * | Topic | The short name of the qualifier variable, which is used as a column name in a domain view with data from the parent domain. The value in QNAM cannot be longer than 8 characters, nor can it start with a number (e.g., \"1TEST\" is not valid). QNAM cannot contain characters other than letters, numbers, or underscores. This will often be the column name in the sponsor's operational dataset. | Req |", "score": 0.4239, "match_basis": "verbatim_token+global_search"}, {"md_atom_id": "md_ch10_a224", "md_file": "knowledge_base/chapters/ch10_appendices.md", "md_atom_type": "TABLE_ROW", "md_parent_section": "§10.E [Revision History]", "md_verbatim": "| 7.2 | Experimental Design (TA and TE) | Text about executable code in Section 7.2.1.1 replaced to note that a mechanism to provide machine-readable rules will become available in the future; aligned wording for Rule variables on CDISC Notes between TA and TE; dataset name in Section 7.2.2.1 example changed from \"ta.xpt\" to \"special.xpt\" |", "score": 0.415, "match_basis": "verbatim_token+global_search"}, {"md_atom_id": "md_ch10_a184", "md_file": "knowledge_base/chapters/ch10_appendices.md", "md_atom_type": "TABLE_ROW", "md_parent_section": "§10.E [Revision History]", "md_verbatim": "| 4.2 | General Variable Assumptions | Added CDISC note on acceptable USUBJID formats; 4.2.6 numbering reworked; new subsection 4.2.7.4 \"Specify\" Values for --OBJ added; added information about ASCII characters to Section 4.2.9 |", "score": 0.4088, "match_basis": "verbatim_token+global_search"}], "candidate_count": 5, "zero_candidate": false}
{"pdf_atom_id": "sv20_p0052_a001", "pdf_atom_type": "TABLE_ROW", "pdf_source": "SDTM_v2.0", "pdf_page": 52, "pdf_parent_section": "§5.1.1.1 Trial Elements", "pdf_verbatim": "4 | ELEMENT | Description of Element | Char | | Synonym Qualifier | ETCD | | | The name of the element. | | ", "figure_ref": null, "candidates": [{"md_atom_id": "md_model03_a097", "md_file": "knowledge_base/model/03_special_purpose_domains.md", "md_atom_type": "TABLE_ROW", "md_parent_section": "§ Subject Elements (SE) > Variables (13 variables)", "md_verbatim": "| 6 | ELEMENT | Description of Element | Char | Synonym Qualifier (ETCD) | |", "score": 0.8455, "match_basis": "verbatim_token+global_search"}, {"md_atom_id": "md_model05_a024", "md_file": "knowledge_base/model/05_study_level_data.md", "md_atom_type": "TABLE_ROW", "md_parent_section": "§ Trial Elements (TE)", "md_verbatim": "| 4 | ELEMENT | Description of Element | Char | Synonym Qualifier |", "score": 0.8091, "match_basis": "verbatim_token+global_search"}, {"md_atom_id": "md_model05_a040", "md_file": "knowledge_base/model/05_study_level_data.md", "md_atom_type": "TABLE_ROW", "md_parent_section": "§ Trial Arms (TA)", "md_verbatim": "| 7 | ELEMENT | Description of Element | Char | Synonym Qualifier |", "score": 0.8091, "match_basis": "verbatim_token+global_search"}, {"md_atom_id": "md_varindex_a023", "md_file": "knowledge_base/VARIABLE_INDEX.md", "md_atom_type": "TABLE_ROW", "md_parent_section": "§ 一、通用变量（出现在 2+ 个域，共 24 个）", "md_verbatim": "| ELEMENT | 3 | SE, TA, TE | Description of Element | Char | Synonym Qualifier | Perm* |", "score": 0.78, "match_basis": "verbatim_token+global_search"}, {"md_atom_id": "md_model05_a051", "md_file": "knowledge_base/model/05_study_level_data.md", "md_atom_type": "TABLE_ROW", "md_parent_section": "§ Trial Sets (TX)", "md_verbatim": "| 4 | SET | Set Description | Char | Synonym Qualifier (SETCD) |", "score": 0.7412, "match_basis": "verbatim_token+global_search"}], "candidate_count": 5, "zero_candidate": false}
{"pdf_atom_id": "sv20_p0052_a002", "pdf_atom_type": "TABLE_ROW", "pdf_source": "SDTM_v2.0", "pdf_page": 52, "pdf_parent_section": "§5.1.1.1 Trial Elements", "pdf_verbatim": "5 | TESTRL | Rule for Start of Element | Char | | Rule | | | | Expresses the rule for beginning the element. | | ", "figure_ref": null, "candidates": [{"md_atom_id": "md_model05_a025", "md_file": "knowledge_base/model/05_study_level_data.md", "md_atom_type": "TABLE_ROW", "md_parent_section": "§ Trial Elements (TE)", "md_verbatim": "| 5 | TESTRL | Rule for Start of Element | Char | Rule |", "score": 0.6187, "match_basis": "verbatim_token+global_search"}, {"md_atom_id": "md_varindex_a1516", "md_file": "knowledge_base/VARIABLE_INDEX.md", "md_atom_type": "TABLE_ROW", "md_parent_section": "§ 二、领域专属变量（仅 1 个域，共 1499 个），按域分组", "md_verbatim": "| TESTRL | Rule for Start of Element | Char | Rule | Req | — |", "score": 0.6091, "match_basis": "verbatim_token+global_search"}, {"md_atom_id": "md_model03_a100", "md_file": "knowledge_base/model/03_special_purpose_domains.md", "md_atom_type": "TABLE_ROW", "md_parent_section": "§ Subject Elements (SE) > Variables (13 variables)", "md_verbatim": "| 9 | SESTDTC | Start Date/Time of Element | Char | Timing | |", "score": 0.4902, "match_basis": "verbatim_token+global_search"}, {"md_atom_id": "md_model05_a026", "md_file": "knowledge_base/model/05_study_level_data.md", "md_atom_type": "TABLE_ROW", "md_parent_section": "§ Trial Elements (TE)", "md_verbatim": "| 6 | TEENRL | Rule for End of Element | Char | Rule |", "score": 0.4622, "match_basis": "verbatim_token+global_search"}, {"md_atom_id": "md_model03_a102", "md_file": "knowledge_base/model/03_special_purpose_domains.md", "md_atom_type": "TABLE_ROW", "md_parent_section": "§ Subject Elements (SE) > Variables (13 variables)", "md_verbatim": "| 11 | SESTDY | Study Day of Start of Element | Num | Timing | |", "score": 0.4571, "match_basis": "verbatim_token+global_search"}], "candidate_count": 5, "zero_candidate": false}
{"pdf_atom_id": "sv20_p0052_a003", "pdf_atom_type": "TABLE_ROW", "pdf_source": "SDTM_v2.0", "pdf_page": 52, "pdf_parent_section": "§5.1.1.1 Trial Elements", "pdf_verbatim": "6 | TEENRL | Rule for End of Element | Char | | Rule | | | | Expresses the rule for ending the element. | Either TEENRL or TEDUR must be present for each element. | ", "figure_ref": null, "candidates": [{"md_atom_id": "md_model05_a026", "md_file": "knowledge_base/model/05_study_level_data.md", "md_atom_type": "TABLE_ROW", "md_parent_section": "§ Trial Elements (TE)", "md_verbatim": "| 6 | TEENRL | Rule for End of Element | Char | Rule |", "score": 0.5368, "match_basis": "verbatim_token+global_search"}, {"md_atom_id": "md_varindex_a1517", "md_file": "knowledge_base/VARIABLE_INDEX.md", "md_atom_type": "TABLE_ROW", "md_parent_section": "§ 二、领域专属变量（仅 1 个域，共 1499 个），按域分组", "md_verbatim": "| TEENRL | Rule for End of Element | Char | Rule | Perm | — |", "score": 0.525, "match_basis": "verbatim_token+global_search"}, {"md_atom_id": "md_dmTE_ex_a052", "md_file": "knowledge_base/domains/TE/examples.md", "md_atom_type": "TABLE_ROW", "md_parent_section": "§TE.4.3 [Transitions Between Elements]", "md_verbatim": "| 1 | Should the subject leave the current element? | The criteria for ending the current element are in TEENRL in the TE dataset. |", "score": 0.4364, "match_basis": "verbatim_token+global_search"}, {"md_atom_id": "md_model05_a025", "md_file": "knowledge_base/model/05_study_level_data.md", "md_atom_type": "TABLE_ROW", "md_parent_section": "§ Trial Elements (TE)", "md_verbatim": "| 5 | TESTRL | Rule for Start of Element | Char | Rule |", "score": 0.4333, "match_basis": "verbatim_token+global_search"}, {"md_atom_id": "md_varindex_a1516", "md_file": "knowledge_base/VARIABLE_INDEX.md", "md_atom_type": "TABLE_ROW", "md_parent_section": "§ 二、领域专属变量（仅 1 个域，共 1499 个），按域分组", "md_verbatim": "| TESTRL | Rule for Start of Element | Char | Rule | Req | — |", "score": 0.4304, "match_basis": "verbatim_token+global_search"}], "candidate_count": 5, "zero_candidate": false}
{"pdf_atom_id": "sv20_p0052_a004", "pdf_atom_type": "TABLE_ROW", "pdf_source": "SDTM_v2.0", "pdf_page": 52, "pdf_parent_section": "§5.1.1.1 Trial Elements", "pdf_verbatim": "7 | TEDUR | Planned Duration of Element | Char | ISO 8601 duration | Timing | | | | Used when the rule for ending the element is applied after a fixed duration. | | ", "figure_ref": null, "candidates": [{"md_atom_id": "md_varindex_a1518", "md_file": "knowledge_base/VARIABLE_INDEX.md", "md_atom_type": "TABLE_ROW", "md_parent_section": "§ 二、领域专属变量（仅 1 个域，共 1499 个），按域分组", "md_verbatim": "| TEDUR | Planned Duration of Element | Char | Timing | Perm | ISO 8601 duration |", "score": 0.6176, "match_basis": "verbatim_token+global_search"}, {"md_atom_id": "md_model05_a027", "md_file": "knowledge_base/model/05_study_level_data.md", "md_atom_type": "TABLE_ROW", "md_parent_section": "§ Trial Elements (TE)", "md_verbatim": "| 7 | TEDUR | Planned Duration of Element | Char | Timing |", "score": 0.5939, "match_basis": "verbatim_token+global_search"}, {"md_atom_id": "md_varindex_a789", "md_file": "knowledge_base/VARIABLE_INDEX.md", "md_atom_type": "TABLE_ROW", "md_parent_section": "§ 二、领域专属变量（仅 1 个域，共 1499 个），按域分组", "md_verbatim": "| LBPDUR | Planned Duration | Char | Timing | Perm | ISO 8601 duration |", "score": 0.5222, "match_basis": "verbatim_token+global_search"}, {"md_atom_id": "md_varindex_a1172", "md_file": "knowledge_base/VARIABLE_INDEX.md", "md_atom_type": "TABLE_ROW", "md_parent_section": "§ 二、领域专属变量（仅 1 个域，共 1499 个），按域分组", "md_verbatim": "| PPENINT | Planned End of Assessment Interval | Char | Timing | Perm | ISO 8601 duration |", "score": 0.5182, "match_basis": "verbatim_token+global_search"}, {"md_atom_id": "md_varindex_a1510", "md_file": "knowledge_base/VARIABLE_INDEX.md", "md_atom_type": "TABLE_ROW", "md_parent_section": "§ 二、领域专属变量（仅 1 个域，共 1499 个），按域分组", "md_verbatim": "| TDTGTPAI | Planned Assessment Interval | Char | Timing | Req | ISO 8601 duration |", "score": 0.506, "match_basis": "verbatim_token+global_search"}], "candidate_count": 5, "zero_candidate": false}
{"pdf_atom_id": "sv20_p0052_a005", "pdf_atom_type": "HEADING", "pdf_source": "SDTM_v2.0", "pdf_page": 52, "pdf_parent_section": "§5.1.1 Trial Arms and Trial Elements", "pdf_verbatim": "5.1.1.2 Trial Arms", "figure_ref": null, "candidates": [{"md_atom_id": "md_model05_a028", "md_file": "knowledge_base/model/05_study_level_data.md", "md_atom_type": "HEADING", "md_parent_section": "§ Trial Arms (TA)", "md_verbatim": "### Trial Arms (TA)", "score": 0.9, "match_basis": "verbatim_token+global_search"}, {"md_atom_id": "md_varindex_a1501", "md_file": "knowledge_base/VARIABLE_INDEX.md", "md_atom_type": "HEADING", "md_parent_section": "§ 二、领域专属变量（仅 1 个域，共 1499 个），按域分组", "md_verbatim": "### TA — Trial Arms (Trial Design)", "score": 0.6333, "match_basis": "verbatim_token+global_search"}, {"md_atom_id": "md_dmTA_ex_a252", "md_file": "knowledge_base/domains/TA/examples.md", "md_atom_type": "HEADING", "md_parent_section": "§TA [TA — Examples]", "md_verbatim": "## Trial Arms Issues", "score": 0.6333, "match_basis": "verbatim_token+global_search"}, {"md_atom_id": "md_model05_a044", "md_file": "knowledge_base/model/05_study_level_data.md", "md_atom_type": "HEADING", "md_parent_section": "§ Trial Sets (TX)", "md_verbatim": "### Trial Sets (TX)", "score": 0.5571, "match_basis": "verbatim_token+global_search"}, {"md_atom_id": "md_model05_a083", "md_file": "knowledge_base/model/05_study_level_data.md", "md_atom_type": "HEADING", "md_parent_section": "§ Trial Visits (TV)", "md_verbatim": "### Trial Visits (TV)", "score": 0.5, "match_basis": "verbatim_token+global_search"}, {"md_atom_id": "md_model05_a130", "md_file": "knowledge_base/model/05_study_level_data.md", "md_atom_type": "HEADING", "md_parent_section": "§ Trial Summary (TS)", "md_verbatim": "### Trial Summary (TS)", "score": 0.48, "match_basis": "verbatim_token+global_search"}, {"md_atom_id": "md_model05_a016", "md_file": "knowledge_base/model/05_study_level_data.md", "md_atom_type": "HEADING", "md_parent_section": "§ Trial Elements (TE)", "md_verbatim": "### Trial Elements (TE)", "score": 0.4636, "match_basis": "verbatim_token+global_search"}, {"md_atom_id": "md_dmTV_ex_a037", "md_file": "knowledge_base/domains/TV/examples.md", "md_atom_type": "HEADING", "md_parent_section": "§TV.2 [Trial Visits Issues]", "md_verbatim": "### Trial Visit Rules", "score": 0.4636, "match_basis": "verbatim_token+global_search"}, {"md_atom_id": "md_model05_a005", "md_file": "knowledge_base/model/05_study_level_data.md", "md_atom_type": "HEADING", "md_parent_section": "§ 5.1 Trial Design Model", "md_verbatim": "## 5.1 Trial Design Model", "score": 0.45, "match_basis": "verbatim_token+global_search"}, {"md_atom_id": "md_varindex_a1589", "md_file": "knowledge_base/VARIABLE_INDEX.md", "md_atom_type": "HEADING", "md_parent_section": "§ 二、领域专属变量（仅 1 个域，共 1499 个），按域分组", "md_verbatim": "### TV — Trial Visits (Trial Design)", "score": 0.4385, "match_basis": "verbatim_token+global_search"}], "candidate_count": 10, "zero_candidate": false}
{"pdf_atom_id": "sv20_p0052_a006", "pdf_atom_type": "SENTENCE", "pdf_source": "SDTM_v2.0", "pdf_page": 52, "pdf_parent_section": "§5.1.1.2 Trial Arms", "pdf_verbatim": "Trial Arms describes each planned arm in a trial.", "figure_ref": null, "candidates": [{"md_atom_id": "md_model05_a030", "md_file": "knowledge_base/model/05_study_level_data.md", "md_atom_type": "SENTENCE", "md_parent_section": "§ Trial Arms (TA)", "md_verbatim": "Describes each planned arm in a trial.", "score": 0.8684, "match_basis": "verbatim_token+global_search"}, {"md_atom_id": "md_model03_a126", "md_file": "knowledge_base/model/03_special_purpose_domains.md", "md_atom_type": "SENTENCE", "md_parent_section": "§ Subject Visits (SV)", "md_verbatim": "Planned trial visits are described in the Trial Design Model.", "score": 0.5625, "match_basis": "verbatim_token+global_search"}, {"md_atom_id": "md_model03_a088", "md_file": "knowledge_base/model/03_special_purpose_domains.md", "md_atom_type": "SENTENCE", "md_parent_section": "§ Subject Elements (SE)", "md_verbatim": "Planned elements are described in the Trial Design Model.", "score": 0.5471, "match_basis": "verbatim_token+global_search"}, {"md_atom_id": "md_model03_a109", "md_file": "knowledge_base/model/03_special_purpose_domains.md", "md_atom_type": "SENTENCE", "md_parent_section": "§ Subject Repro Stages", "md_verbatim": "Planned repro stages are described in the Trial Design Model.", "score": 0.54, "match_basis": "verbatim_token+global_search"}, {"md_atom_id": "md_model05_a120", "md_file": "knowledge_base/model/05_study_level_data.md", "md_atom_type": "SENTENCE", "md_parent_section": "§ Trial Inclusion/Exclusion Criteria (TI)", "md_verbatim": "Describes the inclusion and exclusion criteria for the trial.", "score": 0.4714, "match_basis": "verbatim_token+global_search"}], "candidate_count": 5, "zero_candidate": false}
{"pdf_atom_id": "sv20_p0052_a007", "pdf_atom_type": "SENTENCE", "pdf_source": "SDTM_v2.0", "pdf_page": 52, "pdf_parent_section": "§5.1.1.2 Trial Arms", "pdf_verbatim": "An arm is an ordered sequence of elements; the same element may occur more than once in a given arm.", "figure_ref": null, "candidates": [{"md_atom_id": "md_model05_a031", "md_file": "knowledge_base/model/05_study_level_data.md", "md_atom_type": "SENTENCE", "md_parent_section": "§ Trial Arms (TA)", "md_verbatim": "An arm is an ordered sequence of elements; the same element may occur more than once in a given arm.", "score": 0.9, "match_basis": "verbatim_token+global_search"}, {"md_atom_id": "md_dmTV_ex_a041", "md_file": "knowledge_base/domains/TV/examples.md", "md_atom_type": "SENTENCE", "md_parent_section": "§TV.2.2 [Trial Visit Rules]", "md_verbatim": "Note that the visit may or may not occur during the element used as the reference for the visit start rule.", "score": 0.4527, "match_basis": "verbatim_token+global_search"}, {"md_atom_id": "md_dmTA_ex_a188", "md_file": "knowledge_base/domains/TA/examples.md", "md_atom_type": "SENTENCE", "md_parent_section": "§TA.6 [Example 6]", "md_verbatim": "Because the treatment epoch for arm A has more elements than arm B, TAETORD is 10 for the follow-up element in arm A, but 8 for follow-up in arm B.", "score": 0.4368, "match_basis": "verbatim_token+global_search"}, {"md_atom_id": "md_dmTA_ex_a003", "md_file": "knowledge_base/domains/TA/examples.md", "md_atom_type": "SENTENCE", "md_parent_section": "§TA [TA — Examples]", "md_verbatim": "For each arm of the trial, the TA dataset contains 1 record for each occurrence of an element in the path of the arm.", "score": 0.4345, "match_basis": "verbatim_token+global_search"}, {"md_atom_id": "md_dmTV_ex_a029", "md_file": "knowledge_base/domains/TV/examples.md", "md_atom_type": "SENTENCE", "md_parent_section": "§TV.1 [Example 1]", "md_verbatim": "When an arm includes repetitions of the same element, it may be necessary to use TAETORD as well as an element name to specify when a visit is to occur.", "score": 0.4151, "match_basis": "verbatim_token+global_search"}], "candidate_count": 5, "zero_candidate": false}
{"pdf_atom_id": "sv20_p0052_a008", "pdf_atom_type": "SENTENCE", "pdf_source": "SDTM_v2.0", "pdf_page": 52, "pdf_parent_section": "§5.1.1.2 Trial Arms", "pdf_verbatim": "In order to accommodate complex trial designs, this dataset allows for rules for branching from one element to another when a choice is available, and a rule for transitions to allow a subject to skip ahead to another element rather than proceed linearly.", "figure_ref": null, "candidates": [{"md_atom_id": "md_model05_a032", "md_file": "knowledge_base/model/05_study_level_data.md", "md_atom_type": "SENTENCE", "md_parent_section": "§ Trial Arms (TA)", "md_verbatim": "This dataset allows for rules for branching and transitions.", "score": 0.4771, "match_basis": "verbatim_token+global_search"}, {"md_atom_id": "md_dmTE_ex_a025", "md_file": "knowledge_base/domains/TE/examples.md", "md_atom_type": "SENTENCE", "md_parent_section": "§TE.3 [Example 3]", "md_verbatim": "The TE dataset for TA Example Trial 4 illustrates element end rules for elements that are not all of fixed duration.", "score": 0.4355, "match_basis": "verbatim_token+global_search"}, {"md_atom_id": "md_dmTA_ex_a004", "md_file": "knowledge_base/domains/TA/examples.md", "md_atom_type": "SENTENCE", "md_parent_section": "§TA [TA — Examples]", "md_verbatim": "Although the TA dataset has 1 record for each trial element traversed by subjects assigned to an arm, it is generally more useful to work out the overall design of the trial at the study cell level first, then to work out the elements within each study cell, and finally to develop the definitions of the elements that are contained in the Trial Elements (TE) table.", "score": 0.4322, "match_basis": "verbatim_token+global_search"}, {"md_atom_id": "md_dmSE_ex_a009", "md_file": "knowledge_base/domains/SE/examples.md", "md_atom_type": "SENTENCE", "md_parent_section": "§SE.1 [Example 1]", "md_verbatim": "**Rows 5-8:** Subject 790 was treated incorrectly. This subject entered the IV element before the ORAL element, although the planned order of elements for this subject was ORAL, then IV. The sponsor has assigned EPOCH values for this subject according to the actual order of elements, rather than the planned order. Per Assumption 6, TAETORD is missing for the elements that were out of order. The correct order of elements is the subject's ARMCD, shown in the DM dataset.", "score": 0.4239, "match_basis": "verbatim_token+global_search"}, {"md_atom_id": "md_dmDM_ex_a045", "md_file": "knowledge_base/domains/DM/examples.md", "md_atom_type": "SENTENCE", "md_parent_section": "§DM.3 [Example 3]", "md_verbatim": "**Row 2:** Subject 002 was randomized to drug A. They were lost to follow-up during the double-blind treatment epoch, so never reached the open label epoch, when they would have been assigned to either drug A or the rescue element. Their ARMCD is \"A\". This case illustrates the exception to the rule that ARMCD, ARM, ACTARMCD, and ACTARM must be populated with values from the TA dataset.", "score": 0.423, "match_basis": "verbatim_token+global_search"}], "candidate_count": 5, "zero_candidate": false}
{"pdf_atom_id": "sv20_p0052_a009", "pdf_atom_type": "SENTENCE", "pdf_source": "SDTM_v2.0", "pdf_page": 52, "pdf_parent_section": "§5.1.1.2 Trial Arms", "pdf_verbatim": "Note that although the same element may occur more than once within an arm, each occurrence would have a different value for TAETORD and EPOCH, and may have different values for TABRANCH and TATRANS.", "figure_ref": null, "candidates": [{"md_atom_id": "md_model05_a031", "md_file": "knowledge_base/model/05_study_level_data.md", "md_atom_type": "SENTENCE", "md_parent_section": "§ Trial Arms (TA)", "md_verbatim": "An arm is an ordered sequence of elements; the same element may occur more than once in a given arm.", "score": 0.459, "match_basis": "verbatim_token+global_search"}, {"md_atom_id": "md_dmTV_ex_a028", "md_file": "knowledge_base/domains/TV/examples.md", "md_atom_type": "SENTENCE", "md_parent_section": "§TV.1 [Example 1]", "md_verbatim": "Although the start and end rules in this example reference the starts and ends of epochs, the start and end rules of some visits for trials with epochs that span multiple elements will need to reference elements rather than epochs.", "score": 0.4461, "match_basis": "verbatim_token+global_search"}, {"md_atom_id": "md_dmCE_ex_a024", "md_file": "knowledge_base/domains/CE/examples.md", "md_atom_type": "SENTENCE", "md_parent_section": "§CE.2 [Example 2]", "md_verbatim": "Although this example CRF shows only 1 row for each symptom, if a symptom occurred more than once, data would be collected for each time it occurred.", "score": 0.4412, "match_basis": "verbatim_token+global_search"}, {"md_atom_id": "md_dmTV_ex_a041", "md_file": "knowledge_base/domains/TV/examples.md", "md_atom_type": "SENTENCE", "md_parent_section": "§TV.2.2 [Trial Visit Rules]", "md_verbatim": "Note that the visit may or may not occur during the element used as the reference for the visit start rule.", "score": 0.4364, "match_basis": "verbatim_token+global_search"}, {"md_atom_id": "md_dmTA_ex_a188", "md_file": "knowledge_base/domains/TA/examples.md", "md_atom_type": "SENTENCE", "md_parent_section": "§TA.6 [Example 6]", "md_verbatim": "Because the treatment epoch for arm A has more elements than arm B, TAETORD is 10 for the follow-up element in arm A, but 8 for follow-up in arm B.", "score": 0.4348, "match_basis": "verbatim_token+global_search"}], "candidate_count": 5, "zero_candidate": false}
{"pdf_atom_id": "sv20_p0052_a010", "pdf_atom_type": "HEADING", "pdf_source": "SDTM_v2.0", "pdf_page": 52, "pdf_parent_section": "§5.1.1.2 Trial Arms", "pdf_verbatim": "Trial Arms—One Record per Planned Element per Arm", "figure_ref": null, "candidates": [{"md_atom_id": "md_model05_a016", "md_file": "knowledge_base/model/05_study_level_data.md", "md_atom_type": "HEADING", "md_parent_section": "§ Trial Elements (TE)", "md_verbatim": "### Trial Elements (TE)", "score": 0.5182, "match_basis": "verbatim_token+global_search"}, {"md_atom_id": "md_varindex_a1514", "md_file": "knowledge_base/VARIABLE_INDEX.md", "md_atom_type": "HEADING", "md_parent_section": "§ 二、领域专属变量（仅 1 个域，共 1499 个），按域分组", "md_verbatim": "### TE — Trial Elements (Trial Design)", "score": 0.4846, "match_basis": "verbatim_token+global_search"}, {"md_atom_id": "md_dmTE_ex_a036", "md_file": "knowledge_base/domains/TE/examples.md", "md_atom_type": "HEADING", "md_parent_section": "§TE [TE — Examples]", "md_verbatim": "## Trial Elements Issues", "score": 0.4846, "match_basis": "verbatim_token+global_search"}, {"md_atom_id": "md_dmTE_ex_a037", "md_file": "knowledge_base/domains/TE/examples.md", "md_atom_type": "HEADING", "md_parent_section": "§TE.4 [Trial Elements Issues]", "md_verbatim": "### Granularity of Trial Elements", "score": 0.4548, "match_basis": "verbatim_token+global_search"}, {"md_atom_id": "md_model05_a028", "md_file": "knowledge_base/model/05_study_level_data.md", "md_atom_type": "HEADING", "md_parent_section": "§ Trial Arms (TA)", "md_verbatim": "### Trial Arms (TA)", "score": 0.4429, "match_basis": "verbatim_token+global_search"}], "candidate_count": 5, "zero_candidate": false}
{"pdf_atom_id": "sv20_p0052_a011", "pdf_atom_type": "TABLE_HEADER", "pdf_source": "SDTM_v2.0", "pdf_page": 52, "pdf_parent_section": "§5.1.1.2 Trial Arms", "pdf_verbatim": "# | Variable Name | Variable Label | Type | Format | Role | Variable(s) Qualified | Usage Restrictions | Variable C-code | Definition | Notes | Examples", "figure_ref": null, "candidates": [{"md_atom_id": "md_model02_a195", "md_file": "knowledge_base/model/02_observation_classes.md", "md_atom_type": "TABLE_HEADER", "md_parent_section": "§3.1.5 > Date/Time Variables", "md_verbatim": "| # | Variable | Label | Type | Format | Notes |\n|---|----------|-------|------|--------|-------|", "score": 0.4929, "match_basis": "verbatim_token+global_search"}, {"md_atom_id": "md_ch08_a072", "md_file": "knowledge_base/chapters/ch08_relationships.md", "md_atom_type": "TABLE_HEADER", "md_parent_section": "§8.2.1 [Related Records (RELREC)]", "md_verbatim": "| Variable Name | Variable Label | Type | Controlled Terms, Codelist or Format | Role | CDISC Notes | Core |\n|--------------|----------------|------|--------------------------------------|------|-------------|------|", "score": 0.492, "match_basis": "verbatim_token+global_search"}, {"md_atom_id": "md_ch08_a157", "md_file": "knowledge_base/chapters/ch08_relationships.md", "md_atom_type": "TABLE_HEADER", "md_parent_section": "§8.4.1 [Supplemental Qualifiers (SUPP--)]", "md_verbatim": "| Variable Name | Variable Label | Type | Controlled Terms, Codelist or Format | Role | CDISC Notes | Core |\n|--------------|----------------|------|--------------------------------------|------|-------------|------|", "score": 0.492, "match_basis": "verbatim_token+global_search"}, {"md_atom_id": "md_ch08_a320", "md_file": "knowledge_base/chapters/ch08_relationships.md", "md_atom_type": "TABLE_HEADER", "md_parent_section": "§8.8 [Related Specimens (RELSPEC)]", "md_verbatim": "| Variable Name | Variable Label | Type | Controlled Terms, Codelist or Format | Role | CDISC Notes | Core |\n|--------------|----------------|------|--------------------------------------|------|-------------|------|", "score": 0.492, "match_basis": "verbatim_token+global_search"}, {"md_atom_id": "md_model04_a018", "md_file": "knowledge_base/model/04_associated_persons.md", "md_atom_type": "TABLE_HEADER", "md_parent_section": "§4 [SDTM v2.0 — Chapter 4: Associated Persons Data]", "md_verbatim": "| Variable | Label | Type | Role | Notes |\n|----------|-------|------|------|-------|", "score": 0.4714, "match_basis": "verbatim_token+global_search"}], "candidate_count": 5, "zero_candidate": false}
{"pdf_atom_id": "sv20_p0052_a012", "pdf_atom_type": "TABLE_ROW", "pdf_source": "SDTM_v2.0", "pdf_page": 52, "pdf_parent_section": "§5.1.1.2 Trial Arms", "pdf_verbatim": "1 | STUDYID | Study Identifier | Char | | Identifier | | | C83082 | A sequence of characters used by the sponsor to uniquely identify the study. | | ", "figure_ref": null, "candidates": [{"md_atom_id": "md_ch08_a073", "md_file": "knowledge_base/chapters/ch08_relationships.md", "md_atom_type": "TABLE_ROW", "md_parent_section": "§8.2.1 [Related Records (RELREC)]", "md_verbatim": "| STUDYID | Study Identifier | Char | | Identifier | Unique identifier for a study. | Req |", "score": 0.5426, "match_basis": "verbatim_token+global_search"}, {"md_atom_id": "md_ch08_a321", "md_file": "knowledge_base/chapters/ch08_relationships.md", "md_atom_type": "TABLE_ROW", "md_parent_section": "§8.8 [Related Specimens (RELSPEC)]", "md_verbatim": "| STUDYID | Study Identifier | Char | | Identifier | Unique identifier for a study. | Req |", "score": 0.5426, "match_basis": "verbatim_token+global_search"}, {"md_atom_id": "md_model02_a173", "md_file": "knowledge_base/model/02_observation_classes.md", "md_atom_type": "TABLE_ROW", "md_parent_section": "§3.1.4 Identifiers for All Classes", "md_verbatim": "| 9 | --SEQ | Sequence Number | Num | Identifier | Unique within STUDYID, USUBJID, and DOMAIN |", "score": 0.5095, "match_basis": "verbatim_token+global_search"}, {"md_atom_id": "md_model06_a019", "md_file": "knowledge_base/model/06_relationship_datasets.md", "md_atom_type": "TABLE_ROW", "md_parent_section": "§6.1 Related Records (RELREC)", "md_verbatim": "| 1 | STUDYID | Study Identifier | Char | Identifier | |", "score": 0.5, "match_basis": "verbatim_token+global_search"}, {"md_atom_id": "md_model06_a040", "md_file": "knowledge_base/model/06_relationship_datasets.md", "md_atom_type": "TABLE_ROW", "md_parent_section": "§6.2 Supplemental Qualifiers (SUPP--)", "md_verbatim": "| 1 | STUDYID | Study Identifier | Char | Identifier | |", "score": 0.5, "match_basis": "verbatim_token+global_search"}], "candidate_count": 5, "zero_candidate": false}
{"pdf_atom_id": "sv20_p0052_a013", "pdf_atom_type": "TABLE_ROW", "pdf_source": "SDTM_v2.0", "pdf_page": 52, "pdf_parent_section": "§5.1.1.2 Trial Arms", "pdf_verbatim": "2 | DOMAIN | Domain Abbreviation | Char | | Identifier | | | C49558 | An abbreviation for a collection of observations, with a topic-specific commonality. | 2-character abbreviation, which must be \"TA\". | ", "figure_ref": null, "candidates": [{"md_atom_id": "md_ch10_a023", "md_file": "knowledge_base/chapters/ch10_appendices.md", "md_atom_type": "TABLE_ROW", "md_parent_section": "§10.B [Glossary and Abbreviations]", "md_verbatim": "| Domain | A collection of observations with a topic-specific commonality |", "score": 0.638, "match_basis": "verbatim_token+global_search"}, {"md_atom_id": "md_model02_a166", "md_file": "knowledge_base/model/02_observation_classes.md", "md_atom_type": "TABLE_ROW", "md_parent_section": "§3.1.4 Identifiers for All Classes", "md_verbatim": "| 2 | DOMAIN | Domain Abbreviation | Char | Identifier | Two-character abbreviation for the domain |", "score": 0.5466, "match_basis": "verbatim_token+global_search"}, {"md_atom_id": "md_model06_a020", "md_file": "knowledge_base/model/06_relationship_datasets.md", "md_atom_type": "TABLE_ROW", "md_parent_section": "§6.1 Related Records (RELREC)", "md_verbatim": "| 2 | RDOMAIN | Related Domain Abbreviation | Char | Identifier | 2-character abbreviation for the domain of the parent record(s) |", "score": 0.5118, "match_basis": "verbatim_token+global_search"}, {"md_atom_id": "md_model06_a041", "md_file": "knowledge_base/model/06_relationship_datasets.md", "md_atom_type": "TABLE_ROW", "md_parent_section": "§6.2 Supplemental Qualifiers (SUPP--)", "md_verbatim": "| 2 | RDOMAIN | Related Domain Abbreviation | Char | Identifier | 2-character abbreviation for the domain of the parent record(s) |", "score": 0.5118, "match_basis": "verbatim_token+global_search"}, {"md_atom_id": "md_ch08_a159", "md_file": "knowledge_base/chapters/ch08_relationships.md", "md_atom_type": "TABLE_ROW", "md_parent_section": "§8.4.1 [Supplemental Qualifiers (SUPP--)]", "md_verbatim": "| RDOMAIN | Related Domain Abbreviation | Char | (DOMAIN) | Identifier | Two-character abbreviation for the domain of the parent record(s). | Req |", "score": 0.5069, "match_basis": "verbatim_token+global_search"}], "candidate_count": 5, "zero_candidate": false}
{"pdf_atom_id": "sv20_p0052_a014", "pdf_atom_type": "TABLE_ROW", "pdf_source": "SDTM_v2.0", "pdf_page": 52, "pdf_parent_section": "§5.1.1.2 Trial Arms", "pdf_verbatim": "3 | ARMCD | Planned Arm Code | Char | | Topic | | | C83216 | A short sequence of characters that represents the planned arm to which the subject was assigned. | ARMCD is limited to 20 characters and does not have special character restrictions. | ", "figure_ref": null, "candidates": [{"md_atom_id": "md_model02_a031", "md_file": "knowledge_base/model/02_observation_classes.md", "md_atom_type": "TABLE_ROW", "md_parent_section": "§3.1.1 > Topic and Qualifier Variables (43 variables)", "md_verbatim": "| 16 | --CLASCD | Class Code | Char | Variable Qualifier (--TRT) | Short sequence of characters to represent --CLAS |", "score": 0.4588, "match_basis": "verbatim_token+global_search"}, {"md_atom_id": "md_varindex_a1371", "md_file": "knowledge_base/VARIABLE_INDEX.md", "md_atom_type": "TABLE_ROW", "md_parent_section": "§ 二、领域专属变量（仅 1 个域，共 1499 个），按域分组", "md_verbatim": "| SCTESTCD | Subject Characteristic Short Name | Char | Topic | Req | C74559 |", "score": 0.414, "match_basis": "verbatim_token+global_search"}, {"md_atom_id": "md_dmTE_ex_a054", "md_file": "knowledge_base/domains/TE/examples.md", "md_atom_type": "TABLE_ROW", "md_parent_section": "§TE.4.3 [Transitions Between Elements]", "md_verbatim": "| 3 | What does the subject do to enter the next element? | The action or event that marks the start of the next element is specified in TESTRL in the TE dataset. |", "score": 0.4135, "match_basis": "verbatim_token+global_search"}, {"md_atom_id": "md_model05_a036", "md_file": "knowledge_base/model/05_study_level_data.md", "md_atom_type": "TABLE_ROW", "md_parent_section": "§ Trial Arms (TA)", "md_verbatim": "| 3 | ARMCD | Planned Arm Code | Char | Topic |", "score": 0.4071, "match_basis": "verbatim_token+global_search"}, {"md_atom_id": "md_model02_a168", "md_file": "knowledge_base/model/02_observation_classes.md", "md_atom_type": "TABLE_ROW", "md_parent_section": "§3.1.4 Identifiers for All Classes", "md_verbatim": "| 4 | POOLID | Pool Identifier | Char | Identifier | Used for results that are not assignable to a specific subject |", "score": 0.4046, "match_basis": "verbatim_token+global_search"}], "candidate_count": 5, "zero_candidate": false}
{"pdf_atom_id": "sv20_p0052_a015", "pdf_atom_type": "TABLE_ROW", "pdf_source": "SDTM_v2.0", "pdf_page": 52, "pdf_parent_section": "§5.1.1.2 Trial Arms", "pdf_verbatim": "4 | ARM | Description of Planned Arm | Char | | Synonym Qualifier | ARMCD | | C170984 | The name of the planned arm to which the subject was assigned. | | ", "figure_ref": null, "candidates": [{"md_atom_id": "md_model03_a043", "md_file": "knowledge_base/model/03_special_purpose_domains.md", "md_atom_type": "TABLE_ROW", "md_parent_section": "§ Demographics (DM) > Variables (38 variables)", "md_verbatim": "| 29 | ARM | Description of Planned Arm | Char | Synonym Qualifier (ARMCD) | |", "score": 0.6509, "match_basis": "verbatim_token+global_search"}, {"md_atom_id": "md_model05_a037", "md_file": "knowledge_base/model/05_study_level_data.md", "md_atom_type": "TABLE_ROW", "md_parent_section": "§ Trial Arms (TA)", "md_verbatim": "| 4 | ARM | Description of Planned Arm | Char | Synonym Qualifier |", "score": 0.6283, "match_basis": "verbatim_token+global_search"}, {"md_atom_id": "md_model05_a093", "md_file": "knowledge_base/model/05_study_level_data.md", "md_atom_type": "TABLE_ROW", "md_parent_section": "§ Trial Visits (TV)", "md_verbatim": "| 7 | ARM | Description of Planned Arm | Char | Synonym Qualifier |", "score": 0.6283, "match_basis": "verbatim_token+global_search"}, {"md_atom_id": "md_varindex_a021", "md_file": "knowledge_base/VARIABLE_INDEX.md", "md_atom_type": "TABLE_ROW", "md_parent_section": "§ 一、通用变量（出现在 2+ 个域，共 24 个）", "md_verbatim": "| ARM | 3 | DM, TA, TV | Description of Planned Arm | Char | Synonym Qualifier | Exp* |", "score": 0.6222, "match_basis": "verbatim_token+global_search"}, {"md_atom_id": "md_varindex_a1391", "md_file": "knowledge_base/VARIABLE_INDEX.md", "md_atom_type": "TABLE_ROW", "md_parent_section": "§ 二、领域专属变量（仅 1 个域，共 1499 个），按域分组", "md_verbatim": "| SEUPDES | Description of Unplanned Element | Char | Synonym Qualifier | Perm | — |", "score": 0.5545, "match_basis": "verbatim_token+global_search"}], "candidate_count": 5, "zero_candidate": false}
{"pdf_atom_id": "sv20_p0052_a016", "pdf_atom_type": "TABLE_ROW", "pdf_source": "SDTM_v2.0", "pdf_page": 52, "pdf_parent_section": "§5.1.1.2 Trial Arms", "pdf_verbatim": "5 | TAETORD | Planned Order of Element within Arm | Num | | Timing | | | C83438 | An assigned numeric identifier that gives the planned order of the element within the trial arm of the study. | | ", "figure_ref": null, "candidates": [{"md_atom_id": "md_model03_a098", "md_file": "knowledge_base/model/03_special_purpose_domains.md", "md_atom_type": "TABLE_ROW", "md_parent_section": "§ Subject Elements (SE) > Variables (13 variables)", "md_verbatim": "| 7 | TAETORD | Planned Order of Element within Arm | Num | Timing | C83438 |", "score": 0.6153, "match_basis": "verbatim_token+global_search"}, {"md_atom_id": "md_model05_a038", "md_file": "knowledge_base/model/05_study_level_data.md", "md_atom_type": "TABLE_ROW", "md_parent_section": "§ Trial Arms (TA)", "md_verbatim": "| 5 | TAETORD | Planned Order of Element within Arm | Num | Timing |", "score": 0.5746, "match_basis": "verbatim_token+global_search"}, {"md_atom_id": "md_varindex_a015", "md_file": "knowledge_base/VARIABLE_INDEX.md", "md_atom_type": "TABLE_ROW", "md_parent_section": "§ 一、通用变量（出现在 2+ 个域，共 24 个）", "md_verbatim": "| TAETORD | 43 | AE, AG, CE, CM, CP, CV, DA, DV, EC, EG, EX, FA, FT, HO, IE, IS, LB, MB, MH, MI, MK, ML, MS, NV, OE, PC, PE, PP, PR, QS, RE, RP, RS, SC, SE, SR, SS, SU, TA, TR, TU, UR, VS | Planned Order of Element within Arm | Num | Timing | Perm* |", "score": 0.5656, "match_basis": "verbatim_token+global_search"}, {"md_atom_id": "md_model02_a188", "md_file": "knowledge_base/model/02_observation_classes.md", "md_atom_type": "TABLE_ROW", "md_parent_section": "§3.1.5 > Visit and Epoch Variables", "md_verbatim": "| 4 | TAETORD | Planned Order of Element Within Arm | Num | Value for the element within the subject's assigned arm |", "score": 0.5559, "match_basis": "verbatim_token+global_search"}, {"md_atom_id": "md_ch03_a076", "md_file": "knowledge_base/chapters/ch03_submitting_data.md", "md_atom_type": "TABLE_ROW", "md_parent_section": "§3.2.1 [Dataset-level Metadata]", "md_verbatim": "| TA | Trial Arms | Trial Design | One record per planned Element per Arm | Tabulation | STUDYID, ARMCD, TAETORD | ta.xpt |", "score": 0.48, "match_basis": "verbatim_token+global_search"}], "candidate_count": 5, "zero_candidate": false}
{"pdf_atom_id": "sv20_p0052_a017", "pdf_atom_type": "TABLE_ROW", "pdf_source": "SDTM_v2.0", "pdf_page": 52, "pdf_parent_section": "§5.1.1.2 Trial Arms", "pdf_verbatim": "6 | ETCD | Element Code | Char | | Record Qualifier | | | | | ETCD (the companion to ELEMENT) is limited to 8 characters and does not have special character restrictions. These values should be short for ease of use in programming, but it is not expected that ETCD will need to serve as a variable name. | ", "figure_ref": null, "candidates": [{"md_atom_id": "md_ch04_a178", "md_file": "knowledge_base/chapters/ch04_general_assumptions.md", "md_atom_type": "LIST_ITEM", "md_parent_section": "§4.2.1 [Variable-Naming Conventions]", "md_verbatim": "- ETCD (the companion to ELEMENT) and TSPARMCD (the companion to TSPARM) are limited to 8 characters and do not have the character restrictions that apply to --TESTCD. These values should be short for ease of use in programming, but it is not expected that they will need to serve as variable names.", "score": 0.5564, "match_basis": "verbatim_token+global_search"}, {"md_atom_id": "md_model06_a048", "md_file": "knowledge_base/model/06_relationship_datasets.md", "md_atom_type": "TABLE_ROW", "md_parent_section": "§6.2 Supplemental Qualifiers (SUPP--)", "md_verbatim": "| 9 | QNAM | Qualifier Variable Name | Char | Topic | 8-character name for the supplemental qualifier |", "score": 0.4436, "match_basis": "verbatim_token+global_search"}, {"md_atom_id": "md_model02_a031", "md_file": "knowledge_base/model/02_observation_classes.md", "md_atom_type": "TABLE_ROW", "md_parent_section": "§3.1.1 > Topic and Qualifier Variables (43 variables)", "md_verbatim": "| 16 | --CLASCD | Class Code | Char | Variable Qualifier (--TRT) | Short sequence of characters to represent --CLAS |", "score": 0.4415, "match_basis": "verbatim_token+global_search"}, {"md_atom_id": "md_model06_a028", "md_file": "knowledge_base/model/06_relationship_datasets.md", "md_atom_type": "TABLE_ROW", "md_parent_section": "§6.1 Related Records (RELREC)", "md_verbatim": "| 10 | RELID | Relationship Identifier | Char | Record Qualifier | RELID value should be unique within the ID variable (e.g., USUBJID, APID, POOLID, SPDEVID) that is the subject of the relationship |", "score": 0.4407, "match_basis": "verbatim_token+global_search"}, {"md_atom_id": "md_ch08_a163", "md_file": "knowledge_base/chapters/ch08_relationships.md", "md_atom_type": "TABLE_ROW", "md_parent_section": "§8.4.1 [Supplemental Qualifiers (SUPP--)]", "md_verbatim": "| QNAM | Qualifier Variable Name | Char | * | Topic | The short name of the qualifier variable, which is used as a column name in a domain view with data from the parent domain. The value in QNAM cannot be longer than 8 characters, nor can it start with a number (e.g., \"1TEST\" is not valid). QNAM cannot contain characters other than letters, numbers, or underscores. This will often be the column name in the sponsor's operational dataset. | Req |", "score": 0.438, "match_basis": "verbatim_token+global_search"}], "candidate_count": 5, "zero_candidate": false}
{"pdf_atom_id": "sv20_p0053_a001", "pdf_atom_type": "TABLE_ROW", "pdf_source": "SDTM_v2.0", "pdf_page": 53, "pdf_parent_section": "§5.1.1.2 Trial Arms", "pdf_verbatim": "7 | ELEMENT | Description of Element | Char | | Synonym Qualifier | ETCD | | | The name of the element. | | ", "figure_ref": null, "candidates": [{"md_atom_id": "md_model03_a097", "md_file": "knowledge_base/model/03_special_purpose_domains.md", "md_atom_type": "TABLE_ROW", "md_parent_section": "§ Subject Elements (SE) > Variables (13 variables)", "md_verbatim": "| 6 | ELEMENT | Description of Element | Char | Synonym Qualifier (ETCD) | |", "score": 0.8455, "match_basis": "verbatim_token+global_search"}, {"md_atom_id": "md_model05_a024", "md_file": "knowledge_base/model/05_study_level_data.md", "md_atom_type": "TABLE_ROW", "md_parent_section": "§ Trial Elements (TE)", "md_verbatim": "| 4 | ELEMENT | Description of Element | Char | Synonym Qualifier |", "score": 0.8091, "match_basis": "verbatim_token+global_search"}, {"md_atom_id": "md_model05_a040", "md_file": "knowledge_base/model/05_study_level_data.md", "md_atom_type": "TABLE_ROW", "md_parent_section": "§ Trial Arms (TA)", "md_verbatim": "| 7 | ELEMENT | Description of Element | Char | Synonym Qualifier |", "score": 0.8091, "match_basis": "verbatim_token+global_search"}, {"md_atom_id": "md_varindex_a023", "md_file": "knowledge_base/VARIABLE_INDEX.md", "md_atom_type": "TABLE_ROW", "md_parent_section": "§ 一、通用变量（出现在 2+ 个域，共 24 个）", "md_verbatim": "| ELEMENT | 3 | SE, TA, TE | Description of Element | Char | Synonym Qualifier | Perm* |", "score": 0.78, "match_basis": "verbatim_token+global_search"}, {"md_atom_id": "md_model05_a051", "md_file": "knowledge_base/model/05_study_level_data.md", "md_atom_type": "TABLE_ROW", "md_parent_section": "§ Trial Sets (TX)", "md_verbatim": "| 4 | SET | Set Description | Char | Synonym Qualifier (SETCD) |", "score": 0.7412, "match_basis": "verbatim_token+global_search"}], "candidate_count": 5, "zero_candidate": false}
{"pdf_atom_id": "sv20_p0053_a002", "pdf_atom_type": "TABLE_ROW", "pdf_source": "SDTM_v2.0", "pdf_page": 53, "pdf_parent_section": "§5.1.1.2 Trial Arms", "pdf_verbatim": "8 | TABRANCH | Branch | Char | | Rule | | | | Condition subjects meet, at a \"branch\" in the trial design at the end of this element, to be included in this arm. | | \"Randomization to DRUG X\"", "figure_ref": null, "candidates": [{"md_atom_id": "md_dmTE_ex_a053", "md_file": "knowledge_base/domains/TE/examples.md", "md_atom_type": "TABLE_ROW", "md_parent_section": "§TE.4.3 [Transitions Between Elements]", "md_verbatim": "| 2 | Which element should the subject enter next? | If there is a branch at this point in the trial, evaluate criteria described in TABRANCH (e.g., randomization results) in the TA dataset. Otherwise, if TATRANS in the TA dataset is populated in this arm at this point, follow those instructions. Otherwise, move to the next element in this arm as specified by TAETORD in the TA dataset. |", "score": 0.4427, "match_basis": "verbatim_token+global_search"}, {"md_atom_id": "md_ch03_a076", "md_file": "knowledge_base/chapters/ch03_submitting_data.md", "md_atom_type": "TABLE_ROW", "md_parent_section": "§3.2.1 [Dataset-level Metadata]", "md_verbatim": "| TA | Trial Arms | Trial Design | One record per planned Element per Arm | Tabulation | STUDYID, ARMCD, TAETORD | ta.xpt |", "score": 0.4186, "match_basis": "verbatim_token+global_search"}, {"md_atom_id": "md_ch02_a058", "md_file": "knowledge_base/chapters/ch02_fundamentals.md", "md_atom_type": "TABLE_ROW", "md_parent_section": "§2.4 [Datasets Other than General Observation Class Domains]", "md_verbatim": "| **Trial Design Model (TDM)** | Study design information, not subject data | TA, TE | Section 7 |", "score": 0.4184, "match_basis": "verbatim_token+global_search"}, {"md_atom_id": "md_ch03_a078", "md_file": "knowledge_base/chapters/ch03_submitting_data.md", "md_atom_type": "TABLE_ROW", "md_parent_section": "§3.2.1 [Dataset-level Metadata]", "md_verbatim": "| TE | Trial Elements | Trial Design | One record per planned Element | Tabulation | STUDYID, ETCD | te.xpt |", "score": 0.4171, "match_basis": "verbatim_token+global_search"}, {"md_atom_id": "md_ch10_a191", "md_file": "knowledge_base/chapters/ch10_appendices.md", "md_atom_type": "TABLE_ROW", "md_parent_section": "§10.E [Revision History]", "md_verbatim": "| 5.3 | Subject Elements (SE) | Added SESTDY and SEENDY |", "score": 0.4147, "match_basis": "verbatim_token+global_search"}], "candidate_count": 5, "zero_candidate": false}
{"pdf_atom_id": "sv20_p0053_a003", "pdf_atom_type": "TABLE_ROW", "pdf_source": "SDTM_v2.0", "pdf_page": 53, "pdf_parent_section": "§5.1.1.2 Trial Arms", "pdf_verbatim": "9 | TATRANS | Transition Rule | Char | | Rule | | | | If the trial design allows a subject to transition to an element other than the next element in sequence, then the conditions for transitioning to those other elements, and the alternative element sequences, are specified in this rule. | | \"Responders go to washout\"", "figure_ref": null, "candidates": [{"md_atom_id": "md_dmTE_ex_a053", "md_file": "knowledge_base/domains/TE/examples.md", "md_atom_type": "TABLE_ROW", "md_parent_section": "§TE.4.3 [Transitions Between Elements]", "md_verbatim": "| 2 | Which element should the subject enter next? | If there is a branch at this point in the trial, evaluate criteria described in TABRANCH (e.g., randomization results) in the TA dataset. Otherwise, if TATRANS in the TA dataset is populated in this arm at this point, follow those instructions. Otherwise, move to the next element in this arm as specified by TAETORD in the TA dataset. |", "score": 0.4689, "match_basis": "verbatim_token+global_search"}, {"md_atom_id": "md_dmTE_ex_a054", "md_file": "knowledge_base/domains/TE/examples.md", "md_atom_type": "TABLE_ROW", "md_parent_section": "§TE.4.3 [Transitions Between Elements]", "md_verbatim": "| 3 | What does the subject do to enter the next element? | The action or event that marks the start of the next element is specified in TESTRL in the TE dataset. |", "score": 0.421, "match_basis": "verbatim_token+global_search"}, {"md_atom_id": "md_model02_a168", "md_file": "knowledge_base/model/02_observation_classes.md", "md_atom_type": "TABLE_ROW", "md_parent_section": "§3.1.4 Identifiers for All Classes", "md_verbatim": "| 4 | POOLID | Pool Identifier | Char | Identifier | Used for results that are not assignable to a specific subject |", "score": 0.4008, "match_basis": "verbatim_token+global_search"}, {"md_atom_id": "md_index_a032", "md_file": "knowledge_base/INDEX.md", "md_atom_type": "TABLE_ROW", "md_parent_section": "§ Domains (63 domains)", "md_verbatim": "| [SE](domains/SE/) | Subject Elements | Special Purpose | [spec](domains/SE/spec.md) · [assumptions](domains/SE/assumptions.md) · [examples](domains/SE/examples.md) |", "score": 0.3974, "match_basis": "verbatim_token+global_search"}, {"md_atom_id": "md_dmTE_ex_a052", "md_file": "knowledge_base/domains/TE/examples.md", "md_atom_type": "TABLE_ROW", "md_parent_section": "§TE.4.3 [Transitions Between Elements]", "md_verbatim": "| 1 | Should the subject leave the current element? | The criteria for ending the current element are in TEENRL in the TE dataset. |", "score": 0.3958, "match_basis": "verbatim_token+global_search"}], "candidate_count": 5, "zero_candidate": false}
{"pdf_atom_id": "sv20_p0053_a004", "pdf_atom_type": "TABLE_ROW", "pdf_source": "SDTM_v2.0", "pdf_page": 53, "pdf_parent_section": "§5.1.1.2 Trial Arms", "pdf_verbatim": "10 | EPOCH | Epoch | Char | | Timing | | | C71738 | A time period defined in the protocol with a study-specific purpose. | The epoch associated with the value in ELEMENT and the value in ARMCD. | ", "figure_ref": null, "candidates": [{"md_atom_id": "md_model02_a189", "md_file": "knowledge_base/model/02_observation_classes.md", "md_atom_type": "TABLE_ROW", "md_parent_section": "§3.1.5 > Visit and Epoch Variables", "md_verbatim": "| 5 | EPOCH | Epoch | Char | Time period defined in the protocol with a study-specific purpose |", "score": 0.6545, "match_basis": "verbatim_token+global_search"}, {"md_atom_id": "md_model03_a099", "md_file": "knowledge_base/model/03_special_purpose_domains.md", "md_atom_type": "TABLE_ROW", "md_parent_section": "§ Subject Elements (SE) > Variables (13 variables)", "md_verbatim": "| 8 | EPOCH | Epoch | Char | Timing | C71738 |", "score": 0.4182, "match_basis": "verbatim_token+global_search"}, {"md_atom_id": "md_model02_a186", "md_file": "knowledge_base/model/02_observation_classes.md", "md_atom_type": "TABLE_ROW", "md_parent_section": "§3.1.5 > Visit and Epoch Variables", "md_verbatim": "| 2 | VISIT | Visit Name | Char | Protocol-defined visit name |", "score": 0.4099, "match_basis": "verbatim_token+global_search"}, {"md_atom_id": "md_ch02_a017", "md_file": "knowledge_base/chapters/ch02_fundamentals.md", "md_atom_type": "TABLE_ROW", "md_parent_section": "§2.1 [Observations and Variables]", "md_verbatim": "| **Result Qualifiers** | Describe the specific results associated with the topic variable (Findings only) | --ORRES, --STRESC, --STRESN |", "score": 0.4096, "match_basis": "verbatim_token+global_search"}, {"md_atom_id": "md_model02_a187", "md_file": "knowledge_base/model/02_observation_classes.md", "md_atom_type": "TABLE_ROW", "md_parent_section": "§3.1.5 > Visit and Epoch Variables", "md_verbatim": "| 3 | VISITDY | Planned Study Day of Visit | Num | Protocol-defined study day |", "score": 0.4091, "match_basis": "verbatim_token+global_search"}], "candidate_count": 5, "zero_candidate": false}
{"pdf_atom_id": "sv20_p0053_a005", "pdf_atom_type": "HEADING", "pdf_source": "SDTM_v2.0", "pdf_page": 53, "pdf_parent_section": "§5.1 [The Trial Design Model]", "pdf_verbatim": "5.1.2 Trial Sets", "figure_ref": null, "candidates": [{"md_atom_id": "md_model05_a044", "md_file": "knowledge_base/model/05_study_level_data.md", "md_atom_type": "HEADING", "md_parent_section": "§ Trial Sets (TX)", "md_verbatim": "### Trial Sets (TX)", "score": 0.9, "match_basis": "verbatim_token+global_search"}, {"md_atom_id": "md_model05_a028", "md_file": "knowledge_base/model/05_study_level_data.md", "md_atom_type": "HEADING", "md_parent_section": "§ Trial Arms (TA)", "md_verbatim": "### Trial Arms (TA)", "score": 0.5571, "match_basis": "verbatim_token+global_search"}, {"md_atom_id": "md_model05_a083", "md_file": "knowledge_base/model/05_study_level_data.md", "md_atom_type": "HEADING", "md_parent_section": "§ Trial Visits (TV)", "md_verbatim": "### Trial Visits (TV)", "score": 0.5, "match_basis": "verbatim_token+global_search"}, {"md_atom_id": "md_model05_a130", "md_file": "knowledge_base/model/05_study_level_data.md", "md_atom_type": "HEADING", "md_parent_section": "§ Trial Summary (TS)", "md_verbatim": "### Trial Summary (TS)", "score": 0.48, "match_basis": "verbatim_token+global_search"}, {"md_atom_id": "md_model05_a016", "md_file": "knowledge_base/model/05_study_level_data.md", "md_atom_type": "HEADING", "md_parent_section": "§ Trial Elements (TE)", "md_verbatim": "### Trial Elements (TE)", "score": 0.4636, "match_basis": "verbatim_token+global_search"}, {"md_atom_id": "md_varindex_a1501", "md_file": "knowledge_base/VARIABLE_INDEX.md", "md_atom_type": "HEADING", "md_parent_section": "§ 二、领域专属变量（仅 1 个域，共 1499 个），按域分组", "md_verbatim": "### TA — Trial Arms (Trial Design)", "score": 0.4636, "match_basis": "verbatim_token+global_search"}, {"md_atom_id": "md_dmTA_ex_a252", "md_file": "knowledge_base/domains/TA/examples.md", "md_atom_type": "HEADING", "md_parent_section": "§TA [TA — Examples]", "md_verbatim": "## Trial Arms Issues", "score": 0.4636, "match_basis": "verbatim_token+global_search"}, {"md_atom_id": "md_dmTV_ex_a037", "md_file": "knowledge_base/domains/TV/examples.md", "md_atom_type": "HEADING", "md_parent_section": "§TV.2 [Trial Visits Issues]", "md_verbatim": "### Trial Visit Rules", "score": 0.4636, "match_basis": "verbatim_token+global_search"}, {"md_atom_id": "md_model05_a005", "md_file": "knowledge_base/model/05_study_level_data.md", "md_atom_type": "HEADING", "md_parent_section": "§ 5.1 Trial Design Model", "md_verbatim": "## 5.1 Trial Design Model", "score": 0.45, "match_basis": "verbatim_token+global_search"}, {"md_atom_id": "md_varindex_a1589", "md_file": "knowledge_base/VARIABLE_INDEX.md", "md_atom_type": "HEADING", "md_parent_section": "§ 二、领域专属变量（仅 1 个域，共 1499 个），按域分组", "md_verbatim": "### TV — Trial Visits (Trial Design)", "score": 0.4385, "match_basis": "verbatim_token+global_search"}], "candidate_count": 10, "zero_candidate": false}
{"pdf_atom_id": "sv20_p0053_a006", "pdf_atom_type": "SENTENCE", "pdf_source": "SDTM_v2.0", "pdf_page": 53, "pdf_parent_section": "§5.1.2 Trial Sets", "pdf_verbatim": "Trial Sets allows the submission of detailed information about planned groups of subjects that results as a combination of experimental factors of interest for a study (including experimental parameters, inherent characteristics, and sponsor-defined attributes).", "figure_ref": null, "candidates": [{"md_atom_id": "md_dmTS_assn_a005", "md_file": "knowledge_base/domains/TS/assumptions.md", "md_atom_type": "SENTENCE", "md_parent_section": "§TS [TS — Assumptions]", "md_verbatim": "The TS dataset contains information about the planned and actual trial characteristics.", "score": 0.4629, "match_basis": "verbatim_token+global_search"}, {"md_atom_id": "md_dmSE_assn_a003", "md_file": "knowledge_base/domains/SE/assumptions.md", "md_atom_type": "SENTENCE", "md_parent_section": "§SE [SE — Assumptions]", "md_verbatim": "The SE domain allows the submission of data on the timing of the trial elements a subject actually passed through in their participation in the trial. Section 7.2.2, Trial Elements, and Section 7.2.1, Trial Arms, provide additional information on these datasets, which define a trial's planned elements and describe the planned sequences of elements for the arms of the trial.", "score": 0.4469, "match_basis": "verbatim_token+global_search"}, {"md_atom_id": "md_dmSC_ex_a016", "md_file": "knowledge_base/domains/SC/examples.md", "md_atom_type": "SENTENCE", "md_parent_section": "§SC.2 [Example 2]", "md_verbatim": "Although there is a test for gestational age in the CDISC Controlled Terminology for Reproductive Findings, gestational age is an attribute of the fetus or infant, and is not a finding about their reproductive system; in this example, gestational age is represented in the Subject Characteristics (SC) domain. The structure of the SC domain formerly was 1 record per characteristic (test) per subject, but with this version of the SDTMIG the structure has changed to allow multiple records per test. This example shows multiple estimates of gestational age for the same subject. Not all of the values of METHOD shown in this example are currently in the METHOD codelist.", "score": 0.4377, "match_basis": "verbatim_token+global_search"}, {"md_atom_id": "md_dmDM_ex_a012", "md_file": "knowledge_base/domains/DM/examples.md", "md_atom_type": "SENTENCE", "md_parent_section": "§DM.2 [Example 2]", "md_verbatim": "This example Demographics dataset does not include all the DM required and expected variables, only those that illustrate the variables that represent arm information. The following example illustrates values of ARMCD for subjects in Example Trial 1, described in Section 7.2.1, Trial Arms. This study included 2 elements, screen and run-in, before subjects were randomized to treatment. For this study, the sponsor submitted data on all subjects, including screen-failure subjects.", "score": 0.4367, "match_basis": "verbatim_token+global_search"}, {"md_atom_id": "md_model05_a147", "md_file": "knowledge_base/model/05_study_level_data.md", "md_atom_type": "SENTENCE", "md_parent_section": "§ Challenge Agent Characterization (AC)", "md_verbatim": "The Challenge Agent Characterization dataset allows the sponsor to provide information about challenge agents used in a trial in a structured format.", "score": 0.4321, "match_basis": "verbatim_token+global_search"}], "candidate_count": 5, "zero_candidate": false}
{"pdf_atom_id": "sv20_p0053_a007", "pdf_atom_type": "SENTENCE", "pdf_source": "SDTM_v2.0", "pdf_page": 53, "pdf_parent_section": "§5.1.2 Trial Sets", "pdf_verbatim": "A \"set\" may be a planned subdivision of a trial arm, or may comprise 1 or more trial arms.", "figure_ref": null, "candidates": [{"md_atom_id": "md_model05_a030", "md_file": "knowledge_base/model/05_study_level_data.md", "md_atom_type": "SENTENCE", "md_parent_section": "§ Trial Arms (TA)", "md_verbatim": "Describes each planned arm in a trial.", "score": 0.4421, "match_basis": "verbatim_token+global_search"}, {"md_atom_id": "md_ch04_a610", "md_file": "knowledge_base/chapters/ch04_general_assumptions.md", "md_atom_type": "SENTENCE", "md_parent_section": "§4.4.5 [Clinical Encounters and Visits]", "md_verbatim": "For planned visits:", "score": 0.4313, "match_basis": "verbatim_token+global_search"}, {"md_atom_id": "md_model03_a126", "md_file": "knowledge_base/model/03_special_purpose_domains.md", "md_atom_type": "SENTENCE", "md_parent_section": "§ Subject Visits (SV)", "md_verbatim": "Planned trial visits are described in the Trial Design Model.", "score": 0.4304, "match_basis": "verbatim_token+global_search"}, {"md_atom_id": "md_ch04_a609", "md_file": "knowledge_base/chapters/ch04_general_assumptions.md", "md_atom_type": "SENTENCE", "md_parent_section": "§4.4.5 [Clinical Encounters and Visits]", "md_verbatim": "For planned visits, values of VISIT, VISITNUM, and VISITDY must be those defined in the Trial Visits (TV) dataset.", "score": 0.4179, "match_basis": "verbatim_token+global_search"}, {"md_atom_id": "md_dmTS_assn_a005", "md_file": "knowledge_base/domains/TS/assumptions.md", "md_atom_type": "SENTENCE", "md_parent_section": "§TS [TS — Assumptions]", "md_verbatim": "The TS dataset contains information about the planned and actual trial characteristics.", "score": 0.3985, "match_basis": "verbatim_token+global_search"}], "candidate_count": 5, "zero_candidate": false}
{"pdf_atom_id": "sv20_p0053_a008", "pdf_atom_type": "SENTENCE", "pdf_source": "SDTM_v2.0", "pdf_page": 53, "pdf_parent_section": "§5.1.2 Trial Sets", "pdf_verbatim": "These datasets are essential to determining whether data comparisons are feasible across different studies.", "figure_ref": null, "candidates": [{"md_atom_id": "md_model01_a021", "md_file": "knowledge_base/model/01_concepts_and_terms.md", "md_atom_type": "SENTENCE", "md_parent_section": "§2.1 [Model Concepts and Terms — Variables]", "md_verbatim": "There are variables which play different roles in different datasets.", "score": 0.45, "match_basis": "verbatim_token+global_search"}, {"md_atom_id": "md_ch04_a475", "md_file": "knowledge_base/chapters/ch04_general_assumptions.md", "md_atom_type": "SENTENCE", "md_parent_section": "§4.4 [Actual and Relative Time Assumptions]", "md_verbatim": "Timing variables (SDTM Section 3.1.5, Timing Variables for All Classes) are an essential component of all SDTM subject-level domain datasets.", "score": 0.4263, "match_basis": "verbatim_token+global_search"}, {"md_atom_id": "md_ch08_a225", "md_file": "knowledge_base/chapters/ch08_relationships.md", "md_atom_type": "SENTENCE", "md_parent_section": "§8.6.1 [Guidelines for Determining the General Observation Class]", "md_verbatim": "A key part of the process of creating a new domain is determining whether an observation represents an event, an intervention, or a finding.", "score": 0.4224, "match_basis": "verbatim_token+global_search"}, {"md_atom_id": "md_ch04_a431", "md_file": "knowledge_base/chapters/ch04_general_assumptions.md", "md_atom_type": "SENTENCE", "md_parent_section": "§4.3.3 [Controlled Terminology Values]", "md_verbatim": "All values in the permissible value set for the study should be included, whether or not they are represented in submitted data.", "score": 0.42, "match_basis": "verbatim_token+global_search"}, {"md_atom_id": "md_ch08_a257", "md_file": "knowledge_base/chapters/ch08_relationships.md", "md_atom_type": "SENTENCE", "md_parent_section": "§8.6.3 [Guidelines for Differentiating Between Interventions, Events, Findings, and Findings About Events or Interventions]", "md_verbatim": "The structure of the data being considered, although not definitive, will often help determine whether the data represent an event or a finding.", "score": 0.4132, "match_basis": "verbatim_token+global_search"}], "candidate_count": 5, "zero_candidate": false}
{"pdf_atom_id": "sv20_p0053_a009", "pdf_atom_type": "HEADING", "pdf_source": "SDTM_v2.0", "pdf_page": 53, "pdf_parent_section": "§5.1.2 Trial Sets", "pdf_verbatim": "Trial Sets—One Record per Trial Set Parameter", "figure_ref": null, "candidates": [{"md_atom_id": "md_model05_a044", "md_file": "knowledge_base/model/05_study_level_data.md", "md_atom_type": "HEADING", "md_parent_section": "§ Trial Sets (TX)", "md_verbatim": "### Trial Sets (TX)", "score": 0.4667, "match_basis": "verbatim_token+global_search"}, {"md_atom_id": "md_ch04_a400", "md_file": "knowledge_base/chapters/ch04_general_assumptions.md", "md_atom_type": "HEADING", "md_parent_section": "§4.2.8 [Multiple Values for a Variable]", "md_verbatim": "#### 4.2.8.4 Multiple Values for a Parameter", "score": 0.4448, "match_basis": "verbatim_token+global_search"}, {"md_atom_id": "md_varindex_a1150", "md_file": "knowledge_base/VARIABLE_INDEX.md", "md_atom_type": "HEADING", "md_parent_section": "§ 二、领域专属变量（仅 1 个域，共 1499 个），按域分组", "md_verbatim": "### PP — Pharmacokinetics Parameters (Findings)", "score": 0.4077, "match_basis": "verbatim_token+global_search"}, {"md_atom_id": "md_ch04_a130", "md_file": "knowledge_base/chapters/ch04_general_assumptions.md", "md_atom_type": "HEADING", "md_parent_section": "§4.1.8.2 [Origin Metadata for Records]", "md_verbatim": "#### 4.1.8.2 Origin Metadata for Records", "score": 0.4034, "match_basis": "verbatim_token+global_search"}, {"md_atom_id": "md_dmPC_ex_a258", "md_file": "knowledge_base/domains/PC/examples.md", "md_atom_type": "HEADING", "md_parent_section": "§PC.2 [Relating PC and PP — Overview]", "md_verbatim": "### Example 3 (Inconsistent PC usage across parameters)", "score": 0.4024, "match_basis": "verbatim_token+global_search"}], "candidate_count": 5, "zero_candidate": false}
{"pdf_atom_id": "sv20_p0053_a010", "pdf_atom_type": "TABLE_HEADER", "pdf_source": "SDTM_v2.0", "pdf_page": 53, "pdf_parent_section": "§5.1.2 Trial Sets", "pdf_verbatim": "# | Variable Name | Variable Label | Type | Format | Role | Variable(s) Qualified | Usage Restrictions | Variable C-code | Definition | Notes | Examples", "figure_ref": null, "candidates": [{"md_atom_id": "md_model02_a195", "md_file": "knowledge_base/model/02_observation_classes.md", "md_atom_type": "TABLE_HEADER", "md_parent_section": "§3.1.5 > Date/Time Variables", "md_verbatim": "| # | Variable | Label | Type | Format | Notes |\n|---|----------|-------|------|--------|-------|", "score": 0.4929, "match_basis": "verbatim_token+global_search"}, {"md_atom_id": "md_ch08_a072", "md_file": "knowledge_base/chapters/ch08_relationships.md", "md_atom_type": "TABLE_HEADER", "md_parent_section": "§8.2.1 [Related Records (RELREC)]", "md_verbatim": "| Variable Name | Variable Label | Type | Controlled Terms, Codelist or Format | Role | CDISC Notes | Core |\n|--------------|----------------|------|--------------------------------------|------|-------------|------|", "score": 0.492, "match_basis": "verbatim_token+global_search"}, {"md_atom_id": "md_ch08_a157", "md_file": "knowledge_base/chapters/ch08_relationships.md", "md_atom_type": "TABLE_HEADER", "md_parent_section": "§8.4.1 [Supplemental Qualifiers (SUPP--)]", "md_verbatim": "| Variable Name | Variable Label | Type | Controlled Terms, Codelist or Format | Role | CDISC Notes | Core |\n|--------------|----------------|------|--------------------------------------|------|-------------|------|", "score": 0.492, "match_basis": "verbatim_token+global_search"}, {"md_atom_id": "md_ch08_a320", "md_file": "knowledge_base/chapters/ch08_relationships.md", "md_atom_type": "TABLE_HEADER", "md_parent_section": "§8.8 [Related Specimens (RELSPEC)]", "md_verbatim": "| Variable Name | Variable Label | Type | Controlled Terms, Codelist or Format | Role | CDISC Notes | Core |\n|--------------|----------------|------|--------------------------------------|------|-------------|------|", "score": 0.492, "match_basis": "verbatim_token+global_search"}, {"md_atom_id": "md_model04_a018", "md_file": "knowledge_base/model/04_associated_persons.md", "md_atom_type": "TABLE_HEADER", "md_parent_section": "§4 [SDTM v2.0 — Chapter 4: Associated Persons Data]", "md_verbatim": "| Variable | Label | Type | Role | Notes |\n|----------|-------|------|------|-------|", "score": 0.4714, "match_basis": "verbatim_token+global_search"}], "candidate_count": 5, "zero_candidate": false}
{"pdf_atom_id": "sv20_p0053_a011", "pdf_atom_type": "TABLE_ROW", "pdf_source": "SDTM_v2.0", "pdf_page": 53, "pdf_parent_section": "§5.1.2 Trial Sets", "pdf_verbatim": "1 | STUDYID | Study Identifier | Char | | Identifier | | | C83082 | A sequence of characters used by the sponsor to uniquely identify the study. | | ", "figure_ref": null, "candidates": [{"md_atom_id": "md_ch08_a073", "md_file": "knowledge_base/chapters/ch08_relationships.md", "md_atom_type": "TABLE_ROW", "md_parent_section": "§8.2.1 [Related Records (RELREC)]", "md_verbatim": "| STUDYID | Study Identifier | Char | | Identifier | Unique identifier for a study. | Req |", "score": 0.5426, "match_basis": "verbatim_token+global_search"}, {"md_atom_id": "md_ch08_a321", "md_file": "knowledge_base/chapters/ch08_relationships.md", "md_atom_type": "TABLE_ROW", "md_parent_section": "§8.8 [Related Specimens (RELSPEC)]", "md_verbatim": "| STUDYID | Study Identifier | Char | | Identifier | Unique identifier for a study. | Req |", "score": 0.5426, "match_basis": "verbatim_token+global_search"}, {"md_atom_id": "md_model02_a173", "md_file": "knowledge_base/model/02_observation_classes.md", "md_atom_type": "TABLE_ROW", "md_parent_section": "§3.1.4 Identifiers for All Classes", "md_verbatim": "| 9 | --SEQ | Sequence Number | Num | Identifier | Unique within STUDYID, USUBJID, and DOMAIN |", "score": 0.5095, "match_basis": "verbatim_token+global_search"}, {"md_atom_id": "md_model06_a019", "md_file": "knowledge_base/model/06_relationship_datasets.md", "md_atom_type": "TABLE_ROW", "md_parent_section": "§6.1 Related Records (RELREC)", "md_verbatim": "| 1 | STUDYID | Study Identifier | Char | Identifier | |", "score": 0.5, "match_basis": "verbatim_token+global_search"}, {"md_atom_id": "md_model06_a040", "md_file": "knowledge_base/model/06_relationship_datasets.md", "md_atom_type": "TABLE_ROW", "md_parent_section": "§6.2 Supplemental Qualifiers (SUPP--)", "md_verbatim": "| 1 | STUDYID | Study Identifier | Char | Identifier | |", "score": 0.5, "match_basis": "verbatim_token+global_search"}], "candidate_count": 5, "zero_candidate": false}
{"pdf_atom_id": "sv20_p0053_a012", "pdf_atom_type": "TABLE_ROW", "pdf_source": "SDTM_v2.0", "pdf_page": 53, "pdf_parent_section": "§5.1.2 Trial Sets", "pdf_verbatim": "2 | DOMAIN | Domain Abbreviation | Char | | Identifier | | | C49558 | An abbreviation for a collection of observations, with a topic-specific commonality. | 2-character abbreviation, which must be \"TX\". | ", "figure_ref": null, "candidates": [{"md_atom_id": "md_ch10_a023", "md_file": "knowledge_base/chapters/ch10_appendices.md", "md_atom_type": "TABLE_ROW", "md_parent_section": "§10.B [Glossary and Abbreviations]", "md_verbatim": "| Domain | A collection of observations with a topic-specific commonality |", "score": 0.638, "match_basis": "verbatim_token+global_search"}, {"md_atom_id": "md_model02_a166", "md_file": "knowledge_base/model/02_observation_classes.md", "md_atom_type": "TABLE_ROW", "md_parent_section": "§3.1.4 Identifiers for All Classes", "md_verbatim": "| 2 | DOMAIN | Domain Abbreviation | Char | Identifier | Two-character abbreviation for the domain |", "score": 0.5466, "match_basis": "verbatim_token+global_search"}, {"md_atom_id": "md_model06_a020", "md_file": "knowledge_base/model/06_relationship_datasets.md", "md_atom_type": "TABLE_ROW", "md_parent_section": "§6.1 Related Records (RELREC)", "md_verbatim": "| 2 | RDOMAIN | Related Domain Abbreviation | Char | Identifier | 2-character abbreviation for the domain of the parent record(s) |", "score": 0.5118, "match_basis": "verbatim_token+global_search"}, {"md_atom_id": "md_model06_a041", "md_file": "knowledge_base/model/06_relationship_datasets.md", "md_atom_type": "TABLE_ROW", "md_parent_section": "§6.2 Supplemental Qualifiers (SUPP--)", "md_verbatim": "| 2 | RDOMAIN | Related Domain Abbreviation | Char | Identifier | 2-character abbreviation for the domain of the parent record(s) |", "score": 0.5118, "match_basis": "verbatim_token+global_search"}, {"md_atom_id": "md_ch08_a159", "md_file": "knowledge_base/chapters/ch08_relationships.md", "md_atom_type": "TABLE_ROW", "md_parent_section": "§8.4.1 [Supplemental Qualifiers (SUPP--)]", "md_verbatim": "| RDOMAIN | Related Domain Abbreviation | Char | (DOMAIN) | Identifier | Two-character abbreviation for the domain of the parent record(s). | Req |", "score": 0.5069, "match_basis": "verbatim_token+global_search"}], "candidate_count": 5, "zero_candidate": false}
{"pdf_atom_id": "sv20_p0053_a013", "pdf_atom_type": "TABLE_ROW", "pdf_source": "SDTM_v2.0", "pdf_page": 53, "pdf_parent_section": "§5.1.2 Trial Sets", "pdf_verbatim": "3 | SETCD | Set Code | Char | | Identifier | | | | | Short name of a specific trial set, as defined by the sponsor. Maximum 8 characters. This represents the trial set for which parameters are being submitted. | ", "figure_ref": null, "candidates": [{"md_atom_id": "md_varindex_a1246", "md_file": "knowledge_base/VARIABLE_INDEX.md", "md_atom_type": "TABLE_ROW", "md_parent_section": "§ 二、领域专属变量（仅 1 个域，共 1499 个），按域分组", "md_verbatim": "| RESPID | Sponsor-Defined Identifier | Char | Identifier | Perm | — |", "score": 0.4518, "match_basis": "verbatim_token+global_search"}, {"md_atom_id": "md_model02_a031", "md_file": "knowledge_base/model/02_observation_classes.md", "md_atom_type": "TABLE_ROW", "md_parent_section": "§3.1.1 > Topic and Qualifier Variables (43 variables)", "md_verbatim": "| 16 | --CLASCD | Class Code | Char | Variable Qualifier (--TRT) | Short sequence of characters to represent --CLAS |", "score": 0.4455, "match_basis": "verbatim_token+global_search"}, {"md_atom_id": "md_varindex_a042", "md_file": "knowledge_base/VARIABLE_INDEX.md", "md_atom_type": "TABLE_ROW", "md_parent_section": "§ 二、领域专属变量（仅 1 个域，共 1499 个），按域分组", "md_verbatim": "| AESPID | Sponsor-Defined Identifier | Char | Identifier | Perm | — |", "score": 0.4429, "match_basis": "verbatim_token+global_search"}, {"md_atom_id": "md_varindex_a097", "md_file": "knowledge_base/VARIABLE_INDEX.md", "md_atom_type": "TABLE_ROW", "md_parent_section": "§ 二、领域专属变量（仅 1 个域，共 1499 个），按域分组", "md_verbatim": "| AGSPID | Sponsor-Defined Identifier | Char | Identifier | Perm | — |", "score": 0.4429, "match_basis": "verbatim_token+global_search"}, {"md_atom_id": "md_varindex_a133", "md_file": "knowledge_base/VARIABLE_INDEX.md", "md_atom_type": "TABLE_ROW", "md_parent_section": "§ 二、领域专属变量（仅 1 个域，共 1499 个），按域分组", "md_verbatim": "| BESPID | Sponsor-Defined Identifier | Char | Identifier | Perm | — |", "score": 0.4429, "match_basis": "verbatim_token+global_search"}], "candidate_count": 5, "zero_candidate": false}
{"pdf_atom_id": "sv20_p0053_a014", "pdf_atom_type": "TABLE_ROW", "pdf_source": "SDTM_v2.0", "pdf_page": 53, "pdf_parent_section": "§5.1.2 Trial Sets", "pdf_verbatim": "4 | SET | Set Description | Char | | Synonym Qualifier | SETCD | | | | Long description of a specific trial set, as defined by the sponsor. | ", "figure_ref": null, "candidates": [{"md_atom_id": "md_model05_a051", "md_file": "knowledge_base/model/05_study_level_data.md", "md_atom_type": "TABLE_ROW", "md_parent_section": "§ Trial Sets (TX)", "md_verbatim": "| 4 | SET | Set Description | Char | Synonym Qualifier (SETCD) |", "score": 0.6319, "match_basis": "verbatim_token+global_search"}, {"md_atom_id": "md_model03_a097", "md_file": "knowledge_base/model/03_special_purpose_domains.md", "md_atom_type": "TABLE_ROW", "md_parent_section": "§ Subject Elements (SE) > Variables (13 variables)", "md_verbatim": "| 6 | ELEMENT | Description of Element | Char | Synonym Qualifier (ETCD) | |", "score": 0.5885, "match_basis": "verbatim_token+global_search"}, {"md_atom_id": "md_model05_a037", "md_file": "knowledge_base/model/05_study_level_data.md", "md_atom_type": "TABLE_ROW", "md_parent_section": "§ Trial Arms (TA)", "md_verbatim": "| 4 | ARM | Description of Planned Arm | Char | Synonym Qualifier |", "score": 0.5769, "match_basis": "verbatim_token+global_search"}, {"md_atom_id": "md_model05_a093", "md_file": "knowledge_base/model/05_study_level_data.md", "md_atom_type": "TABLE_ROW", "md_parent_section": "§ Trial Visits (TV)", "md_verbatim": "| 7 | ARM | Description of Planned Arm | Char | Synonym Qualifier |", "score": 0.5769, "match_basis": "verbatim_token+global_search"}, {"md_atom_id": "md_varindex_a021", "md_file": "knowledge_base/VARIABLE_INDEX.md", "md_atom_type": "TABLE_ROW", "md_parent_section": "§ 一、通用变量（出现在 2+ 个域，共 24 个）", "md_verbatim": "| ARM | 3 | DM, TA, TV | Description of Planned Arm | Char | Synonym Qualifier | Exp* |", "score": 0.5717, "match_basis": "verbatim_token+global_search"}], "candidate_count": 5, "zero_candidate": false}
{"pdf_atom_id": "sv20_p0053_a015", "pdf_atom_type": "TABLE_ROW", "pdf_source": "SDTM_v2.0", "pdf_page": 53, "pdf_parent_section": "§5.1.2 Trial Sets", "pdf_verbatim": "5 | TXSEQ | Sequence Number | Num | | Identifier | | | | | Unique number for this record within this dataset. | ", "figure_ref": null, "candidates": [{"md_atom_id": "md_model05_a052", "md_file": "knowledge_base/model/05_study_level_data.md", "md_atom_type": "TABLE_ROW", "md_parent_section": "§ Trial Sets (TX)", "md_verbatim": "| 5 | TXSEQ | Sequence Number | Num | Identifier |", "score": 0.6158, "match_basis": "verbatim_token+global_search"}, {"md_atom_id": "md_varindex_a348", "md_file": "knowledge_base/VARIABLE_INDEX.md", "md_atom_type": "TABLE_ROW", "md_parent_section": "§ 二、领域专属变量（仅 1 个域，共 1499 个），按域分组", "md_verbatim": "| DASEQ | Sequence Number | Num | Identifier | Req | — |", "score": 0.585, "match_basis": "verbatim_token+global_search"}, {"md_atom_id": "md_varindex_a515", "md_file": "knowledge_base/VARIABLE_INDEX.md", "md_atom_type": "TABLE_ROW", "md_parent_section": "§ 二、领域专属变量（仅 1 个域，共 1499 个），按域分组", "md_verbatim": "| EXSEQ | Sequence Number | Num | Identifier | Req | — |", "score": 0.585, "match_basis": "verbatim_token+global_search"}, {"md_atom_id": "md_varindex_a549", "md_file": "knowledge_base/VARIABLE_INDEX.md", "md_atom_type": "TABLE_ROW", "md_parent_section": "§ 二、领域专属变量（仅 1 个域，共 1499 个），按域分组", "md_verbatim": "| FASEQ | Sequence Number | Num | Identifier | Req | — |", "score": 0.585, "match_basis": "verbatim_token+global_search"}, {"md_atom_id": "md_model02_a173", "md_file": "knowledge_base/model/02_observation_classes.md", "md_atom_type": "TABLE_ROW", "md_parent_section": "§3.1.4 Identifiers for All Classes", "md_verbatim": "| 9 | --SEQ | Sequence Number | Num | Identifier | Unique within STUDYID, USUBJID, and DOMAIN |", "score": 0.583, "match_basis": "verbatim_token+global_search"}], "candidate_count": 5, "zero_candidate": false}
