{"pdf_atom_id": "ig34_p0019_a040", "pdf_atom_type": "TABLE_ROW", "pdf_source": "SDTMIG_v3.4", "pdf_page": 19, "pdf_parent_section": "§3.2.1 Dataset-level Metadata", "pdf_verbatim": "TE | Trial Elements | Trial Design | One record per planned Element | Tabulation | STUDYID, ETCD | te.xpt", "figure_ref": null, "candidates": [{"md_atom_id": "md_ch03_a078", "md_file": "knowledge_base/chapters/ch03_submitting_data.md", "md_atom_type": "TABLE_ROW", "md_parent_section": "§3.2.1 [Dataset-level Metadata]", "md_verbatim": "| TE | Trial Elements | Trial Design | One record per planned Element | Tabulation | STUDYID, ETCD | te.xpt |", "score": 0.9, "match_basis": "verbatim_token+chapter_route:ch03"}, {"md_atom_id": "md_ch03_a076", "md_file": "knowledge_base/chapters/ch03_submitting_data.md", "md_atom_type": "TABLE_ROW", "md_parent_section": "§3.2.1 [Dataset-level Metadata]", "md_verbatim": "| TA | Trial Arms | Trial Design | One record per planned Element per Arm | Tabulation | STUDYID, ARMCD, TAETORD | ta.xpt |", "score": 0.7625, "match_basis": "verbatim_token+chapter_route:ch03"}, {"md_atom_id": "md_ch03_a082", "md_file": "knowledge_base/chapters/ch03_submitting_data.md", "md_atom_type": "TABLE_ROW", "md_parent_section": "§3.2.1 [Dataset-level Metadata]", "md_verbatim": "| TV | Trial Visits | Trial Design | One record per planned Visit per Arm | Tabulation | STUDYID, ARM, VISIT | tv.xpt |", "score": 0.7267, "match_basis": "verbatim_token+chapter_route:ch03"}, {"md_atom_id": "md_ch03_a077", "md_file": "knowledge_base/chapters/ch03_submitting_data.md", "md_atom_type": "TABLE_ROW", "md_parent_section": "§3.2.1 [Dataset-level Metadata]", "md_verbatim": "| TD | Trial Disease Assessments | Trial Design | One record per planned constant assessment period | Tabulation | STUDYID, TDORDER | td.xpt |", "score": 0.6281, "match_basis": "verbatim_token+chapter_route:ch03"}, {"md_atom_id": "md_ch03_a079", "md_file": "knowledge_base/chapters/ch03_submitting_data.md", "md_atom_type": "TABLE_ROW", "md_parent_section": "§3.2.1 [Dataset-level Metadata]", "md_verbatim": "| TI | Trial Inclusion/Exclusion Criteria | Trial Design | One record per I/E criterion | Tabulation | STUDYID, IETESTCD | ti.xpt |", "score": 0.5847, "match_basis": "verbatim_token+chapter_route:ch03"}], "candidate_count": 5, "zero_candidate": false}
{"pdf_atom_id": "ig34_p0019_a041", "pdf_atom_type": "CODE_LITERAL", "pdf_source": "SDTMIG_v3.4", "pdf_page": 19, "pdf_parent_section": "§3.2.1 Dataset-level Metadata", "pdf_verbatim": "te.xpt", "figure_ref": null, "candidates": [{"md_atom_id": "md_ch03_a082", "md_file": "knowledge_base/chapters/ch03_submitting_data.md", "md_atom_type": "TABLE_ROW", "md_parent_section": "§3.2.1 [Dataset-level Metadata]", "md_verbatim": "| TV | Trial Visits | Trial Design | One record per planned Visit per Arm | Tabulation | STUDYID, ARM, VISIT | tv.xpt |", "score": 0.1062, "match_basis": "verbatim_token+chapter_route:ch03"}, {"md_atom_id": "md_ch03_a078", "md_file": "knowledge_base/chapters/ch03_submitting_data.md", "md_atom_type": "TABLE_ROW", "md_parent_section": "§3.2.1 [Dataset-level Metadata]", "md_verbatim": "| TE | Trial Elements | Trial Design | One record per planned Element | Tabulation | STUDYID, ETCD | te.xpt |", "score": 0.105, "match_basis": "verbatim_token+chapter_route:ch03"}, {"md_atom_id": "md_ch03_a088", "md_file": "knowledge_base/chapters/ch03_submitting_data.md", "md_atom_type": "SENTENCE", "md_parent_section": "§3.2.1 [Dataset-level Metadata]", "md_verbatim": "Separate Supplemental Qualifier datasets of the form supp--.xpt are required.", "score": 0.105, "match_basis": "verbatim_token+chapter_route:ch03"}, {"md_atom_id": "md_ch03_a085", "md_file": "knowledge_base/chapters/ch03_submitting_data.md", "md_atom_type": "TABLE_ROW", "md_parent_section": "§3.2.1 [Dataset-level Metadata]", "md_verbatim": "| RELSUB | Related Subjects | Relationship | One record per relationship per related subject per subject | Tabulation | STUDYID, USUBJID, RSUBJID, SREL | relsub.xpt |", "score": 0.1046, "match_basis": "verbatim_token+chapter_route:ch03"}, {"md_atom_id": "md_ch03_a076", "md_file": "knowledge_base/chapters/ch03_submitting_data.md", "md_atom_type": "TABLE_ROW", "md_parent_section": "§3.2.1 [Dataset-level Metadata]", "md_verbatim": "| TA | Trial Arms | Trial Design | One record per planned Element per Arm | Tabulation | STUDYID, ARMCD, TAETORD | ta.xpt |", "score": 0.1033, "match_basis": "verbatim_token+chapter_route:ch03"}, {"md_atom_id": "md_ch03_a080", "md_file": "knowledge_base/chapters/ch03_submitting_data.md", "md_atom_type": "TABLE_ROW", "md_parent_section": "§3.2.1 [Dataset-level Metadata]", "md_verbatim": "| TM | Trial Disease Milestones | Trial Design | One record per Disease Milestone type | Tabulation | STUDYID, MIDSTYPE | tm.xpt |", "score": 0.1033, "match_basis": "verbatim_token+chapter_route:ch03"}, {"md_atom_id": "md_ch03_a037", "md_file": "knowledge_base/chapters/ch03_submitting_data.md", "md_atom_type": "TABLE_ROW", "md_parent_section": "§3.2.1 [Dataset-level Metadata]", "md_verbatim": "| AE | Adverse Events | Events | One record per adverse event per subject | Tabulation | STUDYID, USUBJID, AEDECOD, AESTDTC | ae.xpt |", "score": 0.103, "match_basis": "verbatim_token+chapter_route:ch03"}, {"md_atom_id": "md_ch03_a043", "md_file": "knowledge_base/chapters/ch03_submitting_data.md", "md_atom_type": "TABLE_ROW", "md_parent_section": "§3.2.1 [Dataset-level Metadata]", "md_verbatim": "| MH | Medical History | Events | One record per medical history event per subject | Tabulation | STUDYID, USUBJID, MHDECOD | mh.xpt |", "score": 0.103, "match_basis": "verbatim_token+chapter_route:ch03"}, {"md_atom_id": "md_ch03_a039", "md_file": "knowledge_base/chapters/ch03_submitting_data.md", "md_atom_type": "TABLE_ROW", "md_parent_section": "§3.2.1 [Dataset-level Metadata]", "md_verbatim": "| CE | Clinical Events | Events | One record per event per subject | Tabulation | STUDYID, USUBJID, CETERM, CESTDTC | ce.xpt |", "score": 0.1028, "match_basis": "verbatim_token+chapter_route:ch03"}, {"md_atom_id": "md_ch03_a079", "md_file": "knowledge_base/chapters/ch03_submitting_data.md", "md_atom_type": "TABLE_ROW", "md_parent_section": "§3.2.1 [Dataset-level Metadata]", "md_verbatim": "| TI | Trial Inclusion/Exclusion Criteria | Trial Design | One record per I/E criterion | Tabulation | STUDYID, IETESTCD | ti.xpt |", "score": 0.1028, "match_basis": "verbatim_token+chapter_route:ch03"}], "candidate_count": 10, "zero_candidate": false}
{"pdf_atom_id": "ig34_p0019_a042", "pdf_atom_type": "TABLE_ROW", "pdf_source": "SDTMIG_v3.4", "pdf_page": 19, "pdf_parent_section": "§3.2.1 Dataset-level Metadata", "pdf_verbatim": "TI | Trial Inclusion/Exclusion Criteria | Trial Design | One record per I/E criterion | Tabulation | STUDYID, IETESTCD | ti.xpt", "figure_ref": null, "candidates": [{"md_atom_id": "md_ch03_a079", "md_file": "knowledge_base/chapters/ch03_submitting_data.md", "md_atom_type": "TABLE_ROW", "md_parent_section": "§3.2.1 [Dataset-level Metadata]", "md_verbatim": "| TI | Trial Inclusion/Exclusion Criteria | Trial Design | One record per I/E criterion | Tabulation | STUDYID, IETESTCD | ti.xpt |", "score": 0.9, "match_basis": "verbatim_token+chapter_route:ch03"}, {"md_atom_id": "md_ch03_a052", "md_file": "knowledge_base/chapters/ch03_submitting_data.md", "md_atom_type": "TABLE_ROW", "md_parent_section": "§3.2.1 [Dataset-level Metadata]", "md_verbatim": "| IE | Inclusion/Exclusion Criteria Not Met | Findings | One record per inclusion/exclusion criterion not met per subject | Tabulation | STUDYID, USUBJID, IETESTCD | ie.xpt |", "score": 0.6905, "match_basis": "verbatim_token+chapter_route:ch03"}, {"md_atom_id": "md_ch03_a078", "md_file": "knowledge_base/chapters/ch03_submitting_data.md", "md_atom_type": "TABLE_ROW", "md_parent_section": "§3.2.1 [Dataset-level Metadata]", "md_verbatim": "| TE | Trial Elements | Trial Design | One record per planned Element | Tabulation | STUDYID, ETCD | te.xpt |", "score": 0.5847, "match_basis": "verbatim_token+chapter_route:ch03"}, {"md_atom_id": "md_ch03_a082", "md_file": "knowledge_base/chapters/ch03_submitting_data.md", "md_atom_type": "TABLE_ROW", "md_parent_section": "§3.2.1 [Dataset-level Metadata]", "md_verbatim": "| TV | Trial Visits | Trial Design | One record per planned Visit per Arm | Tabulation | STUDYID, ARM, VISIT | tv.xpt |", "score": 0.5842, "match_basis": "verbatim_token+chapter_route:ch03"}, {"md_atom_id": "md_ch03_a080", "md_file": "knowledge_base/chapters/ch03_submitting_data.md", "md_atom_type": "TABLE_ROW", "md_parent_section": "§3.2.1 [Dataset-level Metadata]", "md_verbatim": "| TM | Trial Disease Milestones | Trial Design | One record per Disease Milestone type | Tabulation | STUDYID, MIDSTYPE | tm.xpt |", "score": 0.5625, "match_basis": "verbatim_token+chapter_route:ch03"}], "candidate_count": 5, "zero_candidate": false}
{"pdf_atom_id": "ig34_p0019_a043", "pdf_atom_type": "CODE_LITERAL", "pdf_source": "SDTMIG_v3.4", "pdf_page": 19, "pdf_parent_section": "§3.2.1 Dataset-level Metadata", "pdf_verbatim": "ti.xpt", "figure_ref": null, "candidates": [{"md_atom_id": "md_ch03_a082", "md_file": "knowledge_base/chapters/ch03_submitting_data.md", "md_atom_type": "TABLE_ROW", "md_parent_section": "§3.2.1 [Dataset-level Metadata]", "md_verbatim": "| TV | Trial Visits | Trial Design | One record per planned Visit per Arm | Tabulation | STUDYID, ARM, VISIT | tv.xpt |", "score": 0.1062, "match_basis": "verbatim_token+chapter_route:ch03"}, {"md_atom_id": "md_ch03_a078", "md_file": "knowledge_base/chapters/ch03_submitting_data.md", "md_atom_type": "TABLE_ROW", "md_parent_section": "§3.2.1 [Dataset-level Metadata]", "md_verbatim": "| TE | Trial Elements | Trial Design | One record per planned Element | Tabulation | STUDYID, ETCD | te.xpt |", "score": 0.105, "match_basis": "verbatim_token+chapter_route:ch03"}, {"md_atom_id": "md_ch03_a088", "md_file": "knowledge_base/chapters/ch03_submitting_data.md", "md_atom_type": "SENTENCE", "md_parent_section": "§3.2.1 [Dataset-level Metadata]", "md_verbatim": "Separate Supplemental Qualifier datasets of the form supp--.xpt are required.", "score": 0.105, "match_basis": "verbatim_token+chapter_route:ch03"}, {"md_atom_id": "md_ch03_a085", "md_file": "knowledge_base/chapters/ch03_submitting_data.md", "md_atom_type": "TABLE_ROW", "md_parent_section": "§3.2.1 [Dataset-level Metadata]", "md_verbatim": "| RELSUB | Related Subjects | Relationship | One record per relationship per related subject per subject | Tabulation | STUDYID, USUBJID, RSUBJID, SREL | relsub.xpt |", "score": 0.1046, "match_basis": "verbatim_token+chapter_route:ch03"}, {"md_atom_id": "md_ch03_a076", "md_file": "knowledge_base/chapters/ch03_submitting_data.md", "md_atom_type": "TABLE_ROW", "md_parent_section": "§3.2.1 [Dataset-level Metadata]", "md_verbatim": "| TA | Trial Arms | Trial Design | One record per planned Element per Arm | Tabulation | STUDYID, ARMCD, TAETORD | ta.xpt |", "score": 0.1033, "match_basis": "verbatim_token+chapter_route:ch03"}, {"md_atom_id": "md_ch03_a080", "md_file": "knowledge_base/chapters/ch03_submitting_data.md", "md_atom_type": "TABLE_ROW", "md_parent_section": "§3.2.1 [Dataset-level Metadata]", "md_verbatim": "| TM | Trial Disease Milestones | Trial Design | One record per Disease Milestone type | Tabulation | STUDYID, MIDSTYPE | tm.xpt |", "score": 0.1033, "match_basis": "verbatim_token+chapter_route:ch03"}, {"md_atom_id": "md_ch03_a037", "md_file": "knowledge_base/chapters/ch03_submitting_data.md", "md_atom_type": "TABLE_ROW", "md_parent_section": "§3.2.1 [Dataset-level Metadata]", "md_verbatim": "| AE | Adverse Events | Events | One record per adverse event per subject | Tabulation | STUDYID, USUBJID, AEDECOD, AESTDTC | ae.xpt |", "score": 0.103, "match_basis": "verbatim_token+chapter_route:ch03"}, {"md_atom_id": "md_ch03_a043", "md_file": "knowledge_base/chapters/ch03_submitting_data.md", "md_atom_type": "TABLE_ROW", "md_parent_section": "§3.2.1 [Dataset-level Metadata]", "md_verbatim": "| MH | Medical History | Events | One record per medical history event per subject | Tabulation | STUDYID, USUBJID, MHDECOD | mh.xpt |", "score": 0.103, "match_basis": "verbatim_token+chapter_route:ch03"}, {"md_atom_id": "md_ch03_a039", "md_file": "knowledge_base/chapters/ch03_submitting_data.md", "md_atom_type": "TABLE_ROW", "md_parent_section": "§3.2.1 [Dataset-level Metadata]", "md_verbatim": "| CE | Clinical Events | Events | One record per event per subject | Tabulation | STUDYID, USUBJID, CETERM, CESTDTC | ce.xpt |", "score": 0.1028, "match_basis": "verbatim_token+chapter_route:ch03"}, {"md_atom_id": "md_ch03_a079", "md_file": "knowledge_base/chapters/ch03_submitting_data.md", "md_atom_type": "TABLE_ROW", "md_parent_section": "§3.2.1 [Dataset-level Metadata]", "md_verbatim": "| TI | Trial Inclusion/Exclusion Criteria | Trial Design | One record per I/E criterion | Tabulation | STUDYID, IETESTCD | ti.xpt |", "score": 0.1028, "match_basis": "verbatim_token+chapter_route:ch03"}], "candidate_count": 10, "zero_candidate": false}
{"pdf_atom_id": "ig34_p0019_a044", "pdf_atom_type": "TABLE_ROW", "pdf_source": "SDTMIG_v3.4", "pdf_page": 19, "pdf_parent_section": "§3.2.1 Dataset-level Metadata", "pdf_verbatim": "TM | Trial Disease Milestones | Trial Design | One record per Disease Milestone type | Tabulation | STUDYID, MIDSTYPE | tm.xpt", "figure_ref": null, "candidates": [{"md_atom_id": "md_ch03_a080", "md_file": "knowledge_base/chapters/ch03_submitting_data.md", "md_atom_type": "TABLE_ROW", "md_parent_section": "§3.2.1 [Dataset-level Metadata]", "md_verbatim": "| TM | Trial Disease Milestones | Trial Design | One record per Disease Milestone type | Tabulation | STUDYID, MIDSTYPE | tm.xpt |", "score": 0.9, "match_basis": "verbatim_token+chapter_route:ch03"}, {"md_atom_id": "md_ch03_a028", "md_file": "knowledge_base/chapters/ch03_submitting_data.md", "md_atom_type": "TABLE_ROW", "md_parent_section": "§3.2.1 [Dataset-level Metadata]", "md_verbatim": "| SM | Subject Disease Milestones | Special Purpose | One record per Disease Milestone per subject | Tabulation | STUDYID, USUBJID, MIDS | sm.xpt |", "score": 0.6387, "match_basis": "verbatim_token+chapter_route:ch03"}, {"md_atom_id": "md_ch03_a082", "md_file": "knowledge_base/chapters/ch03_submitting_data.md", "md_atom_type": "TABLE_ROW", "md_parent_section": "§3.2.1 [Dataset-level Metadata]", "md_verbatim": "| TV | Trial Visits | Trial Design | One record per planned Visit per Arm | Tabulation | STUDYID, ARM, VISIT | tv.xpt |", "score": 0.5945, "match_basis": "verbatim_token+chapter_route:ch03"}, {"md_atom_id": "md_ch03_a078", "md_file": "knowledge_base/chapters/ch03_submitting_data.md", "md_atom_type": "TABLE_ROW", "md_parent_section": "§3.2.1 [Dataset-level Metadata]", "md_verbatim": "| TE | Trial Elements | Trial Design | One record per planned Element | Tabulation | STUDYID, ETCD | te.xpt |", "score": 0.5793, "match_basis": "verbatim_token+chapter_route:ch03"}, {"md_atom_id": "md_ch03_a077", "md_file": "knowledge_base/chapters/ch03_submitting_data.md", "md_atom_type": "TABLE_ROW", "md_parent_section": "§3.2.1 [Dataset-level Metadata]", "md_verbatim": "| TD | Trial Disease Assessments | Trial Design | One record per planned constant assessment period | Tabulation | STUDYID, TDORDER | td.xpt |", "score": 0.5667, "match_basis": "verbatim_token+chapter_route:ch03"}], "candidate_count": 5, "zero_candidate": false}
{"pdf_atom_id": "ig34_p0019_a045", "pdf_atom_type": "CODE_LITERAL", "pdf_source": "SDTMIG_v3.4", "pdf_page": 19, "pdf_parent_section": "§3.2.1 Dataset-level Metadata", "pdf_verbatim": "tm.xpt", "figure_ref": null, "candidates": [{"md_atom_id": "md_ch03_a082", "md_file": "knowledge_base/chapters/ch03_submitting_data.md", "md_atom_type": "TABLE_ROW", "md_parent_section": "§3.2.1 [Dataset-level Metadata]", "md_verbatim": "| TV | Trial Visits | Trial Design | One record per planned Visit per Arm | Tabulation | STUDYID, ARM, VISIT | tv.xpt |", "score": 0.1062, "match_basis": "verbatim_token+chapter_route:ch03"}, {"md_atom_id": "md_ch03_a078", "md_file": "knowledge_base/chapters/ch03_submitting_data.md", "md_atom_type": "TABLE_ROW", "md_parent_section": "§3.2.1 [Dataset-level Metadata]", "md_verbatim": "| TE | Trial Elements | Trial Design | One record per planned Element | Tabulation | STUDYID, ETCD | te.xpt |", "score": 0.105, "match_basis": "verbatim_token+chapter_route:ch03"}, {"md_atom_id": "md_ch03_a088", "md_file": "knowledge_base/chapters/ch03_submitting_data.md", "md_atom_type": "SENTENCE", "md_parent_section": "§3.2.1 [Dataset-level Metadata]", "md_verbatim": "Separate Supplemental Qualifier datasets of the form supp--.xpt are required.", "score": 0.105, "match_basis": "verbatim_token+chapter_route:ch03"}, {"md_atom_id": "md_ch03_a085", "md_file": "knowledge_base/chapters/ch03_submitting_data.md", "md_atom_type": "TABLE_ROW", "md_parent_section": "§3.2.1 [Dataset-level Metadata]", "md_verbatim": "| RELSUB | Related Subjects | Relationship | One record per relationship per related subject per subject | Tabulation | STUDYID, USUBJID, RSUBJID, SREL | relsub.xpt |", "score": 0.1046, "match_basis": "verbatim_token+chapter_route:ch03"}, {"md_atom_id": "md_ch03_a076", "md_file": "knowledge_base/chapters/ch03_submitting_data.md", "md_atom_type": "TABLE_ROW", "md_parent_section": "§3.2.1 [Dataset-level Metadata]", "md_verbatim": "| TA | Trial Arms | Trial Design | One record per planned Element per Arm | Tabulation | STUDYID, ARMCD, TAETORD | ta.xpt |", "score": 0.1033, "match_basis": "verbatim_token+chapter_route:ch03"}, {"md_atom_id": "md_ch03_a080", "md_file": "knowledge_base/chapters/ch03_submitting_data.md", "md_atom_type": "TABLE_ROW", "md_parent_section": "§3.2.1 [Dataset-level Metadata]", "md_verbatim": "| TM | Trial Disease Milestones | Trial Design | One record per Disease Milestone type | Tabulation | STUDYID, MIDSTYPE | tm.xpt |", "score": 0.1033, "match_basis": "verbatim_token+chapter_route:ch03"}, {"md_atom_id": "md_ch03_a037", "md_file": "knowledge_base/chapters/ch03_submitting_data.md", "md_atom_type": "TABLE_ROW", "md_parent_section": "§3.2.1 [Dataset-level Metadata]", "md_verbatim": "| AE | Adverse Events | Events | One record per adverse event per subject | Tabulation | STUDYID, USUBJID, AEDECOD, AESTDTC | ae.xpt |", "score": 0.103, "match_basis": "verbatim_token+chapter_route:ch03"}, {"md_atom_id": "md_ch03_a043", "md_file": "knowledge_base/chapters/ch03_submitting_data.md", "md_atom_type": "TABLE_ROW", "md_parent_section": "§3.2.1 [Dataset-level Metadata]", "md_verbatim": "| MH | Medical History | Events | One record per medical history event per subject | Tabulation | STUDYID, USUBJID, MHDECOD | mh.xpt |", "score": 0.103, "match_basis": "verbatim_token+chapter_route:ch03"}, {"md_atom_id": "md_ch03_a039", "md_file": "knowledge_base/chapters/ch03_submitting_data.md", "md_atom_type": "TABLE_ROW", "md_parent_section": "§3.2.1 [Dataset-level Metadata]", "md_verbatim": "| CE | Clinical Events | Events | One record per event per subject | Tabulation | STUDYID, USUBJID, CETERM, CESTDTC | ce.xpt |", "score": 0.1028, "match_basis": "verbatim_token+chapter_route:ch03"}, {"md_atom_id": "md_ch03_a079", "md_file": "knowledge_base/chapters/ch03_submitting_data.md", "md_atom_type": "TABLE_ROW", "md_parent_section": "§3.2.1 [Dataset-level Metadata]", "md_verbatim": "| TI | Trial Inclusion/Exclusion Criteria | Trial Design | One record per I/E criterion | Tabulation | STUDYID, IETESTCD | ti.xpt |", "score": 0.1028, "match_basis": "verbatim_token+chapter_route:ch03"}], "candidate_count": 10, "zero_candidate": false}
{"pdf_atom_id": "ig34_p0019_a046", "pdf_atom_type": "TABLE_ROW", "pdf_source": "SDTMIG_v3.4", "pdf_page": 19, "pdf_parent_section": "§3.2.1 Dataset-level Metadata", "pdf_verbatim": "TS | Trial Summary | Trial Design | One record per trial summary parameter value | Tabulation | STUDYID, TSPARMCD, TSSEQ | ts.xpt", "figure_ref": null, "candidates": [{"md_atom_id": "md_ch03_a081", "md_file": "knowledge_base/chapters/ch03_submitting_data.md", "md_atom_type": "TABLE_ROW", "md_parent_section": "§3.2.1 [Dataset-level Metadata]", "md_verbatim": "| TS | Trial Summary | Trial Design | One record per trial summary parameter value | Tabulation | STUDYID, TSPARMCD, TSSEQ | ts.xpt |", "score": 0.9, "match_basis": "verbatim_token+chapter_route:ch03"}, {"md_atom_id": "md_ch03_a082", "md_file": "knowledge_base/chapters/ch03_submitting_data.md", "md_atom_type": "TABLE_ROW", "md_parent_section": "§3.2.1 [Dataset-level Metadata]", "md_verbatim": "| TV | Trial Visits | Trial Design | One record per planned Visit per Arm | Tabulation | STUDYID, ARM, VISIT | tv.xpt |", "score": 0.5847, "match_basis": "verbatim_token+chapter_route:ch03"}, {"md_atom_id": "md_ch03_a076", "md_file": "knowledge_base/chapters/ch03_submitting_data.md", "md_atom_type": "TABLE_ROW", "md_parent_section": "§3.2.1 [Dataset-level Metadata]", "md_verbatim": "| TA | Trial Arms | Trial Design | One record per planned Element per Arm | Tabulation | STUDYID, ARMCD, TAETORD | ta.xpt |", "score": 0.5769, "match_basis": "verbatim_token+chapter_route:ch03"}, {"md_atom_id": "md_ch03_a078", "md_file": "knowledge_base/chapters/ch03_submitting_data.md", "md_atom_type": "TABLE_ROW", "md_parent_section": "§3.2.1 [Dataset-level Metadata]", "md_verbatim": "| TE | Trial Elements | Trial Design | One record per planned Element | Tabulation | STUDYID, ETCD | te.xpt |", "score": 0.5571, "match_basis": "verbatim_token+chapter_route:ch03"}, {"md_atom_id": "md_ch03_a079", "md_file": "knowledge_base/chapters/ch03_submitting_data.md", "md_atom_type": "TABLE_ROW", "md_parent_section": "§3.2.1 [Dataset-level Metadata]", "md_verbatim": "| TI | Trial Inclusion/Exclusion Criteria | Trial Design | One record per I/E criterion | Tabulation | STUDYID, IETESTCD | ti.xpt |", "score": 0.5559, "match_basis": "verbatim_token+chapter_route:ch03"}], "candidate_count": 5, "zero_candidate": false}
{"pdf_atom_id": "ig34_p0019_a047", "pdf_atom_type": "CODE_LITERAL", "pdf_source": "SDTMIG_v3.4", "pdf_page": 19, "pdf_parent_section": "§3.2.1 Dataset-level Metadata", "pdf_verbatim": "ts.xpt", "figure_ref": null, "candidates": [{"md_atom_id": "md_ch03_a082", "md_file": "knowledge_base/chapters/ch03_submitting_data.md", "md_atom_type": "TABLE_ROW", "md_parent_section": "§3.2.1 [Dataset-level Metadata]", "md_verbatim": "| TV | Trial Visits | Trial Design | One record per planned Visit per Arm | Tabulation | STUDYID, ARM, VISIT | tv.xpt |", "score": 0.1062, "match_basis": "verbatim_token+chapter_route:ch03"}, {"md_atom_id": "md_ch03_a078", "md_file": "knowledge_base/chapters/ch03_submitting_data.md", "md_atom_type": "TABLE_ROW", "md_parent_section": "§3.2.1 [Dataset-level Metadata]", "md_verbatim": "| TE | Trial Elements | Trial Design | One record per planned Element | Tabulation | STUDYID, ETCD | te.xpt |", "score": 0.105, "match_basis": "verbatim_token+chapter_route:ch03"}, {"md_atom_id": "md_ch03_a088", "md_file": "knowledge_base/chapters/ch03_submitting_data.md", "md_atom_type": "SENTENCE", "md_parent_section": "§3.2.1 [Dataset-level Metadata]", "md_verbatim": "Separate Supplemental Qualifier datasets of the form supp--.xpt are required.", "score": 0.105, "match_basis": "verbatim_token+chapter_route:ch03"}, {"md_atom_id": "md_ch03_a085", "md_file": "knowledge_base/chapters/ch03_submitting_data.md", "md_atom_type": "TABLE_ROW", "md_parent_section": "§3.2.1 [Dataset-level Metadata]", "md_verbatim": "| RELSUB | Related Subjects | Relationship | One record per relationship per related subject per subject | Tabulation | STUDYID, USUBJID, RSUBJID, SREL | relsub.xpt |", "score": 0.1046, "match_basis": "verbatim_token+chapter_route:ch03"}, {"md_atom_id": "md_ch03_a076", "md_file": "knowledge_base/chapters/ch03_submitting_data.md", "md_atom_type": "TABLE_ROW", "md_parent_section": "§3.2.1 [Dataset-level Metadata]", "md_verbatim": "| TA | Trial Arms | Trial Design | One record per planned Element per Arm | Tabulation | STUDYID, ARMCD, TAETORD | ta.xpt |", "score": 0.1033, "match_basis": "verbatim_token+chapter_route:ch03"}, {"md_atom_id": "md_ch03_a080", "md_file": "knowledge_base/chapters/ch03_submitting_data.md", "md_atom_type": "TABLE_ROW", "md_parent_section": "§3.2.1 [Dataset-level Metadata]", "md_verbatim": "| TM | Trial Disease Milestones | Trial Design | One record per Disease Milestone type | Tabulation | STUDYID, MIDSTYPE | tm.xpt |", "score": 0.1033, "match_basis": "verbatim_token+chapter_route:ch03"}, {"md_atom_id": "md_ch03_a037", "md_file": "knowledge_base/chapters/ch03_submitting_data.md", "md_atom_type": "TABLE_ROW", "md_parent_section": "§3.2.1 [Dataset-level Metadata]", "md_verbatim": "| AE | Adverse Events | Events | One record per adverse event per subject | Tabulation | STUDYID, USUBJID, AEDECOD, AESTDTC | ae.xpt |", "score": 0.103, "match_basis": "verbatim_token+chapter_route:ch03"}, {"md_atom_id": "md_ch03_a043", "md_file": "knowledge_base/chapters/ch03_submitting_data.md", "md_atom_type": "TABLE_ROW", "md_parent_section": "§3.2.1 [Dataset-level Metadata]", "md_verbatim": "| MH | Medical History | Events | One record per medical history event per subject | Tabulation | STUDYID, USUBJID, MHDECOD | mh.xpt |", "score": 0.103, "match_basis": "verbatim_token+chapter_route:ch03"}, {"md_atom_id": "md_ch03_a039", "md_file": "knowledge_base/chapters/ch03_submitting_data.md", "md_atom_type": "TABLE_ROW", "md_parent_section": "§3.2.1 [Dataset-level Metadata]", "md_verbatim": "| CE | Clinical Events | Events | One record per event per subject | Tabulation | STUDYID, USUBJID, CETERM, CESTDTC | ce.xpt |", "score": 0.1028, "match_basis": "verbatim_token+chapter_route:ch03"}, {"md_atom_id": "md_ch03_a079", "md_file": "knowledge_base/chapters/ch03_submitting_data.md", "md_atom_type": "TABLE_ROW", "md_parent_section": "§3.2.1 [Dataset-level Metadata]", "md_verbatim": "| TI | Trial Inclusion/Exclusion Criteria | Trial Design | One record per I/E criterion | Tabulation | STUDYID, IETESTCD | ti.xpt |", "score": 0.1028, "match_basis": "verbatim_token+chapter_route:ch03"}], "candidate_count": 10, "zero_candidate": false}
{"pdf_atom_id": "ig34_p0020_a001", "pdf_atom_type": "TABLE_HEADER", "pdf_source": "SDTMIG_v3.4", "pdf_page": 20, "pdf_parent_section": "§3.2.1 Dataset-level Metadata", "pdf_verbatim": "Dataset | Description | Class | Structure | Purpose | Keys | Location", "figure_ref": null, "candidates": [{"md_atom_id": "md_ch03_a024", "md_file": "knowledge_base/chapters/ch03_submitting_data.md", "md_atom_type": "TABLE_HEADER", "md_parent_section": "§3.2.1 [Dataset-level Metadata]", "md_verbatim": "| Dataset | Description | Class | Structure | Purpose | Keys | Location |\n|---------|-------------|-------|-----------|---------|------|----------|", "score": 0.9, "match_basis": "verbatim_token+chapter_route:ch03"}, {"md_atom_id": "md_ch03_a019", "md_file": "knowledge_base/chapters/ch03_submitting_data.md", "md_atom_type": "LIST_ITEM", "md_parent_section": "§3.2 [Using the CDISC Domain Models in Regulatory Submissions — Dataset Metadata]", "md_verbatim": "- Dataset filenames, descriptions, locations, structures, class, purpose, and keys", "score": 0.5567, "match_basis": "verbatim_token+chapter_route:ch03"}, {"md_atom_id": "md_ch03_a028", "md_file": "knowledge_base/chapters/ch03_submitting_data.md", "md_atom_type": "TABLE_ROW", "md_parent_section": "§3.2.1 [Dataset-level Metadata]", "md_verbatim": "| SM | Subject Disease Milestones | Special Purpose | One record per Disease Milestone per subject | Tabulation | STUDYID, USUBJID, MIDS | sm.xpt |", "score": 0.3092, "match_basis": "verbatim_token+chapter_route:ch03"}, {"md_atom_id": "md_ch03_a027", "md_file": "knowledge_base/chapters/ch03_submitting_data.md", "md_atom_type": "TABLE_ROW", "md_parent_section": "§3.2.1 [Dataset-level Metadata]", "md_verbatim": "| SE | Subject Elements | Special Purpose | One record per actual Element per subject | Tabulation | STUDYID, USUBJID, ETCD, SESTDTC | se.xpt |", "score": 0.3067, "match_basis": "verbatim_token+chapter_route:ch03"}, {"md_atom_id": "md_ch03_a029", "md_file": "knowledge_base/chapters/ch03_submitting_data.md", "md_atom_type": "TABLE_ROW", "md_parent_section": "§3.2.1 [Dataset-level Metadata]", "md_verbatim": "| SV | Subject Visits | Special Purpose | One record per actual or planned visit per subject | Tabulation | STUDYID, USUBJID, SVTERM | sv.xpt |", "score": 0.3067, "match_basis": "verbatim_token+chapter_route:ch03"}], "candidate_count": 5, "zero_candidate": false}
{"pdf_atom_id": "ig34_p0020_a002", "pdf_atom_type": "TABLE_ROW", "pdf_source": "SDTMIG_v3.4", "pdf_page": 20, "pdf_parent_section": "§3.2.1 Dataset-level Metadata", "pdf_verbatim": "TV | Trial Visits | Trial Design | One record per planned Visit per Arm | Tabulation | STUDYID, ARM, VISIT | tv.xpt", "figure_ref": null, "candidates": [{"md_atom_id": "md_ch03_a082", "md_file": "knowledge_base/chapters/ch03_submitting_data.md", "md_atom_type": "TABLE_ROW", "md_parent_section": "§3.2.1 [Dataset-level Metadata]", "md_verbatim": "| TV | Trial Visits | Trial Design | One record per planned Visit per Arm | Tabulation | STUDYID, ARM, VISIT | tv.xpt |", "score": 0.9, "match_basis": "verbatim_token+chapter_route:ch03"}, {"md_atom_id": "md_ch03_a078", "md_file": "knowledge_base/chapters/ch03_submitting_data.md", "md_atom_type": "TABLE_ROW", "md_parent_section": "§3.2.1 [Dataset-level Metadata]", "md_verbatim": "| TE | Trial Elements | Trial Design | One record per planned Element | Tabulation | STUDYID, ETCD | te.xpt |", "score": 0.7267, "match_basis": "verbatim_token+chapter_route:ch03"}, {"md_atom_id": "md_ch03_a076", "md_file": "knowledge_base/chapters/ch03_submitting_data.md", "md_atom_type": "TABLE_ROW", "md_parent_section": "§3.2.1 [Dataset-level Metadata]", "md_verbatim": "| TA | Trial Arms | Trial Design | One record per planned Element per Arm | Tabulation | STUDYID, ARMCD, TAETORD | ta.xpt |", "score": 0.7041, "match_basis": "verbatim_token+chapter_route:ch03"}, {"md_atom_id": "md_ch03_a077", "md_file": "knowledge_base/chapters/ch03_submitting_data.md", "md_atom_type": "TABLE_ROW", "md_parent_section": "§3.2.1 [Dataset-level Metadata]", "md_verbatim": "| TD | Trial Disease Assessments | Trial Design | One record per planned constant assessment period | Tabulation | STUDYID, TDORDER | td.xpt |", "score": 0.6, "match_basis": "verbatim_token+chapter_route:ch03"}, {"md_atom_id": "md_ch03_a080", "md_file": "knowledge_base/chapters/ch03_submitting_data.md", "md_atom_type": "TABLE_ROW", "md_parent_section": "§3.2.1 [Dataset-level Metadata]", "md_verbatim": "| TM | Trial Disease Milestones | Trial Design | One record per Disease Milestone type | Tabulation | STUDYID, MIDSTYPE | tm.xpt |", "score": 0.5945, "match_basis": "verbatim_token+chapter_route:ch03"}], "candidate_count": 5, "zero_candidate": false}
{"pdf_atom_id": "ig34_p0020_a003", "pdf_atom_type": "CODE_LITERAL", "pdf_source": "SDTMIG_v3.4", "pdf_page": 20, "pdf_parent_section": "§3.2.1 Dataset-level Metadata", "pdf_verbatim": "tv.xpt", "figure_ref": null, "candidates": [{"md_atom_id": "md_ch03_a082", "md_file": "knowledge_base/chapters/ch03_submitting_data.md", "md_atom_type": "TABLE_ROW", "md_parent_section": "§3.2.1 [Dataset-level Metadata]", "md_verbatim": "| TV | Trial Visits | Trial Design | One record per planned Visit per Arm | Tabulation | STUDYID, ARM, VISIT | tv.xpt |", "score": 0.1062, "match_basis": "verbatim_token+chapter_route:ch03"}, {"md_atom_id": "md_ch03_a078", "md_file": "knowledge_base/chapters/ch03_submitting_data.md", "md_atom_type": "TABLE_ROW", "md_parent_section": "§3.2.1 [Dataset-level Metadata]", "md_verbatim": "| TE | Trial Elements | Trial Design | One record per planned Element | Tabulation | STUDYID, ETCD | te.xpt |", "score": 0.105, "match_basis": "verbatim_token+chapter_route:ch03"}, {"md_atom_id": "md_ch03_a088", "md_file": "knowledge_base/chapters/ch03_submitting_data.md", "md_atom_type": "SENTENCE", "md_parent_section": "§3.2.1 [Dataset-level Metadata]", "md_verbatim": "Separate Supplemental Qualifier datasets of the form supp--.xpt are required.", "score": 0.105, "match_basis": "verbatim_token+chapter_route:ch03"}, {"md_atom_id": "md_ch03_a085", "md_file": "knowledge_base/chapters/ch03_submitting_data.md", "md_atom_type": "TABLE_ROW", "md_parent_section": "§3.2.1 [Dataset-level Metadata]", "md_verbatim": "| RELSUB | Related Subjects | Relationship | One record per relationship per related subject per subject | Tabulation | STUDYID, USUBJID, RSUBJID, SREL | relsub.xpt |", "score": 0.1046, "match_basis": "verbatim_token+chapter_route:ch03"}, {"md_atom_id": "md_ch03_a076", "md_file": "knowledge_base/chapters/ch03_submitting_data.md", "md_atom_type": "TABLE_ROW", "md_parent_section": "§3.2.1 [Dataset-level Metadata]", "md_verbatim": "| TA | Trial Arms | Trial Design | One record per planned Element per Arm | Tabulation | STUDYID, ARMCD, TAETORD | ta.xpt |", "score": 0.1033, "match_basis": "verbatim_token+chapter_route:ch03"}, {"md_atom_id": "md_ch03_a080", "md_file": "knowledge_base/chapters/ch03_submitting_data.md", "md_atom_type": "TABLE_ROW", "md_parent_section": "§3.2.1 [Dataset-level Metadata]", "md_verbatim": "| TM | Trial Disease Milestones | Trial Design | One record per Disease Milestone type | Tabulation | STUDYID, MIDSTYPE | tm.xpt |", "score": 0.1033, "match_basis": "verbatim_token+chapter_route:ch03"}, {"md_atom_id": "md_ch03_a037", "md_file": "knowledge_base/chapters/ch03_submitting_data.md", "md_atom_type": "TABLE_ROW", "md_parent_section": "§3.2.1 [Dataset-level Metadata]", "md_verbatim": "| AE | Adverse Events | Events | One record per adverse event per subject | Tabulation | STUDYID, USUBJID, AEDECOD, AESTDTC | ae.xpt |", "score": 0.103, "match_basis": "verbatim_token+chapter_route:ch03"}, {"md_atom_id": "md_ch03_a043", "md_file": "knowledge_base/chapters/ch03_submitting_data.md", "md_atom_type": "TABLE_ROW", "md_parent_section": "§3.2.1 [Dataset-level Metadata]", "md_verbatim": "| MH | Medical History | Events | One record per medical history event per subject | Tabulation | STUDYID, USUBJID, MHDECOD | mh.xpt |", "score": 0.103, "match_basis": "verbatim_token+chapter_route:ch03"}, {"md_atom_id": "md_ch03_a039", "md_file": "knowledge_base/chapters/ch03_submitting_data.md", "md_atom_type": "TABLE_ROW", "md_parent_section": "§3.2.1 [Dataset-level Metadata]", "md_verbatim": "| CE | Clinical Events | Events | One record per event per subject | Tabulation | STUDYID, USUBJID, CETERM, CESTDTC | ce.xpt |", "score": 0.1028, "match_basis": "verbatim_token+chapter_route:ch03"}, {"md_atom_id": "md_ch03_a079", "md_file": "knowledge_base/chapters/ch03_submitting_data.md", "md_atom_type": "TABLE_ROW", "md_parent_section": "§3.2.1 [Dataset-level Metadata]", "md_verbatim": "| TI | Trial Inclusion/Exclusion Criteria | Trial Design | One record per I/E criterion | Tabulation | STUDYID, IETESTCD | ti.xpt |", "score": 0.1028, "match_basis": "verbatim_token+chapter_route:ch03"}], "candidate_count": 10, "zero_candidate": false}
{"pdf_atom_id": "ig34_p0020_a004", "pdf_atom_type": "TABLE_ROW", "pdf_source": "SDTMIG_v3.4", "pdf_page": 20, "pdf_parent_section": "§3.2.1 Dataset-level Metadata", "pdf_verbatim": "RELREC | Related Records | Relationship | One record per related record, group of records or dataset | Tabulation | STUDYID, RDOMAIN, USUBJID, IDVAR, IDVARVAL, RELID | relrec.xpt", "figure_ref": null, "candidates": [{"md_atom_id": "md_ch03_a083", "md_file": "knowledge_base/chapters/ch03_submitting_data.md", "md_atom_type": "TABLE_ROW", "md_parent_section": "§3.2.1 [Dataset-level Metadata]", "md_verbatim": "| RELREC | Related Records | Relationship | One record per related record, group of records or dataset | Tabulation | STUDYID, RDOMAIN, USUBJID, IDVAR, IDVARVAL, RELID | relrec.xpt |", "score": 0.9, "match_basis": "verbatim_token+chapter_route:ch03"}, {"md_atom_id": "md_ch03_a086", "md_file": "knowledge_base/chapters/ch03_submitting_data.md", "md_atom_type": "TABLE_ROW", "md_parent_section": "§3.2.1 [Dataset-level Metadata]", "md_verbatim": "| SUPP-- | Supplemental Qualifiers for [domain name] | Relationship | One record per supplemental qualifier per related parent domain record(s) | Tabulation | STUDYID, RDOMAIN, USUBJID, IDVAR, IDVARVAL, QNAM | supp--.xpt |", "score": 0.622, "match_basis": "verbatim_token+chapter_route:ch03"}, {"md_atom_id": "md_ch03_a085", "md_file": "knowledge_base/chapters/ch03_submitting_data.md", "md_atom_type": "TABLE_ROW", "md_parent_section": "§3.2.1 [Dataset-level Metadata]", "md_verbatim": "| RELSUB | Related Subjects | Relationship | One record per relationship per related subject per subject | Tabulation | STUDYID, USUBJID, RSUBJID, SREL | relsub.xpt |", "score": 0.6046, "match_basis": "verbatim_token+chapter_route:ch03"}, {"md_atom_id": "md_ch03_a084", "md_file": "knowledge_base/chapters/ch03_submitting_data.md", "md_atom_type": "TABLE_ROW", "md_parent_section": "§3.2.1 [Dataset-level Metadata]", "md_verbatim": "| RELSPEC | Related Specimens | Relationship | One record per specimen identifier per subject | Tabulation | STUDYID, USUBJID, REFID | relspec.xpt |", "score": 0.5475, "match_basis": "verbatim_token+chapter_route:ch03"}, {"md_atom_id": "md_ch03_a025", "md_file": "knowledge_base/chapters/ch03_submitting_data.md", "md_atom_type": "TABLE_ROW", "md_parent_section": "§3.2.1 [Dataset-level Metadata]", "md_verbatim": "| CO | Comments | Special Purpose | One record per comment per subject | Tabulation | STUDYID, USUBJID, IDVAR, COREF, COOTC | co.xpt |", "score": 0.5074, "match_basis": "verbatim_token+chapter_route:ch03"}], "candidate_count": 5, "zero_candidate": false}
{"pdf_atom_id": "ig34_p0020_a005", "pdf_atom_type": "CODE_LITERAL", "pdf_source": "SDTMIG_v3.4", "pdf_page": 20, "pdf_parent_section": "§3.2.1 Dataset-level Metadata", "pdf_verbatim": "relrec.xpt", "figure_ref": null, "candidates": [{"md_atom_id": "md_ch03_a083", "md_file": "knowledge_base/chapters/ch03_submitting_data.md", "md_atom_type": "TABLE_ROW", "md_parent_section": "§3.2.1 [Dataset-level Metadata]", "md_verbatim": "| RELREC | Related Records | Relationship | One record per related record, group of records or dataset | Tabulation | STUDYID, RDOMAIN, USUBJID, IDVAR, IDVARVAL, RELID | relrec.xpt |", "score": 0.1426, "match_basis": "verbatim_token+chapter_route:ch03"}, {"md_atom_id": "md_ch03_a085", "md_file": "knowledge_base/chapters/ch03_submitting_data.md", "md_atom_type": "TABLE_ROW", "md_parent_section": "§3.2.1 [Dataset-level Metadata]", "md_verbatim": "| RELSUB | Related Subjects | Relationship | One record per relationship per related subject per subject | Tabulation | STUDYID, USUBJID, RSUBJID, SREL | relsub.xpt |", "score": 0.1319, "match_basis": "verbatim_token+chapter_route:ch03"}, {"md_atom_id": "md_ch03_a084", "md_file": "knowledge_base/chapters/ch03_submitting_data.md", "md_atom_type": "TABLE_ROW", "md_parent_section": "§3.2.1 [Dataset-level Metadata]", "md_verbatim": "| RELSPEC | Related Specimens | Relationship | One record per specimen identifier per subject | Tabulation | STUDYID, USUBJID, REFID | relspec.xpt |", "score": 0.121, "match_basis": "verbatim_token+chapter_route:ch03"}, {"md_atom_id": "md_ch03_a082", "md_file": "knowledge_base/chapters/ch03_submitting_data.md", "md_atom_type": "TABLE_ROW", "md_parent_section": "§3.2.1 [Dataset-level Metadata]", "md_verbatim": "| TV | Trial Visits | Trial Design | One record per planned Visit per Arm | Tabulation | STUDYID, ARM, VISIT | tv.xpt |", "score": 0.12, "match_basis": "verbatim_token+chapter_route:ch03"}, {"md_atom_id": "md_ch03_a078", "md_file": "knowledge_base/chapters/ch03_submitting_data.md", "md_atom_type": "TABLE_ROW", "md_parent_section": "§3.2.1 [Dataset-level Metadata]", "md_verbatim": "| TE | Trial Elements | Trial Design | One record per planned Element | Tabulation | STUDYID, ETCD | te.xpt |", "score": 0.1179, "match_basis": "verbatim_token+chapter_route:ch03"}, {"md_atom_id": "md_ch03_a086", "md_file": "knowledge_base/chapters/ch03_submitting_data.md", "md_atom_type": "TABLE_ROW", "md_parent_section": "§3.2.1 [Dataset-level Metadata]", "md_verbatim": "| SUPP-- | Supplemental Qualifiers for [domain name] | Relationship | One record per supplemental qualifier per related parent domain record(s) | Tabulation | STUDYID, RDOMAIN, USUBJID, IDVAR, IDVARVAL, QNAM | supp--.xpt |", "score": 0.1154, "match_basis": "verbatim_token+chapter_route:ch03"}, {"md_atom_id": "md_ch03_a076", "md_file": "knowledge_base/chapters/ch03_submitting_data.md", "md_atom_type": "TABLE_ROW", "md_parent_section": "§3.2.1 [Dataset-level Metadata]", "md_verbatim": "| TA | Trial Arms | Trial Design | One record per planned Element per Arm | Tabulation | STUDYID, ARMCD, TAETORD | ta.xpt |", "score": 0.115, "match_basis": "verbatim_token+chapter_route:ch03"}, {"md_atom_id": "md_ch03_a080", "md_file": "knowledge_base/chapters/ch03_submitting_data.md", "md_atom_type": "TABLE_ROW", "md_parent_section": "§3.2.1 [Dataset-level Metadata]", "md_verbatim": "| TM | Trial Disease Milestones | Trial Design | One record per Disease Milestone type | Tabulation | STUDYID, MIDSTYPE | tm.xpt |", "score": 0.115, "match_basis": "verbatim_token+chapter_route:ch03"}, {"md_atom_id": "md_ch03_a037", "md_file": "knowledge_base/chapters/ch03_submitting_data.md", "md_atom_type": "TABLE_ROW", "md_parent_section": "§3.2.1 [Dataset-level Metadata]", "md_verbatim": "| AE | Adverse Events | Events | One record per adverse event per subject | Tabulation | STUDYID, USUBJID, AEDECOD, AESTDTC | ae.xpt |", "score": 0.1145, "match_basis": "verbatim_token+chapter_route:ch03"}, {"md_atom_id": "md_ch03_a043", "md_file": "knowledge_base/chapters/ch03_submitting_data.md", "md_atom_type": "TABLE_ROW", "md_parent_section": "§3.2.1 [Dataset-level Metadata]", "md_verbatim": "| MH | Medical History | Events | One record per medical history event per subject | Tabulation | STUDYID, USUBJID, MHDECOD | mh.xpt |", "score": 0.1145, "match_basis": "verbatim_token+chapter_route:ch03"}], "candidate_count": 10, "zero_candidate": false}
{"pdf_atom_id": "ig34_p0020_a006", "pdf_atom_type": "TABLE_ROW", "pdf_source": "SDTMIG_v3.4", "pdf_page": 20, "pdf_parent_section": "§3.2.1 Dataset-level Metadata", "pdf_verbatim": "RELSPEC | Related Specimens | Relationship | One record per specimen identifier per subject | Tabulation | STUDYID, USUBJID, REFID | relspec.xpt", "figure_ref": null, "candidates": [{"md_atom_id": "md_ch03_a084", "md_file": "knowledge_base/chapters/ch03_submitting_data.md", "md_atom_type": "TABLE_ROW", "md_parent_section": "§3.2.1 [Dataset-level Metadata]", "md_verbatim": "| RELSPEC | Related Specimens | Relationship | One record per specimen identifier per subject | Tabulation | STUDYID, USUBJID, REFID | relspec.xpt |", "score": 0.9, "match_basis": "verbatim_token+chapter_route:ch03"}, {"md_atom_id": "md_ch03_a085", "md_file": "knowledge_base/chapters/ch03_submitting_data.md", "md_atom_type": "TABLE_ROW", "md_parent_section": "§3.2.1 [Dataset-level Metadata]", "md_verbatim": "| RELSUB | Related Subjects | Relationship | One record per relationship per related subject per subject | Tabulation | STUDYID, USUBJID, RSUBJID, SREL | relsub.xpt |", "score": 0.67, "match_basis": "verbatim_token+chapter_route:ch03"}, {"md_atom_id": "md_ch03_a038", "md_file": "knowledge_base/chapters/ch03_submitting_data.md", "md_atom_type": "TABLE_ROW", "md_parent_section": "§3.2.1 [Dataset-level Metadata]", "md_verbatim": "| BE | Biospecimen Events | Events | One record per instance per biospecimen event per biospecimen identifier per subject | Tabulation | STUDYID, USUBJID, BEREFID, BETERM, BESTDTC | be.xpt |", "score": 0.6418, "match_basis": "verbatim_token+chapter_route:ch03"}, {"md_atom_id": "md_ch03_a044", "md_file": "knowledge_base/chapters/ch03_submitting_data.md", "md_atom_type": "TABLE_ROW", "md_parent_section": "§3.2.1 [Dataset-level Metadata]", "md_verbatim": "| BS | Biospecimen Findings | Findings | One record per measurement per biospecimen identifier per subject | Tabulation | STUDYID, USUBJID, BSREFID, BSTESTCD | bs.xpt |", "score": 0.6375, "match_basis": "verbatim_token+chapter_route:ch03"}, {"md_atom_id": "md_ch03_a025", "md_file": "knowledge_base/chapters/ch03_submitting_data.md", "md_atom_type": "TABLE_ROW", "md_parent_section": "§3.2.1 [Dataset-level Metadata]", "md_verbatim": "| CO | Comments | Special Purpose | One record per comment per subject | Tabulation | STUDYID, USUBJID, IDVAR, COREF, COOTC | co.xpt |", "score": 0.5757, "match_basis": "verbatim_token+chapter_route:ch03"}], "candidate_count": 5, "zero_candidate": false}
{"pdf_atom_id": "ig34_p0020_a007", "pdf_atom_type": "CODE_LITERAL", "pdf_source": "SDTMIG_v3.4", "pdf_page": 20, "pdf_parent_section": "§3.2.1 Dataset-level Metadata", "pdf_verbatim": "relspec.xpt", "figure_ref": null, "candidates": [{"md_atom_id": "md_ch03_a084", "md_file": "knowledge_base/chapters/ch03_submitting_data.md", "md_atom_type": "TABLE_ROW", "md_parent_section": "§3.2.1 [Dataset-level Metadata]", "md_verbatim": "| RELSPEC | Related Specimens | Relationship | One record per specimen identifier per subject | Tabulation | STUDYID, USUBJID, REFID | relspec.xpt |", "score": 0.1543, "match_basis": "verbatim_token+chapter_route:ch03"}, {"md_atom_id": "md_ch03_a085", "md_file": "knowledge_base/chapters/ch03_submitting_data.md", "md_atom_type": "TABLE_ROW", "md_parent_section": "§3.2.1 [Dataset-level Metadata]", "md_verbatim": "| RELSUB | Related Subjects | Relationship | One record per relationship per related subject per subject | Tabulation | STUDYID, USUBJID, RSUBJID, SREL | relsub.xpt |", "score": 0.1309, "match_basis": "verbatim_token+chapter_route:ch03"}, {"md_atom_id": "md_ch03_a115", "md_file": "knowledge_base/chapters/ch03_submitting_data.md", "md_atom_type": "LIST_ITEM", "md_parent_section": "§3.2.2 [Conformance]", "md_verbatim": "5. Using SDTM-specified data types for all variables", "score": 0.13, "match_basis": "verbatim_token+chapter_route:ch03"}, {"md_atom_id": "md_ch03_a114", "md_file": "knowledge_base/chapters/ch03_submitting_data.md", "md_atom_type": "LIST_ITEM", "md_parent_section": "§3.2.2 [Conformance]", "md_verbatim": "4. Using SDTM-specified standard variable names", "score": 0.1287, "match_basis": "verbatim_token+chapter_route:ch03"}, {"md_atom_id": "md_ch03_a026", "md_file": "knowledge_base/chapters/ch03_submitting_data.md", "md_atom_type": "TABLE_ROW", "md_parent_section": "§3.2.1 [Dataset-level Metadata]", "md_verbatim": "| DM | Demographics | Special Purpose | One record per subject | Tabulation | STUDYID, USUBJID | dm.xpt |", "score": 0.1253, "match_basis": "verbatim_token+chapter_route:ch03"}], "candidate_count": 5, "zero_candidate": false}
{"pdf_atom_id": "ig34_p0020_a008", "pdf_atom_type": "TABLE_ROW", "pdf_source": "SDTMIG_v3.4", "pdf_page": 20, "pdf_parent_section": "§3.2.1 Dataset-level Metadata", "pdf_verbatim": "RELSUB | Related Subjects | Relationship | One record per relationship per related subject per subject | Tabulation | STUDYID, USUBJID, RSUBJID, SREL | relsub.xpt", "figure_ref": null, "candidates": [{"md_atom_id": "md_ch03_a085", "md_file": "knowledge_base/chapters/ch03_submitting_data.md", "md_atom_type": "TABLE_ROW", "md_parent_section": "§3.2.1 [Dataset-level Metadata]", "md_verbatim": "| RELSUB | Related Subjects | Relationship | One record per relationship per related subject per subject | Tabulation | STUDYID, USUBJID, RSUBJID, SREL | relsub.xpt |", "score": 0.9, "match_basis": "verbatim_token+chapter_route:ch03"}, {"md_atom_id": "md_ch03_a084", "md_file": "knowledge_base/chapters/ch03_submitting_data.md", "md_atom_type": "TABLE_ROW", "md_parent_section": "§3.2.1 [Dataset-level Metadata]", "md_verbatim": "| RELSPEC | Related Specimens | Relationship | One record per specimen identifier per subject | Tabulation | STUDYID, USUBJID, REFID | relspec.xpt |", "score": 0.67, "match_basis": "verbatim_token+chapter_route:ch03"}, {"md_atom_id": "md_ch03_a083", "md_file": "knowledge_base/chapters/ch03_submitting_data.md", "md_atom_type": "TABLE_ROW", "md_parent_section": "§3.2.1 [Dataset-level Metadata]", "md_verbatim": "| RELREC | Related Records | Relationship | One record per related record, group of records or dataset | Tabulation | STUDYID, RDOMAIN, USUBJID, IDVAR, IDVARVAL, RELID | relrec.xpt |", "score": 0.6046, "match_basis": "verbatim_token+chapter_route:ch03"}, {"md_atom_id": "md_ch03_a037", "md_file": "knowledge_base/chapters/ch03_submitting_data.md", "md_atom_type": "TABLE_ROW", "md_parent_section": "§3.2.1 [Dataset-level Metadata]", "md_verbatim": "| AE | Adverse Events | Events | One record per adverse event per subject | Tabulation | STUDYID, USUBJID, AEDECOD, AESTDTC | ae.xpt |", "score": 0.5847, "match_basis": "verbatim_token+chapter_route:ch03"}, {"md_atom_id": "md_ch03_a043", "md_file": "knowledge_base/chapters/ch03_submitting_data.md", "md_atom_type": "TABLE_ROW", "md_parent_section": "§3.2.1 [Dataset-level Metadata]", "md_verbatim": "| MH | Medical History | Events | One record per medical history event per subject | Tabulation | STUDYID, USUBJID, MHDECOD | mh.xpt |", "score": 0.5847, "match_basis": "verbatim_token+chapter_route:ch03"}], "candidate_count": 5, "zero_candidate": false}
{"pdf_atom_id": "ig34_p0020_a009", "pdf_atom_type": "CODE_LITERAL", "pdf_source": "SDTMIG_v3.4", "pdf_page": 20, "pdf_parent_section": "§3.2.1 Dataset-level Metadata", "pdf_verbatim": "relsub.xpt", "figure_ref": null, "candidates": [{"md_atom_id": "md_ch03_a085", "md_file": "knowledge_base/chapters/ch03_submitting_data.md", "md_atom_type": "TABLE_ROW", "md_parent_section": "§3.2.1 [Dataset-level Metadata]", "md_verbatim": "| RELSUB | Related Subjects | Relationship | One record per relationship per related subject per subject | Tabulation | STUDYID, USUBJID, RSUBJID, SREL | relsub.xpt |", "score": 0.1632, "match_basis": "verbatim_token+chapter_route:ch03"}, {"md_atom_id": "md_ch03_a084", "md_file": "knowledge_base/chapters/ch03_submitting_data.md", "md_atom_type": "TABLE_ROW", "md_parent_section": "§3.2.1 [Dataset-level Metadata]", "md_verbatim": "| RELSPEC | Related Specimens | Relationship | One record per specimen identifier per subject | Tabulation | STUDYID, USUBJID, REFID | relspec.xpt |", "score": 0.1321, "match_basis": "verbatim_token+chapter_route:ch03"}, {"md_atom_id": "md_ch03_a083", "md_file": "knowledge_base/chapters/ch03_submitting_data.md", "md_atom_type": "TABLE_ROW", "md_parent_section": "§3.2.1 [Dataset-level Metadata]", "md_verbatim": "| RELREC | Related Records | Relationship | One record per related record, group of records or dataset | Tabulation | STUDYID, RDOMAIN, USUBJID, IDVAR, IDVARVAL, RELID | relrec.xpt |", "score": 0.1205, "match_basis": "verbatim_token+chapter_route:ch03"}, {"md_atom_id": "md_ch03_a013", "md_file": "knowledge_base/chapters/ch03_submitting_data.md", "md_atom_type": "HEADING", "md_parent_section": "§3 [Submitting Data in Standard Format]", "md_verbatim": "## 3.2 Using the CDISC Domain Models in Regulatory Submissions — Dataset Metadata", "score": 0.1173, "match_basis": "verbatim_token+chapter_route:ch03"}, {"md_atom_id": "md_ch03_a086", "md_file": "knowledge_base/chapters/ch03_submitting_data.md", "md_atom_type": "TABLE_ROW", "md_parent_section": "§3.2.1 [Dataset-level Metadata]", "md_verbatim": "| SUPP-- | Supplemental Qualifiers for [domain name] | Relationship | One record per supplemental qualifier per related parent domain record(s) | Tabulation | STUDYID, RDOMAIN, USUBJID, IDVAR, IDVARVAL, QNAM | supp--.xpt |", "score": 0.1154, "match_basis": "verbatim_token+chapter_route:ch03"}, {"md_atom_id": "md_ch03_a037", "md_file": "knowledge_base/chapters/ch03_submitting_data.md", "md_atom_type": "TABLE_ROW", "md_parent_section": "§3.2.1 [Dataset-level Metadata]", "md_verbatim": "| AE | Adverse Events | Events | One record per adverse event per subject | Tabulation | STUDYID, USUBJID, AEDECOD, AESTDTC | ae.xpt |", "score": 0.1145, "match_basis": "verbatim_token+chapter_route:ch03"}, {"md_atom_id": "md_ch03_a043", "md_file": "knowledge_base/chapters/ch03_submitting_data.md", "md_atom_type": "TABLE_ROW", "md_parent_section": "§3.2.1 [Dataset-level Metadata]", "md_verbatim": "| MH | Medical History | Events | One record per medical history event per subject | Tabulation | STUDYID, USUBJID, MHDECOD | mh.xpt |", "score": 0.1145, "match_basis": "verbatim_token+chapter_route:ch03"}, {"md_atom_id": "md_ch03_a039", "md_file": "knowledge_base/chapters/ch03_submitting_data.md", "md_atom_type": "TABLE_ROW", "md_parent_section": "§3.2.1 [Dataset-level Metadata]", "md_verbatim": "| CE | Clinical Events | Events | One record per event per subject | Tabulation | STUDYID, USUBJID, CETERM, CESTDTC | ce.xpt |", "score": 0.114, "match_basis": "verbatim_token+chapter_route:ch03"}, {"md_atom_id": "md_ch03_a026", "md_file": "knowledge_base/chapters/ch03_submitting_data.md", "md_atom_type": "TABLE_ROW", "md_parent_section": "§3.2.1 [Dataset-level Metadata]", "md_verbatim": "| DM | Demographics | Special Purpose | One record per subject | Tabulation | STUDYID, USUBJID | dm.xpt |", "score": 0.1135, "match_basis": "verbatim_token+chapter_route:ch03"}, {"md_atom_id": "md_ch03_a048", "md_file": "knowledge_base/chapters/ch03_submitting_data.md", "md_atom_type": "TABLE_ROW", "md_parent_section": "§3.2.1 [Dataset-level Metadata]", "md_verbatim": "| DD | Death Details | Findings | One record per finding per subject | Tabulation | STUDYID, USUBJID, DDTESTCD, DDDTC | dd.xpt |", "score": 0.1126, "match_basis": "verbatim_token+chapter_route:ch03"}], "candidate_count": 10, "zero_candidate": false}
{"pdf_atom_id": "ig34_p0020_a010", "pdf_atom_type": "TABLE_ROW", "pdf_source": "SDTMIG_v3.4", "pdf_page": 20, "pdf_parent_section": "§3.2.1 Dataset-level Metadata", "pdf_verbatim": "SUPP-- | Supplemental Qualifiers for [domain name] | Relationship | One record per supplemental qualifier per related parent domain record(s) | Tabulation | STUDYID, RDOMAIN, USUBJID, IDVAR, IDVARVAL, QNAM | supp--.xpt", "figure_ref": null, "candidates": [{"md_atom_id": "md_ch03_a086", "md_file": "knowledge_base/chapters/ch03_submitting_data.md", "md_atom_type": "TABLE_ROW", "md_parent_section": "§3.2.1 [Dataset-level Metadata]", "md_verbatim": "| SUPP-- | Supplemental Qualifiers for [domain name] | Relationship | One record per supplemental qualifier per related parent domain record(s) | Tabulation | STUDYID, RDOMAIN, USUBJID, IDVAR, IDVARVAL, QNAM | supp--.xpt |", "score": 0.9, "match_basis": "verbatim_token+chapter_route:ch03"}, {"md_atom_id": "md_ch03_a083", "md_file": "knowledge_base/chapters/ch03_submitting_data.md", "md_atom_type": "TABLE_ROW", "md_parent_section": "§3.2.1 [Dataset-level Metadata]", "md_verbatim": "| RELREC | Related Records | Relationship | One record per related record, group of records or dataset | Tabulation | STUDYID, RDOMAIN, USUBJID, IDVAR, IDVARVAL, RELID | relrec.xpt |", "score": 0.622, "match_basis": "verbatim_token+chapter_route:ch03"}, {"md_atom_id": "md_ch03_a084", "md_file": "knowledge_base/chapters/ch03_submitting_data.md", "md_atom_type": "TABLE_ROW", "md_parent_section": "§3.2.1 [Dataset-level Metadata]", "md_verbatim": "| RELSPEC | Related Specimens | Relationship | One record per specimen identifier per subject | Tabulation | STUDYID, USUBJID, REFID | relspec.xpt |", "score": 0.5621, "match_basis": "verbatim_token+chapter_route:ch03"}, {"md_atom_id": "md_ch03_a085", "md_file": "knowledge_base/chapters/ch03_submitting_data.md", "md_atom_type": "TABLE_ROW", "md_parent_section": "§3.2.1 [Dataset-level Metadata]", "md_verbatim": "| RELSUB | Related Subjects | Relationship | One record per relationship per related subject per subject | Tabulation | STUDYID, USUBJID, RSUBJID, SREL | relsub.xpt |", "score": 0.5571, "match_basis": "verbatim_token+chapter_route:ch03"}, {"md_atom_id": "md_ch03_a025", "md_file": "knowledge_base/chapters/ch03_submitting_data.md", "md_atom_type": "TABLE_ROW", "md_parent_section": "§3.2.1 [Dataset-level Metadata]", "md_verbatim": "| CO | Comments | Special Purpose | One record per comment per subject | Tabulation | STUDYID, USUBJID, IDVAR, COREF, COOTC | co.xpt |", "score": 0.4978, "match_basis": "verbatim_token+chapter_route:ch03"}], "candidate_count": 5, "zero_candidate": false}
{"pdf_atom_id": "ig34_p0020_a011", "pdf_atom_type": "CODE_LITERAL", "pdf_source": "SDTMIG_v3.4", "pdf_page": 20, "pdf_parent_section": "§3.2.1 Dataset-level Metadata", "pdf_verbatim": "supp--.xpt", "figure_ref": null, "candidates": [{"md_atom_id": "md_ch03_a088", "md_file": "knowledge_base/chapters/ch03_submitting_data.md", "md_atom_type": "SENTENCE", "md_parent_section": "§3.2.1 [Dataset-level Metadata]", "md_verbatim": "Separate Supplemental Qualifier datasets of the form supp--.xpt are required.", "score": 0.135, "match_basis": "verbatim_token+chapter_route:ch03"}, {"md_atom_id": "md_ch03_a086", "md_file": "knowledge_base/chapters/ch03_submitting_data.md", "md_atom_type": "TABLE_ROW", "md_parent_section": "§3.2.1 [Dataset-level Metadata]", "md_verbatim": "| SUPP-- | Supplemental Qualifiers for [domain name] | Relationship | One record per supplemental qualifier per related parent domain record(s) | Tabulation | STUDYID, RDOMAIN, USUBJID, IDVAR, IDVARVAL, QNAM | supp--.xpt |", "score": 0.1161, "match_basis": "verbatim_token+chapter_route:ch03"}, {"md_atom_id": "md_ch03_a097", "md_file": "knowledge_base/chapters/ch03_submitting_data.md", "md_atom_type": "SENTENCE", "md_parent_section": "§3.2.1.1 [Primary Keys]", "md_verbatim": "In certain instances, a supplemental qualifier (SUPP--) variable might also contribute to the natural key of a record for a particular domain.", "score": 0.1067, "match_basis": "verbatim_token+chapter_route:ch03"}, {"md_atom_id": "md_ch03_a082", "md_file": "knowledge_base/chapters/ch03_submitting_data.md", "md_atom_type": "TABLE_ROW", "md_parent_section": "§3.2.1 [Dataset-level Metadata]", "md_verbatim": "| TV | Trial Visits | Trial Design | One record per planned Visit per Arm | Tabulation | STUDYID, ARM, VISIT | tv.xpt |", "score": 0.1054, "match_basis": "verbatim_token+chapter_route:ch03"}, {"md_atom_id": "md_ch03_a078", "md_file": "knowledge_base/chapters/ch03_submitting_data.md", "md_atom_type": "TABLE_ROW", "md_parent_section": "§3.2.1 [Dataset-level Metadata]", "md_verbatim": "| TE | Trial Elements | Trial Design | One record per planned Element | Tabulation | STUDYID, ETCD | te.xpt |", "score": 0.1043, "match_basis": "verbatim_token+chapter_route:ch03"}, {"md_atom_id": "md_ch03_a085", "md_file": "knowledge_base/chapters/ch03_submitting_data.md", "md_atom_type": "TABLE_ROW", "md_parent_section": "§3.2.1 [Dataset-level Metadata]", "md_verbatim": "| RELSUB | Related Subjects | Relationship | One record per relationship per related subject per subject | Tabulation | STUDYID, USUBJID, RSUBJID, SREL | relsub.xpt |", "score": 0.104, "match_basis": "verbatim_token+chapter_route:ch03"}, {"md_atom_id": "md_ch03_a076", "md_file": "knowledge_base/chapters/ch03_submitting_data.md", "md_atom_type": "TABLE_ROW", "md_parent_section": "§3.2.1 [Dataset-level Metadata]", "md_verbatim": "| TA | Trial Arms | Trial Design | One record per planned Element per Arm | Tabulation | STUDYID, ARMCD, TAETORD | ta.xpt |", "score": 0.1028, "match_basis": "verbatim_token+chapter_route:ch03"}, {"md_atom_id": "md_ch03_a080", "md_file": "knowledge_base/chapters/ch03_submitting_data.md", "md_atom_type": "TABLE_ROW", "md_parent_section": "§3.2.1 [Dataset-level Metadata]", "md_verbatim": "| TM | Trial Disease Milestones | Trial Design | One record per Disease Milestone type | Tabulation | STUDYID, MIDSTYPE | tm.xpt |", "score": 0.1028, "match_basis": "verbatim_token+chapter_route:ch03"}, {"md_atom_id": "md_ch03_a037", "md_file": "knowledge_base/chapters/ch03_submitting_data.md", "md_atom_type": "TABLE_ROW", "md_parent_section": "§3.2.1 [Dataset-level Metadata]", "md_verbatim": "| AE | Adverse Events | Events | One record per adverse event per subject | Tabulation | STUDYID, USUBJID, AEDECOD, AESTDTC | ae.xpt |", "score": 0.1025, "match_basis": "verbatim_token+chapter_route:ch03"}, {"md_atom_id": "md_ch03_a043", "md_file": "knowledge_base/chapters/ch03_submitting_data.md", "md_atom_type": "TABLE_ROW", "md_parent_section": "§3.2.1 [Dataset-level Metadata]", "md_verbatim": "| MH | Medical History | Events | One record per medical history event per subject | Tabulation | STUDYID, USUBJID, MHDECOD | mh.xpt |", "score": 0.1025, "match_basis": "verbatim_token+chapter_route:ch03"}], "candidate_count": 10, "zero_candidate": false}
{"pdf_atom_id": "ig34_p0020_a012", "pdf_atom_type": "TABLE_ROW", "pdf_source": "SDTMIG_v3.4", "pdf_page": 20, "pdf_parent_section": "§3.2.1 Dataset-level Metadata", "pdf_verbatim": "OI | Non-host Organism Identifiers | Study Reference | One record per taxon per non-host organism | Tabulation | NHOID, OISEQ | oi.xpt", "figure_ref": null, "candidates": [{"md_atom_id": "md_ch03_a087", "md_file": "knowledge_base/chapters/ch03_submitting_data.md", "md_atom_type": "TABLE_ROW", "md_parent_section": "§3.2.1 [Dataset-level Metadata]", "md_verbatim": "| OI | Non-host Organism Identifiers | Study Reference | One record per taxon per non-host organism | Tabulation | NHOID, OISEQ | oi.xpt |", "score": 0.9, "match_basis": "verbatim_token+chapter_route:ch03"}, {"md_atom_id": "md_ch03_a084", "md_file": "knowledge_base/chapters/ch03_submitting_data.md", "md_atom_type": "TABLE_ROW", "md_parent_section": "§3.2.1 [Dataset-level Metadata]", "md_verbatim": "| RELSPEC | Related Specimens | Relationship | One record per specimen identifier per subject | Tabulation | STUDYID, USUBJID, REFID | relspec.xpt |", "score": 0.5, "match_basis": "verbatim_token+chapter_route:ch03"}, {"md_atom_id": "md_ch03_a038", "md_file": "knowledge_base/chapters/ch03_submitting_data.md", "md_atom_type": "TABLE_ROW", "md_parent_section": "§3.2.1 [Dataset-level Metadata]", "md_verbatim": "| BE | Biospecimen Events | Events | One record per instance per biospecimen event per biospecimen identifier per subject | Tabulation | STUDYID, USUBJID, BEREFID, BETERM, BESTDTC | be.xpt |", "score": 0.4912, "match_basis": "verbatim_token+chapter_route:ch03"}, {"md_atom_id": "md_ch03_a044", "md_file": "knowledge_base/chapters/ch03_submitting_data.md", "md_atom_type": "TABLE_ROW", "md_parent_section": "§3.2.1 [Dataset-level Metadata]", "md_verbatim": "| BS | Biospecimen Findings | Findings | One record per measurement per biospecimen identifier per subject | Tabulation | STUDYID, USUBJID, BSREFID, BSTESTCD | bs.xpt |", "score": 0.4723, "match_basis": "verbatim_token+chapter_route:ch03"}, {"md_atom_id": "md_ch03_a042", "md_file": "knowledge_base/chapters/ch03_submitting_data.md", "md_atom_type": "TABLE_ROW", "md_parent_section": "§3.2.1 [Dataset-level Metadata]", "md_verbatim": "| HO | Healthcare Encounters | Events | One record per healthcare encounter per subject | Tabulation | STUDYID, USUBJID, HOTERM, HOSTDTC | ho.xpt |", "score": 0.4624, "match_basis": "verbatim_token+chapter_route:ch03"}], "candidate_count": 5, "zero_candidate": false}
{"pdf_atom_id": "ig34_p0020_a013", "pdf_atom_type": "CODE_LITERAL", "pdf_source": "SDTMIG_v3.4", "pdf_page": 20, "pdf_parent_section": "§3.2.1 Dataset-level Metadata", "pdf_verbatim": "oi.xpt", "figure_ref": null, "candidates": [{"md_atom_id": "md_ch03_a082", "md_file": "knowledge_base/chapters/ch03_submitting_data.md", "md_atom_type": "TABLE_ROW", "md_parent_section": "§3.2.1 [Dataset-level Metadata]", "md_verbatim": "| TV | Trial Visits | Trial Design | One record per planned Visit per Arm | Tabulation | STUDYID, ARM, VISIT | tv.xpt |", "score": 0.1062, "match_basis": "verbatim_token+chapter_route:ch03"}, {"md_atom_id": "md_ch03_a078", "md_file": "knowledge_base/chapters/ch03_submitting_data.md", "md_atom_type": "TABLE_ROW", "md_parent_section": "§3.2.1 [Dataset-level Metadata]", "md_verbatim": "| TE | Trial Elements | Trial Design | One record per planned Element | Tabulation | STUDYID, ETCD | te.xpt |", "score": 0.105, "match_basis": "verbatim_token+chapter_route:ch03"}, {"md_atom_id": "md_ch03_a088", "md_file": "knowledge_base/chapters/ch03_submitting_data.md", "md_atom_type": "SENTENCE", "md_parent_section": "§3.2.1 [Dataset-level Metadata]", "md_verbatim": "Separate Supplemental Qualifier datasets of the form supp--.xpt are required.", "score": 0.105, "match_basis": "verbatim_token+chapter_route:ch03"}, {"md_atom_id": "md_ch03_a085", "md_file": "knowledge_base/chapters/ch03_submitting_data.md", "md_atom_type": "TABLE_ROW", "md_parent_section": "§3.2.1 [Dataset-level Metadata]", "md_verbatim": "| RELSUB | Related Subjects | Relationship | One record per relationship per related subject per subject | Tabulation | STUDYID, USUBJID, RSUBJID, SREL | relsub.xpt |", "score": 0.1046, "match_basis": "verbatim_token+chapter_route:ch03"}, {"md_atom_id": "md_ch03_a076", "md_file": "knowledge_base/chapters/ch03_submitting_data.md", "md_atom_type": "TABLE_ROW", "md_parent_section": "§3.2.1 [Dataset-level Metadata]", "md_verbatim": "| TA | Trial Arms | Trial Design | One record per planned Element per Arm | Tabulation | STUDYID, ARMCD, TAETORD | ta.xpt |", "score": 0.1033, "match_basis": "verbatim_token+chapter_route:ch03"}, {"md_atom_id": "md_ch03_a080", "md_file": "knowledge_base/chapters/ch03_submitting_data.md", "md_atom_type": "TABLE_ROW", "md_parent_section": "§3.2.1 [Dataset-level Metadata]", "md_verbatim": "| TM | Trial Disease Milestones | Trial Design | One record per Disease Milestone type | Tabulation | STUDYID, MIDSTYPE | tm.xpt |", "score": 0.1033, "match_basis": "verbatim_token+chapter_route:ch03"}, {"md_atom_id": "md_ch03_a037", "md_file": "knowledge_base/chapters/ch03_submitting_data.md", "md_atom_type": "TABLE_ROW", "md_parent_section": "§3.2.1 [Dataset-level Metadata]", "md_verbatim": "| AE | Adverse Events | Events | One record per adverse event per subject | Tabulation | STUDYID, USUBJID, AEDECOD, AESTDTC | ae.xpt |", "score": 0.103, "match_basis": "verbatim_token+chapter_route:ch03"}, {"md_atom_id": "md_ch03_a043", "md_file": "knowledge_base/chapters/ch03_submitting_data.md", "md_atom_type": "TABLE_ROW", "md_parent_section": "§3.2.1 [Dataset-level Metadata]", "md_verbatim": "| MH | Medical History | Events | One record per medical history event per subject | Tabulation | STUDYID, USUBJID, MHDECOD | mh.xpt |", "score": 0.103, "match_basis": "verbatim_token+chapter_route:ch03"}, {"md_atom_id": "md_ch03_a039", "md_file": "knowledge_base/chapters/ch03_submitting_data.md", "md_atom_type": "TABLE_ROW", "md_parent_section": "§3.2.1 [Dataset-level Metadata]", "md_verbatim": "| CE | Clinical Events | Events | One record per event per subject | Tabulation | STUDYID, USUBJID, CETERM, CESTDTC | ce.xpt |", "score": 0.1028, "match_basis": "verbatim_token+chapter_route:ch03"}, {"md_atom_id": "md_ch03_a079", "md_file": "knowledge_base/chapters/ch03_submitting_data.md", "md_atom_type": "TABLE_ROW", "md_parent_section": "§3.2.1 [Dataset-level Metadata]", "md_verbatim": "| TI | Trial Inclusion/Exclusion Criteria | Trial Design | One record per I/E criterion | Tabulation | STUDYID, IETESTCD | ti.xpt |", "score": 0.1028, "match_basis": "verbatim_token+chapter_route:ch03"}], "candidate_count": 10, "zero_candidate": false}
{"pdf_atom_id": "ig34_p0020_a014", "pdf_atom_type": "NOTE", "pdf_source": "SDTMIG_v3.4", "pdf_page": 20, "pdf_parent_section": "§3.2.1 Dataset-level Metadata", "pdf_verbatim": "Separate Supplemental Qualifier datasets of the form supp--.xpt are required. See Section 8.4, Relating Non-standard Variable Values to a Parent Domain.", "figure_ref": null, "candidates": [{"md_atom_id": "md_ch03_a088", "md_file": "knowledge_base/chapters/ch03_submitting_data.md", "md_atom_type": "SENTENCE", "md_parent_section": "§3.2.1 [Dataset-level Metadata]", "md_verbatim": "Separate Supplemental Qualifier datasets of the form supp--.xpt are required.", "score": 0.5343, "match_basis": "verbatim_token+chapter_route:ch03"}, {"md_atom_id": "md_ch03_a089", "md_file": "knowledge_base/chapters/ch03_submitting_data.md", "md_atom_type": "SENTENCE", "md_parent_section": "§3.2.1 [Dataset-level Metadata]", "md_verbatim": "See Section 8.4, Relating Non-standard Variable Values to a Parent Domain.", "score": 0.51, "match_basis": "verbatim_token+chapter_route:ch03"}, {"md_atom_id": "md_ch03_a022", "md_file": "knowledge_base/chapters/ch03_submitting_data.md", "md_atom_type": "NOTE", "md_parent_section": "§3.2.1 [Dataset-level Metadata]", "md_verbatim": "**Note:** The key variables shown in this table are examples only. A sponsor's actual key structure may be different. The order of classes and datasets in this table is not intended as a normative order of datasets in a submission.", "score": 0.3971, "match_basis": "verbatim_token+chapter_route:ch03"}, {"md_atom_id": "md_ch03_a097", "md_file": "knowledge_base/chapters/ch03_submitting_data.md", "md_atom_type": "SENTENCE", "md_parent_section": "§3.2.1.1 [Primary Keys]", "md_verbatim": "In certain instances, a supplemental qualifier (SUPP--) variable might also contribute to the natural key of a record for a particular domain.", "score": 0.3799, "match_basis": "verbatim_token+chapter_route:ch03"}, {"md_atom_id": "md_ch03_a020", "md_file": "knowledge_base/chapters/ch03_submitting_data.md", "md_atom_type": "NOTE", "md_parent_section": "§3.2 [Using the CDISC Domain Models in Regulatory Submissions — Dataset Metadata]", "md_verbatim": "**Note:** \"In the event that no records are present in a dataset (e.g., a small PK study where no subjects took concomitant medications), the empty dataset should not be submitted and should not be described in the Define-XML document.\"", "score": 0.3612, "match_basis": "verbatim_token+chapter_route:ch03"}], "candidate_count": 5, "zero_candidate": false}
{"pdf_atom_id": "ig34_p0020_a015", "pdf_atom_type": "HEADING", "pdf_source": "SDTMIG_v3.4", "pdf_page": 20, "pdf_parent_section": "§3.2.1.1 Primary Keys", "pdf_verbatim": "3.2.1.1  Primary Keys", "figure_ref": null, "candidates": [{"md_atom_id": "md_ch03_a090", "md_file": "knowledge_base/chapters/ch03_submitting_data.md", "md_atom_type": "HEADING", "md_parent_section": "§3.2.1 [Dataset-level Metadata]", "md_verbatim": "### 3.2.1.1 Primary Keys", "score": 0.9, "match_basis": "verbatim_token+chapter_route:ch03"}, {"md_atom_id": "md_ch03_a001", "md_file": "knowledge_base/chapters/ch03_submitting_data.md", "md_atom_type": "HEADING", "md_parent_section": "§3 [Submitting Data in Standard Format]", "md_verbatim": "# SDTMIG v3.4 — Chapter 3: Submitting Data in Standard Format", "score": 0.3, "match_basis": "verbatim_token+chapter_route:ch03"}, {"md_atom_id": "md_ch03_a003", "md_file": "knowledge_base/chapters/ch03_submitting_data.md", "md_atom_type": "HEADING", "md_parent_section": "§3 [Submitting Data in Standard Format]", "md_verbatim": "## 3.1 Standard Metadata for Dataset Contents and Attributes", "score": 0.3, "match_basis": "verbatim_token+chapter_route:ch03"}, {"md_atom_id": "md_ch03_a013", "md_file": "knowledge_base/chapters/ch03_submitting_data.md", "md_atom_type": "HEADING", "md_parent_section": "§3 [Submitting Data in Standard Format]", "md_verbatim": "## 3.2 Using the CDISC Domain Models in Regulatory Submissions — Dataset Metadata", "score": 0.3, "match_basis": "verbatim_token+chapter_route:ch03"}, {"md_atom_id": "md_ch03_a021", "md_file": "knowledge_base/chapters/ch03_submitting_data.md", "md_atom_type": "HEADING", "md_parent_section": "§3.2 [Using the CDISC Domain Models in Regulatory Submissions — Dataset Metadata]", "md_verbatim": "### 3.2.1 Dataset-level Metadata", "score": 0.3, "match_basis": "verbatim_token+chapter_route:ch03"}], "candidate_count": 5, "zero_candidate": false}
{"pdf_atom_id": "ig34_p0020_a016", "pdf_atom_type": "SENTENCE", "pdf_source": "SDTMIG_v3.4", "pdf_page": 20, "pdf_parent_section": "§3.2.1.1 Primary Keys", "pdf_verbatim": "The table in Section 3.2.1, Dataset-level Metadata, shows examples of what a sponsor might submit as variables that comprise the primary key for SDTM datasets.", "figure_ref": null, "candidates": [{"md_atom_id": "md_ch03_a091", "md_file": "knowledge_base/chapters/ch03_submitting_data.md", "md_atom_type": "SENTENCE", "md_parent_section": "§3.2.1.1 [Primary Keys]", "md_verbatim": "The table in Section 3.2.1, Dataset-level Metadata, shows examples of what a sponsor might submit as variables that comprise the primary key for SDTM datasets.", "score": 0.9, "match_basis": "verbatim_token+chapter_route:ch03"}, {"md_atom_id": "md_ch03_a023", "md_file": "knowledge_base/chapters/ch03_submitting_data.md", "md_atom_type": "SENTENCE", "md_parent_section": "§3.2.1 [Dataset-level Metadata]", "md_verbatim": "The Dataset-level Metadata table provides examples of dataset structures:", "score": 0.4692, "match_basis": "verbatim_token+chapter_route:ch03"}, {"md_atom_id": "md_ch03_a096", "md_file": "knowledge_base/chapters/ch03_submitting_data.md", "md_atom_type": "SENTENCE", "md_parent_section": "§3.2.1.1 [Primary Keys]", "md_verbatim": "In most domains, --SEQ will be a surrogate key for a set of variables that comprise the natural key.", "score": 0.4326, "match_basis": "verbatim_token+chapter_route:ch03"}, {"md_atom_id": "md_ch03_a107", "md_file": "knowledge_base/chapters/ch03_submitting_data.md", "md_atom_type": "SENTENCE", "md_parent_section": "§3.2.1.2 [CDISC Submission Value-level Metadata]", "md_verbatim": "The value-level metadata should be provided as a separate section of the Define-XML document.", "score": 0.4032, "match_basis": "verbatim_token+chapter_route:ch03"}, {"md_atom_id": "md_ch03_a018", "md_file": "knowledge_base/chapters/ch03_submitting_data.md", "md_atom_type": "SENTENCE", "md_parent_section": "§3.2 [Using the CDISC Domain Models in Regulatory Submissions — Dataset Metadata]", "md_verbatim": "Dataset definition metadata should include:", "score": 0.3923, "match_basis": "verbatim_token+chapter_route:ch03"}], "candidate_count": 5, "zero_candidate": false}
{"pdf_atom_id": "ig34_p0020_a017", "pdf_atom_type": "SENTENCE", "pdf_source": "SDTMIG_v3.4", "pdf_page": 20, "pdf_parent_section": "§3.2.1.1 Primary Keys", "pdf_verbatim": "Because the purpose of the Keys column is to aid reviewers in understanding the structure of a dataset, sponsors should list all of the natural keys for the dataset.", "figure_ref": null, "candidates": [{"md_atom_id": "md_ch03_a092", "md_file": "knowledge_base/chapters/ch03_submitting_data.md", "md_atom_type": "SENTENCE", "md_parent_section": "§3.2.1.1 [Primary Keys]", "md_verbatim": "Because the purpose of the Keys column is to aid reviewers in understanding the structure of a dataset, sponsors should list all of the natural keys for the dataset.", "score": 0.9, "match_basis": "verbatim_token+chapter_route:ch03"}, {"md_atom_id": "md_ch03_a094", "md_file": "knowledge_base/chapters/ch03_submitting_data.md", "md_atom_type": "SENTENCE", "md_parent_section": "§3.2.1.1 [Primary Keys]", "md_verbatim": "The identified keys for each dataset should be consistent with the description of the dataset structure as described in the Define-XML document.", "score": 0.4269, "match_basis": "verbatim_token+chapter_route:ch03"}, {"md_atom_id": "md_ch03_a014", "md_file": "knowledge_base/chapters/ch03_submitting_data.md", "md_atom_type": "SENTENCE", "md_parent_section": "§3.2 [Using the CDISC Domain Models in Regulatory Submissions — Dataset Metadata]", "md_verbatim": "The Define-XML document that accompanies a submission should also describe each dataset that is included in the submission and describe the natural key structure of each dataset.", "score": 0.4243, "match_basis": "verbatim_token+chapter_route:ch03"}, {"md_atom_id": "md_ch03_a093", "md_file": "knowledge_base/chapters/ch03_submitting_data.md", "md_atom_type": "SENTENCE", "md_parent_section": "§3.2.1.1 [Primary Keys]", "md_verbatim": "These keys should define uniqueness for records in a dataset, and may define a record sort order.", "score": 0.4103, "match_basis": "verbatim_token+chapter_route:ch03"}, {"md_atom_id": "md_ch03_a104", "md_file": "knowledge_base/chapters/ch03_submitting_data.md", "md_atom_type": "SENTENCE", "md_parent_section": "§3.2.1.2 [CDISC Submission Value-level Metadata]", "md_verbatim": "Because general observation class data structures are fixed, sometimes information that might appear as columns in a more horizontal (denormalized) structure in presentations and reports will instead be represented as rows in an SDTM Findings structure.", "score": 0.398, "match_basis": "verbatim_token+chapter_route:ch03"}], "candidate_count": 5, "zero_candidate": false}
{"pdf_atom_id": "ig34_p0020_a018", "pdf_atom_type": "SENTENCE", "pdf_source": "SDTMIG_v3.4", "pdf_page": 20, "pdf_parent_section": "§3.2.1.1 Primary Keys", "pdf_verbatim": "These keys should define uniqueness for records within a dataset, and may define a record sort order.", "figure_ref": null, "candidates": [{"md_atom_id": "md_ch03_a093", "md_file": "knowledge_base/chapters/ch03_submitting_data.md", "md_atom_type": "SENTENCE", "md_parent_section": "§3.2.1.1 [Primary Keys]", "md_verbatim": "These keys should define uniqueness for records in a dataset, and may define a record sort order.", "score": 0.8429, "match_basis": "verbatim_token+chapter_route:ch03"}, {"md_atom_id": "md_ch03_a094", "md_file": "knowledge_base/chapters/ch03_submitting_data.md", "md_atom_type": "SENTENCE", "md_parent_section": "§3.2.1.1 [Primary Keys]", "md_verbatim": "The identified keys for each dataset should be consistent with the description of the dataset structure as described in the Define-XML document.", "score": 0.4357, "match_basis": "verbatim_token+chapter_route:ch03"}, {"md_atom_id": "md_ch03_a018", "md_file": "knowledge_base/chapters/ch03_submitting_data.md", "md_atom_type": "SENTENCE", "md_parent_section": "§3.2 [Using the CDISC Domain Models in Regulatory Submissions — Dataset Metadata]", "md_verbatim": "Dataset definition metadata should include:", "score": 0.4286, "match_basis": "verbatim_token+chapter_route:ch03"}, {"md_atom_id": "md_ch03_a092", "md_file": "knowledge_base/chapters/ch03_submitting_data.md", "md_atom_type": "SENTENCE", "md_parent_section": "§3.2.1.1 [Primary Keys]", "md_verbatim": "Because the purpose of the Keys column is to aid reviewers in understanding the structure of a dataset, sponsors should list all of the natural keys for the dataset.", "score": 0.4055, "match_basis": "verbatim_token+chapter_route:ch03"}, {"md_atom_id": "md_ch03_a014", "md_file": "knowledge_base/chapters/ch03_submitting_data.md", "md_atom_type": "SENTENCE", "md_parent_section": "§3.2 [Using the CDISC Domain Models in Regulatory Submissions — Dataset Metadata]", "md_verbatim": "The Define-XML document that accompanies a submission should also describe each dataset that is included in the submission and describe the natural key structure of each dataset.", "score": 0.4011, "match_basis": "verbatim_token+chapter_route:ch03"}], "candidate_count": 5, "zero_candidate": false}
{"pdf_atom_id": "ig34_p0020_a019", "pdf_atom_type": "SENTENCE", "pdf_source": "SDTMIG_v3.4", "pdf_page": 20, "pdf_parent_section": "§3.2.1.1 Primary Keys", "pdf_verbatim": "The identified keys for each dataset should be consistent with the description of the dataset structure as described in the Define-XML document.", "figure_ref": null, "candidates": [{"md_atom_id": "md_ch03_a094", "md_file": "knowledge_base/chapters/ch03_submitting_data.md", "md_atom_type": "SENTENCE", "md_parent_section": "§3.2.1.1 [Primary Keys]", "md_verbatim": "The identified keys for each dataset should be consistent with the description of the dataset structure as described in the Define-XML document.", "score": 0.9, "match_basis": "verbatim_token+chapter_route:ch03"}, {"md_atom_id": "md_ch03_a014", "md_file": "knowledge_base/chapters/ch03_submitting_data.md", "md_atom_type": "SENTENCE", "md_parent_section": "§3.2 [Using the CDISC Domain Models in Regulatory Submissions — Dataset Metadata]", "md_verbatim": "The Define-XML document that accompanies a submission should also describe each dataset that is included in the submission and describe the natural key structure of each dataset.", "score": 0.5478, "match_basis": "verbatim_token+chapter_route:ch03"}, {"md_atom_id": "md_ch03_a005", "md_file": "knowledge_base/chapters/ch03_submitting_data.md", "md_atom_type": "SENTENCE", "md_parent_section": "§3.1 [Standard Metadata for Dataset Contents and Attributes]", "md_verbatim": "These include descriptive metadata attributes that should be included in a Define-XML document.", "score": 0.4857, "match_basis": "verbatim_token+chapter_route:ch03"}, {"md_atom_id": "md_ch03_a107", "md_file": "knowledge_base/chapters/ch03_submitting_data.md", "md_atom_type": "SENTENCE", "md_parent_section": "§3.2.1.2 [CDISC Submission Value-level Metadata]", "md_verbatim": "The value-level metadata should be provided as a separate section of the Define-XML document.", "score": 0.4482, "match_basis": "verbatim_token+chapter_route:ch03"}, {"md_atom_id": "md_ch03_a092", "md_file": "knowledge_base/chapters/ch03_submitting_data.md", "md_atom_type": "SENTENCE", "md_parent_section": "§3.2.1.1 [Primary Keys]", "md_verbatim": "Because the purpose of the Keys column is to aid reviewers in understanding the structure of a dataset, sponsors should list all of the natural keys for the dataset.", "score": 0.4269, "match_basis": "verbatim_token+chapter_route:ch03"}], "candidate_count": 5, "zero_candidate": false}
{"pdf_atom_id": "ig34_p0020_a020", "pdf_atom_type": "SENTENCE", "pdf_source": "SDTMIG_v3.4", "pdf_page": 20, "pdf_parent_section": "§3.2.1.1 Primary Keys", "pdf_verbatim": "For all the general observation-class domains (and for some special-purpose domains), the --SEQ variable was created so that a unique record could be identified consistently across all of these domains via its use, along with STUDYID, USUBJID, and DOMAIN.", "figure_ref": null, "candidates": [{"md_atom_id": "md_ch03_a095", "md_file": "knowledge_base/chapters/ch03_submitting_data.md", "md_atom_type": "SENTENCE", "md_parent_section": "§3.2.1.1 [Primary Keys]", "md_verbatim": "For all the general observation-class domains (and for some special-purpose domains), the --SEQ variable was created so that a unique record could be identified consistently across all of these domains via its use, along with STUDYID, USUBJID, and DOMAIN.", "score": 0.9, "match_basis": "verbatim_token+chapter_route:ch03"}, {"md_atom_id": "md_ch03_a011", "md_file": "knowledge_base/chapters/ch03_submitting_data.md", "md_atom_type": "SENTENCE", "md_parent_section": "§3.1 [Standard Metadata for Dataset Contents and Attributes]", "md_verbatim": "The models also show how a standard variable from a general observation class should be adjusted to meet the specific content needs of a particular domain, including making the label more meaningful, specifying controlled terminology, and creating domain-specific notes and examples.", "score": 0.4344, "match_basis": "verbatim_token+chapter_route:ch03"}, {"md_atom_id": "md_ch03_a010", "md_file": "knowledge_base/chapters/ch03_submitting_data.md", "md_atom_type": "SENTENCE", "md_parent_section": "§3.1 [Standard Metadata for Dataset Contents and Attributes]", "md_verbatim": "In particular, these models illustrate the selection of a subset of the variables offered in 1 of the general observation classes, along with applicable timing variables.", "score": 0.4329, "match_basis": "verbatim_token+chapter_route:ch03"}, {"md_atom_id": "md_ch03_a009", "md_file": "knowledge_base/chapters/ch03_submitting_data.md", "md_atom_type": "SENTENCE", "md_parent_section": "§3.1 [Standard Metadata for Dataset Contents and Attributes]", "md_verbatim": "The domain models in Section 6, Domain Models Based on the General Observation Classes, illustrate how to apply the SDTM when creating a specific domain dataset.", "score": 0.4286, "match_basis": "verbatim_token+chapter_route:ch03"}, {"md_atom_id": "md_ch03_a104", "md_file": "knowledge_base/chapters/ch03_submitting_data.md", "md_atom_type": "SENTENCE", "md_parent_section": "§3.2.1.2 [CDISC Submission Value-level Metadata]", "md_verbatim": "Because general observation class data structures are fixed, sometimes information that might appear as columns in a more horizontal (denormalized) structure in presentations and reports will instead be represented as rows in an SDTM Findings structure.", "score": 0.3995, "match_basis": "verbatim_token+chapter_route:ch03"}], "candidate_count": 5, "zero_candidate": false}
{"pdf_atom_id": "ig34_p0020_a021", "pdf_atom_type": "SENTENCE", "pdf_source": "SDTMIG_v3.4", "pdf_page": 20, "pdf_parent_section": "§3.2.1.1 Primary Keys", "pdf_verbatim": "In most domains, --SEQ will be a surrogate key for a set of variables that comprise the natural key.", "figure_ref": null, "candidates": [{"md_atom_id": "md_ch03_a096", "md_file": "knowledge_base/chapters/ch03_submitting_data.md", "md_atom_type": "SENTENCE", "md_parent_section": "§3.2.1.1 [Primary Keys]", "md_verbatim": "In most domains, --SEQ will be a surrogate key for a set of variables that comprise the natural key.", "score": 0.9, "match_basis": "verbatim_token+chapter_route:ch03"}, {"md_atom_id": "md_ch03_a091", "md_file": "knowledge_base/chapters/ch03_submitting_data.md", "md_atom_type": "SENTENCE", "md_parent_section": "§3.2.1.1 [Primary Keys]", "md_verbatim": "The table in Section 3.2.1, Dataset-level Metadata, shows examples of what a sponsor might submit as variables that comprise the primary key for SDTM datasets.", "score": 0.4326, "match_basis": "verbatim_token+chapter_route:ch03"}, {"md_atom_id": "md_ch03_a097", "md_file": "knowledge_base/chapters/ch03_submitting_data.md", "md_atom_type": "SENTENCE", "md_parent_section": "§3.2.1.1 [Primary Keys]", "md_verbatim": "In certain instances, a supplemental qualifier (SUPP--) variable might also contribute to the natural key of a record for a particular domain.", "score": 0.4226, "match_basis": "verbatim_token+chapter_route:ch03"}, {"md_atom_id": "md_ch03_a089", "md_file": "knowledge_base/chapters/ch03_submitting_data.md", "md_atom_type": "SENTENCE", "md_parent_section": "§3.2.1 [Dataset-level Metadata]", "md_verbatim": "See Section 8.4, Relating Non-standard Variable Values to a Parent Domain.", "score": 0.3882, "match_basis": "verbatim_token+chapter_route:ch03"}, {"md_atom_id": "md_ch03_a095", "md_file": "knowledge_base/chapters/ch03_submitting_data.md", "md_atom_type": "SENTENCE", "md_parent_section": "§3.2.1.1 [Primary Keys]", "md_verbatim": "For all the general observation-class domains (and for some special-purpose domains), the --SEQ variable was created so that a unique record could be identified consistently across all of these domains via its use, along with STUDYID, USUBJID, and DOMAIN.", "score": 0.3844, "match_basis": "verbatim_token+chapter_route:ch03"}], "candidate_count": 5, "zero_candidate": false}
{"pdf_atom_id": "ig34_p0020_a022", "pdf_atom_type": "SENTENCE", "pdf_source": "SDTMIG_v3.4", "pdf_page": 20, "pdf_parent_section": "§3.2.1.1 Primary Keys", "pdf_verbatim": "In certain instances, a supplemental qualifier (SUPP--) variable might also contribute to the natural key of a record for a particular domain.", "figure_ref": null, "candidates": [{"md_atom_id": "md_ch03_a097", "md_file": "knowledge_base/chapters/ch03_submitting_data.md", "md_atom_type": "SENTENCE", "md_parent_section": "§3.2.1.1 [Primary Keys]", "md_verbatim": "In certain instances, a supplemental qualifier (SUPP--) variable might also contribute to the natural key of a record for a particular domain.", "score": 0.9, "match_basis": "verbatim_token+chapter_route:ch03"}, {"md_atom_id": "md_ch03_a088", "md_file": "knowledge_base/chapters/ch03_submitting_data.md", "md_atom_type": "SENTENCE", "md_parent_section": "§3.2.1 [Dataset-level Metadata]", "md_verbatim": "Separate Supplemental Qualifier datasets of the form supp--.xpt are required.", "score": 0.4319, "match_basis": "verbatim_token+chapter_route:ch03"}, {"md_atom_id": "md_ch03_a096", "md_file": "knowledge_base/chapters/ch03_submitting_data.md", "md_atom_type": "SENTENCE", "md_parent_section": "§3.2.1.1 [Primary Keys]", "md_verbatim": "In most domains, --SEQ will be a surrogate key for a set of variables that comprise the natural key.", "score": 0.4226, "match_basis": "verbatim_token+chapter_route:ch03"}, {"md_atom_id": "md_ch03_a011", "md_file": "knowledge_base/chapters/ch03_submitting_data.md", "md_atom_type": "SENTENCE", "md_parent_section": "§3.1 [Standard Metadata for Dataset Contents and Attributes]", "md_verbatim": "The models also show how a standard variable from a general observation class should be adjusted to meet the specific content needs of a particular domain, including making the label more meaningful, specifying controlled terminology, and creating domain-specific notes and examples.", "score": 0.4053, "match_basis": "verbatim_token+chapter_route:ch03"}, {"md_atom_id": "md_ch03_a089", "md_file": "knowledge_base/chapters/ch03_submitting_data.md", "md_atom_type": "SENTENCE", "md_parent_section": "§3.2.1 [Dataset-level Metadata]", "md_verbatim": "See Section 8.4, Relating Non-standard Variable Values to a Parent Domain.", "score": 0.3894, "match_basis": "verbatim_token+chapter_route:ch03"}], "candidate_count": 5, "zero_candidate": false}
{"pdf_atom_id": "ig34_p0020_a023", "pdf_atom_type": "SENTENCE", "pdf_source": "SDTMIG_v3.4", "pdf_page": 20, "pdf_parent_section": "§3.2.1.1 Primary Keys", "pdf_verbatim": "See Section 4.1.9, Assigning Natural Keys in the Metadata, for how this should be represented, and for additional information on keys.", "figure_ref": null, "candidates": [{"md_atom_id": "md_ch03_a098", "md_file": "knowledge_base/chapters/ch03_submitting_data.md", "md_atom_type": "SENTENCE", "md_parent_section": "§3.2.1.1 [Primary Keys]", "md_verbatim": "See Section 4.1.9, Assigning Natural Keys in the Metadata, for how this should be represented, and for additional information on keys.", "score": 0.9, "match_basis": "verbatim_token+chapter_route:ch03"}, {"md_atom_id": "md_ch03_a107", "md_file": "knowledge_base/chapters/ch03_submitting_data.md", "md_atom_type": "SENTENCE", "md_parent_section": "§3.2.1.2 [CDISC Submission Value-level Metadata]", "md_verbatim": "The value-level metadata should be provided as a separate section of the Define-XML document.", "score": 0.42, "match_basis": "verbatim_token+chapter_route:ch03"}, {"md_atom_id": "md_ch03_a018", "md_file": "knowledge_base/chapters/ch03_submitting_data.md", "md_atom_type": "SENTENCE", "md_parent_section": "§3.2 [Using the CDISC Domain Models in Regulatory Submissions — Dataset Metadata]", "md_verbatim": "Dataset definition metadata should include:", "score": 0.4114, "match_basis": "verbatim_token+chapter_route:ch03"}, {"md_atom_id": "md_ch03_a104", "md_file": "knowledge_base/chapters/ch03_submitting_data.md", "md_atom_type": "SENTENCE", "md_parent_section": "§3.2.1.2 [CDISC Submission Value-level Metadata]", "md_verbatim": "Because general observation class data structures are fixed, sometimes information that might appear as columns in a more horizontal (denormalized) structure in presentations and reports will instead be represented as rows in an SDTM Findings structure.", "score": 0.4083, "match_basis": "verbatim_token+chapter_route:ch03"}, {"md_atom_id": "md_ch03_a105", "md_file": "knowledge_base/chapters/ch03_submitting_data.md", "md_atom_type": "SENTENCE", "md_parent_section": "§3.2.1.2 [CDISC Submission Value-level Metadata]", "md_verbatim": "Because many different types of observations are all presented in the same structure, there is a need to provide additional metadata to describe expected properties that differentiate (e.g., hematology lab results from serum chemistry lab results in terms of data type, standard units, and other attributes).", "score": 0.4006, "match_basis": "verbatim_token+chapter_route:ch03"}], "candidate_count": 5, "zero_candidate": false}
{"pdf_atom_id": "ig34_p0020_a024", "pdf_atom_type": "HEADING", "pdf_source": "SDTMIG_v3.4", "pdf_page": 20, "pdf_parent_section": "§3.2.1.1 Primary Keys", "pdf_verbatim": "Definitions", "figure_ref": null, "candidates": [{"md_atom_id": "md_ch03_a013", "md_file": "knowledge_base/chapters/ch03_submitting_data.md", "md_atom_type": "HEADING", "md_parent_section": "§3 [Submitting Data in Standard Format]", "md_verbatim": "## 3.2 Using the CDISC Domain Models in Regulatory Submissions — Dataset Metadata", "score": 0.325, "match_basis": "verbatim_token+chapter_route:ch03"}, {"md_atom_id": "md_ch03_a102", "md_file": "knowledge_base/chapters/ch03_submitting_data.md", "md_atom_type": "HEADING", "md_parent_section": "§3.2.1 [Dataset-level Metadata]", "md_verbatim": "### 3.2.1.2 CDISC Submission Value-level Metadata", "score": 0.3194, "match_basis": "verbatim_token+chapter_route:ch03"}, {"md_atom_id": "md_ch03_a001", "md_file": "knowledge_base/chapters/ch03_submitting_data.md", "md_atom_type": "HEADING", "md_parent_section": "§3 [Submitting Data in Standard Format]", "md_verbatim": "# SDTMIG v3.4 — Chapter 3: Submitting Data in Standard Format", "score": 0.3, "match_basis": "verbatim_token+chapter_route:ch03"}, {"md_atom_id": "md_ch03_a003", "md_file": "knowledge_base/chapters/ch03_submitting_data.md", "md_atom_type": "HEADING", "md_parent_section": "§3 [Submitting Data in Standard Format]", "md_verbatim": "## 3.1 Standard Metadata for Dataset Contents and Attributes", "score": 0.3, "match_basis": "verbatim_token+chapter_route:ch03"}, {"md_atom_id": "md_ch03_a021", "md_file": "knowledge_base/chapters/ch03_submitting_data.md", "md_atom_type": "HEADING", "md_parent_section": "§3.2 [Using the CDISC Domain Models in Regulatory Submissions — Dataset Metadata]", "md_verbatim": "### 3.2.1 Dataset-level Metadata", "score": 0.3, "match_basis": "verbatim_token+chapter_route:ch03"}], "candidate_count": 5, "zero_candidate": false}
{"pdf_atom_id": "ig34_p0020_a025", "pdf_atom_type": "SENTENCE", "pdf_source": "SDTMIG_v3.4", "pdf_page": 20, "pdf_parent_section": "§3.2.1.1 Primary Keys", "pdf_verbatim": "A natural key is a set of data (1 or more columns of an entity) that uniquely identifies that entity and distinguishes it from any other row in the table.", "figure_ref": null, "candidates": [{"md_atom_id": "md_ch03_a092", "md_file": "knowledge_base/chapters/ch03_submitting_data.md", "md_atom_type": "SENTENCE", "md_parent_section": "§3.2.1.1 [Primary Keys]", "md_verbatim": "Because the purpose of the Keys column is to aid reviewers in understanding the structure of a dataset, sponsors should list all of the natural keys for the dataset.", "score": 0.3981, "match_basis": "verbatim_token+chapter_route:ch03"}, {"md_atom_id": "md_ch03_a095", "md_file": "knowledge_base/chapters/ch03_submitting_data.md", "md_atom_type": "SENTENCE", "md_parent_section": "§3.2.1.1 [Primary Keys]", "md_verbatim": "For all the general observation-class domains (and for some special-purpose domains), the --SEQ variable was created so that a unique record could be identified consistently across all of these domains via its use, along with STUDYID, USUBJID, and DOMAIN.", "score": 0.3851, "match_basis": "verbatim_token+chapter_route:ch03"}, {"md_atom_id": "md_ch03_a096", "md_file": "knowledge_base/chapters/ch03_submitting_data.md", "md_atom_type": "SENTENCE", "md_parent_section": "§3.2.1.1 [Primary Keys]", "md_verbatim": "In most domains, --SEQ will be a surrogate key for a set of variables that comprise the natural key.", "score": 0.3847, "match_basis": "verbatim_token+chapter_route:ch03"}, {"md_atom_id": "md_ch03_a014", "md_file": "knowledge_base/chapters/ch03_submitting_data.md", "md_atom_type": "SENTENCE", "md_parent_section": "§3.2 [Using the CDISC Domain Models in Regulatory Submissions — Dataset Metadata]", "md_verbatim": "The Define-XML document that accompanies a submission should also describe each dataset that is included in the submission and describe the natural key structure of each dataset.", "score": 0.3818, "match_basis": "verbatim_token+chapter_route:ch03"}, {"md_atom_id": "md_ch03_a094", "md_file": "knowledge_base/chapters/ch03_submitting_data.md", "md_atom_type": "SENTENCE", "md_parent_section": "§3.2.1.1 [Primary Keys]", "md_verbatim": "The identified keys for each dataset should be consistent with the description of the dataset structure as described in the Define-XML document.", "score": 0.3816, "match_basis": "verbatim_token+chapter_route:ch03"}], "candidate_count": 5, "zero_candidate": false}
{"pdf_atom_id": "ig34_p0020_a026", "pdf_atom_type": "SENTENCE", "pdf_source": "SDTMIG_v3.4", "pdf_page": 20, "pdf_parent_section": "§3.2.1.1 Primary Keys", "pdf_verbatim": "The advantage of natural keys is that they exist already; one does not need to introduce a new, \"unnatural\" value to the data schema.", "figure_ref": null, "candidates": [{"md_atom_id": "md_ch03_a096", "md_file": "knowledge_base/chapters/ch03_submitting_data.md", "md_atom_type": "SENTENCE", "md_parent_section": "§3.2.1.1 [Primary Keys]", "md_verbatim": "In most domains, --SEQ will be a surrogate key for a set of variables that comprise the natural key.", "score": 0.3651, "match_basis": "verbatim_token+chapter_route:ch03"}, {"md_atom_id": "md_ch03_a092", "md_file": "knowledge_base/chapters/ch03_submitting_data.md", "md_atom_type": "SENTENCE", "md_parent_section": "§3.2.1.1 [Primary Keys]", "md_verbatim": "Because the purpose of the Keys column is to aid reviewers in understanding the structure of a dataset, sponsors should list all of the natural keys for the dataset.", "score": 0.3629, "match_basis": "verbatim_token+chapter_route:ch03"}, {"md_atom_id": "md_ch03_a098", "md_file": "knowledge_base/chapters/ch03_submitting_data.md", "md_atom_type": "SENTENCE", "md_parent_section": "§3.2.1.1 [Primary Keys]", "md_verbatim": "See Section 4.1.9, Assigning Natural Keys in the Metadata, for how this should be represented, and for additional information on keys.", "score": 0.3612, "match_basis": "verbatim_token+chapter_route:ch03"}, {"md_atom_id": "md_ch03_a014", "md_file": "knowledge_base/chapters/ch03_submitting_data.md", "md_atom_type": "SENTENCE", "md_parent_section": "§3.2 [Using the CDISC Domain Models in Regulatory Submissions — Dataset Metadata]", "md_verbatim": "The Define-XML document that accompanies a submission should also describe each dataset that is included in the submission and describe the natural key structure of each dataset.", "score": 0.3606, "match_basis": "verbatim_token+chapter_route:ch03"}, {"md_atom_id": "md_ch03_a097", "md_file": "knowledge_base/chapters/ch03_submitting_data.md", "md_atom_type": "SENTENCE", "md_parent_section": "§3.2.1.1 [Primary Keys]", "md_verbatim": "In certain instances, a supplemental qualifier (SUPP--) variable might also contribute to the natural key of a record for a particular domain.", "score": 0.3478, "match_basis": "verbatim_token+chapter_route:ch03"}], "candidate_count": 5, "zero_candidate": false}
{"pdf_atom_id": "ig34_p0020_a027", "pdf_atom_type": "SENTENCE", "pdf_source": "SDTMIG_v3.4", "pdf_page": 20, "pdf_parent_section": "§3.2.1.1 Primary Keys", "pdf_verbatim": "One of the difficulties in choosing a natural key is that just about any natural key one can think of has the potential to change.", "figure_ref": null, "candidates": [{"md_atom_id": "md_ch03_a096", "md_file": "knowledge_base/chapters/ch03_submitting_data.md", "md_atom_type": "SENTENCE", "md_parent_section": "§3.2.1.1 [Primary Keys]", "md_verbatim": "In most domains, --SEQ will be a surrogate key for a set of variables that comprise the natural key.", "score": 0.3675, "match_basis": "verbatim_token+chapter_route:ch03"}, {"md_atom_id": "md_ch03_a098", "md_file": "knowledge_base/chapters/ch03_submitting_data.md", "md_atom_type": "SENTENCE", "md_parent_section": "§3.2.1.1 [Primary Keys]", "md_verbatim": "See Section 4.1.9, Assigning Natural Keys in the Metadata, for how this should be represented, and for additional information on keys.", "score": 0.3632, "match_basis": "verbatim_token+chapter_route:ch03"}, {"md_atom_id": "md_ch03_a014", "md_file": "knowledge_base/chapters/ch03_submitting_data.md", "md_atom_type": "SENTENCE", "md_parent_section": "§3.2 [Using the CDISC Domain Models in Regulatory Submissions — Dataset Metadata]", "md_verbatim": "The Define-XML document that accompanies a submission should also describe each dataset that is included in the submission and describe the natural key structure of each dataset.", "score": 0.3623, "match_basis": "verbatim_token+chapter_route:ch03"}, {"md_atom_id": "md_ch03_a097", "md_file": "knowledge_base/chapters/ch03_submitting_data.md", "md_atom_type": "SENTENCE", "md_parent_section": "§3.2.1.1 [Primary Keys]", "md_verbatim": "In certain instances, a supplemental qualifier (SUPP--) variable might also contribute to the natural key of a record for a particular domain.", "score": 0.355, "match_basis": "verbatim_token+chapter_route:ch03"}, {"md_atom_id": "md_ch03_a105", "md_file": "knowledge_base/chapters/ch03_submitting_data.md", "md_atom_type": "SENTENCE", "md_parent_section": "§3.2.1.2 [CDISC Submission Value-level Metadata]", "md_verbatim": "Because many different types of observations are all presented in the same structure, there is a need to provide additional metadata to describe expected properties that differentiate (e.g., hematology lab results from serum chemistry lab results in terms of data type, standard units, and other attributes).", "score": 0.347, "match_basis": "verbatim_token+chapter_route:ch03"}], "candidate_count": 5, "zero_candidate": false}
{"pdf_atom_id": "ig34_p0020_a028", "pdf_atom_type": "SENTENCE", "pdf_source": "SDTMIG_v3.4", "pdf_page": 20, "pdf_parent_section": "§3.2.1.1 Primary Keys", "pdf_verbatim": "Because they have business meaning, natural keys are effectively coupled to the business, and they may need to be reworked when business requirements change.", "figure_ref": null, "candidates": [{"md_atom_id": "md_ch03_a100", "md_file": "knowledge_base/chapters/ch03_submitting_data.md", "md_atom_type": "LIST_ITEM", "md_parent_section": "§3.2.1.1 [Primary Keys]", "md_verbatim": "- A **natural key** is a set of data (1 or more columns) that uniquely identifies an entity and distinguishes it from any other row in the table. The advantage of natural keys is that they exist already; one does not need to introduce a new, \"unnatural\" value to the data schema. One of the difficulties in choosing a natural key is that just about any natural key one can think of has the potential to change. Because they have business meaning, natural keys are effectively coupled to the business, and they may need to be reworked when business requirements change. An example of such a change in clinical trials data would be the addition of a position or location that becomes a key in a new study, but which was not collected in previous studies.", "score": 0.3866, "match_basis": "verbatim_token+chapter_route:ch03"}, {"md_atom_id": "md_ch03_a092", "md_file": "knowledge_base/chapters/ch03_submitting_data.md", "md_atom_type": "SENTENCE", "md_parent_section": "§3.2.1.1 [Primary Keys]", "md_verbatim": "Because the purpose of the Keys column is to aid reviewers in understanding the structure of a dataset, sponsors should list all of the natural keys for the dataset.", "score": 0.3763, "match_basis": "verbatim_token+chapter_route:ch03"}, {"md_atom_id": "md_ch03_a098", "md_file": "knowledge_base/chapters/ch03_submitting_data.md", "md_atom_type": "SENTENCE", "md_parent_section": "§3.2.1.1 [Primary Keys]", "md_verbatim": "See Section 4.1.9, Assigning Natural Keys in the Metadata, for how this should be represented, and for additional information on keys.", "score": 0.3757, "match_basis": "verbatim_token+chapter_route:ch03"}, {"md_atom_id": "md_ch03_a088", "md_file": "knowledge_base/chapters/ch03_submitting_data.md", "md_atom_type": "SENTENCE", "md_parent_section": "§3.2.1 [Dataset-level Metadata]", "md_verbatim": "Separate Supplemental Qualifier datasets of the form supp--.xpt are required.", "score": 0.368, "match_basis": "verbatim_token+chapter_route:ch03"}, {"md_atom_id": "md_ch03_a106", "md_file": "knowledge_base/chapters/ch03_submitting_data.md", "md_atom_type": "SENTENCE", "md_parent_section": "§3.2.1.2 [CDISC Submission Value-level Metadata]", "md_verbatim": "**Example:** The Vital Signs (VS) data domain could contain subject records related to diastolic and systolic blood pressure, height, weight, and body mass index (BMI). These data are all submitted in the normalized SDTM Findings structure of 1 row per vital signs measurement. This means that there could be 5 records per subject (1 for each test or measurement) for a single visit or time point, with the parameter names stored in the Test Code/Name variables, and the parameter values stored in result variables. Because the unique test code/names could have different attributes (e.g., different origins, roles, definitions) there would be a need to provide value-level metadata for this information.", "score": 0.3621, "match_basis": "verbatim_token+chapter_route:ch03"}], "candidate_count": 5, "zero_candidate": false}
{"pdf_atom_id": "ig34_p0020_a029", "pdf_atom_type": "SENTENCE", "pdf_source": "SDTMIG_v3.4", "pdf_page": 20, "pdf_parent_section": "§3.2.1.1 Primary Keys", "pdf_verbatim": "An example of such a change in clinical trials data would be the addition of a position or location that becomes a key in a new study, but which was not collected in previous studies.", "figure_ref": null, "candidates": [{"md_atom_id": "md_ch03_a100", "md_file": "knowledge_base/chapters/ch03_submitting_data.md", "md_atom_type": "LIST_ITEM", "md_parent_section": "§3.2.1.1 [Primary Keys]", "md_verbatim": "- A **natural key** is a set of data (1 or more columns) that uniquely identifies an entity and distinguishes it from any other row in the table. The advantage of natural keys is that they exist already; one does not need to introduce a new, \"unnatural\" value to the data schema. One of the difficulties in choosing a natural key is that just about any natural key one can think of has the potential to change. Because they have business meaning, natural keys are effectively coupled to the business, and they may need to be reworked when business requirements change. An example of such a change in clinical trials data would be the addition of a position or location that becomes a key in a new study, but which was not collected in previous studies.", "score": 0.4022, "match_basis": "verbatim_token+chapter_route:ch03"}, {"md_atom_id": "md_ch03_a098", "md_file": "knowledge_base/chapters/ch03_submitting_data.md", "md_atom_type": "SENTENCE", "md_parent_section": "§3.2.1.1 [Primary Keys]", "md_verbatim": "See Section 4.1.9, Assigning Natural Keys in the Metadata, for how this should be represented, and for additional information on keys.", "score": 0.3835, "match_basis": "verbatim_token+chapter_route:ch03"}, {"md_atom_id": "md_ch03_a006", "md_file": "knowledge_base/chapters/ch03_submitting_data.md", "md_atom_type": "SENTENCE", "md_parent_section": "§3.1 [Standard Metadata for Dataset Contents and Attributes]", "md_verbatim": "In addition, the CDISC domain models include 2 shaded columns that are not sent to the FDA, but which assist sponsors:", "score": 0.3804, "match_basis": "verbatim_token+chapter_route:ch03"}, {"md_atom_id": "md_ch03_a091", "md_file": "knowledge_base/chapters/ch03_submitting_data.md", "md_atom_type": "SENTENCE", "md_parent_section": "§3.2.1.1 [Primary Keys]", "md_verbatim": "The table in Section 3.2.1, Dataset-level Metadata, shows examples of what a sponsor might submit as variables that comprise the primary key for SDTM datasets.", "score": 0.3787, "match_basis": "verbatim_token+chapter_route:ch03"}, {"md_atom_id": "md_ch03_a095", "md_file": "knowledge_base/chapters/ch03_submitting_data.md", "md_atom_type": "SENTENCE", "md_parent_section": "§3.2.1.1 [Primary Keys]", "md_verbatim": "For all the general observation-class domains (and for some special-purpose domains), the --SEQ variable was created so that a unique record could be identified consistently across all of these domains via its use, along with STUDYID, USUBJID, and DOMAIN.", "score": 0.3671, "match_basis": "verbatim_token+chapter_route:ch03"}], "candidate_count": 5, "zero_candidate": false}
{"pdf_atom_id": "ig34_p0020_a030", "pdf_atom_type": "SENTENCE", "pdf_source": "SDTMIG_v3.4", "pdf_page": 20, "pdf_parent_section": "§3.2.1.1 Primary Keys", "pdf_verbatim": "A surrogate key is a single-part, artificially established identifier for a record.", "figure_ref": null, "candidates": [{"md_atom_id": "md_ch03_a097", "md_file": "knowledge_base/chapters/ch03_submitting_data.md", "md_atom_type": "SENTENCE", "md_parent_section": "§3.2.1.1 [Primary Keys]", "md_verbatim": "In certain instances, a supplemental qualifier (SUPP--) variable might also contribute to the natural key of a record for a particular domain.", "score": 0.3909, "match_basis": "verbatim_token+chapter_route:ch03"}, {"md_atom_id": "md_ch03_a096", "md_file": "knowledge_base/chapters/ch03_submitting_data.md", "md_atom_type": "SENTENCE", "md_parent_section": "§3.2.1.1 [Primary Keys]", "md_verbatim": "In most domains, --SEQ will be a surrogate key for a set of variables that comprise the natural key.", "score": 0.3811, "match_basis": "verbatim_token+chapter_route:ch03"}, {"md_atom_id": "md_ch03_a095", "md_file": "knowledge_base/chapters/ch03_submitting_data.md", "md_atom_type": "SENTENCE", "md_parent_section": "§3.2.1.1 [Primary Keys]", "md_verbatim": "For all the general observation-class domains (and for some special-purpose domains), the --SEQ variable was created so that a unique record could be identified consistently across all of these domains via its use, along with STUDYID, USUBJID, and DOMAIN.", "score": 0.3779, "match_basis": "verbatim_token+chapter_route:ch03"}, {"md_atom_id": "md_ch03_a094", "md_file": "knowledge_base/chapters/ch03_submitting_data.md", "md_atom_type": "SENTENCE", "md_parent_section": "§3.2.1.1 [Primary Keys]", "md_verbatim": "The identified keys for each dataset should be consistent with the description of the dataset structure as described in the Define-XML document.", "score": 0.3568, "match_basis": "verbatim_token+chapter_route:ch03"}, {"md_atom_id": "md_ch03_a088", "md_file": "knowledge_base/chapters/ch03_submitting_data.md", "md_atom_type": "SENTENCE", "md_parent_section": "§3.2.1 [Dataset-level Metadata]", "md_verbatim": "Separate Supplemental Qualifier datasets of the form supp--.xpt are required.", "score": 0.3553, "match_basis": "verbatim_token+chapter_route:ch03"}], "candidate_count": 5, "zero_candidate": false}
{"pdf_atom_id": "ig34_p0020_a031", "pdf_atom_type": "SENTENCE", "pdf_source": "SDTMIG_v3.4", "pdf_page": 20, "pdf_parent_section": "§3.2.1.1 Primary Keys", "pdf_verbatim": "Surrogate key assignment is a special case of derived data, one where a portion of the primary key is derived.", "figure_ref": null, "candidates": [{"md_atom_id": "md_ch03_a096", "md_file": "knowledge_base/chapters/ch03_submitting_data.md", "md_atom_type": "SENTENCE", "md_parent_section": "§3.2.1.1 [Primary Keys]", "md_verbatim": "In most domains, --SEQ will be a surrogate key for a set of variables that comprise the natural key.", "score": 0.3789, "match_basis": "verbatim_token+chapter_route:ch03"}, {"md_atom_id": "md_ch03_a091", "md_file": "knowledge_base/chapters/ch03_submitting_data.md", "md_atom_type": "SENTENCE", "md_parent_section": "§3.2.1.1 [Primary Keys]", "md_verbatim": "The table in Section 3.2.1, Dataset-level Metadata, shows examples of what a sponsor might submit as variables that comprise the primary key for SDTM datasets.", "score": 0.3742, "match_basis": "verbatim_token+chapter_route:ch03"}, {"md_atom_id": "md_ch03_a009", "md_file": "knowledge_base/chapters/ch03_submitting_data.md", "md_atom_type": "SENTENCE", "md_parent_section": "§3.1 [Standard Metadata for Dataset Contents and Attributes]", "md_verbatim": "The domain models in Section 6, Domain Models Based on the General Observation Classes, illustrate how to apply the SDTM when creating a specific domain dataset.", "score": 0.3735, "match_basis": "verbatim_token+chapter_route:ch03"}, {"md_atom_id": "md_ch03_a098", "md_file": "knowledge_base/chapters/ch03_submitting_data.md", "md_atom_type": "SENTENCE", "md_parent_section": "§3.2.1.1 [Primary Keys]", "md_verbatim": "See Section 4.1.9, Assigning Natural Keys in the Metadata, for how this should be represented, and for additional information on keys.", "score": 0.3725, "match_basis": "verbatim_token+chapter_route:ch03"}, {"md_atom_id": "md_ch03_a015", "md_file": "knowledge_base/chapters/ch03_submitting_data.md", "md_atom_type": "SENTENCE", "md_parent_section": "§3.2 [Using the CDISC Domain Models in Regulatory Submissions — Dataset Metadata]", "md_verbatim": "In addition, comments can also be provided where needed.", "score": 0.3646, "match_basis": "verbatim_token+chapter_route:ch03"}], "candidate_count": 5, "zero_candidate": false}
{"pdf_atom_id": "ig34_p0020_a032", "pdf_atom_type": "SENTENCE", "pdf_source": "SDTMIG_v3.4", "pdf_page": 20, "pdf_parent_section": "§3.2.1.1 Primary Keys", "pdf_verbatim": "A surrogate key is immune to changes in business needs.", "figure_ref": null, "candidates": [{"md_atom_id": "md_ch03_a096", "md_file": "knowledge_base/chapters/ch03_submitting_data.md", "md_atom_type": "SENTENCE", "md_parent_section": "§3.2.1.1 [Primary Keys]", "md_verbatim": "In most domains, --SEQ will be a surrogate key for a set of variables that comprise the natural key.", "score": 0.3814, "match_basis": "verbatim_token+chapter_route:ch03"}, {"md_atom_id": "md_ch03_a108", "md_file": "knowledge_base/chapters/ch03_submitting_data.md", "md_atom_type": "SENTENCE", "md_parent_section": "§3.2.1.2 [CDISC Submission Value-level Metadata]", "md_verbatim": "For details on the CDISC Define-XML standard, see https://www.cdisc.org/standards/data-exchange/define-xml.", "score": 0.3526, "match_basis": "verbatim_token+chapter_route:ch03"}, {"md_atom_id": "md_ch03_a093", "md_file": "knowledge_base/chapters/ch03_submitting_data.md", "md_atom_type": "SENTENCE", "md_parent_section": "§3.2.1.1 [Primary Keys]", "md_verbatim": "These keys should define uniqueness for records in a dataset, and may define a record sort order.", "score": 0.34, "match_basis": "verbatim_token+chapter_route:ch03"}, {"md_atom_id": "md_ch03_a017", "md_file": "knowledge_base/chapters/ch03_submitting_data.md", "md_atom_type": "SENTENCE", "md_parent_section": "§3.2 [Using the CDISC Domain Models in Regulatory Submissions — Dataset Metadata]", "md_verbatim": "However, choosing which data to submit will depend on the protocol and the needs of the regulatory review division or agency.", "score": 0.3296, "match_basis": "verbatim_token+chapter_route:ch03"}, {"md_atom_id": "md_ch03_a015", "md_file": "knowledge_base/chapters/ch03_submitting_data.md", "md_atom_type": "SENTENCE", "md_parent_section": "§3.2 [Using the CDISC Domain Models in Regulatory Submissions — Dataset Metadata]", "md_verbatim": "In addition, comments can also be provided where needed.", "score": 0.3235, "match_basis": "verbatim_token+chapter_route:ch03"}], "candidate_count": 5, "zero_candidate": false}
{"pdf_atom_id": "ig34_p0020_a033", "pdf_atom_type": "SENTENCE", "pdf_source": "SDTMIG_v3.4", "pdf_page": 20, "pdf_parent_section": "§3.2.1.1 Primary Keys", "pdf_verbatim": "In addition, the key depends on only 1 field, so it is compact.", "figure_ref": null, "candidates": [{"md_atom_id": "md_ch03_a015", "md_file": "knowledge_base/chapters/ch03_submitting_data.md", "md_atom_type": "SENTENCE", "md_parent_section": "§3.2 [Using the CDISC Domain Models in Regulatory Submissions — Dataset Metadata]", "md_verbatim": "In addition, comments can also be provided where needed.", "score": 0.3977, "match_basis": "verbatim_token+chapter_route:ch03"}, {"md_atom_id": "md_ch03_a098", "md_file": "knowledge_base/chapters/ch03_submitting_data.md", "md_atom_type": "SENTENCE", "md_parent_section": "§3.2.1.1 [Primary Keys]", "md_verbatim": "See Section 4.1.9, Assigning Natural Keys in the Metadata, for how this should be represented, and for additional information on keys.", "score": 0.3667, "match_basis": "verbatim_token+chapter_route:ch03"}, {"md_atom_id": "md_ch03_a099", "md_file": "knowledge_base/chapters/ch03_submitting_data.md", "md_atom_type": "SENTENCE", "md_parent_section": "§3.2.1.1 [Primary Keys]", "md_verbatim": "**Definitions:**", "score": 0.3621, "match_basis": "verbatim_token+chapter_route:ch03"}, {"md_atom_id": "md_ch03_a006", "md_file": "knowledge_base/chapters/ch03_submitting_data.md", "md_atom_type": "SENTENCE", "md_parent_section": "§3.1 [Standard Metadata for Dataset Contents and Attributes]", "md_verbatim": "In addition, the CDISC domain models include 2 shaded columns that are not sent to the FDA, but which assist sponsors:", "score": 0.3609, "match_basis": "verbatim_token+chapter_route:ch03"}, {"md_atom_id": "md_ch03_a004", "md_file": "knowledge_base/chapters/ch03_submitting_data.md", "md_atom_type": "SENTENCE", "md_parent_section": "§3.1 [Standard Metadata for Dataset Contents and Attributes]", "md_verbatim": "The SDTMIG provides standard descriptions of some of the most commonly used data domains, with metadata attributes.", "score": 0.3474, "match_basis": "verbatim_token+chapter_route:ch03"}], "candidate_count": 5, "zero_candidate": false}
{"pdf_atom_id": "ig34_p0020_a034", "pdf_atom_type": "SENTENCE", "pdf_source": "SDTMIG_v3.4", "pdf_page": 20, "pdf_parent_section": "§3.2.1.1 Primary Keys", "pdf_verbatim": "A common way of deriving surrogate key values is to assign integer values sequentially.", "figure_ref": null, "candidates": [{"md_atom_id": "md_ch03_a096", "md_file": "knowledge_base/chapters/ch03_submitting_data.md", "md_atom_type": "SENTENCE", "md_parent_section": "§3.2.1.1 [Primary Keys]", "md_verbatim": "In most domains, --SEQ will be a surrogate key for a set of variables that comprise the natural key.", "score": 0.3822, "match_basis": "verbatim_token+chapter_route:ch03"}, {"md_atom_id": "md_ch03_a098", "md_file": "knowledge_base/chapters/ch03_submitting_data.md", "md_atom_type": "SENTENCE", "md_parent_section": "§3.2.1.1 [Primary Keys]", "md_verbatim": "See Section 4.1.9, Assigning Natural Keys in the Metadata, for how this should be represented, and for additional information on keys.", "score": 0.3527, "match_basis": "verbatim_token+chapter_route:ch03"}, {"md_atom_id": "md_ch03_a089", "md_file": "knowledge_base/chapters/ch03_submitting_data.md", "md_atom_type": "SENTENCE", "md_parent_section": "§3.2.1 [Dataset-level Metadata]", "md_verbatim": "See Section 8.4, Relating Non-standard Variable Values to a Parent Domain.", "score": 0.3493, "match_basis": "verbatim_token+chapter_route:ch03"}, {"md_atom_id": "md_ch03_a101", "md_file": "knowledge_base/chapters/ch03_submitting_data.md", "md_atom_type": "LIST_ITEM", "md_parent_section": "§3.2.1.1 [Primary Keys]", "md_verbatim": "- A **surrogate key** is a single-part, artificially established identifier for a record. Surrogate key assignment is a special case of derived data, one where a portion of the primary key is derived. A surrogate key is immune to changes in business needs. In addition, the key depends on only 1 field, so it is compact. A common way of deriving surrogate key values is to assign integer values sequentially. The --SEQ variable in the SDTM datasets is an example of a surrogate key for most datasets; in some instances, however, --SEQ might be a part of a natural key as a replacement for what might have been a key (e.g., a repeat sequence number) in the sponsor's database.", "score": 0.3386, "match_basis": "verbatim_token+chapter_route:ch03"}, {"md_atom_id": "md_ch03_a107", "md_file": "knowledge_base/chapters/ch03_submitting_data.md", "md_atom_type": "SENTENCE", "md_parent_section": "§3.2.1.2 [CDISC Submission Value-level Metadata]", "md_verbatim": "The value-level metadata should be provided as a separate section of the Define-XML document.", "score": 0.3366, "match_basis": "verbatim_token+chapter_route:ch03"}], "candidate_count": 5, "zero_candidate": false}
{"pdf_atom_id": "ig34_p0020_a035", "pdf_atom_type": "SENTENCE", "pdf_source": "SDTMIG_v3.4", "pdf_page": 20, "pdf_parent_section": "§3.2.1.1 Primary Keys", "pdf_verbatim": "The --SEQ variable in the SDTM datasets is an example of a surrogate key for most datasets; in some instances, however, --SEQ might be a part of a natural key as a replacement for what might have been a key (e.g., a repeat sequence number) in the sponsor's database.", "figure_ref": null, "candidates": [{"md_atom_id": "md_ch03_a101", "md_file": "knowledge_base/chapters/ch03_submitting_data.md", "md_atom_type": "LIST_ITEM", "md_parent_section": "§3.2.1.1 [Primary Keys]", "md_verbatim": "- A **surrogate key** is a single-part, artificially established identifier for a record. Surrogate key assignment is a special case of derived data, one where a portion of the primary key is derived. A surrogate key is immune to changes in business needs. In addition, the key depends on only 1 field, so it is compact. A common way of deriving surrogate key values is to assign integer values sequentially. The --SEQ variable in the SDTM datasets is an example of a surrogate key for most datasets; in some instances, however, --SEQ might be a part of a natural key as a replacement for what might have been a key (e.g., a repeat sequence number) in the sponsor's database.", "score": 0.4855, "match_basis": "verbatim_token+chapter_route:ch03"}, {"md_atom_id": "md_ch03_a091", "md_file": "knowledge_base/chapters/ch03_submitting_data.md", "md_atom_type": "SENTENCE", "md_parent_section": "§3.2.1.1 [Primary Keys]", "md_verbatim": "The table in Section 3.2.1, Dataset-level Metadata, shows examples of what a sponsor might submit as variables that comprise the primary key for SDTM datasets.", "score": 0.4765, "match_basis": "verbatim_token+chapter_route:ch03"}, {"md_atom_id": "md_ch03_a096", "md_file": "knowledge_base/chapters/ch03_submitting_data.md", "md_atom_type": "SENTENCE", "md_parent_section": "§3.2.1.1 [Primary Keys]", "md_verbatim": "In most domains, --SEQ will be a surrogate key for a set of variables that comprise the natural key.", "score": 0.4558, "match_basis": "verbatim_token+chapter_route:ch03"}, {"md_atom_id": "md_ch03_a097", "md_file": "knowledge_base/chapters/ch03_submitting_data.md", "md_atom_type": "SENTENCE", "md_parent_section": "§3.2.1.1 [Primary Keys]", "md_verbatim": "In certain instances, a supplemental qualifier (SUPP--) variable might also contribute to the natural key of a record for a particular domain.", "score": 0.4374, "match_basis": "verbatim_token+chapter_route:ch03"}, {"md_atom_id": "md_ch03_a092", "md_file": "knowledge_base/chapters/ch03_submitting_data.md", "md_atom_type": "SENTENCE", "md_parent_section": "§3.2.1.1 [Primary Keys]", "md_verbatim": "Because the purpose of the Keys column is to aid reviewers in understanding the structure of a dataset, sponsors should list all of the natural keys for the dataset.", "score": 0.3889, "match_basis": "verbatim_token+chapter_route:ch03"}], "candidate_count": 5, "zero_candidate": false}
{"pdf_atom_id": "ig34_p0020_a036", "pdf_atom_type": "HEADING", "pdf_source": "SDTMIG_v3.4", "pdf_page": 20, "pdf_parent_section": "§3.2.1.2 CDISC Submission Value-level Metadata", "pdf_verbatim": "3.2.1.2  CDISC Submission Value-level Metadata", "figure_ref": null, "candidates": [{"md_atom_id": "md_ch03_a102", "md_file": "knowledge_base/chapters/ch03_submitting_data.md", "md_atom_type": "HEADING", "md_parent_section": "§3.2.1 [Dataset-level Metadata]", "md_verbatim": "### 3.2.1.2 CDISC Submission Value-level Metadata", "score": 0.9, "match_basis": "verbatim_token+chapter_route:ch03"}, {"md_atom_id": "md_ch03_a013", "md_file": "knowledge_base/chapters/ch03_submitting_data.md", "md_atom_type": "HEADING", "md_parent_section": "§3 [Submitting Data in Standard Format]", "md_verbatim": "## 3.2 Using the CDISC Domain Models in Regulatory Submissions — Dataset Metadata", "score": 0.517, "match_basis": "verbatim_token+chapter_route:ch03"}, {"md_atom_id": "md_ch03_a021", "md_file": "knowledge_base/chapters/ch03_submitting_data.md", "md_atom_type": "HEADING", "md_parent_section": "§3.2 [Using the CDISC Domain Models in Regulatory Submissions — Dataset Metadata]", "md_verbatim": "### 3.2.1 Dataset-level Metadata", "score": 0.5077, "match_basis": "verbatim_token+chapter_route:ch03"}, {"md_atom_id": "md_ch03_a003", "md_file": "knowledge_base/chapters/ch03_submitting_data.md", "md_atom_type": "HEADING", "md_parent_section": "§3 [Submitting Data in Standard Format]", "md_verbatim": "## 3.1 Standard Metadata for Dataset Contents and Attributes", "score": 0.3766, "match_basis": "verbatim_token+chapter_route:ch03"}, {"md_atom_id": "md_ch03_a001", "md_file": "knowledge_base/chapters/ch03_submitting_data.md", "md_atom_type": "HEADING", "md_parent_section": "§3 [Submitting Data in Standard Format]", "md_verbatim": "# SDTMIG v3.4 — Chapter 3: Submitting Data in Standard Format", "score": 0.3638, "match_basis": "verbatim_token+chapter_route:ch03"}], "candidate_count": 5, "zero_candidate": false}
{"pdf_atom_id": "ig34_p0020_a037", "pdf_atom_type": "SENTENCE", "pdf_source": "SDTMIG_v3.4", "pdf_page": 20, "pdf_parent_section": "§3.2.1.2 CDISC Submission Value-level Metadata", "pdf_verbatim": "In general, findings data models are closely related to normalized, relational data models in a vertical structure of 1 record per observation.", "figure_ref": null, "candidates": [{"md_atom_id": "md_ch03_a103", "md_file": "knowledge_base/chapters/ch03_submitting_data.md", "md_atom_type": "SENTENCE", "md_parent_section": "§3.2.1.2 [CDISC Submission Value-level Metadata]", "md_verbatim": "In general, findings data models are closely related to normalized, relational data models in a vertical structure of 1 record per observation.", "score": 0.9, "match_basis": "verbatim_token+chapter_route:ch03"}, {"md_atom_id": "md_ch03_a104", "md_file": "knowledge_base/chapters/ch03_submitting_data.md", "md_atom_type": "SENTENCE", "md_parent_section": "§3.2.1.2 [CDISC Submission Value-level Metadata]", "md_verbatim": "Because general observation class data structures are fixed, sometimes information that might appear as columns in a more horizontal (denormalized) structure in presentations and reports will instead be represented as rows in an SDTM Findings structure.", "score": 0.4683, "match_basis": "verbatim_token+chapter_route:ch03"}, {"md_atom_id": "md_ch03_a009", "md_file": "knowledge_base/chapters/ch03_submitting_data.md", "md_atom_type": "SENTENCE", "md_parent_section": "§3.1 [Standard Metadata for Dataset Contents and Attributes]", "md_verbatim": "The domain models in Section 6, Domain Models Based on the General Observation Classes, illustrate how to apply the SDTM when creating a specific domain dataset.", "score": 0.429, "match_basis": "verbatim_token+chapter_route:ch03"}, {"md_atom_id": "md_ch03_a010", "md_file": "knowledge_base/chapters/ch03_submitting_data.md", "md_atom_type": "SENTENCE", "md_parent_section": "§3.1 [Standard Metadata for Dataset Contents and Attributes]", "md_verbatim": "In particular, these models illustrate the selection of a subset of the variables offered in 1 of the general observation classes, along with applicable timing variables.", "score": 0.4282, "match_basis": "verbatim_token+chapter_route:ch03"}, {"md_atom_id": "md_ch03_a106", "md_file": "knowledge_base/chapters/ch03_submitting_data.md", "md_atom_type": "SENTENCE", "md_parent_section": "§3.2.1.2 [CDISC Submission Value-level Metadata]", "md_verbatim": "**Example:** The Vital Signs (VS) data domain could contain subject records related to diastolic and systolic blood pressure, height, weight, and body mass index (BMI). These data are all submitted in the normalized SDTM Findings structure of 1 row per vital signs measurement. This means that there could be 5 records per subject (1 for each test or measurement) for a single visit or time point, with the parameter names stored in the Test Code/Name variables, and the parameter values stored in result variables. Because the unique test code/names could have different attributes (e.g., different origins, roles, definitions) there would be a need to provide value-level metadata for this information.", "score": 0.3923, "match_basis": "verbatim_token+chapter_route:ch03"}], "candidate_count": 5, "zero_candidate": false}
{"pdf_atom_id": "ig34_p0020_a038", "pdf_atom_type": "SENTENCE", "pdf_source": "SDTMIG_v3.4", "pdf_page": 20, "pdf_parent_section": "§3.2.1.2 CDISC Submission Value-level Metadata", "pdf_verbatim": "Because general observation class data structures are fixed, sometimes information that might appear as columns in a more horizontal (denormalized) structure in presentations and reports will instead be represented as rows in an SDTM Findings structure.", "figure_ref": null, "candidates": [{"md_atom_id": "md_ch03_a104", "md_file": "knowledge_base/chapters/ch03_submitting_data.md", "md_atom_type": "SENTENCE", "md_parent_section": "§3.2.1.2 [CDISC Submission Value-level Metadata]", "md_verbatim": "Because general observation class data structures are fixed, sometimes information that might appear as columns in a more horizontal (denormalized) structure in presentations and reports will instead be represented as rows in an SDTM Findings structure.", "score": 0.9, "match_basis": "verbatim_token+chapter_route:ch03"}, {"md_atom_id": "md_ch03_a103", "md_file": "knowledge_base/chapters/ch03_submitting_data.md", "md_atom_type": "SENTENCE", "md_parent_section": "§3.2.1.2 [CDISC Submission Value-level Metadata]", "md_verbatim": "In general, findings data models are closely related to normalized, relational data models in a vertical structure of 1 record per observation.", "score": 0.4683, "match_basis": "verbatim_token+chapter_route:ch03"}, {"md_atom_id": "md_ch03_a106", "md_file": "knowledge_base/chapters/ch03_submitting_data.md", "md_atom_type": "SENTENCE", "md_parent_section": "§3.2.1.2 [CDISC Submission Value-level Metadata]", "md_verbatim": "**Example:** The Vital Signs (VS) data domain could contain subject records related to diastolic and systolic blood pressure, height, weight, and body mass index (BMI). These data are all submitted in the normalized SDTM Findings structure of 1 row per vital signs measurement. This means that there could be 5 records per subject (1 for each test or measurement) for a single visit or time point, with the parameter names stored in the Test Code/Name variables, and the parameter values stored in result variables. Because the unique test code/names could have different attributes (e.g., different origins, roles, definitions) there would be a need to provide value-level metadata for this information.", "score": 0.4346, "match_basis": "verbatim_token+chapter_route:ch03"}, {"md_atom_id": "md_ch03_a098", "md_file": "knowledge_base/chapters/ch03_submitting_data.md", "md_atom_type": "SENTENCE", "md_parent_section": "§3.2.1.1 [Primary Keys]", "md_verbatim": "See Section 4.1.9, Assigning Natural Keys in the Metadata, for how this should be represented, and for additional information on keys.", "score": 0.4083, "match_basis": "verbatim_token+chapter_route:ch03"}, {"md_atom_id": "md_ch03_a105", "md_file": "knowledge_base/chapters/ch03_submitting_data.md", "md_atom_type": "SENTENCE", "md_parent_section": "§3.2.1.2 [CDISC Submission Value-level Metadata]", "md_verbatim": "Because many different types of observations are all presented in the same structure, there is a need to provide additional metadata to describe expected properties that differentiate (e.g., hematology lab results from serum chemistry lab results in terms of data type, standard units, and other attributes).", "score": 0.4072, "match_basis": "verbatim_token+chapter_route:ch03"}], "candidate_count": 5, "zero_candidate": false}
{"pdf_atom_id": "ig34_p0020_a039", "pdf_atom_type": "SENTENCE", "pdf_source": "SDTMIG_v3.4", "pdf_page": 20, "pdf_parent_section": "§3.2.1.2 CDISC Submission Value-level Metadata", "pdf_verbatim": "Because many different types of observations are all presented in the same structure, there is a need to provide additional metadata to describe expected properties that differentiate (e.g., hematology lab results from serum chemistry lab results in terms of data type, standard units, and other attributes).", "figure_ref": null, "candidates": [{"md_atom_id": "md_ch03_a105", "md_file": "knowledge_base/chapters/ch03_submitting_data.md", "md_atom_type": "SENTENCE", "md_parent_section": "§3.2.1.2 [CDISC Submission Value-level Metadata]", "md_verbatim": "Because many different types of observations are all presented in the same structure, there is a need to provide additional metadata to describe expected properties that differentiate (e.g., hematology lab results from serum chemistry lab results in terms of data type, standard units, and other attributes).", "score": 0.9, "match_basis": "verbatim_token+chapter_route:ch03"}, {"md_atom_id": "md_ch03_a106", "md_file": "knowledge_base/chapters/ch03_submitting_data.md", "md_atom_type": "SENTENCE", "md_parent_section": "§3.2.1.2 [CDISC Submission Value-level Metadata]", "md_verbatim": "**Example:** The Vital Signs (VS) data domain could contain subject records related to diastolic and systolic blood pressure, height, weight, and body mass index (BMI). These data are all submitted in the normalized SDTM Findings structure of 1 row per vital signs measurement. This means that there could be 5 records per subject (1 for each test or measurement) for a single visit or time point, with the parameter names stored in the Test Code/Name variables, and the parameter values stored in result variables. Because the unique test code/names could have different attributes (e.g., different origins, roles, definitions) there would be a need to provide value-level metadata for this information.", "score": 0.4442, "match_basis": "verbatim_token+chapter_route:ch03"}, {"md_atom_id": "md_ch03_a004", "md_file": "knowledge_base/chapters/ch03_submitting_data.md", "md_atom_type": "SENTENCE", "md_parent_section": "§3.1 [Standard Metadata for Dataset Contents and Attributes]", "md_verbatim": "The SDTMIG provides standard descriptions of some of the most commonly used data domains, with metadata attributes.", "score": 0.4308, "match_basis": "verbatim_token+chapter_route:ch03"}, {"md_atom_id": "md_ch03_a104", "md_file": "knowledge_base/chapters/ch03_submitting_data.md", "md_atom_type": "SENTENCE", "md_parent_section": "§3.2.1.2 [CDISC Submission Value-level Metadata]", "md_verbatim": "Because general observation class data structures are fixed, sometimes information that might appear as columns in a more horizontal (denormalized) structure in presentations and reports will instead be represented as rows in an SDTM Findings structure.", "score": 0.4072, "match_basis": "verbatim_token+chapter_route:ch03"}, {"md_atom_id": "md_ch03_a098", "md_file": "knowledge_base/chapters/ch03_submitting_data.md", "md_atom_type": "SENTENCE", "md_parent_section": "§3.2.1.1 [Primary Keys]", "md_verbatim": "See Section 4.1.9, Assigning Natural Keys in the Metadata, for how this should be represented, and for additional information on keys.", "score": 0.4006, "match_basis": "verbatim_token+chapter_route:ch03"}], "candidate_count": 5, "zero_candidate": false}
{"pdf_atom_id": "ig34_p0020_a040", "pdf_atom_type": "SENTENCE", "pdf_source": "SDTMIG_v3.4", "pdf_page": 20, "pdf_parent_section": "§3.2.1.2 CDISC Submission Value-level Metadata", "pdf_verbatim": "For example, the Vital Signs (VS) data domain could contain subject records related to diastolic and systolic blood pressure, height, weight, and body mass index (BMI).", "figure_ref": null, "candidates": [{"md_atom_id": "md_ch03_a106", "md_file": "knowledge_base/chapters/ch03_submitting_data.md", "md_atom_type": "SENTENCE", "md_parent_section": "§3.2.1.2 [CDISC Submission Value-level Metadata]", "md_verbatim": "**Example:** The Vital Signs (VS) data domain could contain subject records related to diastolic and systolic blood pressure, height, weight, and body mass index (BMI). These data are all submitted in the normalized SDTM Findings structure of 1 row per vital signs measurement. This means that there could be 5 records per subject (1 for each test or measurement) for a single visit or time point, with the parameter names stored in the Test Code/Name variables, and the parameter values stored in result variables. Because the unique test code/names could have different attributes (e.g., different origins, roles, definitions) there would be a need to provide value-level metadata for this information.", "score": 0.4991, "match_basis": "verbatim_token+chapter_route:ch03"}, {"md_atom_id": "md_ch03_a097", "md_file": "knowledge_base/chapters/ch03_submitting_data.md", "md_atom_type": "SENTENCE", "md_parent_section": "§3.2.1.1 [Primary Keys]", "md_verbatim": "In certain instances, a supplemental qualifier (SUPP--) variable might also contribute to the natural key of a record for a particular domain.", "score": 0.3857, "match_basis": "verbatim_token+chapter_route:ch03"}, {"md_atom_id": "md_ch03_a093", "md_file": "knowledge_base/chapters/ch03_submitting_data.md", "md_atom_type": "SENTENCE", "md_parent_section": "§3.2.1.1 [Primary Keys]", "md_verbatim": "These keys should define uniqueness for records in a dataset, and may define a record sort order.", "score": 0.3796, "match_basis": "verbatim_token+chapter_route:ch03"}, {"md_atom_id": "md_ch03_a095", "md_file": "knowledge_base/chapters/ch03_submitting_data.md", "md_atom_type": "SENTENCE", "md_parent_section": "§3.2.1.1 [Primary Keys]", "md_verbatim": "For all the general observation-class domains (and for some special-purpose domains), the --SEQ variable was created so that a unique record could be identified consistently across all of these domains via its use, along with STUDYID, USUBJID, and DOMAIN.", "score": 0.3759, "match_basis": "verbatim_token+chapter_route:ch03"}, {"md_atom_id": "md_ch03_a098", "md_file": "knowledge_base/chapters/ch03_submitting_data.md", "md_atom_type": "SENTENCE", "md_parent_section": "§3.2.1.1 [Primary Keys]", "md_verbatim": "See Section 4.1.9, Assigning Natural Keys in the Metadata, for how this should be represented, and for additional information on keys.", "score": 0.3724, "match_basis": "verbatim_token+chapter_route:ch03"}], "candidate_count": 5, "zero_candidate": false}
{"pdf_atom_id": "ig34_p0020_a041", "pdf_atom_type": "SENTENCE", "pdf_source": "SDTMIG_v3.4", "pdf_page": 20, "pdf_parent_section": "§3.2.1.2 CDISC Submission Value-level Metadata", "pdf_verbatim": "These data are all submitted in the normalized SDTM", "figure_ref": null, "candidates": [{"md_atom_id": "md_ch03_a103", "md_file": "knowledge_base/chapters/ch03_submitting_data.md", "md_atom_type": "SENTENCE", "md_parent_section": "§3.2.1.2 [CDISC Submission Value-level Metadata]", "md_verbatim": "In general, findings data models are closely related to normalized, relational data models in a vertical structure of 1 record per observation.", "score": 0.3935, "match_basis": "verbatim_token+chapter_route:ch03"}, {"md_atom_id": "md_ch03_a110", "md_file": "knowledge_base/chapters/ch03_submitting_data.md", "md_atom_type": "SENTENCE", "md_parent_section": "§3.2.2 [Conformance]", "md_verbatim": "Conformance with the SDTMIG domain models is minimally indicated by:", "score": 0.3889, "match_basis": "verbatim_token+chapter_route:ch03"}, {"md_atom_id": "md_ch03_a104", "md_file": "knowledge_base/chapters/ch03_submitting_data.md", "md_atom_type": "SENTENCE", "md_parent_section": "§3.2.1.2 [CDISC Submission Value-level Metadata]", "md_verbatim": "Because general observation class data structures are fixed, sometimes information that might appear as columns in a more horizontal (denormalized) structure in presentations and reports will instead be represented as rows in an SDTM Findings structure.", "score": 0.3738, "match_basis": "verbatim_token+chapter_route:ch03"}, {"md_atom_id": "md_ch03_a091", "md_file": "knowledge_base/chapters/ch03_submitting_data.md", "md_atom_type": "SENTENCE", "md_parent_section": "§3.2.1.1 [Primary Keys]", "md_verbatim": "The table in Section 3.2.1, Dataset-level Metadata, shows examples of what a sponsor might submit as variables that comprise the primary key for SDTM datasets.", "score": 0.3684, "match_basis": "verbatim_token+chapter_route:ch03"}, {"md_atom_id": "md_ch03_a106", "md_file": "knowledge_base/chapters/ch03_submitting_data.md", "md_atom_type": "SENTENCE", "md_parent_section": "§3.2.1.2 [CDISC Submission Value-level Metadata]", "md_verbatim": "**Example:** The Vital Signs (VS) data domain could contain subject records related to diastolic and systolic blood pressure, height, weight, and body mass index (BMI). These data are all submitted in the normalized SDTM Findings structure of 1 row per vital signs measurement. This means that there could be 5 records per subject (1 for each test or measurement) for a single visit or time point, with the parameter names stored in the Test Code/Name variables, and the parameter values stored in result variables. Because the unique test code/names could have different attributes (e.g., different origins, roles, definitions) there would be a need to provide value-level metadata for this information.", "score": 0.3655, "match_basis": "verbatim_token+chapter_route:ch03"}], "candidate_count": 5, "zero_candidate": false}
{"pdf_atom_id": "ig34_p0021_a001", "pdf_atom_type": "SENTENCE", "pdf_source": "SDTMIG_v3.4", "pdf_page": 21, "pdf_parent_section": "§3.2.1 [Findings]", "pdf_verbatim": "Findings structure of 1 row per vital signs measurement.", "figure_ref": null, "candidates": [{"md_atom_id": "md_ch03_a103", "md_file": "knowledge_base/chapters/ch03_submitting_data.md", "md_atom_type": "SENTENCE", "md_parent_section": "§3.2.1.2 [CDISC Submission Value-level Metadata]", "md_verbatim": "In general, findings data models are closely related to normalized, relational data models in a vertical structure of 1 record per observation.", "score": 0.405, "match_basis": "verbatim_token+chapter_route:ch03"}, {"md_atom_id": "md_ch03_a106", "md_file": "knowledge_base/chapters/ch03_submitting_data.md", "md_atom_type": "SENTENCE", "md_parent_section": "§3.2.1.2 [CDISC Submission Value-level Metadata]", "md_verbatim": "**Example:** The Vital Signs (VS) data domain could contain subject records related to diastolic and systolic blood pressure, height, weight, and body mass index (BMI). These data are all submitted in the normalized SDTM Findings structure of 1 row per vital signs measurement. This means that there could be 5 records per subject (1 for each test or measurement) for a single visit or time point, with the parameter names stored in the Test Code/Name variables, and the parameter values stored in result variables. Because the unique test code/names could have different attributes (e.g., different origins, roles, definitions) there would be a need to provide value-level metadata for this information.", "score": 0.3791, "match_basis": "verbatim_token+chapter_route:ch03"}, {"md_atom_id": "md_ch03_a104", "md_file": "knowledge_base/chapters/ch03_submitting_data.md", "md_atom_type": "SENTENCE", "md_parent_section": "§3.2.1.2 [CDISC Submission Value-level Metadata]", "md_verbatim": "Because general observation class data structures are fixed, sometimes information that might appear as columns in a more horizontal (denormalized) structure in presentations and reports will instead be represented as rows in an SDTM Findings structure.", "score": 0.3762, "match_basis": "verbatim_token+chapter_route:ch03"}, {"md_atom_id": "md_ch03_a094", "md_file": "knowledge_base/chapters/ch03_submitting_data.md", "md_atom_type": "SENTENCE", "md_parent_section": "§3.2.1.1 [Primary Keys]", "md_verbatim": "The identified keys for each dataset should be consistent with the description of the dataset structure as described in the Define-XML document.", "score": 0.375, "match_basis": "verbatim_token+chapter_route:ch03"}, {"md_atom_id": "md_ch03_a023", "md_file": "knowledge_base/chapters/ch03_submitting_data.md", "md_atom_type": "SENTENCE", "md_parent_section": "§3.2.1 [Dataset-level Metadata]", "md_verbatim": "The Dataset-level Metadata table provides examples of dataset structures:", "score": 0.3724, "match_basis": "verbatim_token+chapter_route:ch03"}], "candidate_count": 5, "zero_candidate": false}
{"pdf_atom_id": "ig34_p0021_a002", "pdf_atom_type": "SENTENCE", "pdf_source": "SDTMIG_v3.4", "pdf_page": 21, "pdf_parent_section": "§3.2.1 [Findings]", "pdf_verbatim": "This means that there could be 5 records per subject (1 for each test or measurement) for a single visit or time point, with the parameter names stored in the Test Code/Name variables, and the parameter values stored in result variables.", "figure_ref": null, "candidates": [{"md_atom_id": "md_ch03_a106", "md_file": "knowledge_base/chapters/ch03_submitting_data.md", "md_atom_type": "SENTENCE", "md_parent_section": "§3.2.1.2 [CDISC Submission Value-level Metadata]", "md_verbatim": "**Example:** The Vital Signs (VS) data domain could contain subject records related to diastolic and systolic blood pressure, height, weight, and body mass index (BMI). These data are all submitted in the normalized SDTM Findings structure of 1 row per vital signs measurement. This means that there could be 5 records per subject (1 for each test or measurement) for a single visit or time point, with the parameter names stored in the Test Code/Name variables, and the parameter values stored in result variables. Because the unique test code/names could have different attributes (e.g., different origins, roles, definitions) there would be a need to provide value-level metadata for this information.", "score": 0.5236, "match_basis": "verbatim_token+chapter_route:ch03"}, {"md_atom_id": "md_ch03_a089", "md_file": "knowledge_base/chapters/ch03_submitting_data.md", "md_atom_type": "SENTENCE", "md_parent_section": "§3.2.1 [Dataset-level Metadata]", "md_verbatim": "See Section 8.4, Relating Non-standard Variable Values to a Parent Domain.", "score": 0.3865, "match_basis": "verbatim_token+chapter_route:ch03"}, {"md_atom_id": "md_ch03_a095", "md_file": "knowledge_base/chapters/ch03_submitting_data.md", "md_atom_type": "SENTENCE", "md_parent_section": "§3.2.1.1 [Primary Keys]", "md_verbatim": "For all the general observation-class domains (and for some special-purpose domains), the --SEQ variable was created so that a unique record could be identified consistently across all of these domains via its use, along with STUDYID, USUBJID, and DOMAIN.", "score": 0.3841, "match_basis": "verbatim_token+chapter_route:ch03"}, {"md_atom_id": "md_ch03_a010", "md_file": "knowledge_base/chapters/ch03_submitting_data.md", "md_atom_type": "SENTENCE", "md_parent_section": "§3.1 [Standard Metadata for Dataset Contents and Attributes]", "md_verbatim": "In particular, these models illustrate the selection of a subset of the variables offered in 1 of the general observation classes, along with applicable timing variables.", "score": 0.3766, "match_basis": "verbatim_token+chapter_route:ch03"}, {"md_atom_id": "md_ch03_a097", "md_file": "knowledge_base/chapters/ch03_submitting_data.md", "md_atom_type": "SENTENCE", "md_parent_section": "§3.2.1.1 [Primary Keys]", "md_verbatim": "In certain instances, a supplemental qualifier (SUPP--) variable might also contribute to the natural key of a record for a particular domain.", "score": 0.3701, "match_basis": "verbatim_token+chapter_route:ch03"}], "candidate_count": 5, "zero_candidate": false}
{"pdf_atom_id": "ig34_p0021_a003", "pdf_atom_type": "SENTENCE", "pdf_source": "SDTMIG_v3.4", "pdf_page": 21, "pdf_parent_section": "§3.2.1 [Findings]", "pdf_verbatim": "Because the unique test code/names could have different attributes (e.g., different origins, roles, definitions) there would be a need to provide value-level metadata for this information.", "figure_ref": null, "candidates": [{"md_atom_id": "md_ch03_a106", "md_file": "knowledge_base/chapters/ch03_submitting_data.md", "md_atom_type": "SENTENCE", "md_parent_section": "§3.2.1.2 [CDISC Submission Value-level Metadata]", "md_verbatim": "**Example:** The Vital Signs (VS) data domain could contain subject records related to diastolic and systolic blood pressure, height, weight, and body mass index (BMI). These data are all submitted in the normalized SDTM Findings structure of 1 row per vital signs measurement. This means that there could be 5 records per subject (1 for each test or measurement) for a single visit or time point, with the parameter names stored in the Test Code/Name variables, and the parameter values stored in result variables. Because the unique test code/names could have different attributes (e.g., different origins, roles, definitions) there would be a need to provide value-level metadata for this information.", "score": 0.5264, "match_basis": "verbatim_token+chapter_route:ch03"}, {"md_atom_id": "md_ch03_a105", "md_file": "knowledge_base/chapters/ch03_submitting_data.md", "md_atom_type": "SENTENCE", "md_parent_section": "§3.2.1.2 [CDISC Submission Value-level Metadata]", "md_verbatim": "Because many different types of observations are all presented in the same structure, there is a need to provide additional metadata to describe expected properties that differentiate (e.g., hematology lab results from serum chemistry lab results in terms of data type, standard units, and other attributes).", "score": 0.4553, "match_basis": "verbatim_token+chapter_route:ch03"}, {"md_atom_id": "md_ch03_a107", "md_file": "knowledge_base/chapters/ch03_submitting_data.md", "md_atom_type": "SENTENCE", "md_parent_section": "§3.2.1.2 [CDISC Submission Value-level Metadata]", "md_verbatim": "The value-level metadata should be provided as a separate section of the Define-XML document.", "score": 0.4529, "match_basis": "verbatim_token+chapter_route:ch03"}, {"md_atom_id": "md_ch03_a004", "md_file": "knowledge_base/chapters/ch03_submitting_data.md", "md_atom_type": "SENTENCE", "md_parent_section": "§3.1 [Standard Metadata for Dataset Contents and Attributes]", "md_verbatim": "The SDTMIG provides standard descriptions of some of the most commonly used data domains, with metadata attributes.", "score": 0.4282, "match_basis": "verbatim_token+chapter_route:ch03"}, {"md_atom_id": "md_ch03_a005", "md_file": "knowledge_base/chapters/ch03_submitting_data.md", "md_atom_type": "SENTENCE", "md_parent_section": "§3.1 [Standard Metadata for Dataset Contents and Attributes]", "md_verbatim": "These include descriptive metadata attributes that should be included in a Define-XML document.", "score": 0.4135, "match_basis": "verbatim_token+chapter_route:ch03"}], "candidate_count": 5, "zero_candidate": false}
{"pdf_atom_id": "ig34_p0021_a004", "pdf_atom_type": "SENTENCE", "pdf_source": "SDTMIG_v3.4", "pdf_page": 21, "pdf_parent_section": "§3.2.1 [Findings]", "pdf_verbatim": "The value-level metadata should be provided as a separate section of the Define-XML document.", "figure_ref": null, "candidates": [{"md_atom_id": "md_ch03_a107", "md_file": "knowledge_base/chapters/ch03_submitting_data.md", "md_atom_type": "SENTENCE", "md_parent_section": "§3.2.1.2 [CDISC Submission Value-level Metadata]", "md_verbatim": "The value-level metadata should be provided as a separate section of the Define-XML document.", "score": 0.9, "match_basis": "verbatim_token+chapter_route:ch03"}, {"md_atom_id": "md_ch03_a005", "md_file": "knowledge_base/chapters/ch03_submitting_data.md", "md_atom_type": "SENTENCE", "md_parent_section": "§3.1 [Standard Metadata for Dataset Contents and Attributes]", "md_verbatim": "These include descriptive metadata attributes that should be included in a Define-XML document.", "score": 0.4944, "match_basis": "verbatim_token+chapter_route:ch03"}, {"md_atom_id": "md_ch03_a018", "md_file": "knowledge_base/chapters/ch03_submitting_data.md", "md_atom_type": "SENTENCE", "md_parent_section": "§3.2 [Using the CDISC Domain Models in Regulatory Submissions — Dataset Metadata]", "md_verbatim": "Dataset definition metadata should include:", "score": 0.4607, "match_basis": "verbatim_token+chapter_route:ch03"}, {"md_atom_id": "md_ch03_a094", "md_file": "knowledge_base/chapters/ch03_submitting_data.md", "md_atom_type": "SENTENCE", "md_parent_section": "§3.2.1.1 [Primary Keys]", "md_verbatim": "The identified keys for each dataset should be consistent with the description of the dataset structure as described in the Define-XML document.", "score": 0.4482, "match_basis": "verbatim_token+chapter_route:ch03"}, {"md_atom_id": "md_ch03_a023", "md_file": "knowledge_base/chapters/ch03_submitting_data.md", "md_atom_type": "SENTENCE", "md_parent_section": "§3.2.1 [Dataset-level Metadata]", "md_verbatim": "The Dataset-level Metadata table provides examples of dataset structures:", "score": 0.4364, "match_basis": "verbatim_token+chapter_route:ch03"}], "candidate_count": 5, "zero_candidate": false}
{"pdf_atom_id": "ig34_p0021_a005", "pdf_atom_type": "SENTENCE", "pdf_source": "SDTMIG_v3.4", "pdf_page": 21, "pdf_parent_section": "§3.2.1 [Findings]", "pdf_verbatim": "For details on the CDISC Define-XML standard, see https://www.cdisc.org/standards/data-exchange/define-xml.", "figure_ref": null, "candidates": [{"md_atom_id": "md_ch03_a108", "md_file": "knowledge_base/chapters/ch03_submitting_data.md", "md_atom_type": "SENTENCE", "md_parent_section": "§3.2.1.2 [CDISC Submission Value-level Metadata]", "md_verbatim": "For details on the CDISC Define-XML standard, see https://www.cdisc.org/standards/data-exchange/define-xml.", "score": 0.9, "match_basis": "verbatim_token+chapter_route:ch03"}, {"md_atom_id": "md_ch03_a093", "md_file": "knowledge_base/chapters/ch03_submitting_data.md", "md_atom_type": "SENTENCE", "md_parent_section": "§3.2.1.1 [Primary Keys]", "md_verbatim": "These keys should define uniqueness for records in a dataset, and may define a record sort order.", "score": 0.3937, "match_basis": "verbatim_token+chapter_route:ch03"}, {"md_atom_id": "md_ch03_a107", "md_file": "knowledge_base/chapters/ch03_submitting_data.md", "md_atom_type": "SENTENCE", "md_parent_section": "§3.2.1.2 [CDISC Submission Value-level Metadata]", "md_verbatim": "The value-level metadata should be provided as a separate section of the Define-XML document.", "score": 0.375, "match_basis": "verbatim_token+chapter_route:ch03"}, {"md_atom_id": "md_ch03_a005", "md_file": "knowledge_base/chapters/ch03_submitting_data.md", "md_atom_type": "SENTENCE", "md_parent_section": "§3.1 [Standard Metadata for Dataset Contents and Attributes]", "md_verbatim": "These include descriptive metadata attributes that should be included in a Define-XML document.", "score": 0.3711, "match_basis": "verbatim_token+chapter_route:ch03"}, {"md_atom_id": "md_ch03_a004", "md_file": "knowledge_base/chapters/ch03_submitting_data.md", "md_atom_type": "SENTENCE", "md_parent_section": "§3.1 [Standard Metadata for Dataset Contents and Attributes]", "md_verbatim": "The SDTMIG provides standard descriptions of some of the most commonly used data domains, with metadata attributes.", "score": 0.3706, "match_basis": "verbatim_token+chapter_route:ch03"}], "candidate_count": 5, "zero_candidate": false}
{"pdf_atom_id": "ig34_p0021_a006", "pdf_atom_type": "HEADING", "pdf_source": "SDTMIG_v3.4", "pdf_page": 21, "pdf_parent_section": "§3.2.2 [Conformance]", "pdf_verbatim": "3.2.2 Conformance", "figure_ref": null, "candidates": [{"md_atom_id": "md_ch03_a109", "md_file": "knowledge_base/chapters/ch03_submitting_data.md", "md_atom_type": "HEADING", "md_parent_section": "§3.2 [Using the CDISC Domain Models in Regulatory Submissions — Dataset Metadata]", "md_verbatim": "## 3.2.2 Conformance", "score": 0.9, "match_basis": "verbatim_token+chapter_route:ch03"}, {"md_atom_id": "md_ch03_a001", "md_file": "knowledge_base/chapters/ch03_submitting_data.md", "md_atom_type": "HEADING", "md_parent_section": "§3 [Submitting Data in Standard Format]", "md_verbatim": "# SDTMIG v3.4 — Chapter 3: Submitting Data in Standard Format", "score": 0.3514, "match_basis": "verbatim_token+chapter_route:ch03"}, {"md_atom_id": "md_ch03_a003", "md_file": "knowledge_base/chapters/ch03_submitting_data.md", "md_atom_type": "HEADING", "md_parent_section": "§3 [Submitting Data in Standard Format]", "md_verbatim": "## 3.1 Standard Metadata for Dataset Contents and Attributes", "score": 0.3324, "match_basis": "verbatim_token+chapter_route:ch03"}, {"md_atom_id": "md_ch03_a013", "md_file": "knowledge_base/chapters/ch03_submitting_data.md", "md_atom_type": "HEADING", "md_parent_section": "§3 [Submitting Data in Standard Format]", "md_verbatim": "## 3.2 Using the CDISC Domain Models in Regulatory Submissions — Dataset Metadata", "score": 0.3, "match_basis": "verbatim_token+chapter_route:ch03"}, {"md_atom_id": "md_ch03_a021", "md_file": "knowledge_base/chapters/ch03_submitting_data.md", "md_atom_type": "HEADING", "md_parent_section": "§3.2 [Using the CDISC Domain Models in Regulatory Submissions — Dataset Metadata]", "md_verbatim": "### 3.2.1 Dataset-level Metadata", "score": 0.3, "match_basis": "verbatim_token+chapter_route:ch03"}], "candidate_count": 5, "zero_candidate": false}
{"pdf_atom_id": "ig34_p0021_a007", "pdf_atom_type": "SENTENCE", "pdf_source": "SDTMIG_v3.4", "pdf_page": 21, "pdf_parent_section": "§3.2.2 [Conformance]", "pdf_verbatim": "Conformance with the SDTMIG domain models is minimally indicated by:", "figure_ref": null, "candidates": [{"md_atom_id": "md_ch03_a110", "md_file": "knowledge_base/chapters/ch03_submitting_data.md", "md_atom_type": "SENTENCE", "md_parent_section": "§3.2.2 [Conformance]", "md_verbatim": "Conformance with the SDTMIG domain models is minimally indicated by:", "score": 0.9, "match_basis": "verbatim_token+chapter_route:ch03"}, {"md_atom_id": "md_ch03_a012", "md_file": "knowledge_base/chapters/ch03_submitting_data.md", "md_atom_type": "SENTENCE", "md_parent_section": "§3.1 [Standard Metadata for Dataset Contents and Attributes]", "md_verbatim": "Thus, the domain models not only demonstrate how to apply the model for the most common domains but also give insight on how to apply general model concepts to other domains not yet defined by CDISC.", "score": 0.3867, "match_basis": "verbatim_token+chapter_route:ch03"}, {"md_atom_id": "md_ch03_a009", "md_file": "knowledge_base/chapters/ch03_submitting_data.md", "md_atom_type": "SENTENCE", "md_parent_section": "§3.1 [Standard Metadata for Dataset Contents and Attributes]", "md_verbatim": "The domain models in Section 6, Domain Models Based on the General Observation Classes, illustrate how to apply the SDTM when creating a specific domain dataset.", "score": 0.3791, "match_basis": "verbatim_token+chapter_route:ch03"}, {"md_atom_id": "md_ch03_a103", "md_file": "knowledge_base/chapters/ch03_submitting_data.md", "md_atom_type": "SENTENCE", "md_parent_section": "§3.2.1.2 [CDISC Submission Value-level Metadata]", "md_verbatim": "In general, findings data models are closely related to normalized, relational data models in a vertical structure of 1 record per observation.", "score": 0.3791, "match_basis": "verbatim_token+chapter_route:ch03"}, {"md_atom_id": "md_ch03_a004", "md_file": "knowledge_base/chapters/ch03_submitting_data.md", "md_atom_type": "SENTENCE", "md_parent_section": "§3.1 [Standard Metadata for Dataset Contents and Attributes]", "md_verbatim": "The SDTMIG provides standard descriptions of some of the most commonly used data domains, with metadata attributes.", "score": 0.3767, "match_basis": "verbatim_token+chapter_route:ch03"}], "candidate_count": 5, "zero_candidate": false}
{"pdf_atom_id": "ig34_p0021_a008", "pdf_atom_type": "LIST_ITEM", "pdf_source": "SDTMIG_v3.4", "pdf_page": 21, "pdf_parent_section": "§3.2.2 [Conformance]", "pdf_verbatim": "Following the complete metadata structure for data domains", "figure_ref": null, "candidates": [{"md_atom_id": "md_ch03_a111", "md_file": "knowledge_base/chapters/ch03_submitting_data.md", "md_atom_type": "LIST_ITEM", "md_parent_section": "§3.2.2 [Conformance]", "md_verbatim": "1. Following the complete metadata structure for data domains", "score": 0.9, "match_basis": "verbatim_token+chapter_route:ch03"}, {"md_atom_id": "md_ch03_a112", "md_file": "knowledge_base/chapters/ch03_submitting_data.md", "md_atom_type": "LIST_ITEM", "md_parent_section": "§3.2.2 [Conformance]", "md_verbatim": "2. Following SDTMIG domain models wherever applicable", "score": 0.42, "match_basis": "verbatim_token+chapter_route:ch03"}, {"md_atom_id": "md_ch03_a117", "md_file": "knowledge_base/chapters/ch03_submitting_data.md", "md_atom_type": "LIST_ITEM", "md_parent_section": "§3.2.2 [Conformance]", "md_verbatim": "7. Including all collected and relevant derived data in one of the standard domains, special-purpose datasets, or general observation class structures", "score": 0.4062, "match_basis": "verbatim_token+chapter_route:ch03"}, {"md_atom_id": "md_ch03_a023", "md_file": "knowledge_base/chapters/ch03_submitting_data.md", "md_atom_type": "SENTENCE", "md_parent_section": "§3.2.1 [Dataset-level Metadata]", "md_verbatim": "The Dataset-level Metadata table provides examples of dataset structures:", "score": 0.3911, "match_basis": "verbatim_token+chapter_route:ch03"}, {"md_atom_id": "md_ch03_a019", "md_file": "knowledge_base/chapters/ch03_submitting_data.md", "md_atom_type": "LIST_ITEM", "md_parent_section": "§3.2 [Using the CDISC Domain Models in Regulatory Submissions — Dataset Metadata]", "md_verbatim": "- Dataset filenames, descriptions, locations, structures, class, purpose, and keys", "score": 0.3783, "match_basis": "verbatim_token+chapter_route:ch03"}], "candidate_count": 5, "zero_candidate": false}
{"pdf_atom_id": "ig34_p0021_a009", "pdf_atom_type": "LIST_ITEM", "pdf_source": "SDTMIG_v3.4", "pdf_page": 21, "pdf_parent_section": "§3.2.2 [Conformance]", "pdf_verbatim": "Following SDTMIG domain models wherever applicable", "figure_ref": null, "candidates": [{"md_atom_id": "md_ch03_a112", "md_file": "knowledge_base/chapters/ch03_submitting_data.md", "md_atom_type": "LIST_ITEM", "md_parent_section": "§3.2.2 [Conformance]", "md_verbatim": "2. Following SDTMIG domain models wherever applicable", "score": 0.9, "match_basis": "verbatim_token+chapter_route:ch03"}, {"md_atom_id": "md_ch03_a113", "md_file": "knowledge_base/chapters/ch03_submitting_data.md", "md_atom_type": "LIST_ITEM", "md_parent_section": "§3.2.2 [Conformance]", "md_verbatim": "3. Using SDTM-specified standard domain names and prefixes where applicable", "score": 0.4895, "match_basis": "verbatim_token+chapter_route:ch03"}, {"md_atom_id": "md_ch03_a111", "md_file": "knowledge_base/chapters/ch03_submitting_data.md", "md_atom_type": "LIST_ITEM", "md_parent_section": "§3.2.2 [Conformance]", "md_verbatim": "1. Following the complete metadata structure for data domains", "score": 0.42, "match_basis": "verbatim_token+chapter_route:ch03"}, {"md_atom_id": "md_ch03_a116", "md_file": "knowledge_base/chapters/ch03_submitting_data.md", "md_atom_type": "LIST_ITEM", "md_parent_section": "§3.2.2 [Conformance]", "md_verbatim": "6. Following SDTM-specified controlled terminology and format guidelines for variables, when provided", "score": 0.3987, "match_basis": "verbatim_token+chapter_route:ch03"}, {"md_atom_id": "md_ch03_a115", "md_file": "knowledge_base/chapters/ch03_submitting_data.md", "md_atom_type": "LIST_ITEM", "md_parent_section": "§3.2.2 [Conformance]", "md_verbatim": "5. Using SDTM-specified data types for all variables", "score": 0.3556, "match_basis": "verbatim_token+chapter_route:ch03"}], "candidate_count": 5, "zero_candidate": false}
{"pdf_atom_id": "ig34_p0021_a010", "pdf_atom_type": "LIST_ITEM", "pdf_source": "SDTMIG_v3.4", "pdf_page": 21, "pdf_parent_section": "§3.2.2 [Conformance]", "pdf_verbatim": "Using SDTM-specified standard domain names and prefixes where applicable", "figure_ref": null, "candidates": [{"md_atom_id": "md_ch03_a113", "md_file": "knowledge_base/chapters/ch03_submitting_data.md", "md_atom_type": "LIST_ITEM", "md_parent_section": "§3.2.2 [Conformance]", "md_verbatim": "3. Using SDTM-specified standard domain names and prefixes where applicable", "score": 0.9, "match_basis": "verbatim_token+chapter_route:ch03"}, {"md_atom_id": "md_ch03_a114", "md_file": "knowledge_base/chapters/ch03_submitting_data.md", "md_atom_type": "LIST_ITEM", "md_parent_section": "§3.2.2 [Conformance]", "md_verbatim": "4. Using SDTM-specified standard variable names", "score": 0.6, "match_basis": "verbatim_token+chapter_route:ch03"}, {"md_atom_id": "md_ch03_a112", "md_file": "knowledge_base/chapters/ch03_submitting_data.md", "md_atom_type": "LIST_ITEM", "md_parent_section": "§3.2.2 [Conformance]", "md_verbatim": "2. Following SDTMIG domain models wherever applicable", "score": 0.4895, "match_basis": "verbatim_token+chapter_route:ch03"}, {"md_atom_id": "md_ch03_a115", "md_file": "knowledge_base/chapters/ch03_submitting_data.md", "md_atom_type": "LIST_ITEM", "md_parent_section": "§3.2.2 [Conformance]", "md_verbatim": "5. Using SDTM-specified data types for all variables", "score": 0.4556, "match_basis": "verbatim_token+chapter_route:ch03"}, {"md_atom_id": "md_ch03_a118", "md_file": "knowledge_base/chapters/ch03_submitting_data.md", "md_atom_type": "LIST_ITEM", "md_parent_section": "§3.2.2 [Conformance]", "md_verbatim": "8. Including all Required and Expected variables as columns in standard domains, and ensuring that all Required variables are populated", "score": 0.3988, "match_basis": "verbatim_token+chapter_route:ch03"}], "candidate_count": 5, "zero_candidate": false}
{"pdf_atom_id": "ig34_p0021_a011", "pdf_atom_type": "LIST_ITEM", "pdf_source": "SDTMIG_v3.4", "pdf_page": 21, "pdf_parent_section": "§3.2.2 [Conformance]", "pdf_verbatim": "Using SDTM-specified standard variable names", "figure_ref": null, "candidates": [{"md_atom_id": "md_ch03_a114", "md_file": "knowledge_base/chapters/ch03_submitting_data.md", "md_atom_type": "LIST_ITEM", "md_parent_section": "§3.2.2 [Conformance]", "md_verbatim": "4. Using SDTM-specified standard variable names", "score": 0.9, "match_basis": "verbatim_token+chapter_route:ch03"}, {"md_atom_id": "md_ch03_a115", "md_file": "knowledge_base/chapters/ch03_submitting_data.md", "md_atom_type": "LIST_ITEM", "md_parent_section": "§3.2.2 [Conformance]", "md_verbatim": "5. Using SDTM-specified data types for all variables", "score": 0.6086, "match_basis": "verbatim_token+chapter_route:ch03"}, {"md_atom_id": "md_ch03_a113", "md_file": "knowledge_base/chapters/ch03_submitting_data.md", "md_atom_type": "LIST_ITEM", "md_parent_section": "§3.2.2 [Conformance]", "md_verbatim": "3. Using SDTM-specified standard domain names and prefixes where applicable", "score": 0.6, "match_basis": "verbatim_token+chapter_route:ch03"}, {"md_atom_id": "md_ch03_a116", "md_file": "knowledge_base/chapters/ch03_submitting_data.md", "md_atom_type": "LIST_ITEM", "md_parent_section": "§3.2.2 [Conformance]", "md_verbatim": "6. Following SDTM-specified controlled terminology and format guidelines for variables, when provided", "score": 0.4478, "match_basis": "verbatim_token+chapter_route:ch03"}, {"md_atom_id": "md_ch03_a118", "md_file": "knowledge_base/chapters/ch03_submitting_data.md", "md_atom_type": "LIST_ITEM", "md_parent_section": "§3.2.2 [Conformance]", "md_verbatim": "8. Including all Required and Expected variables as columns in standard domains, and ensuring that all Required variables are populated", "score": 0.42, "match_basis": "verbatim_token+chapter_route:ch03"}], "candidate_count": 5, "zero_candidate": false}
{"pdf_atom_id": "ig34_p0021_a012", "pdf_atom_type": "LIST_ITEM", "pdf_source": "SDTMIG_v3.4", "pdf_page": 21, "pdf_parent_section": "§3.2.2 [Conformance]", "pdf_verbatim": "Using SDTM-specified data types for all variables", "figure_ref": null, "candidates": [{"md_atom_id": "md_ch03_a115", "md_file": "knowledge_base/chapters/ch03_submitting_data.md", "md_atom_type": "LIST_ITEM", "md_parent_section": "§3.2.2 [Conformance]", "md_verbatim": "5. Using SDTM-specified data types for all variables", "score": 0.9, "match_basis": "verbatim_token+chapter_route:ch03"}, {"md_atom_id": "md_ch03_a114", "md_file": "knowledge_base/chapters/ch03_submitting_data.md", "md_atom_type": "LIST_ITEM", "md_parent_section": "§3.2.2 [Conformance]", "md_verbatim": "4. Using SDTM-specified standard variable names", "score": 0.6086, "match_basis": "verbatim_token+chapter_route:ch03"}, {"md_atom_id": "md_ch03_a116", "md_file": "knowledge_base/chapters/ch03_submitting_data.md", "md_atom_type": "LIST_ITEM", "md_parent_section": "§3.2.2 [Conformance]", "md_verbatim": "6. Following SDTM-specified controlled terminology and format guidelines for variables, when provided", "score": 0.4612, "match_basis": "verbatim_token+chapter_route:ch03"}, {"md_atom_id": "md_ch03_a113", "md_file": "knowledge_base/chapters/ch03_submitting_data.md", "md_atom_type": "LIST_ITEM", "md_parent_section": "§3.2.2 [Conformance]", "md_verbatim": "3. Using SDTM-specified standard domain names and prefixes where applicable", "score": 0.4556, "match_basis": "verbatim_token+chapter_route:ch03"}, {"md_atom_id": "md_ch03_a008", "md_file": "knowledge_base/chapters/ch03_submitting_data.md", "md_atom_type": "LIST_ITEM", "md_parent_section": "§3.1 [Standard Metadata for Dataset Contents and Attributes]", "md_verbatim": "- **Core column** — indicates how a variable is classified (see Section 4.1.5, SDTM Core Designations)", "score": 0.4119, "match_basis": "verbatim_token+chapter_route:ch03"}], "candidate_count": 5, "zero_candidate": false}
{"pdf_atom_id": "ig34_p0021_a013", "pdf_atom_type": "LIST_ITEM", "pdf_source": "SDTMIG_v3.4", "pdf_page": 21, "pdf_parent_section": "§3.2.2 [Conformance]", "pdf_verbatim": "Following SDTM-specified controlled terminology and format guidelines for variables, when provided", "figure_ref": null, "candidates": [{"md_atom_id": "md_ch03_a116", "md_file": "knowledge_base/chapters/ch03_submitting_data.md", "md_atom_type": "LIST_ITEM", "md_parent_section": "§3.2.2 [Conformance]", "md_verbatim": "6. Following SDTM-specified controlled terminology and format guidelines for variables, when provided", "score": 0.9, "match_basis": "verbatim_token+chapter_route:ch03"}, {"md_atom_id": "md_ch03_a115", "md_file": "knowledge_base/chapters/ch03_submitting_data.md", "md_atom_type": "LIST_ITEM", "md_parent_section": "§3.2.2 [Conformance]", "md_verbatim": "5. Using SDTM-specified data types for all variables", "score": 0.4612, "match_basis": "verbatim_token+chapter_route:ch03"}, {"md_atom_id": "md_ch03_a114", "md_file": "knowledge_base/chapters/ch03_submitting_data.md", "md_atom_type": "LIST_ITEM", "md_parent_section": "§3.2.2 [Conformance]", "md_verbatim": "4. Using SDTM-specified standard variable names", "score": 0.4478, "match_basis": "verbatim_token+chapter_route:ch03"}, {"md_atom_id": "md_ch03_a112", "md_file": "knowledge_base/chapters/ch03_submitting_data.md", "md_atom_type": "LIST_ITEM", "md_parent_section": "§3.2.2 [Conformance]", "md_verbatim": "2. Following SDTMIG domain models wherever applicable", "score": 0.3987, "match_basis": "verbatim_token+chapter_route:ch03"}, {"md_atom_id": "md_ch03_a113", "md_file": "knowledge_base/chapters/ch03_submitting_data.md", "md_atom_type": "LIST_ITEM", "md_parent_section": "§3.2.2 [Conformance]", "md_verbatim": "3. Using SDTM-specified standard domain names and prefixes where applicable", "score": 0.3966, "match_basis": "verbatim_token+chapter_route:ch03"}], "candidate_count": 5, "zero_candidate": false}
{"pdf_atom_id": "ig34_p0021_a014", "pdf_atom_type": "LIST_ITEM", "pdf_source": "SDTMIG_v3.4", "pdf_page": 21, "pdf_parent_section": "§3.2.2 [Conformance]", "pdf_verbatim": "Including all collected and relevant derived data in one of the standard domains, special-purpose datasets, or general observation class structures", "figure_ref": null, "candidates": [{"md_atom_id": "md_ch03_a117", "md_file": "knowledge_base/chapters/ch03_submitting_data.md", "md_atom_type": "LIST_ITEM", "md_parent_section": "§3.2.2 [Conformance]", "md_verbatim": "7. Including all collected and relevant derived data in one of the standard domains, special-purpose datasets, or general observation class structures", "score": 0.9, "match_basis": "verbatim_token+chapter_route:ch03"}, {"md_atom_id": "md_ch03_a019", "md_file": "knowledge_base/chapters/ch03_submitting_data.md", "md_atom_type": "LIST_ITEM", "md_parent_section": "§3.2 [Using the CDISC Domain Models in Regulatory Submissions — Dataset Metadata]", "md_verbatim": "- Dataset filenames, descriptions, locations, structures, class, purpose, and keys", "score": 0.45, "match_basis": "verbatim_token+chapter_route:ch03"}, {"md_atom_id": "md_ch03_a118", "md_file": "knowledge_base/chapters/ch03_submitting_data.md", "md_atom_type": "LIST_ITEM", "md_parent_section": "§3.2.2 [Conformance]", "md_verbatim": "8. Including all Required and Expected variables as columns in standard domains, and ensuring that all Required variables are populated", "score": 0.4274, "match_basis": "verbatim_token+chapter_route:ch03"}, {"md_atom_id": "md_ch03_a111", "md_file": "knowledge_base/chapters/ch03_submitting_data.md", "md_atom_type": "LIST_ITEM", "md_parent_section": "§3.2.2 [Conformance]", "md_verbatim": "1. Following the complete metadata structure for data domains", "score": 0.4062, "match_basis": "verbatim_token+chapter_route:ch03"}, {"md_atom_id": "md_ch03_a120", "md_file": "knowledge_base/chapters/ch03_submitting_data.md", "md_atom_type": "LIST_ITEM", "md_parent_section": "§3.2.2 [Conformance]", "md_verbatim": "10. Conforming to all business rules described in the CDISC Notes column and general and domain-specific assumptions", "score": 0.3992, "match_basis": "verbatim_token+chapter_route:ch03"}], "candidate_count": 5, "zero_candidate": false}
{"pdf_atom_id": "ig34_p0021_a015", "pdf_atom_type": "LIST_ITEM", "pdf_source": "SDTMIG_v3.4", "pdf_page": 21, "pdf_parent_section": "§3.2.2 [Conformance]", "pdf_verbatim": "Including all Required and Expected variables as columns in standard domains, and ensuring that all Required variables are populated", "figure_ref": null, "candidates": [{"md_atom_id": "md_ch03_a118", "md_file": "knowledge_base/chapters/ch03_submitting_data.md", "md_atom_type": "LIST_ITEM", "md_parent_section": "§3.2.2 [Conformance]", "md_verbatim": "8. Including all Required and Expected variables as columns in standard domains, and ensuring that all Required variables are populated", "score": 0.9, "match_basis": "verbatim_token+chapter_route:ch03"}, {"md_atom_id": "md_ch03_a119", "md_file": "knowledge_base/chapters/ch03_submitting_data.md", "md_atom_type": "LIST_ITEM", "md_parent_section": "§3.2.2 [Conformance]", "md_verbatim": "9. Ensuring that each record in a dataset includes the appropriate Identifier and Timing variables, as well as a Topic variable", "score": 0.434, "match_basis": "verbatim_token+chapter_route:ch03"}, {"md_atom_id": "md_ch03_a117", "md_file": "knowledge_base/chapters/ch03_submitting_data.md", "md_atom_type": "LIST_ITEM", "md_parent_section": "§3.2.2 [Conformance]", "md_verbatim": "7. Including all collected and relevant derived data in one of the standard domains, special-purpose datasets, or general observation class structures", "score": 0.4274, "match_basis": "verbatim_token+chapter_route:ch03"}, {"md_atom_id": "md_ch03_a114", "md_file": "knowledge_base/chapters/ch03_submitting_data.md", "md_atom_type": "LIST_ITEM", "md_parent_section": "§3.2.2 [Conformance]", "md_verbatim": "4. Using SDTM-specified standard variable names", "score": 0.42, "match_basis": "verbatim_token+chapter_route:ch03"}, {"md_atom_id": "md_ch03_a113", "md_file": "knowledge_base/chapters/ch03_submitting_data.md", "md_atom_type": "LIST_ITEM", "md_parent_section": "§3.2.2 [Conformance]", "md_verbatim": "3. Using SDTM-specified standard domain names and prefixes where applicable", "score": 0.3988, "match_basis": "verbatim_token+chapter_route:ch03"}], "candidate_count": 5, "zero_candidate": false}
{"pdf_atom_id": "ig34_p0021_a016", "pdf_atom_type": "LIST_ITEM", "pdf_source": "SDTMIG_v3.4", "pdf_page": 21, "pdf_parent_section": "§3.2.2 [Conformance]", "pdf_verbatim": "Ensuring that each record in a dataset includes the appropriate Identifier and Timing variables, as well as a Topic variable", "figure_ref": null, "candidates": [{"md_atom_id": "md_ch03_a119", "md_file": "knowledge_base/chapters/ch03_submitting_data.md", "md_atom_type": "LIST_ITEM", "md_parent_section": "§3.2.2 [Conformance]", "md_verbatim": "9. Ensuring that each record in a dataset includes the appropriate Identifier and Timing variables, as well as a Topic variable", "score": 0.9, "match_basis": "verbatim_token+chapter_route:ch03"}, {"md_atom_id": "md_ch03_a118", "md_file": "knowledge_base/chapters/ch03_submitting_data.md", "md_atom_type": "LIST_ITEM", "md_parent_section": "§3.2.2 [Conformance]", "md_verbatim": "8. Including all Required and Expected variables as columns in standard domains, and ensuring that all Required variables are populated", "score": 0.434, "match_basis": "verbatim_token+chapter_route:ch03"}, {"md_atom_id": "md_ch03_a115", "md_file": "knowledge_base/chapters/ch03_submitting_data.md", "md_atom_type": "LIST_ITEM", "md_parent_section": "§3.2.2 [Conformance]", "md_verbatim": "5. Using SDTM-specified data types for all variables", "score": 0.4, "match_basis": "verbatim_token+chapter_route:ch03"}, {"md_atom_id": "md_ch03_a116", "md_file": "knowledge_base/chapters/ch03_submitting_data.md", "md_atom_type": "LIST_ITEM", "md_parent_section": "§3.2.2 [Conformance]", "md_verbatim": "6. Following SDTM-specified controlled terminology and format guidelines for variables, when provided", "score": 0.3816, "match_basis": "verbatim_token+chapter_route:ch03"}, {"md_atom_id": "md_ch03_a114", "md_file": "knowledge_base/chapters/ch03_submitting_data.md", "md_atom_type": "LIST_ITEM", "md_parent_section": "§3.2.2 [Conformance]", "md_verbatim": "4. Using SDTM-specified standard variable names", "score": 0.38, "match_basis": "verbatim_token+chapter_route:ch03"}], "candidate_count": 5, "zero_candidate": false}
{"pdf_atom_id": "ig34_p0021_a017", "pdf_atom_type": "LIST_ITEM", "pdf_source": "SDTMIG_v3.4", "pdf_page": 21, "pdf_parent_section": "§3.2.2 [Conformance]", "pdf_verbatim": "Conforming to all business rules described in the CDISC Notes column and general and domain-specific assumptions", "figure_ref": null, "candidates": [{"md_atom_id": "md_ch03_a120", "md_file": "knowledge_base/chapters/ch03_submitting_data.md", "md_atom_type": "LIST_ITEM", "md_parent_section": "§3.2.2 [Conformance]", "md_verbatim": "10. Conforming to all business rules described in the CDISC Notes column and general and domain-specific assumptions", "score": 0.9, "match_basis": "verbatim_token+chapter_route:ch03"}, {"md_atom_id": "md_ch03_a007", "md_file": "knowledge_base/chapters/ch03_submitting_data.md", "md_atom_type": "LIST_ITEM", "md_parent_section": "§3.1 [Standard Metadata for Dataset Contents and Attributes]", "md_verbatim": "- **CDISC Notes column** — information regarding the relevant use of each variable", "score": 0.4186, "match_basis": "verbatim_token+chapter_route:ch03"}, {"md_atom_id": "md_ch03_a117", "md_file": "knowledge_base/chapters/ch03_submitting_data.md", "md_atom_type": "LIST_ITEM", "md_parent_section": "§3.2.2 [Conformance]", "md_verbatim": "7. Including all collected and relevant derived data in one of the standard domains, special-purpose datasets, or general observation class structures", "score": 0.3992, "match_basis": "verbatim_token+chapter_route:ch03"}, {"md_atom_id": "md_ch03_a115", "md_file": "knowledge_base/chapters/ch03_submitting_data.md", "md_atom_type": "LIST_ITEM", "md_parent_section": "§3.2.2 [Conformance]", "md_verbatim": "5. Using SDTM-specified data types for all variables", "score": 0.3868, "match_basis": "verbatim_token+chapter_route:ch03"}, {"md_atom_id": "md_ch03_a113", "md_file": "knowledge_base/chapters/ch03_submitting_data.md", "md_atom_type": "LIST_ITEM", "md_parent_section": "§3.2.2 [Conformance]", "md_verbatim": "3. Using SDTM-specified standard domain names and prefixes where applicable", "score": 0.3867, "match_basis": "verbatim_token+chapter_route:ch03"}], "candidate_count": 5, "zero_candidate": false}
{"pdf_atom_id": "ig34_p0022_a001", "pdf_atom_type": "HEADING", "pdf_source": "SDTMIG_v3.4", "pdf_page": 22, "pdf_parent_section": "§4 [Assumptions for Domain Models]", "pdf_verbatim": "4  Assumptions for Domain Models", "figure_ref": null, "candidates": [{"md_atom_id": "md_ch04_a001", "md_file": "knowledge_base/chapters/ch04_general_assumptions.md", "md_atom_type": "HEADING", "md_parent_section": "§4 [Assumptions for Domain Models]", "md_verbatim": "# SDTMIG v3.4 — Chapter 4: Assumptions for Domain Models", "score": 0.7, "match_basis": "verbatim_token+chapter_route:ch04"}, {"md_atom_id": "md_ch04_a006", "md_file": "knowledge_base/chapters/ch04_general_assumptions.md", "md_atom_type": "HEADING", "md_parent_section": "§4 [Assumptions for Domain Models]", "md_verbatim": "## 4.1 General Domain Assumptions", "score": 0.6391, "match_basis": "verbatim_token+chapter_route:ch04"}, {"md_atom_id": "md_ch04_a814", "md_file": "knowledge_base/chapters/ch04_general_assumptions.md", "md_atom_type": "HEADING", "md_parent_section": "§4 [General Assumptions]", "md_verbatim": "## 4.5 Other Assumptions", "score": 0.5571, "match_basis": "verbatim_token+chapter_route:ch04"}, {"md_atom_id": "md_ch04_a172", "md_file": "knowledge_base/chapters/ch04_general_assumptions.md", "md_atom_type": "HEADING", "md_parent_section": "§4 [Assumptions for Domain Models]", "md_verbatim": "## 4.2 General Variable Assumptions", "score": 0.4862, "match_basis": "verbatim_token+chapter_route:ch04"}, {"md_atom_id": "md_ch04_a474", "md_file": "knowledge_base/chapters/ch04_general_assumptions.md", "md_atom_type": "HEADING", "md_parent_section": "§4 [General Assumptions]", "md_verbatim": "## 4.4 Actual and Relative Time Assumptions", "score": 0.4742, "match_basis": "verbatim_token+chapter_route:ch04"}], "candidate_count": 5, "zero_candidate": false}
{"pdf_atom_id": "ig34_p0022_a002", "pdf_atom_type": "HEADING", "pdf_source": "SDTMIG_v3.4", "pdf_page": 22, "pdf_parent_section": "§4.1 [General Domain Assumptions]", "pdf_verbatim": "4.1 General Domain Assumptions", "figure_ref": null, "candidates": [{"md_atom_id": "md_ch04_a006", "md_file": "knowledge_base/chapters/ch04_general_assumptions.md", "md_atom_type": "HEADING", "md_parent_section": "§4 [Assumptions for Domain Models]", "md_verbatim": "## 4.1 General Domain Assumptions", "score": 0.9, "match_basis": "verbatim_token+chapter_route:ch04"}, {"md_atom_id": "md_ch04_a172", "md_file": "knowledge_base/chapters/ch04_general_assumptions.md", "md_atom_type": "HEADING", "md_parent_section": "§4 [Assumptions for Domain Models]", "md_verbatim": "## 4.2 General Variable Assumptions", "score": 0.65, "match_basis": "verbatim_token+chapter_route:ch04"}, {"md_atom_id": "md_ch04_a814", "md_file": "knowledge_base/chapters/ch04_general_assumptions.md", "md_atom_type": "HEADING", "md_parent_section": "§4 [General Assumptions]", "md_verbatim": "## 4.5 Other Assumptions", "score": 0.5571, "match_basis": "verbatim_token+chapter_route:ch04"}, {"md_atom_id": "md_ch04_a001", "md_file": "knowledge_base/chapters/ch04_general_assumptions.md", "md_atom_type": "HEADING", "md_parent_section": "§4 [Assumptions for Domain Models]", "md_verbatim": "# SDTMIG v3.4 — Chapter 4: Assumptions for Domain Models", "score": 0.5437, "match_basis": "verbatim_token+chapter_route:ch04"}, {"md_atom_id": "md_ch04_a474", "md_file": "knowledge_base/chapters/ch04_general_assumptions.md", "md_atom_type": "HEADING", "md_parent_section": "§4 [General Assumptions]", "md_verbatim": "## 4.4 Actual and Relative Time Assumptions", "score": 0.4742, "match_basis": "verbatim_token+chapter_route:ch04"}], "candidate_count": 5, "zero_candidate": false}
{"pdf_atom_id": "ig34_p0022_a003", "pdf_atom_type": "HEADING", "pdf_source": "SDTMIG_v3.4", "pdf_page": 22, "pdf_parent_section": "§4.1.1 [Review Study Data Tabulation Model and Implementation Guide]", "pdf_verbatim": "4.1.1 Review Study Data Tabulation Model and Implementation Guide", "figure_ref": null, "candidates": [{"md_atom_id": "md_ch04_a007", "md_file": "knowledge_base/chapters/ch04_general_assumptions.md", "md_atom_type": "HEADING", "md_parent_section": "§4.1 [General Domain Assumptions]", "md_verbatim": "### 4.1.1 Review Study Data Tabulation Model and Implementation Guide", "score": 0.9, "match_basis": "verbatim_token+chapter_route:ch04"}, {"md_atom_id": "md_ch04_a975", "md_file": "knowledge_base/chapters/ch04_general_assumptions.md", "md_atom_type": "HEADING", "md_parent_section": "§4.5 [Other Assumptions]", "md_verbatim": "### 4.5.6 Supplemental Reason Variables", "score": 0.375, "match_basis": "verbatim_token+chapter_route:ch04"}, {"md_atom_id": "md_ch04_a010", "md_file": "knowledge_base/chapters/ch04_general_assumptions.md", "md_atom_type": "HEADING", "md_parent_section": "§4.1 [General Domain Assumptions]", "md_verbatim": "### 4.1.2 Relationship to Analysis Datasets", "score": 0.3735, "match_basis": "verbatim_token+chapter_route:ch04"}, {"md_atom_id": "md_ch04_a041", "md_file": "knowledge_base/chapters/ch04_general_assumptions.md", "md_atom_type": "HEADING", "md_parent_section": "§4.1 [General Domain Assumptions]", "md_verbatim": "### 4.1.6 Additional Guidance on Dataset Naming", "score": 0.372, "match_basis": "verbatim_token+chapter_route:ch04"}, {"md_atom_id": "md_ch04_a624", "md_file": "knowledge_base/chapters/ch04_general_assumptions.md", "md_atom_type": "HEADING", "md_parent_section": "§4.4 [Actual and Relative Time Assumptions]", "md_verbatim": "### 4.4.6 Representing Additional Study Days", "score": 0.372, "match_basis": "verbatim_token+chapter_route:ch04"}], "candidate_count": 5, "zero_candidate": false}
{"pdf_atom_id": "ig34_p0022_a004", "pdf_atom_type": "SENTENCE", "pdf_source": "SDTMIG_v3.4", "pdf_page": 22, "pdf_parent_section": "§4.1.1 [Review Study Data Tabulation Model and Implementation Guide]", "pdf_verbatim": "Review the SDTM as well as this complete implementation guide before attempting to use any of the individual domain models.", "figure_ref": null, "candidates": [{"md_atom_id": "md_ch04_a008", "md_file": "knowledge_base/chapters/ch04_general_assumptions.md", "md_atom_type": "SENTENCE", "md_parent_section": "§4.1.1 [Review Study Data Tabulation Model and Implementation Guide]", "md_verbatim": "Review the SDTM as well as this complete implementation guide before attempting to use any of the individual domain models.", "score": 0.9, "match_basis": "verbatim_token+chapter_route:ch04"}, {"md_atom_id": "md_ch04_a070", "md_file": "knowledge_base/chapters/ch04_general_assumptions.md", "md_atom_type": "SENTENCE", "md_parent_section": "§4.1.7.1 [Example of Splitting Questionnaires]", "md_verbatim": "QRS datasets are routinely created and reviewed for the individual QRS instrument.", "score": 0.4159, "match_basis": "verbatim_token+chapter_route:ch04"}, {"md_atom_id": "md_ch04_a004", "md_file": "knowledge_base/chapters/ch04_general_assumptions.md", "md_atom_type": "SENTENCE", "md_parent_section": "§4.0 [Overview]", "md_verbatim": "This section describes basic concepts, business rules, and assumptions that should be taken into consideration before applying the domain models.", "score": 0.4148, "match_basis": "verbatim_token+chapter_route:ch04"}, {"md_atom_id": "md_ch04_a029", "md_file": "knowledge_base/chapters/ch04_general_assumptions.md", "md_atom_type": "SENTENCE", "md_parent_section": "§4.1.4 [Order of the Variables]", "md_verbatim": "The order of variables in CDISC domain models has been chosen to facilitate the review of the models and application of the models.", "score": 0.4085, "match_basis": "verbatim_token+chapter_route:ch04"}, {"md_atom_id": "md_ch04_a037", "md_file": "knowledge_base/chapters/ch04_general_assumptions.md", "md_atom_type": "SENTENCE", "md_parent_section": "§4.1.5 [SDTM Core Designations]", "md_verbatim": "Although domain specification tables list only some of the identifier, timing, and general observation class variables listed in the SDTM, all are permissible unless specifically restricted in this implementation guide (see Section 2.7, SDTM Variables Not Allowed in the SDTMIG) or by specific domain assumptions.", "score": 0.408, "match_basis": "verbatim_token+chapter_route:ch04"}], "candidate_count": 5, "zero_candidate": false}
{"pdf_atom_id": "ig34_p0022_a005", "pdf_atom_type": "HEADING", "pdf_source": "SDTMIG_v3.4", "pdf_page": 22, "pdf_parent_section": "§4.1.2 [Relationship to Analysis Datasets]", "pdf_verbatim": "4.1.2 Relationship to Analysis Datasets", "figure_ref": null, "candidates": [{"md_atom_id": "md_ch04_a010", "md_file": "knowledge_base/chapters/ch04_general_assumptions.md", "md_atom_type": "HEADING", "md_parent_section": "§4.1 [General Domain Assumptions]", "md_verbatim": "### 4.1.2 Relationship to Analysis Datasets", "score": 0.9, "match_basis": "verbatim_token+chapter_route:ch04"}, {"md_atom_id": "md_ch04_a041", "md_file": "knowledge_base/chapters/ch04_general_assumptions.md", "md_atom_type": "HEADING", "md_parent_section": "§4.1 [General Domain Assumptions]", "md_verbatim": "### 4.1.6 Additional Guidance on Dataset Naming", "score": 0.4297, "match_basis": "verbatim_token+chapter_route:ch04"}, {"md_atom_id": "md_ch04_a474", "md_file": "knowledge_base/chapters/ch04_general_assumptions.md", "md_atom_type": "HEADING", "md_parent_section": "§4 [General Assumptions]", "md_verbatim": "## 4.4 Actual and Relative Time Assumptions", "score": 0.4135, "match_basis": "verbatim_token+chapter_route:ch04"}, {"md_atom_id": "md_ch04_a032", "md_file": "knowledge_base/chapters/ch04_general_assumptions.md", "md_atom_type": "HEADING", "md_parent_section": "§4.1 [General Domain Assumptions]", "md_verbatim": "### 4.1.5 SDTM Core Designations", "score": 0.375, "match_basis": "verbatim_token+chapter_route:ch04"}, {"md_atom_id": "md_ch04_a007", "md_file": "knowledge_base/chapters/ch04_general_assumptions.md", "md_atom_type": "HEADING", "md_parent_section": "§4.1 [General Domain Assumptions]", "md_verbatim": "### 4.1.1 Review Study Data Tabulation Model and Implementation Guide", "score": 0.3735, "match_basis": "verbatim_token+chapter_route:ch04"}], "candidate_count": 5, "zero_candidate": false}
{"pdf_atom_id": "ig34_p0022_a006", "pdf_atom_type": "SENTENCE", "pdf_source": "SDTMIG_v3.4", "pdf_page": 22, "pdf_parent_section": "§4.1.2 [Relationship to Analysis Datasets]", "pdf_verbatim": "Specific guidance on preparing analysis datasets can be found in the CDISC Analysis Data Model (ADaM) Implementation Guide and other ADaM documents, available at https://www.cdisc.org/standards/foundational/adam.", "figure_ref": null, "candidates": [{"md_atom_id": "md_ch04_a011", "md_file": "knowledge_base/chapters/ch04_general_assumptions.md", "md_atom_type": "SENTENCE", "md_parent_section": "§4.1.2 [Relationship to Analysis Datasets]", "md_verbatim": "Specific guidance on preparing analysis datasets can be found in the CDISC Analysis Data Model (ADaM) Implementation Guide and other ADaM documents, available at https://www.cdisc.org/standards/foundational/adam.", "score": 0.9, "match_basis": "verbatim_token+chapter_route:ch04"}, {"md_atom_id": "md_ch04_a066", "md_file": "knowledge_base/chapters/ch04_general_assumptions.md", "md_atom_type": "LIST_ITEM", "md_parent_section": "§4.1.7 [Splitting Domains]", "md_verbatim": "9. See the SDTM Implementation Guide: Associated Persons (https://www.cdisc.org/standards/foundational/sdtmig/) for the naming of split AP datasets.", "score": 0.4467, "match_basis": "verbatim_token+chapter_route:ch04"}, {"md_atom_id": "md_ch04_a955", "md_file": "knowledge_base/chapters/ch04_general_assumptions.md", "md_atom_type": "SENTENCE", "md_parent_section": "§4.5.4 [Evaluators in the Interventions and Events Observation Classes]", "md_verbatim": "For observations that have primary and secondary evaluations of specific qualifier variables, sponsors should put data from the primary evaluation into the standard domain dataset and data from the secondary evaluation into the Supplemental Qualifier datasets (SUPP--).", "score": 0.431, "match_basis": "verbatim_token+chapter_route:ch04"}, {"md_atom_id": "md_ch04_a507", "md_file": "knowledge_base/chapters/ch04_general_assumptions.md", "md_atom_type": "SENTENCE", "md_parent_section": "§4.4.1 [Formats for Date/Time Variables]", "md_verbatim": "Implementation of the ISO 8601 standard means that date/time variables are character/text data types.", "score": 0.4286, "match_basis": "verbatim_token+chapter_route:ch04"}, {"md_atom_id": "md_ch04_a013", "md_file": "knowledge_base/chapters/ch04_general_assumptions.md", "md_atom_type": "SENTENCE", "md_parent_section": "§4.1.3 [Additional Timing Variables]", "md_verbatim": "Additional Timing variables can be added as needed to a standard domain model based on the 3 general observation classes, except for the cases specified in Assumption 4.4.8, Date and Time Reported in a Domain Based on Findings.", "score": 0.4143, "match_basis": "verbatim_token+chapter_route:ch04"}], "candidate_count": 5, "zero_candidate": false}
{"pdf_atom_id": "ig34_p0022_a007", "pdf_atom_type": "HEADING", "pdf_source": "SDTMIG_v3.4", "pdf_page": 22, "pdf_parent_section": "§4.1.3 [Additional Timing Variables]", "pdf_verbatim": "4.1.3 Additional Timing Variables", "figure_ref": null, "candidates": [{"md_atom_id": "md_ch04_a012", "md_file": "knowledge_base/chapters/ch04_general_assumptions.md", "md_atom_type": "HEADING", "md_parent_section": "§4.1 [General Domain Assumptions]", "md_verbatim": "### 4.1.3 Additional Timing Variables", "score": 0.9, "match_basis": "verbatim_token+chapter_route:ch04"}, {"md_atom_id": "md_ch04_a627", "md_file": "knowledge_base/chapters/ch04_general_assumptions.md", "md_atom_type": "HEADING", "md_parent_section": "§4.4 [Actual and Relative Time Assumptions]", "md_verbatim": "### 4.4.7 Use of Relative Timing Variables", "score": 0.5538, "match_basis": "verbatim_token+chapter_route:ch04"}, {"md_atom_id": "md_ch04_a173", "md_file": "knowledge_base/chapters/ch04_general_assumptions.md", "md_atom_type": "HEADING", "md_parent_section": "§4.2 [General Variable Assumptions]", "md_verbatim": "### 4.2.1 Variable-Naming Conventions", "score": 0.5143, "match_basis": "verbatim_token+chapter_route:ch04"}, {"md_atom_id": "md_ch04_a775", "md_file": "knowledge_base/chapters/ch04_general_assumptions.md", "md_atom_type": "HEADING", "md_parent_section": "§4.4 [Use of Timing Variables]", "md_verbatim": "### 4.4.11 Disease Milestones and Disease Milestone Timing Variables", "score": 0.5062, "match_basis": "verbatim_token+chapter_route:ch04"}, {"md_atom_id": "md_ch04_a041", "md_file": "knowledge_base/chapters/ch04_general_assumptions.md", "md_atom_type": "HEADING", "md_parent_section": "§4.1 [General Domain Assumptions]", "md_verbatim": "### 4.1.6 Additional Guidance on Dataset Naming", "score": 0.4875, "match_basis": "verbatim_token+chapter_route:ch04"}], "candidate_count": 5, "zero_candidate": false}
{"pdf_atom_id": "ig34_p0022_a008", "pdf_atom_type": "SENTENCE", "pdf_source": "SDTMIG_v3.4", "pdf_page": 22, "pdf_parent_section": "§4.1.3 [Additional Timing Variables]", "pdf_verbatim": "Additional Timing variables can be added as needed to a standard domain model based on the 3 general observation classes, except for the cases specified in Assumption 4.4.8, Date and Time Reported in a Domain Based on Findings.", "figure_ref": null, "candidates": [{"md_atom_id": "md_ch04_a013", "md_file": "knowledge_base/chapters/ch04_general_assumptions.md", "md_atom_type": "SENTENCE", "md_parent_section": "§4.1.3 [Additional Timing Variables]", "md_verbatim": "Additional Timing variables can be added as needed to a standard domain model based on the 3 general observation classes, except for the cases specified in Assumption 4.4.8, Date and Time Reported in a Domain Based on Findings.", "score": 0.9, "match_basis": "verbatim_token+chapter_route:ch04"}, {"md_atom_id": "md_ch04_a1007", "md_file": "knowledge_base/chapters/ch04_general_assumptions.md", "md_atom_type": "SENTENCE", "md_parent_section": "§4.5.7 [Presence or Absence of Prespecified Interventions and Events]", "md_verbatim": "Refer to the standard domains in the Events and Interventions general observation classes for additional assumptions and examples.", "score": 0.5345, "match_basis": "verbatim_token+chapter_route:ch04"}, {"md_atom_id": "md_ch04_a476", "md_file": "knowledge_base/chapters/ch04_general_assumptions.md", "md_atom_type": "SENTENCE", "md_parent_section": "§4.4 [Actual and Relative Time Assumptions]", "md_verbatim": "In general, all domains based on the 3 general observation classes should have at least 1 timing variable.", "score": 0.5176, "match_basis": "verbatim_token+chapter_route:ch04"}, {"md_atom_id": "md_ch04_a606", "md_file": "knowledge_base/chapters/ch04_general_assumptions.md", "md_atom_type": "SENTENCE", "md_parent_section": "§4.4.5 [Clinical Encounters and Visits]", "md_verbatim": "All domains based on the 3 general observation classes should have at least 1 timing variable.", "score": 0.5176, "match_basis": "verbatim_token+chapter_route:ch04"}, {"md_atom_id": "md_ch04_a014", "md_file": "knowledge_base/chapters/ch04_general_assumptions.md", "md_atom_type": "SENTENCE", "md_parent_section": "§4.1.3 [Additional Timing Variables]", "md_verbatim": "Timing variables can be added to special-purpose domains only where specified in the SDTMIG domain model assumptions.", "score": 0.5092, "match_basis": "verbatim_token+chapter_route:ch04"}], "candidate_count": 5, "zero_candidate": false}
