{"pdf_atom_id": "sv20_p0060_a007", "pdf_atom_type": "TABLE_ROW", "pdf_source": "SDTM_v2.0", "pdf_page": 60, "pdf_parent_section": "§5.1.7 Challenge Agent Characterization", "pdf_verbatim": "1 | STUDYID | Study Identifier | Char | | Identifier | | | C83082 | A sequence of characters used by the sponsor to uniquely identify the study. | | | |", "figure_ref": null, "candidates": [{"md_atom_id": "md_ch08_a073", "md_file": "knowledge_base/chapters/ch08_relationships.md", "md_atom_type": "TABLE_ROW", "md_parent_section": "§8.2.1 [Related Records (RELREC)]", "md_verbatim": "| STUDYID | Study Identifier | Char | | Identifier | Unique identifier for a study. | Req |", "score": 0.5426, "match_basis": "verbatim_token+global_search"}, {"md_atom_id": "md_ch08_a321", "md_file": "knowledge_base/chapters/ch08_relationships.md", "md_atom_type": "TABLE_ROW", "md_parent_section": "§8.8 [Related Specimens (RELSPEC)]", "md_verbatim": "| STUDYID | Study Identifier | Char | | Identifier | Unique identifier for a study. | Req |", "score": 0.5426, "match_basis": "verbatim_token+global_search"}, {"md_atom_id": "md_model02_a173", "md_file": "knowledge_base/model/02_observation_classes.md", "md_atom_type": "TABLE_ROW", "md_parent_section": "§3.1.4 Identifiers for All Classes", "md_verbatim": "| 9 | --SEQ | Sequence Number | Num | Identifier | Unique within STUDYID, USUBJID, and DOMAIN |", "score": 0.5095, "match_basis": "verbatim_token+global_search"}, {"md_atom_id": "md_model06_a019", "md_file": "knowledge_base/model/06_relationship_datasets.md", "md_atom_type": "TABLE_ROW", "md_parent_section": "§6.1 Related Records (RELREC)", "md_verbatim": "| 1 | STUDYID | Study Identifier | Char | Identifier | |", "score": 0.5, "match_basis": "verbatim_token+global_search"}, {"md_atom_id": "md_model06_a040", "md_file": "knowledge_base/model/06_relationship_datasets.md", "md_atom_type": "TABLE_ROW", "md_parent_section": "§6.2 Supplemental Qualifiers (SUPP--)", "md_verbatim": "| 1 | STUDYID | Study Identifier | Char | Identifier | |", "score": 0.5, "match_basis": "verbatim_token+global_search"}], "candidate_count": 5, "zero_candidate": false}
{"pdf_atom_id": "sv20_p0060_a008", "pdf_atom_type": "TABLE_ROW", "pdf_source": "SDTM_v2.0", "pdf_page": 60, "pdf_parent_section": "§5.1.7 Challenge Agent Characterization", "pdf_verbatim": "2 | DOMAIN | Domain Abbreviation | Char | | Identifier | | | C49558 | An abbreviation for a collection of observations, with a topic-specific commonality. | 2-character abbreviation, which must be \"AC\". | | |", "figure_ref": null, "candidates": [{"md_atom_id": "md_ch10_a023", "md_file": "knowledge_base/chapters/ch10_appendices.md", "md_atom_type": "TABLE_ROW", "md_parent_section": "§10.B [Glossary and Abbreviations]", "md_verbatim": "| Domain | A collection of observations with a topic-specific commonality |", "score": 0.638, "match_basis": "verbatim_token+global_search"}, {"md_atom_id": "md_model02_a166", "md_file": "knowledge_base/model/02_observation_classes.md", "md_atom_type": "TABLE_ROW", "md_parent_section": "§3.1.4 Identifiers for All Classes", "md_verbatim": "| 2 | DOMAIN | Domain Abbreviation | Char | Identifier | Two-character abbreviation for the domain |", "score": 0.5466, "match_basis": "verbatim_token+global_search"}, {"md_atom_id": "md_model06_a020", "md_file": "knowledge_base/model/06_relationship_datasets.md", "md_atom_type": "TABLE_ROW", "md_parent_section": "§6.1 Related Records (RELREC)", "md_verbatim": "| 2 | RDOMAIN | Related Domain Abbreviation | Char | Identifier | 2-character abbreviation for the domain of the parent record(s) |", "score": 0.5118, "match_basis": "verbatim_token+global_search"}, {"md_atom_id": "md_model06_a041", "md_file": "knowledge_base/model/06_relationship_datasets.md", "md_atom_type": "TABLE_ROW", "md_parent_section": "§6.2 Supplemental Qualifiers (SUPP--)", "md_verbatim": "| 2 | RDOMAIN | Related Domain Abbreviation | Char | Identifier | 2-character abbreviation for the domain of the parent record(s) |", "score": 0.5118, "match_basis": "verbatim_token+global_search"}, {"md_atom_id": "md_ch08_a159", "md_file": "knowledge_base/chapters/ch08_relationships.md", "md_atom_type": "TABLE_ROW", "md_parent_section": "§8.4.1 [Supplemental Qualifiers (SUPP--)]", "md_verbatim": "| RDOMAIN | Related Domain Abbreviation | Char | (DOMAIN) | Identifier | Two-character abbreviation for the domain of the parent record(s). | Req |", "score": 0.5069, "match_basis": "verbatim_token+global_search"}], "candidate_count": 5, "zero_candidate": false}
{"pdf_atom_id": "sv20_p0060_a009", "pdf_atom_type": "TABLE_ROW", "pdf_source": "SDTM_v2.0", "pdf_page": 60, "pdf_parent_section": "§5.1.7 Challenge Agent Characterization", "pdf_verbatim": "3 | ACSEQ | Sequence Number | Num | | Identifier | | | | | Sequence number given to ensure uniqueness within a dataset. Allows inclusion of multiple records for the same ACPARMCD. | | |", "figure_ref": null, "candidates": [{"md_atom_id": "md_model02_a173", "md_file": "knowledge_base/model/02_observation_classes.md", "md_atom_type": "TABLE_ROW", "md_parent_section": "§3.1.4 Identifiers for All Classes", "md_verbatim": "| 9 | --SEQ | Sequence Number | Num | Identifier | Unique within STUDYID, USUBJID, and DOMAIN |", "score": 0.4685, "match_basis": "verbatim_token+global_search"}, {"md_atom_id": "md_model05_a152", "md_file": "knowledge_base/model/05_study_level_data.md", "md_atom_type": "TABLE_ROW", "md_parent_section": "§ Challenge Agent Characterization (AC)", "md_verbatim": "| 3 | ACSEQ | Sequence Number | Num | Identifier |", "score": 0.4622, "match_basis": "verbatim_token+global_search"}, {"md_atom_id": "md_varindex_a348", "md_file": "knowledge_base/VARIABLE_INDEX.md", "md_atom_type": "TABLE_ROW", "md_parent_section": "§ 二、领域专属变量（仅 1 个域，共 1499 个），按域分组", "md_verbatim": "| DASEQ | Sequence Number | Num | Identifier | Req | — |", "score": 0.45, "match_basis": "verbatim_token+global_search"}, {"md_atom_id": "md_varindex_a436", "md_file": "knowledge_base/VARIABLE_INDEX.md", "md_atom_type": "TABLE_ROW", "md_parent_section": "§ 二、领域专属变量（仅 1 个域，共 1499 个），按域分组", "md_verbatim": "| ECSEQ | Sequence Number | Num | Identifier | Req | — |", "score": 0.45, "match_basis": "verbatim_token+global_search"}, {"md_atom_id": "md_varindex_a549", "md_file": "knowledge_base/VARIABLE_INDEX.md", "md_atom_type": "TABLE_ROW", "md_parent_section": "§ 二、领域专属变量（仅 1 个域，共 1499 个），按域分组", "md_verbatim": "| FASEQ | Sequence Number | Num | Identifier | Req | — |", "score": 0.45, "match_basis": "verbatim_token+global_search"}], "candidate_count": 5, "zero_candidate": false}
{"pdf_atom_id": "sv20_p0060_a010", "pdf_atom_type": "TABLE_ROW", "pdf_source": "SDTM_v2.0", "pdf_page": 60, "pdf_parent_section": "§5.1.7 Challenge Agent Characterization", "pdf_verbatim": "4 | ACGRPID | Group ID | Char | | Identifier | | | | | Used to tie together a group of related records. | | |", "figure_ref": null, "candidates": [{"md_atom_id": "md_model02_a174", "md_file": "knowledge_base/model/02_observation_classes.md", "md_atom_type": "TABLE_ROW", "md_parent_section": "§3.1.4 Identifiers for All Classes", "md_verbatim": "| 10 | --GRPID | Group ID | Char | Identifier | Used to tie together a block of related records |", "score": 0.825, "match_basis": "verbatim_token+global_search"}, {"md_atom_id": "md_model05_a153", "md_file": "knowledge_base/model/05_study_level_data.md", "md_atom_type": "TABLE_ROW", "md_parent_section": "§ Challenge Agent Characterization (AC)", "md_verbatim": "| 4 | ACGRPID | Group ID | Char | Identifier |", "score": 0.5919, "match_basis": "verbatim_token+global_search"}, {"md_atom_id": "md_model02_a179", "md_file": "knowledge_base/model/02_observation_classes.md", "md_atom_type": "TABLE_ROW", "md_parent_section": "§3.1.4 Identifiers for All Classes", "md_verbatim": "| 15 | --LNKGRP | Link Group ID | Char | Identifier | Used with RELREC to link groups of records |", "score": 0.5809, "match_basis": "verbatim_token+global_search"}, {"md_atom_id": "md_varindex_a437", "md_file": "knowledge_base/VARIABLE_INDEX.md", "md_atom_type": "TABLE_ROW", "md_parent_section": "§ 二、领域专属变量（仅 1 个域，共 1499 个），按域分组", "md_verbatim": "| ECGRPID | Group ID | Char | Identifier | Perm | — |", "score": 0.555, "match_basis": "verbatim_token+global_search"}, {"md_atom_id": "md_varindex_a1094", "md_file": "knowledge_base/VARIABLE_INDEX.md", "md_atom_type": "TABLE_ROW", "md_parent_section": "§ 二、领域专属变量（仅 1 个域，共 1499 个），按域分组", "md_verbatim": "| PCGRPID | Group ID | Char | Identifier | Perm | — |", "score": 0.555, "match_basis": "verbatim_token+global_search"}], "candidate_count": 5, "zero_candidate": false}
{"pdf_atom_id": "sv20_p0060_a011", "pdf_atom_type": "TABLE_ROW", "pdf_source": "SDTM_v2.0", "pdf_page": 60, "pdf_parent_section": "§5.1.7 Challenge Agent Characterization", "pdf_verbatim": "5 | ACPARMCD | Challenge Agent Parameter Short Name | Char | | Topic | | | | | ACPARMCD (the companion to ACPARM) is limited to 8 characters and does not have special character restrictions. These values should be short for ease of use in programming, but it is not expected that ACPARMCD will need to serve as variable names. | | |", "figure_ref": null, "candidates": [{"md_atom_id": "md_ch04_a178", "md_file": "knowledge_base/chapters/ch04_general_assumptions.md", "md_atom_type": "LIST_ITEM", "md_parent_section": "§4.2.1 [Variable-Naming Conventions]", "md_verbatim": "- ETCD (the companion to ELEMENT) and TSPARMCD (the companion to TSPARM) are limited to 8 characters and do not have the character restrictions that apply to --TESTCD. These values should be short for ease of use in programming, but it is not expected that they will need to serve as variable names.", "score": 0.5444, "match_basis": "verbatim_token+global_search"}, {"md_atom_id": "md_model05_a154", "md_file": "knowledge_base/model/05_study_level_data.md", "md_atom_type": "TABLE_ROW", "md_parent_section": "§ Challenge Agent Characterization (AC)", "md_verbatim": "| 5 | ACPARMCD | Challenge Agent Parameter Short Name | Char | Topic |", "score": 0.4667, "match_basis": "verbatim_token+global_search"}, {"md_atom_id": "md_ch08_a163", "md_file": "knowledge_base/chapters/ch08_relationships.md", "md_atom_type": "TABLE_ROW", "md_parent_section": "§8.4.1 [Supplemental Qualifiers (SUPP--)]", "md_verbatim": "| QNAM | Qualifier Variable Name | Char | * | Topic | The short name of the qualifier variable, which is used as a column name in a domain view with data from the parent domain. The value in QNAM cannot be longer than 8 characters, nor can it start with a number (e.g., \"1TEST\" is not valid). QNAM cannot contain characters other than letters, numbers, or underscores. This will often be the column name in the sponsor's operational dataset. | Req |", "score": 0.4257, "match_basis": "verbatim_token+global_search"}, {"md_atom_id": "md_model05_a053", "md_file": "knowledge_base/model/05_study_level_data.md", "md_atom_type": "TABLE_ROW", "md_parent_section": "§ Trial Sets (TX)", "md_verbatim": "| 6 | TXPARMCD | Trial Set Parameter Short Name | Char | Topic |", "score": 0.4189, "match_basis": "verbatim_token+global_search"}, {"md_atom_id": "md_model05_a138", "md_file": "knowledge_base/model/05_study_level_data.md", "md_atom_type": "TABLE_ROW", "md_parent_section": "§ Trial Summary (TS)", "md_verbatim": "| 5 | TSPARMCD | Trial Summary Parameter Short Name | Char | Topic |", "score": 0.4148, "match_basis": "verbatim_token+global_search"}], "candidate_count": 5, "zero_candidate": false}
{"pdf_atom_id": "sv20_p0060_a012", "pdf_atom_type": "TABLE_ROW", "pdf_source": "SDTM_v2.0", "pdf_page": 60, "pdf_parent_section": "§5.1.7 Challenge Agent Characterization", "pdf_verbatim": "6 | ACPARM | Challenge Agent Parameter | Char | | Synonym Qualifier | ACPARMCD | | | | Term for the challenge agent characterization parameter. The value in ACPARM cannot be longer than 40 characters. | | |", "figure_ref": null, "candidates": [{"md_atom_id": "md_model05_a155", "md_file": "knowledge_base/model/05_study_level_data.md", "md_atom_type": "TABLE_ROW", "md_parent_section": "§ Challenge Agent Characterization (AC)", "md_verbatim": "| 6 | ACPARM | Challenge Agent Parameter | Char | Synonym Qualifier |", "score": 0.6246, "match_basis": "verbatim_token+global_search"}, {"md_atom_id": "md_model05_a154", "md_file": "knowledge_base/model/05_study_level_data.md", "md_atom_type": "TABLE_ROW", "md_parent_section": "§ Challenge Agent Characterization (AC)", "md_verbatim": "| 5 | ACPARMCD | Challenge Agent Parameter Short Name | Char | Topic |", "score": 0.5029, "match_basis": "verbatim_token+global_search"}, {"md_atom_id": "md_model05_a054", "md_file": "knowledge_base/model/05_study_level_data.md", "md_atom_type": "TABLE_ROW", "md_parent_section": "§ Trial Sets (TX)", "md_verbatim": "| 7 | TXPARM | Trial Set Parameter Name | Char | Synonym Qualifier |", "score": 0.4941, "match_basis": "verbatim_token+global_search"}, {"md_atom_id": "md_ch08_a164", "md_file": "knowledge_base/chapters/ch08_relationships.md", "md_atom_type": "TABLE_ROW", "md_parent_section": "§8.4.1 [Supplemental Qualifiers (SUPP--)]", "md_verbatim": "| QLABEL | Qualifier Variable Label | Char | | Synonym Qualifier | This is the long name or label associated with QNAM. The value in QLABEL cannot be longer than 40 characters. This will often be the column label in the sponsor's original dataset. | Req |", "score": 0.4892, "match_basis": "verbatim_token+global_search"}, {"md_atom_id": "md_model05_a139", "md_file": "knowledge_base/model/05_study_level_data.md", "md_atom_type": "TABLE_ROW", "md_parent_section": "§ Trial Summary (TS)", "md_verbatim": "| 6 | TSPARM | Trial Summary Parameter Name | Char | Synonym Qualifier |", "score": 0.4833, "match_basis": "verbatim_token+global_search"}], "candidate_count": 5, "zero_candidate": false}
{"pdf_atom_id": "sv20_p0060_a013", "pdf_atom_type": "TABLE_ROW", "pdf_source": "SDTM_v2.0", "pdf_page": 60, "pdf_parent_section": "§5.1.7 Challenge Agent Characterization", "pdf_verbatim": "7 | ACVAL | Parameter Value | Char | | Result Qualifier | | | | | Value of ACPARM. | | |", "figure_ref": null, "candidates": [{"md_atom_id": "md_model05_a156", "md_file": "knowledge_base/model/05_study_level_data.md", "md_atom_type": "TABLE_ROW", "md_parent_section": "§ Challenge Agent Characterization (AC)", "md_verbatim": "| 7 | ACVAL | Parameter Value | Char | Result Qualifier |", "score": 0.8357, "match_basis": "verbatim_token+global_search"}, {"md_atom_id": "md_model05_a159", "md_file": "knowledge_base/model/05_study_level_data.md", "md_atom_type": "TABLE_ROW", "md_parent_section": "§ Challenge Agent Characterization (AC)", "md_verbatim": "| 10 | ACVALCD | Parameter Value Code | Char | Result Qualifier |", "score": 0.7688, "match_basis": "verbatim_token+global_search"}, {"md_atom_id": "md_model05_a055", "md_file": "knowledge_base/model/05_study_level_data.md", "md_atom_type": "TABLE_ROW", "md_parent_section": "§ Trial Sets (TX)", "md_verbatim": "| 8 | TXVAL | Parameter Value | Char | Result Qualifier |", "score": 0.76, "match_basis": "verbatim_token+global_search"}, {"md_atom_id": "md_model05_a140", "md_file": "knowledge_base/model/05_study_level_data.md", "md_atom_type": "TABLE_ROW", "md_parent_section": "§ Trial Summary (TS)", "md_verbatim": "| 7 | TSVAL | Parameter Value | Char | Result Qualifier |", "score": 0.76, "match_basis": "verbatim_token+global_search"}, {"md_atom_id": "md_varindex_a1559", "md_file": "knowledge_base/VARIABLE_INDEX.md", "md_atom_type": "TABLE_ROW", "md_parent_section": "§ 二、领域专属变量（仅 1 个域，共 1499 个），按域分组", "md_verbatim": "| TSVAL | Parameter Value | Char | Result Qualifier | Exp | — |", "score": 0.7452, "match_basis": "verbatim_token+global_search"}], "candidate_count": 5, "zero_candidate": false}
{"pdf_atom_id": "sv20_p0060_a014", "pdf_atom_type": "TABLE_ROW", "pdf_source": "SDTM_v2.0", "pdf_page": 60, "pdf_parent_section": "§5.1.7 Challenge Agent Characterization", "pdf_verbatim": "8 | ACVALU | Parameter Units | Char | | Variable Qualifier | ACVAL | | | | Units for the value in ACVAL, if applicable. | | |", "figure_ref": null, "candidates": [{"md_atom_id": "md_model05_a157", "md_file": "knowledge_base/model/05_study_level_data.md", "md_atom_type": "TABLE_ROW", "md_parent_section": "§ Challenge Agent Characterization (AC)", "md_verbatim": "| 8 | ACVALU | Parameter Units | Char | Variable Qualifier (ACVAL) |", "score": 0.7579, "match_basis": "verbatim_token+global_search"}, {"md_atom_id": "md_model05_a156", "md_file": "knowledge_base/model/05_study_level_data.md", "md_atom_type": "TABLE_ROW", "md_parent_section": "§ Challenge Agent Characterization (AC)", "md_verbatim": "| 7 | ACVAL | Parameter Value | Char | Result Qualifier |", "score": 0.6, "match_basis": "verbatim_token+global_search"}, {"md_atom_id": "md_model05_a159", "md_file": "knowledge_base/model/05_study_level_data.md", "md_atom_type": "TABLE_ROW", "md_parent_section": "§ Challenge Agent Characterization (AC)", "md_verbatim": "| 10 | ACVALCD | Parameter Value Code | Char | Result Qualifier |", "score": 0.5739, "match_basis": "verbatim_token+global_search"}, {"md_atom_id": "md_model05_a055", "md_file": "knowledge_base/model/05_study_level_data.md", "md_atom_type": "TABLE_ROW", "md_parent_section": "§ Trial Sets (TX)", "md_verbatim": "| 8 | TXVAL | Parameter Value | Char | Result Qualifier |", "score": 0.5591, "match_basis": "verbatim_token+global_search"}, {"md_atom_id": "md_model05_a140", "md_file": "knowledge_base/model/05_study_level_data.md", "md_atom_type": "TABLE_ROW", "md_parent_section": "§ Trial Summary (TS)", "md_verbatim": "| 7 | TSVAL | Parameter Value | Char | Result Qualifier |", "score": 0.5591, "match_basis": "verbatim_token+global_search"}], "candidate_count": 5, "zero_candidate": false}
{"pdf_atom_id": "sv20_p0060_a015", "pdf_atom_type": "TABLE_ROW", "pdf_source": "SDTM_v2.0", "pdf_page": 60, "pdf_parent_section": "§5.1.7 Challenge Agent Characterization", "pdf_verbatim": "9 | ACVALNF | Parameter Null Flavor | Char | | Result Qualifier | | | | | Null flavor for the value of ACPARM, to be populated if and only if ACVAL is null. | | |", "figure_ref": null, "candidates": [{"md_atom_id": "md_model05_a158", "md_file": "knowledge_base/model/05_study_level_data.md", "md_atom_type": "TABLE_ROW", "md_parent_section": "§ Challenge Agent Characterization (AC)", "md_verbatim": "| 9 | ACVALNF | Parameter Null Flavor | Char | Result Qualifier |", "score": 0.6875, "match_basis": "verbatim_token+global_search"}, {"md_atom_id": "md_model05_a141", "md_file": "knowledge_base/model/05_study_level_data.md", "md_atom_type": "TABLE_ROW", "md_parent_section": "§ Trial Summary (TS)", "md_verbatim": "| 8 | TSVALNF | Parameter Null Flavor | Char | Result Qualifier |", "score": 0.648, "match_basis": "verbatim_token+global_search"}, {"md_atom_id": "md_varindex_a1560", "md_file": "knowledge_base/VARIABLE_INDEX.md", "md_atom_type": "TABLE_ROW", "md_parent_section": "§ 二、领域专属变量（仅 1 个域，共 1499 个），按域分组", "md_verbatim": "| TSVALNF | Parameter Value Null Flavor | Char | Result Qualifier | Perm | ISO 21090 NullFlavor |", "score": 0.6207, "match_basis": "verbatim_token+global_search"}, {"md_atom_id": "md_model05_a156", "md_file": "knowledge_base/model/05_study_level_data.md", "md_atom_type": "TABLE_ROW", "md_parent_section": "§ Challenge Agent Characterization (AC)", "md_verbatim": "| 7 | ACVAL | Parameter Value | Char | Result Qualifier |", "score": 0.6125, "match_basis": "verbatim_token+global_search"}, {"md_atom_id": "md_model05_a159", "md_file": "knowledge_base/model/05_study_level_data.md", "md_atom_type": "TABLE_ROW", "md_parent_section": "§ Challenge Agent Characterization (AC)", "md_verbatim": "| 10 | ACVALCD | Parameter Value Code | Char | Result Qualifier |", "score": 0.5885, "match_basis": "verbatim_token+global_search"}], "candidate_count": 5, "zero_candidate": false}
{"pdf_atom_id": "sv20_p0060_a016", "pdf_atom_type": "TABLE_ROW", "pdf_source": "SDTM_v2.0", "pdf_page": 60, "pdf_parent_section": "§5.1.7 Challenge Agent Characterization", "pdf_verbatim": "10 | ACVALCD | Parameter Value Code | Char | | Result Qualifier | | | | | This is the code of the term in ACVAL. | | |", "figure_ref": null, "candidates": [{"md_atom_id": "md_model05_a159", "md_file": "knowledge_base/model/05_study_level_data.md", "md_atom_type": "TABLE_ROW", "md_parent_section": "§ Challenge Agent Characterization (AC)", "md_verbatim": "| 10 | ACVALCD | Parameter Value Code | Char | Result Qualifier |", "score": 0.8273, "match_basis": "verbatim_token+global_search"}, {"md_atom_id": "md_model05_a142", "md_file": "knowledge_base/model/05_study_level_data.md", "md_atom_type": "TABLE_ROW", "md_parent_section": "§ Trial Summary (TS)", "md_verbatim": "| 9 | TSVALCD | Parameter Value Code | Char | Result Qualifier |", "score": 0.7629, "match_basis": "verbatim_token+global_search"}, {"md_atom_id": "md_model05_a156", "md_file": "knowledge_base/model/05_study_level_data.md", "md_atom_type": "TABLE_ROW", "md_parent_section": "§ Challenge Agent Characterization (AC)", "md_verbatim": "| 7 | ACVAL | Parameter Value | Char | Result Qualifier |", "score": 0.7545, "match_basis": "verbatim_token+global_search"}, {"md_atom_id": "md_varindex_a1561", "md_file": "knowledge_base/VARIABLE_INDEX.md", "md_atom_type": "TABLE_ROW", "md_parent_section": "§ 二、领域专属变量（仅 1 个域，共 1499 个），按域分组", "md_verbatim": "| TSVALCD | Parameter Value Code | Char | Result Qualifier | Exp | — |", "score": 0.75, "match_basis": "verbatim_token+global_search"}, {"md_atom_id": "md_model05_a055", "md_file": "knowledge_base/model/05_study_level_data.md", "md_atom_type": "TABLE_ROW", "md_parent_section": "§ Trial Sets (TX)", "md_verbatim": "| 8 | TXVAL | Parameter Value | Char | Result Qualifier |", "score": 0.6943, "match_basis": "verbatim_token+global_search"}], "candidate_count": 5, "zero_candidate": false}
{"pdf_atom_id": "sv20_p0060_a017", "pdf_atom_type": "TABLE_ROW", "pdf_source": "SDTM_v2.0", "pdf_page": 60, "pdf_parent_section": "§5.1.7 Challenge Agent Characterization", "pdf_verbatim": "11 | ACVCDREF | Name of the Reference Terminology | Char | | Result Qualifier | | | | | The name of the reference terminology from which ACVALCD is taken. | \"CDISC,\" \"ISO 8601\" | |", "figure_ref": null, "candidates": [{"md_atom_id": "md_model05_a160", "md_file": "knowledge_base/model/05_study_level_data.md", "md_atom_type": "TABLE_ROW", "md_parent_section": "§ Challenge Agent Characterization (AC)", "md_verbatim": "| 11 | ACVCDREF | Name of the Reference Terminology | Char | Result Qualifier |", "score": 0.7036, "match_basis": "verbatim_token+global_search"}, {"md_atom_id": "md_model05_a143", "md_file": "knowledge_base/model/05_study_level_data.md", "md_atom_type": "TABLE_ROW", "md_parent_section": "§ Trial Summary (TS)", "md_verbatim": "| 10 | TSVCDREF | Name of Reference Terminology | Char | Result Qualifier |", "score": 0.6579, "match_basis": "verbatim_token+global_search"}, {"md_atom_id": "md_varindex_a1562", "md_file": "knowledge_base/VARIABLE_INDEX.md", "md_atom_type": "TABLE_ROW", "md_parent_section": "§ 二、领域专属变量（仅 1 个域，共 1499 个），按域分组", "md_verbatim": "| TSVCDREF | Name of the Reference Terminology | Char | Result Qualifier | Exp | C66788 |", "score": 0.6387, "match_basis": "verbatim_token+global_search"}, {"md_atom_id": "md_model05_a161", "md_file": "knowledge_base/model/05_study_level_data.md", "md_atom_type": "TABLE_ROW", "md_parent_section": "§ Challenge Agent Characterization (AC)", "md_verbatim": "| 12 | ACVCDVER | Version of the Reference Terminology | Char | Result Qualifier |", "score": 0.6194, "match_basis": "verbatim_token+global_search"}, {"md_atom_id": "md_varindex_a1563", "md_file": "knowledge_base/VARIABLE_INDEX.md", "md_atom_type": "TABLE_ROW", "md_parent_section": "§ 二、领域专属变量（仅 1 个域，共 1499 个），按域分组", "md_verbatim": "| TSVCDVER | Version of the Reference Terminology | Char | Result Qualifier | Exp | — |", "score": 0.5862, "match_basis": "verbatim_token+global_search"}], "candidate_count": 5, "zero_candidate": false}
{"pdf_atom_id": "sv20_p0060_a018", "pdf_atom_type": "TABLE_ROW", "pdf_source": "SDTM_v2.0", "pdf_page": 60, "pdf_parent_section": "§5.1.7 Challenge Agent Characterization", "pdf_verbatim": "12 | ACVCDVER | Version of the Reference Terminology | Char | | Result Qualifier | | | | | The version number of the reference terminology cited in ACVCDREF, if applicable. | | |", "figure_ref": null, "candidates": [{"md_atom_id": "md_model05_a161", "md_file": "knowledge_base/model/05_study_level_data.md", "md_atom_type": "TABLE_ROW", "md_parent_section": "§ Challenge Agent Characterization (AC)", "md_verbatim": "| 12 | ACVCDVER | Version of the Reference Terminology | Char | Result Qualifier |", "score": 0.7211, "match_basis": "verbatim_token+global_search"}, {"md_atom_id": "md_varindex_a1563", "md_file": "knowledge_base/VARIABLE_INDEX.md", "md_atom_type": "TABLE_ROW", "md_parent_section": "§ 二、领域专属变量（仅 1 个域，共 1499 个），按域分组", "md_verbatim": "| TSVCDVER | Version of the Reference Terminology | Char | Result Qualifier | Exp | — |", "score": 0.68, "match_basis": "verbatim_token+global_search"}, {"md_atom_id": "md_model05_a144", "md_file": "knowledge_base/model/05_study_level_data.md", "md_atom_type": "TABLE_ROW", "md_parent_section": "§ Trial Summary (TS)", "md_verbatim": "| 11 | TSVCDVER | Version of Reference Terminology | Char | Result Qualifier |", "score": 0.6763, "match_basis": "verbatim_token+global_search"}, {"md_atom_id": "md_model05_a160", "md_file": "knowledge_base/model/05_study_level_data.md", "md_atom_type": "TABLE_ROW", "md_parent_section": "§ Challenge Agent Characterization (AC)", "md_verbatim": "| 11 | ACVCDREF | Name of the Reference Terminology | Char | Result Qualifier |", "score": 0.6559, "match_basis": "verbatim_token+global_search"}, {"md_atom_id": "md_model05_a143", "md_file": "knowledge_base/model/05_study_level_data.md", "md_atom_type": "TABLE_ROW", "md_parent_section": "§ Trial Summary (TS)", "md_verbatim": "| 10 | TSVCDREF | Name of Reference Terminology | Char | Result Qualifier |", "score": 0.6148, "match_basis": "verbatim_token+global_search"}], "candidate_count": 5, "zero_candidate": false}
{"pdf_atom_id": "sv20_p0061_a001", "pdf_atom_type": "HEADING", "pdf_source": "SDTM_v2.0", "pdf_page": 61, "pdf_parent_section": "§5 [STUDY-LEVEL DATA]", "pdf_verbatim": "5.2 Study References", "figure_ref": null, "candidates": [{"md_atom_id": "md_model05_a162", "md_file": "knowledge_base/model/05_study_level_data.md", "md_atom_type": "HEADING", "md_parent_section": "§ 5.2 Study References", "md_verbatim": "## 5.2 Study References", "score": 0.9, "match_basis": "verbatim_token+global_search"}, {"md_atom_id": "md_dmRS_ex_a063", "md_file": "knowledge_base/domains/RS/examples.md", "md_atom_type": "HEADING", "md_parent_section": "§RS.2 [RS — Examples - Clinical Classifications]", "md_verbatim": "### References", "score": 0.7364, "match_basis": "verbatim_token+global_search"}, {"md_atom_id": "md_index_a102", "md_file": "knowledge_base/INDEX.md", "md_atom_type": "HEADING", "md_parent_section": "§ Domains (63 domains)", "md_verbatim": "### Study Reference Domains", "score": 0.675, "match_basis": "verbatim_token+global_search"}, {"md_atom_id": "md_ch10_a073", "md_file": "knowledge_base/chapters/ch10_appendices.md", "md_atom_type": "HEADING", "md_parent_section": "§10.D [CDISC Variable-naming Fragments]", "md_verbatim": "### Fragment Reference Table", "score": 0.51, "match_basis": "verbatim_token+global_search"}, {"md_atom_id": "md_varindex_a1085", "md_file": "knowledge_base/VARIABLE_INDEX.md", "md_atom_type": "HEADING", "md_parent_section": "§ 二、领域专属变量（仅 1 个域，共 1499 个），按域分组", "md_verbatim": "### OI — Non-host Organism Identifiers (Study Reference)", "score": 0.5069, "match_basis": "verbatim_token+global_search"}], "candidate_count": 5, "zero_candidate": false}
{"pdf_atom_id": "sv20_p0061_a002", "pdf_atom_type": "SENTENCE", "pdf_source": "SDTM_v2.0", "pdf_page": 61, "pdf_parent_section": "§5.2 [Study References]", "pdf_verbatim": "There are occasions when it is necessary to establish study-specific identifiers that will be used in subject data.", "figure_ref": null, "candidates": [{"md_atom_id": "md_model05_a163", "md_file": "knowledge_base/model/05_study_level_data.md", "md_atom_type": "SENTENCE", "md_parent_section": "§ 5.2 Study References", "md_verbatim": "Study Reference datasets provide structures for representing study-specific identifiers that will be used in subject data.", "score": 0.5138, "match_basis": "verbatim_token+global_search"}, {"md_atom_id": "md_ch02_a063", "md_file": "knowledge_base/chapters/ch02_fundamentals.md", "md_atom_type": "SENTENCE", "md_parent_section": "§2.5 [The SDTM Standard Domain Models]", "md_verbatim": "Decisions on what data to collect should be based on the scientific objectives of the study, rather than the SDTM.", "score": 0.4571, "match_basis": "verbatim_token+global_search"}, {"md_atom_id": "md_model06_a004", "md_file": "knowledge_base/model/06_relationship_datasets.md", "md_atom_type": "SENTENCE", "md_parent_section": "§ Overview", "md_verbatim": "There are many occasions when it is necessary or desirable to represent relationships among datasets or records.", "score": 0.4565, "match_basis": "verbatim_token+global_search"}, {"md_atom_id": "md_dmAG_ex_a045", "md_file": "knowledge_base/domains/AG/examples.md", "md_atom_type": "SENTENCE", "md_parent_section": "§AG.2 [Example 2]", "md_verbatim": "The identifier for the device used in the test was established in the Device Identifier (DI) domain.", "score": 0.4543, "match_basis": "verbatim_token+global_search"}, {"md_atom_id": "md_ch08_a015", "md_file": "knowledge_base/chapters/ch08_relationships.md", "md_atom_type": "SENTENCE", "md_parent_section": "§8 [Representing Relationships and Data]", "md_verbatim": "All relationships make use of the standard domain identifiers STUDYID, DOMAIN, and USUBJID.", "score": 0.4373, "match_basis": "verbatim_token+global_search"}], "candidate_count": 5, "zero_candidate": false}
{"pdf_atom_id": "sv20_p0061_a003", "pdf_atom_type": "SENTENCE", "pdf_source": "SDTM_v2.0", "pdf_page": 61, "pdf_parent_section": "§5.2 [Study References]", "pdf_verbatim": "Two such situations have been identified thus far:", "figure_ref": null, "candidates": [{"md_atom_id": "md_model05_a164", "md_file": "knowledge_base/model/05_study_level_data.md", "md_atom_type": "SENTENCE", "md_parent_section": "§ 5.2 Study References", "md_verbatim": "Two such situations have been identified thus far: identifiers for devices, and identifiers for non-host organisms.", "score": 0.6467, "match_basis": "verbatim_token+global_search"}, {"md_atom_id": "md_model05_a019", "md_file": "knowledge_base/model/05_study_level_data.md", "md_atom_type": "SENTENCE", "md_parent_section": "§ Trial Elements (TE)", "md_verbatim": "The domain is identified by the domain code \"TE\".", "score": 0.4455, "match_basis": "verbatim_token+global_search"}, {"md_atom_id": "md_ch04_a411", "md_file": "knowledge_base/chapters/ch04_general_assumptions.md", "md_atom_type": "SENTENCE", "md_parent_section": "§4.2.9 [Variable Lengths]", "md_verbatim": "To help rectify this situation:", "score": 0.4412, "match_basis": "verbatim_token+global_search"}, {"md_atom_id": "md_ch08_a125", "md_file": "knowledge_base/chapters/ch08_relationships.md", "md_atom_type": "SENTENCE", "md_parent_section": "§8.3.1 [RELREC Dataset Relationship Example]", "md_verbatim": "The variable RELTYPE identifies the type of relationship between the datasets.", "score": 0.4333, "match_basis": "verbatim_token+global_search"}, {"md_atom_id": "md_dmBE_ex_a056", "md_file": "knowledge_base/domains/BE/examples.md", "md_atom_type": "SENTENCE", "md_parent_section": "§BE.2 [Example 2]", "md_verbatim": "BESPDEVID holds the identifier for the purification kit.", "score": 0.4304, "match_basis": "verbatim_token+global_search"}], "candidate_count": 5, "zero_candidate": false}
{"pdf_atom_id": "sv20_p0061_a004", "pdf_atom_type": "LIST_ITEM", "pdf_source": "SDTM_v2.0", "pdf_page": 61, "pdf_parent_section": "§5.2 [Study References]", "pdf_verbatim": "Identifiers for devices", "figure_ref": null, "candidates": [{"md_atom_id": "md_model05_a165", "md_file": "knowledge_base/model/05_study_level_data.md", "md_atom_type": "HEADING", "md_parent_section": "§ Device Identifiers (DI)", "md_verbatim": "### Device Identifiers (DI)", "score": 0.58, "match_basis": "verbatim_token+global_search"}, {"md_atom_id": "md_model05_a167", "md_file": "knowledge_base/model/05_study_level_data.md", "md_atom_type": "SENTENCE", "md_parent_section": "§ Device Identifiers (DI)", "md_verbatim": "Used to identify the devices used in a study.", "score": 0.4827, "match_basis": "verbatim_token+global_search"}, {"md_atom_id": "md_ch02_a023", "md_file": "knowledge_base/chapters/ch02_fundamentals.md", "md_atom_type": "LIST_ITEM", "md_parent_section": "§2.1 [Observations and Variables]", "md_verbatim": "- Identifier variable: subject identifier \"101\"", "score": 0.4778, "match_basis": "verbatim_token+global_search"}, {"md_atom_id": "md_dmCE_assn_a013", "md_file": "knowledge_base/domains/CE/assumptions.md", "md_atom_type": "LIST_ITEM", "md_parent_section": "§CE [CE — Assumptions]", "md_verbatim": "4. Any identifier variable may be added to the CE domain.", "score": 0.4548, "match_basis": "verbatim_token+global_search"}, {"md_atom_id": "md_ch04_a196", "md_file": "knowledge_base/chapters/ch04_general_assumptions.md", "md_atom_type": "LIST_ITEM", "md_parent_section": "§4.2.2 [Two-character Domain Identifier]", "md_verbatim": "- Required Identifiers (STUDYID, DOMAIN, USUBJID)", "score": 0.4543, "match_basis": "verbatim_token+global_search"}], "candidate_count": 5, "zero_candidate": false}
{"pdf_atom_id": "sv20_p0061_a005", "pdf_atom_type": "LIST_ITEM", "pdf_source": "SDTM_v2.0", "pdf_page": 61, "pdf_parent_section": "§5.2 [Study References]", "pdf_verbatim": "Identifiers for non-host organisms", "figure_ref": null, "candidates": [{"md_atom_id": "md_model05_a179", "md_file": "knowledge_base/model/05_study_level_data.md", "md_atom_type": "HEADING", "md_parent_section": "§ Non-host Organism Identifiers (OI)", "md_verbatim": "### Non-host Organism Identifiers (OI)", "score": 0.6, "match_basis": "verbatim_token+global_search"}, {"md_atom_id": "md_model05_a188", "md_file": "knowledge_base/model/05_study_level_data.md", "md_atom_type": "TABLE_ROW", "md_parent_section": "§ Non-host Organism Identifiers (OI)", "md_verbatim": "| 3 | NHOID | Non-host Organism Identifier | Char | Identifier |", "score": 0.558, "match_basis": "verbatim_token+global_search"}, {"md_atom_id": "md_varindex_a020", "md_file": "knowledge_base/VARIABLE_INDEX.md", "md_atom_type": "TABLE_ROW", "md_parent_section": "§ 一、通用变量（出现在 2+ 个域，共 24 个）", "md_verbatim": "| NHOID | 4 | GF, IS, MS, OI | Non-Host Organism Identifier | Char | Identifier | Perm* |", "score": 0.5278, "match_basis": "verbatim_token+global_search"}, {"md_atom_id": "md_model05_a164", "md_file": "knowledge_base/model/05_study_level_data.md", "md_atom_type": "SENTENCE", "md_parent_section": "§ 5.2 Study References", "md_verbatim": "Two such situations have been identified thus far: identifiers for devices, and identifiers for non-host organisms.", "score": 0.4767, "match_basis": "verbatim_token+global_search"}, {"md_atom_id": "md_dmOI_assn_a011", "md_file": "knowledge_base/domains/OI/assumptions.md", "md_atom_type": "LIST_ITEM", "md_parent_section": "§OI [OI — Assumptions]", "md_verbatim": "4. OIPARMCD and OIPARM must represent parameters for the identification of non-host organisms with regard to nomenclature only.", "score": 0.4636, "match_basis": "verbatim_token+global_search"}], "candidate_count": 5, "zero_candidate": false}
{"pdf_atom_id": "sv20_p0061_a006", "pdf_atom_type": "HEADING", "pdf_source": "SDTM_v2.0", "pdf_page": 61, "pdf_parent_section": "§5.2 [Study References]", "pdf_verbatim": "5.2.1 Device Identifiers Dataset", "figure_ref": null, "candidates": [{"md_atom_id": "md_model05_a165", "md_file": "knowledge_base/model/05_study_level_data.md", "md_atom_type": "HEADING", "md_parent_section": "§ Device Identifiers (DI)", "md_verbatim": "### Device Identifiers (DI)", "score": 0.7333, "match_basis": "verbatim_token+global_search"}, {"md_atom_id": "md_model02_a160", "md_file": "knowledge_base/model/02_observation_classes.md", "md_atom_type": "HEADING", "md_parent_section": "§3.1.4 Identifiers for All Classes", "md_verbatim": "## 3.1.4 Identifiers for All Classes", "score": 0.516, "match_basis": "verbatim_token+global_search"}, {"md_atom_id": "md_model05_a179", "md_file": "knowledge_base/model/05_study_level_data.md", "md_atom_type": "HEADING", "md_parent_section": "§ Non-host Organism Identifiers (OI)", "md_verbatim": "### Non-host Organism Identifiers (OI)", "score": 0.5, "match_basis": "verbatim_token+global_search"}, {"md_atom_id": "md_ch04_a192", "md_file": "knowledge_base/chapters/ch04_general_assumptions.md", "md_atom_type": "HEADING", "md_parent_section": "§4.2 [General Variable Assumptions]", "md_verbatim": "### 4.2.2 Two-character Domain Identifier", "score": 0.46, "match_basis": "verbatim_token+global_search"}, {"md_atom_id": "md_varindex_a1085", "md_file": "knowledge_base/VARIABLE_INDEX.md", "md_atom_type": "HEADING", "md_parent_section": "§ 二、领域专属变量（仅 1 个域，共 1499 个），按域分组", "md_verbatim": "### OI — Non-host Organism Identifiers (Study Reference)", "score": 0.4459, "match_basis": "verbatim_token+global_search"}], "candidate_count": 5, "zero_candidate": false}
{"pdf_atom_id": "sv20_p0061_a007", "pdf_atom_type": "SENTENCE", "pdf_source": "SDTM_v2.0", "pdf_page": 61, "pdf_parent_section": "§5.2.1 Device Identifiers Dataset", "pdf_verbatim": "The identity of a device is established by means of a number of parameters, then assigned an identifier.", "figure_ref": null, "candidates": [{"md_atom_id": "md_dmAG_ex_a045", "md_file": "knowledge_base/domains/AG/examples.md", "md_atom_type": "SENTENCE", "md_parent_section": "§AG.2 [Example 2]", "md_verbatim": "The identifier for the device used in the test was established in the Device Identifier (DI) domain.", "score": 0.54, "match_basis": "verbatim_token+global_search"}, {"md_atom_id": "md_dmRE_ex_a015", "md_file": "knowledge_base/domains/RE/examples.md", "md_atom_type": "SENTENCE", "md_parent_section": "§RE.1 [Example 1]", "md_verbatim": "The DI domain provides the information needed to distinguish among devices used in the study. In this example, the only parameter needed to establish identifiers was the device type.", "score": 0.4732, "match_basis": "verbatim_token+global_search"}, {"md_atom_id": "md_model05_a168", "md_file": "knowledge_base/model/05_study_level_data.md", "md_atom_type": "SENTENCE", "md_parent_section": "§ Device Identifiers (DI)", "md_verbatim": "The parameters used for identification of a device depend on the kind of device and the need of the study to distinguish among devices.", "score": 0.4519, "match_basis": "verbatim_token+global_search"}, {"md_atom_id": "md_dmAG_ex_a034", "md_file": "knowledge_base/domains/AG/examples.md", "md_atom_type": "SENTENCE", "md_parent_section": "§AG.2 [Example 2]", "md_verbatim": "The spirometer used in the testing is identified in SPDEVID.", "score": 0.4377, "match_basis": "verbatim_token+global_search"}, {"md_atom_id": "md_dmAG_ex_a021", "md_file": "knowledge_base/domains/AG/examples.md", "md_atom_type": "SENTENCE", "md_parent_section": "§AG.2 [Example 2]", "md_verbatim": "An identifier was assigned to the reversibility test and this identifier was used to be link data across the multiple SDTM domains in which the data are represented.", "score": 0.4137, "match_basis": "verbatim_token+global_search"}], "candidate_count": 5, "zero_candidate": false}
{"pdf_atom_id": "sv20_p0061_a008", "pdf_atom_type": "SENTENCE", "pdf_source": "SDTM_v2.0", "pdf_page": 61, "pdf_parent_section": "§5.2.1 Device Identifiers Dataset", "pdf_verbatim": "The parameters used for identification of a device depend on the kind of device and the need of the study to distinguish among devices.", "figure_ref": null, "candidates": [{"md_atom_id": "md_model05_a168", "md_file": "knowledge_base/model/05_study_level_data.md", "md_atom_type": "SENTENCE", "md_parent_section": "§ Device Identifiers (DI)", "md_verbatim": "The parameters used for identification of a device depend on the kind of device and the need of the study to distinguish among devices.", "score": 0.9, "match_basis": "verbatim_token+global_search"}, {"md_atom_id": "md_dmRE_ex_a015", "md_file": "knowledge_base/domains/RE/examples.md", "md_atom_type": "SENTENCE", "md_parent_section": "§RE.1 [Example 1]", "md_verbatim": "The DI domain provides the information needed to distinguish among devices used in the study. In this example, the only parameter needed to establish identifiers was the device type.", "score": 0.5899, "match_basis": "verbatim_token+global_search"}, {"md_atom_id": "md_model05_a182", "md_file": "knowledge_base/model/05_study_level_data.md", "md_atom_type": "SENTENCE", "md_parent_section": "§ Non-host Organism Identifiers (OI)", "md_verbatim": "The taxa used for identification depend on the kind of organism and the needs of the study.", "score": 0.571, "match_basis": "verbatim_token+global_search"}, {"md_atom_id": "md_model05_a167", "md_file": "knowledge_base/model/05_study_level_data.md", "md_atom_type": "SENTENCE", "md_parent_section": "§ Device Identifiers (DI)", "md_verbatim": "Used to identify the devices used in a study.", "score": 0.4778, "match_basis": "verbatim_token+global_search"}, {"md_atom_id": "md_dmAG_ex_a034", "md_file": "knowledge_base/domains/AG/examples.md", "md_atom_type": "SENTENCE", "md_parent_section": "§AG.2 [Example 2]", "md_verbatim": "The spirometer used in the testing is identified in SPDEVID.", "score": 0.4569, "match_basis": "verbatim_token+global_search"}], "candidate_count": 5, "zero_candidate": false}
{"pdf_atom_id": "sv20_p0061_a009", "pdf_atom_type": "HEADING", "pdf_source": "SDTM_v2.0", "pdf_page": 61, "pdf_parent_section": "§5.2.1 Device Identifiers Dataset", "pdf_verbatim": "Device Identifiers Dataset", "figure_ref": null, "candidates": [{"md_atom_id": "md_model05_a165", "md_file": "knowledge_base/model/05_study_level_data.md", "md_atom_type": "HEADING", "md_parent_section": "§ Device Identifiers (DI)", "md_verbatim": "### Device Identifiers (DI)", "score": 0.7333, "match_basis": "verbatim_token+global_search"}, {"md_atom_id": "md_model02_a160", "md_file": "knowledge_base/model/02_observation_classes.md", "md_atom_type": "HEADING", "md_parent_section": "§3.1.4 Identifiers for All Classes", "md_verbatim": "## 3.1.4 Identifiers for All Classes", "score": 0.516, "match_basis": "verbatim_token+global_search"}, {"md_atom_id": "md_model05_a179", "md_file": "knowledge_base/model/05_study_level_data.md", "md_atom_type": "HEADING", "md_parent_section": "§ Non-host Organism Identifiers (OI)", "md_verbatim": "### Non-host Organism Identifiers (OI)", "score": 0.5, "match_basis": "verbatim_token+global_search"}, {"md_atom_id": "md_ch04_a192", "md_file": "knowledge_base/chapters/ch04_general_assumptions.md", "md_atom_type": "HEADING", "md_parent_section": "§4.2 [General Variable Assumptions]", "md_verbatim": "### 4.2.2 Two-character Domain Identifier", "score": 0.46, "match_basis": "verbatim_token+global_search"}, {"md_atom_id": "md_varindex_a1085", "md_file": "knowledge_base/VARIABLE_INDEX.md", "md_atom_type": "HEADING", "md_parent_section": "§ 二、领域专属变量（仅 1 个域，共 1499 个），按域分组", "md_verbatim": "### OI — Non-host Organism Identifiers (Study Reference)", "score": 0.4459, "match_basis": "verbatim_token+global_search"}], "candidate_count": 5, "zero_candidate": false}
{"pdf_atom_id": "sv20_p0061_a010", "pdf_atom_type": "TABLE_HEADER", "pdf_source": "SDTM_v2.0", "pdf_page": 61, "pdf_parent_section": "§5.2.1 Device Identifiers Dataset", "pdf_verbatim": "# | Variable Name | Variable Label | Type | Format | Role | Variable(s) Qualified | Usage Restrictions | Variable C-code | Definition | Notes | Examples", "figure_ref": null, "candidates": [{"md_atom_id": "md_model02_a195", "md_file": "knowledge_base/model/02_observation_classes.md", "md_atom_type": "TABLE_HEADER", "md_parent_section": "§3.1.5 > Date/Time Variables", "md_verbatim": "| # | Variable | Label | Type | Format | Notes |\n|---|----------|-------|------|--------|-------|", "score": 0.4929, "match_basis": "verbatim_token+global_search"}, {"md_atom_id": "md_ch08_a072", "md_file": "knowledge_base/chapters/ch08_relationships.md", "md_atom_type": "TABLE_HEADER", "md_parent_section": "§8.2.1 [Related Records (RELREC)]", "md_verbatim": "| Variable Name | Variable Label | Type | Controlled Terms, Codelist or Format | Role | CDISC Notes | Core |\n|--------------|----------------|------|--------------------------------------|------|-------------|------|", "score": 0.492, "match_basis": "verbatim_token+global_search"}, {"md_atom_id": "md_ch08_a157", "md_file": "knowledge_base/chapters/ch08_relationships.md", "md_atom_type": "TABLE_HEADER", "md_parent_section": "§8.4.1 [Supplemental Qualifiers (SUPP--)]", "md_verbatim": "| Variable Name | Variable Label | Type | Controlled Terms, Codelist or Format | Role | CDISC Notes | Core |\n|--------------|----------------|------|--------------------------------------|------|-------------|------|", "score": 0.492, "match_basis": "verbatim_token+global_search"}, {"md_atom_id": "md_ch08_a320", "md_file": "knowledge_base/chapters/ch08_relationships.md", "md_atom_type": "TABLE_HEADER", "md_parent_section": "§8.8 [Related Specimens (RELSPEC)]", "md_verbatim": "| Variable Name | Variable Label | Type | Controlled Terms, Codelist or Format | Role | CDISC Notes | Core |\n|--------------|----------------|------|--------------------------------------|------|-------------|------|", "score": 0.492, "match_basis": "verbatim_token+global_search"}, {"md_atom_id": "md_model04_a018", "md_file": "knowledge_base/model/04_associated_persons.md", "md_atom_type": "TABLE_HEADER", "md_parent_section": "§4 [SDTM v2.0 — Chapter 4: Associated Persons Data]", "md_verbatim": "| Variable | Label | Type | Role | Notes |\n|----------|-------|------|------|-------|", "score": 0.4714, "match_basis": "verbatim_token+global_search"}], "candidate_count": 5, "zero_candidate": false}
{"pdf_atom_id": "sv20_p0061_a011", "pdf_atom_type": "TABLE_ROW", "pdf_source": "SDTM_v2.0", "pdf_page": 61, "pdf_parent_section": "§5.2.1 Device Identifiers Dataset", "pdf_verbatim": "1 | STUDYID | Study Identifier | Char | | Identifier | | | C83082 | A sequence of characters used by the sponsor to uniquely identify the study. | | | |", "figure_ref": null, "candidates": [{"md_atom_id": "md_ch08_a073", "md_file": "knowledge_base/chapters/ch08_relationships.md", "md_atom_type": "TABLE_ROW", "md_parent_section": "§8.2.1 [Related Records (RELREC)]", "md_verbatim": "| STUDYID | Study Identifier | Char | | Identifier | Unique identifier for a study. | Req |", "score": 0.5426, "match_basis": "verbatim_token+global_search"}, {"md_atom_id": "md_ch08_a321", "md_file": "knowledge_base/chapters/ch08_relationships.md", "md_atom_type": "TABLE_ROW", "md_parent_section": "§8.8 [Related Specimens (RELSPEC)]", "md_verbatim": "| STUDYID | Study Identifier | Char | | Identifier | Unique identifier for a study. | Req |", "score": 0.5426, "match_basis": "verbatim_token+global_search"}, {"md_atom_id": "md_model02_a173", "md_file": "knowledge_base/model/02_observation_classes.md", "md_atom_type": "TABLE_ROW", "md_parent_section": "§3.1.4 Identifiers for All Classes", "md_verbatim": "| 9 | --SEQ | Sequence Number | Num | Identifier | Unique within STUDYID, USUBJID, and DOMAIN |", "score": 0.5095, "match_basis": "verbatim_token+global_search"}, {"md_atom_id": "md_model06_a019", "md_file": "knowledge_base/model/06_relationship_datasets.md", "md_atom_type": "TABLE_ROW", "md_parent_section": "§6.1 Related Records (RELREC)", "md_verbatim": "| 1 | STUDYID | Study Identifier | Char | Identifier | |", "score": 0.5, "match_basis": "verbatim_token+global_search"}, {"md_atom_id": "md_model06_a040", "md_file": "knowledge_base/model/06_relationship_datasets.md", "md_atom_type": "TABLE_ROW", "md_parent_section": "§6.2 Supplemental Qualifiers (SUPP--)", "md_verbatim": "| 1 | STUDYID | Study Identifier | Char | Identifier | |", "score": 0.5, "match_basis": "verbatim_token+global_search"}], "candidate_count": 5, "zero_candidate": false}
{"pdf_atom_id": "sv20_p0061_a012", "pdf_atom_type": "TABLE_ROW", "pdf_source": "SDTM_v2.0", "pdf_page": 61, "pdf_parent_section": "§5.2.1 Device Identifiers Dataset", "pdf_verbatim": "2 | DOMAIN | Domain Abbreviation | Char | | Identifier | | | C49558 | An abbreviation for a collection of observations, with a topic-specific commonality. | 2-character abbreviation, which must be \"DI\". | | |", "figure_ref": null, "candidates": [{"md_atom_id": "md_ch10_a023", "md_file": "knowledge_base/chapters/ch10_appendices.md", "md_atom_type": "TABLE_ROW", "md_parent_section": "§10.B [Glossary and Abbreviations]", "md_verbatim": "| Domain | A collection of observations with a topic-specific commonality |", "score": 0.638, "match_basis": "verbatim_token+global_search"}, {"md_atom_id": "md_model02_a166", "md_file": "knowledge_base/model/02_observation_classes.md", "md_atom_type": "TABLE_ROW", "md_parent_section": "§3.1.4 Identifiers for All Classes", "md_verbatim": "| 2 | DOMAIN | Domain Abbreviation | Char | Identifier | Two-character abbreviation for the domain |", "score": 0.5466, "match_basis": "verbatim_token+global_search"}, {"md_atom_id": "md_model06_a020", "md_file": "knowledge_base/model/06_relationship_datasets.md", "md_atom_type": "TABLE_ROW", "md_parent_section": "§6.1 Related Records (RELREC)", "md_verbatim": "| 2 | RDOMAIN | Related Domain Abbreviation | Char | Identifier | 2-character abbreviation for the domain of the parent record(s) |", "score": 0.5118, "match_basis": "verbatim_token+global_search"}, {"md_atom_id": "md_model06_a041", "md_file": "knowledge_base/model/06_relationship_datasets.md", "md_atom_type": "TABLE_ROW", "md_parent_section": "§6.2 Supplemental Qualifiers (SUPP--)", "md_verbatim": "| 2 | RDOMAIN | Related Domain Abbreviation | Char | Identifier | 2-character abbreviation for the domain of the parent record(s) |", "score": 0.5118, "match_basis": "verbatim_token+global_search"}, {"md_atom_id": "md_ch08_a159", "md_file": "knowledge_base/chapters/ch08_relationships.md", "md_atom_type": "TABLE_ROW", "md_parent_section": "§8.4.1 [Supplemental Qualifiers (SUPP--)]", "md_verbatim": "| RDOMAIN | Related Domain Abbreviation | Char | (DOMAIN) | Identifier | Two-character abbreviation for the domain of the parent record(s). | Req |", "score": 0.5069, "match_basis": "verbatim_token+global_search"}], "candidate_count": 5, "zero_candidate": false}
{"pdf_atom_id": "sv20_p0061_a013", "pdf_atom_type": "TABLE_ROW", "pdf_source": "SDTM_v2.0", "pdf_page": 61, "pdf_parent_section": "§5.2.1 Device Identifiers Dataset", "pdf_verbatim": "3 | SPDEVID | Sponsor Device Identifier | Char | | Identifier | | | | | Sponsor-defined identifier for the device. | | |", "figure_ref": null, "candidates": [{"md_atom_id": "md_model06_a024", "md_file": "knowledge_base/model/06_relationship_datasets.md", "md_atom_type": "TABLE_ROW", "md_parent_section": "§6.1 Related Records (RELREC)", "md_verbatim": "| 6 | SPDEVID | Sponsor Device Identifier | Char | Identifier | |", "score": 0.7552, "match_basis": "verbatim_token+global_search"}, {"md_atom_id": "md_model06_a045", "md_file": "knowledge_base/model/06_relationship_datasets.md", "md_atom_type": "TABLE_ROW", "md_parent_section": "§6.2 Supplemental Qualifiers (SUPP--)", "md_verbatim": "| 6 | SPDEVID | Sponsor Device Identifier | Char | Identifier | |", "score": 0.7552, "match_basis": "verbatim_token+global_search"}, {"md_atom_id": "md_model06_a080", "md_file": "knowledge_base/model/06_relationship_datasets.md", "md_atom_type": "TABLE_ROW", "md_parent_section": "§6.5 Device-subject Relationships (DR)", "md_verbatim": "| 4 | SPDEVID | Sponsor Device Identifier | Char | Identifier |", "score": 0.7552, "match_basis": "verbatim_token+global_search"}, {"md_atom_id": "md_model02_a169", "md_file": "knowledge_base/model/02_observation_classes.md", "md_atom_type": "TABLE_ROW", "md_parent_section": "§3.1.4 Identifiers for All Classes", "md_verbatim": "| 5 | SPDEVID | Sponsor Device Identifier | Char | Identifier | |", "score": 0.7552, "match_basis": "verbatim_token+global_search"}, {"md_atom_id": "md_model03_a075", "md_file": "knowledge_base/model/03_special_purpose_domains.md", "md_atom_type": "TABLE_ROW", "md_parent_section": "§ Comments (CO) > Variables (15 variables)", "md_verbatim": "| 6 | SPDEVID | Sponsor Device Identifier | Char | Identifier |", "score": 0.7552, "match_basis": "verbatim_token+global_search"}], "candidate_count": 5, "zero_candidate": false}
{"pdf_atom_id": "sv20_p0061_a014", "pdf_atom_type": "TABLE_ROW", "pdf_source": "SDTM_v2.0", "pdf_page": 61, "pdf_parent_section": "§5.2.1 Device Identifiers Dataset", "pdf_verbatim": "4 | DISEQ | Sequence Number | Num | | Identifier | | | | | Sequence number given to ensure uniqueness within a parameter within a device (SPDEVID). | | |", "figure_ref": null, "candidates": [{"md_atom_id": "md_model05_a175", "md_file": "knowledge_base/model/05_study_level_data.md", "md_atom_type": "TABLE_ROW", "md_parent_section": "§ Device Identifiers (DI)", "md_verbatim": "| 4 | DISEQ | Sequence Number | Num | Identifier |", "score": 0.5353, "match_basis": "verbatim_token+global_search"}, {"md_atom_id": "md_model02_a173", "md_file": "knowledge_base/model/02_observation_classes.md", "md_atom_type": "TABLE_ROW", "md_parent_section": "§3.1.4 Identifiers for All Classes", "md_verbatim": "| 9 | --SEQ | Sequence Number | Num | Identifier | Unique within STUDYID, USUBJID, and DOMAIN |", "score": 0.5273, "match_basis": "verbatim_token+global_search"}, {"md_atom_id": "md_model05_a189", "md_file": "knowledge_base/model/05_study_level_data.md", "md_atom_type": "TABLE_ROW", "md_parent_section": "§ Non-host Organism Identifiers (OI)", "md_verbatim": "| 4 | OISEQ | Sequence Number | Num | Identifier |", "score": 0.5192, "match_basis": "verbatim_token+global_search"}, {"md_atom_id": "md_varindex_a856", "md_file": "knowledge_base/VARIABLE_INDEX.md", "md_atom_type": "TABLE_ROW", "md_parent_section": "§ 二、领域专属变量（仅 1 个域，共 1499 个），按域分组", "md_verbatim": "| MISEQ | Sequence Number | Num | Identifier | Req | — |", "score": 0.5151, "match_basis": "verbatim_token+global_search"}, {"md_atom_id": "md_varindex_a1087", "md_file": "knowledge_base/VARIABLE_INDEX.md", "md_atom_type": "TABLE_ROW", "md_parent_section": "§ 二、领域专属变量（仅 1 个域，共 1499 个），按域分组", "md_verbatim": "| OISEQ | Sequence Number | Num | Identifier | Req | — |", "score": 0.5151, "match_basis": "verbatim_token+global_search"}], "candidate_count": 5, "zero_candidate": false}
{"pdf_atom_id": "sv20_p0061_a015", "pdf_atom_type": "TABLE_ROW", "pdf_source": "SDTM_v2.0", "pdf_page": 61, "pdf_parent_section": "§5.2.1 Device Identifiers Dataset", "pdf_verbatim": "5 | DIPARMCD | Device Identifier Element Short Name | Char | | Topic | | | | | Short name of the identifier characteristic of the device. | | |", "figure_ref": null, "candidates": [{"md_atom_id": "md_model05_a176", "md_file": "knowledge_base/model/05_study_level_data.md", "md_atom_type": "TABLE_ROW", "md_parent_section": "§ Device Identifiers (DI)", "md_verbatim": "| 5 | DIPARMCD | Device Identifier Element Short Name | Char | Topic |", "score": 0.7465, "match_basis": "verbatim_token+global_search"}, {"md_atom_id": "md_model05_a177", "md_file": "knowledge_base/model/05_study_level_data.md", "md_atom_type": "TABLE_ROW", "md_parent_section": "§ Device Identifiers (DI)", "md_verbatim": "| 6 | DIPARM | Device Identifier Element Name | Char | Synonym Qualifier (DIPARMCD) |", "score": 0.6, "match_basis": "verbatim_token+global_search"}, {"md_atom_id": "md_model05_a190", "md_file": "knowledge_base/model/05_study_level_data.md", "md_atom_type": "TABLE_ROW", "md_parent_section": "§ Non-host Organism Identifiers (OI)", "md_verbatim": "| 5 | OIPARMCD | Non-Host Organism ID Element Short Name | Char | Topic |", "score": 0.5264, "match_basis": "verbatim_token+global_search"}, {"md_atom_id": "md_varindex_a1371", "md_file": "knowledge_base/VARIABLE_INDEX.md", "md_atom_type": "TABLE_ROW", "md_parent_section": "§ 二、领域专属变量（仅 1 个域，共 1499 个），按域分组", "md_verbatim": "| SCTESTCD | Subject Characteristic Short Name | Char | Topic | Req | C74559 |", "score": 0.5069, "match_basis": "verbatim_token+global_search"}, {"md_atom_id": "md_varindex_a1088", "md_file": "knowledge_base/VARIABLE_INDEX.md", "md_atom_type": "TABLE_ROW", "md_parent_section": "§ 二、领域专属变量（仅 1 个域，共 1499 个），按域分组", "md_verbatim": "| OIPARMCD | Non-host Organism ID Element Short Name | Char | Topic | Req | C179591 |", "score": 0.5034, "match_basis": "verbatim_token+global_search"}], "candidate_count": 5, "zero_candidate": false}
{"pdf_atom_id": "sv20_p0061_a016", "pdf_atom_type": "TABLE_ROW", "pdf_source": "SDTM_v2.0", "pdf_page": 61, "pdf_parent_section": "§5.2.1 Device Identifiers Dataset", "pdf_verbatim": "6 | DIPARM | Device Identifier Element Name | Char | | Synonym Qualifier | DIPARMCD | | | | Name of the identifier characteristic of the device. | | |", "figure_ref": null, "candidates": [{"md_atom_id": "md_model05_a177", "md_file": "knowledge_base/model/05_study_level_data.md", "md_atom_type": "TABLE_ROW", "md_parent_section": "§ Device Identifiers (DI)", "md_verbatim": "| 6 | DIPARM | Device Identifier Element Name | Char | Synonym Qualifier (DIPARMCD) |", "score": 0.7565, "match_basis": "verbatim_token+global_search"}, {"md_atom_id": "md_model05_a176", "md_file": "knowledge_base/model/05_study_level_data.md", "md_atom_type": "TABLE_ROW", "md_parent_section": "§ Device Identifiers (DI)", "md_verbatim": "| 5 | DIPARMCD | Device Identifier Element Short Name | Char | Topic |", "score": 0.6, "match_basis": "verbatim_token+global_search"}, {"md_atom_id": "md_model05_a191", "md_file": "knowledge_base/model/05_study_level_data.md", "md_atom_type": "TABLE_ROW", "md_parent_section": "§ Non-host Organism Identifiers (OI)", "md_verbatim": "| 6 | OIPARM | Non-Host Organism ID Element Name | Char | Synonym Qualifier (OIPARMCD) |", "score": 0.5836, "match_basis": "verbatim_token+global_search"}, {"md_atom_id": "md_model05_a178", "md_file": "knowledge_base/model/05_study_level_data.md", "md_atom_type": "TABLE_ROW", "md_parent_section": "§ Device Identifiers (DI)", "md_verbatim": "| 7 | DIVAL | Device Identifier Element Value | Char | Result Qualifier |", "score": 0.54, "match_basis": "verbatim_token+global_search"}, {"md_atom_id": "md_varindex_a1372", "md_file": "knowledge_base/VARIABLE_INDEX.md", "md_atom_type": "TABLE_ROW", "md_parent_section": "§ 二、领域专属变量（仅 1 个域，共 1499 个），按域分组", "md_verbatim": "| SCTEST | Subject Characteristic | Char | Synonym Qualifier | Req | C103330 |", "score": 0.54, "match_basis": "verbatim_token+global_search"}], "candidate_count": 5, "zero_candidate": false}
{"pdf_atom_id": "sv20_p0061_a017", "pdf_atom_type": "TABLE_ROW", "pdf_source": "SDTM_v2.0", "pdf_page": 61, "pdf_parent_section": "§5.2.1 Device Identifiers Dataset", "pdf_verbatim": "7 | DIVAL | Device Identifier Element Value | Char | | Result Qualifier | | | | | Value for the parameter. | | |", "figure_ref": null, "candidates": [{"md_atom_id": "md_model05_a178", "md_file": "knowledge_base/model/05_study_level_data.md", "md_atom_type": "TABLE_ROW", "md_parent_section": "§ Device Identifiers (DI)", "md_verbatim": "| 7 | DIVAL | Device Identifier Element Value | Char | Result Qualifier |", "score": 0.765, "match_basis": "verbatim_token+global_search"}, {"md_atom_id": "md_model05_a055", "md_file": "knowledge_base/model/05_study_level_data.md", "md_atom_type": "TABLE_ROW", "md_parent_section": "§ Trial Sets (TX)", "md_verbatim": "| 8 | TXVAL | Parameter Value | Char | Result Qualifier |", "score": 0.6286, "match_basis": "verbatim_token+global_search"}, {"md_atom_id": "md_model05_a140", "md_file": "knowledge_base/model/05_study_level_data.md", "md_atom_type": "TABLE_ROW", "md_parent_section": "§ Trial Summary (TS)", "md_verbatim": "| 7 | TSVAL | Parameter Value | Char | Result Qualifier |", "score": 0.6286, "match_basis": "verbatim_token+global_search"}, {"md_atom_id": "md_model05_a156", "md_file": "knowledge_base/model/05_study_level_data.md", "md_atom_type": "TABLE_ROW", "md_parent_section": "§ Challenge Agent Characterization (AC)", "md_verbatim": "| 7 | ACVAL | Parameter Value | Char | Result Qualifier |", "score": 0.6286, "match_basis": "verbatim_token+global_search"}, {"md_atom_id": "md_varindex_a1559", "md_file": "knowledge_base/VARIABLE_INDEX.md", "md_atom_type": "TABLE_ROW", "md_parent_section": "§ 二、领域专属变量（仅 1 个域，共 1499 个），按域分组", "md_verbatim": "| TSVAL | Parameter Value | Char | Result Qualifier | Exp | — |", "score": 0.6209, "match_basis": "verbatim_token+global_search"}], "candidate_count": 5, "zero_candidate": false}
{"pdf_atom_id": "sv20_p0062_a001", "pdf_atom_type": "FIGURE", "pdf_source": "SDTM_v2.0", "pdf_page": 62, "pdf_parent_section": "§5.2.1 Device Identifiers Dataset", "pdf_verbatim": "[FIGURE: Concept Map showing relationships between Device Identifier Variables]", "figure_ref": "pdf_p062+top", "candidates": [{"md_atom_id": "md_ch02_a080", "md_file": "knowledge_base/chapters/ch02_fundamentals.md", "md_atom_type": "FIGURE", "md_parent_section": "§2.6 [Creating a New Domain]", "md_verbatim": "```mermaid\ngraph TD\n    A[\"Identifier Variables\"] -- AND --> D[\"New Domain\"]\n    B[\"Timing Variables\"] -- AND --> D\n    C[\"Topic and Qualifier Variables\"] --> E[\"Interventions- Specific Variables\"]\n   [TRUNCATED:FIGURE]", "score": 0.4253, "match_basis": "verbatim_token+global_figure"}, {"md_atom_id": "md_model05_a170", "md_file": "knowledge_base/model/05_study_level_data.md", "md_atom_type": "FIGURE", "md_parent_section": "§ Device Identifiers (DI)", "md_verbatim": "```mermaid\ngraph TD\n    Study[\"Study\"]\n    Device[\"Device\"]\n    IC[\"IdentifyingCharacteristic\"]\n    ID[\"identifier(SPDEVID)\"]\n    PARAM[\"parameter(DIPARM, DIPARMCD)\"]\n    VAL[\"value(DIVAL)\"]\n\n    Stud [TRUNCATED:FIGURE]", "score": 0.3639, "match_basis": "verbatim_token+global_figure"}, {"md_atom_id": "md_ch04_a345", "md_file": "knowledge_base/chapters/ch04_general_assumptions.md", "md_atom_type": "FIGURE", "md_parent_section": "§4.2.7.4 [\"Specify\" Values for --OBJ]", "md_verbatim": "```mermaid\ngraph TD\n    A[\"Findings about data for an event or intervention<br/>where the name of the event or intervention<br/>was entered as free text\"]\n    A --> B{\"Topic variable<br/>coded?\"}\n     [TRUNCATED:FIGURE]", "score": 0.3634, "match_basis": "verbatim_token+global_figure"}, {"md_atom_id": "md_model05_a184", "md_file": "knowledge_base/model/05_study_level_data.md", "md_atom_type": "FIGURE", "md_parent_section": "§ Non-host Organism Identifiers (OI)", "md_verbatim": "```mermaid\ngraph TD\n    Study[\"Study\"]\n    NHO[\"Non-HostOrganism\"]\n    Taxon[\"Taxon\"]\n    ID[\"identifier(NHOID)\"]\n    PARAM[\"parameter(OIPARM, OIPARMCD)\"]\n    VAL[\"value(OIVAL)\"]\n\n    Study -->|involv [TRUNCATED:FIGURE]", "score": 0.3446, "match_basis": "verbatim_token+global_figure"}, {"md_atom_id": "md_model01_a013", "md_file": "knowledge_base/model/01_concepts_and_terms.md", "md_atom_type": "FIGURE", "md_parent_section": "§2.1 [Model Concepts and Terms — Variables]", "md_verbatim": "```mermaid\ngraph TD\n    %% Key:\n    %% Plain rounded box = Group of individually specified datasets\n    %% Filled box (:::extensible) = Extensible set of domains based on a common model\n\n    SDTM[\"Stu [TRUNCATED:FIGURE]", "score": 0.3439, "match_basis": "verbatim_token+global_figure"}], "candidate_count": 5, "zero_candidate": false}
{"pdf_atom_id": "sv20_p0062_a002", "pdf_atom_type": "HEADING", "pdf_source": "SDTM_v2.0", "pdf_page": 62, "pdf_parent_section": "§5.2 [Study References]", "pdf_verbatim": "5.2.2 Non-host Organism Identifiers Dataset", "figure_ref": null, "candidates": [{"md_atom_id": "md_model05_a179", "md_file": "knowledge_base/model/05_study_level_data.md", "md_atom_type": "HEADING", "md_parent_section": "§ Non-host Organism Identifiers (OI)", "md_verbatim": "### Non-host Organism Identifiers (OI)", "score": 0.7696, "match_basis": "verbatim_token+global_search"}, {"md_atom_id": "md_varindex_a1085", "md_file": "knowledge_base/VARIABLE_INDEX.md", "md_atom_type": "HEADING", "md_parent_section": "§ 二、领域专属变量（仅 1 个域，共 1499 个），按域分组", "md_verbatim": "### OI — Non-host Organism Identifiers (Study Reference)", "score": 0.6273, "match_basis": "verbatim_token+global_search"}, {"md_atom_id": "md_model05_a165", "md_file": "knowledge_base/model/05_study_level_data.md", "md_atom_type": "HEADING", "md_parent_section": "§ Device Identifiers (DI)", "md_verbatim": "### Device Identifiers (DI)", "score": 0.5, "match_basis": "verbatim_token+global_search"}, {"md_atom_id": "md_model02_a160", "md_file": "knowledge_base/model/02_observation_classes.md", "md_atom_type": "HEADING", "md_parent_section": "§3.1.4 Identifiers for All Classes", "md_verbatim": "## 3.1.4 Identifiers for All Classes", "score": 0.48, "match_basis": "verbatim_token+global_search"}, {"md_atom_id": "md_ch04_a192", "md_file": "knowledge_base/chapters/ch04_general_assumptions.md", "md_atom_type": "HEADING", "md_parent_section": "§4.2 [General Variable Assumptions]", "md_verbatim": "### 4.2.2 Two-character Domain Identifier", "score": 0.4371, "match_basis": "verbatim_token+global_search"}], "candidate_count": 5, "zero_candidate": false}
{"pdf_atom_id": "sv20_p0062_a003", "pdf_atom_type": "SENTENCE", "pdf_source": "SDTM_v2.0", "pdf_page": 62, "pdf_parent_section": "§5.2.2 Non-host Organism Identifiers Dataset", "pdf_verbatim": "The identity of a non-host organism is established by means of a number of taxa (categories used to classify living things), then assigned an identifier.", "figure_ref": null, "candidates": [{"md_atom_id": "md_dmAG_ex_a045", "md_file": "knowledge_base/domains/AG/examples.md", "md_atom_type": "SENTENCE", "md_parent_section": "§AG.2 [Example 2]", "md_verbatim": "The identifier for the device used in the test was established in the Device Identifier (DI) domain.", "score": 0.4558, "match_basis": "verbatim_token+global_search"}, {"md_atom_id": "md_model05_a182", "md_file": "knowledge_base/model/05_study_level_data.md", "md_atom_type": "SENTENCE", "md_parent_section": "§ Non-host Organism Identifiers (OI)", "md_verbatim": "The taxa used for identification depend on the kind of organism and the needs of the study.", "score": 0.4271, "match_basis": "verbatim_token+global_search"}, {"md_atom_id": "md_ch02_a122", "md_file": "knowledge_base/chapters/ch02_fundamentals.md", "md_atom_type": "SENTENCE", "md_parent_section": "§2.7 [SDTM Variables Not Allowed in the SDTMIG]", "md_verbatim": "See Section 9.2, Non-host Organism Identifiers, for information about representing taxonomic information for non-host organisms such as bacteria and viruses.", "score": 0.4091, "match_basis": "verbatim_token+global_search"}, {"md_atom_id": "md_model05_a164", "md_file": "knowledge_base/model/05_study_level_data.md", "md_atom_type": "SENTENCE", "md_parent_section": "§ 5.2 Study References", "md_verbatim": "Two such situations have been identified thus far: identifiers for devices, and identifiers for non-host organisms.", "score": 0.4085, "match_basis": "verbatim_token+global_search"}, {"md_atom_id": "md_dmMB_ex_a009", "md_file": "knowledge_base/domains/MB/examples.md", "md_atom_type": "SENTENCE", "md_parent_section": "§MB.1 [Example 1]", "md_verbatim": "Because an identified organism is the subject of the test, the NHOID variable is populated with \"ENTEROCOCCUS FAECALIS\".", "score": 0.4075, "match_basis": "verbatim_token+global_search"}], "candidate_count": 5, "zero_candidate": false}
{"pdf_atom_id": "sv20_p0062_a004", "pdf_atom_type": "SENTENCE", "pdf_source": "SDTM_v2.0", "pdf_page": 62, "pdf_parent_section": "§5.2.2 Non-host Organism Identifiers Dataset", "pdf_verbatim": "The taxa used for identification of a non-host organism depend on the kind of organism and the needs of the study to distinguish among organisms.", "figure_ref": null, "candidates": [{"md_atom_id": "md_model05_a182", "md_file": "knowledge_base/model/05_study_level_data.md", "md_atom_type": "SENTENCE", "md_parent_section": "§ Non-host Organism Identifiers (OI)", "md_verbatim": "The taxa used for identification depend on the kind of organism and the needs of the study.", "score": 0.7189, "match_basis": "verbatim_token+global_search"}, {"md_atom_id": "md_model05_a168", "md_file": "knowledge_base/model/05_study_level_data.md", "md_atom_type": "SENTENCE", "md_parent_section": "§ Device Identifiers (DI)", "md_verbatim": "The parameters used for identification of a device depend on the kind of device and the need of the study to distinguish among devices.", "score": 0.6636, "match_basis": "verbatim_token+global_search"}, {"md_atom_id": "md_dmRE_ex_a015", "md_file": "knowledge_base/domains/RE/examples.md", "md_atom_type": "SENTENCE", "md_parent_section": "§RE.1 [Example 1]", "md_verbatim": "The DI domain provides the information needed to distinguish among devices used in the study. In this example, the only parameter needed to establish identifiers was the device type.", "score": 0.4765, "match_basis": "verbatim_token+global_search"}, {"md_atom_id": "md_model05_a164", "md_file": "knowledge_base/model/05_study_level_data.md", "md_atom_type": "SENTENCE", "md_parent_section": "§ 5.2 Study References", "md_verbatim": "Two such situations have been identified thus far: identifiers for devices, and identifiers for non-host organisms.", "score": 0.4636, "match_basis": "verbatim_token+global_search"}, {"md_atom_id": "md_ch02_a122", "md_file": "knowledge_base/chapters/ch02_fundamentals.md", "md_atom_type": "SENTENCE", "md_parent_section": "§2.7 [SDTM Variables Not Allowed in the SDTMIG]", "md_verbatim": "See Section 9.2, Non-host Organism Identifiers, for information about representing taxonomic information for non-host organisms such as bacteria and viruses.", "score": 0.463, "match_basis": "verbatim_token+global_search"}], "candidate_count": 5, "zero_candidate": false}
{"pdf_atom_id": "sv20_p0062_a005", "pdf_atom_type": "HEADING", "pdf_source": "SDTM_v2.0", "pdf_page": 62, "pdf_parent_section": "§5.2.2 Non-host Organism Identifiers Dataset", "pdf_verbatim": "Non-host Organism Identifiers Dataset", "figure_ref": null, "candidates": [{"md_atom_id": "md_model05_a179", "md_file": "knowledge_base/model/05_study_level_data.md", "md_atom_type": "HEADING", "md_parent_section": "§ Non-host Organism Identifiers (OI)", "md_verbatim": "### Non-host Organism Identifiers (OI)", "score": 0.7696, "match_basis": "verbatim_token+global_search"}, {"md_atom_id": "md_varindex_a1085", "md_file": "knowledge_base/VARIABLE_INDEX.md", "md_atom_type": "HEADING", "md_parent_section": "§ 二、领域专属变量（仅 1 个域，共 1499 个），按域分组", "md_verbatim": "### OI — Non-host Organism Identifiers (Study Reference)", "score": 0.6273, "match_basis": "verbatim_token+global_search"}, {"md_atom_id": "md_model05_a165", "md_file": "knowledge_base/model/05_study_level_data.md", "md_atom_type": "HEADING", "md_parent_section": "§ Device Identifiers (DI)", "md_verbatim": "### Device Identifiers (DI)", "score": 0.5, "match_basis": "verbatim_token+global_search"}, {"md_atom_id": "md_model02_a160", "md_file": "knowledge_base/model/02_observation_classes.md", "md_atom_type": "HEADING", "md_parent_section": "§3.1.4 Identifiers for All Classes", "md_verbatim": "## 3.1.4 Identifiers for All Classes", "score": 0.48, "match_basis": "verbatim_token+global_search"}, {"md_atom_id": "md_ch04_a192", "md_file": "knowledge_base/chapters/ch04_general_assumptions.md", "md_atom_type": "HEADING", "md_parent_section": "§4.2 [General Variable Assumptions]", "md_verbatim": "### 4.2.2 Two-character Domain Identifier", "score": 0.4371, "match_basis": "verbatim_token+global_search"}], "candidate_count": 5, "zero_candidate": false}
{"pdf_atom_id": "sv20_p0062_a006", "pdf_atom_type": "TABLE_HEADER", "pdf_source": "SDTM_v2.0", "pdf_page": 62, "pdf_parent_section": "§5.2.2 Non-host Organism Identifiers Dataset", "pdf_verbatim": "# | Variable Name | Variable Label | Type | Format | Role | Variable(s) Qualified | Usage Restrictions | Variable C-code | Definition | Notes | Examples", "figure_ref": null, "candidates": [{"md_atom_id": "md_model02_a195", "md_file": "knowledge_base/model/02_observation_classes.md", "md_atom_type": "TABLE_HEADER", "md_parent_section": "§3.1.5 > Date/Time Variables", "md_verbatim": "| # | Variable | Label | Type | Format | Notes |\n|---|----------|-------|------|--------|-------|", "score": 0.4929, "match_basis": "verbatim_token+global_search"}, {"md_atom_id": "md_ch08_a072", "md_file": "knowledge_base/chapters/ch08_relationships.md", "md_atom_type": "TABLE_HEADER", "md_parent_section": "§8.2.1 [Related Records (RELREC)]", "md_verbatim": "| Variable Name | Variable Label | Type | Controlled Terms, Codelist or Format | Role | CDISC Notes | Core |\n|--------------|----------------|------|--------------------------------------|------|-------------|------|", "score": 0.492, "match_basis": "verbatim_token+global_search"}, {"md_atom_id": "md_ch08_a157", "md_file": "knowledge_base/chapters/ch08_relationships.md", "md_atom_type": "TABLE_HEADER", "md_parent_section": "§8.4.1 [Supplemental Qualifiers (SUPP--)]", "md_verbatim": "| Variable Name | Variable Label | Type | Controlled Terms, Codelist or Format | Role | CDISC Notes | Core |\n|--------------|----------------|------|--------------------------------------|------|-------------|------|", "score": 0.492, "match_basis": "verbatim_token+global_search"}, {"md_atom_id": "md_ch08_a320", "md_file": "knowledge_base/chapters/ch08_relationships.md", "md_atom_type": "TABLE_HEADER", "md_parent_section": "§8.8 [Related Specimens (RELSPEC)]", "md_verbatim": "| Variable Name | Variable Label | Type | Controlled Terms, Codelist or Format | Role | CDISC Notes | Core |\n|--------------|----------------|------|--------------------------------------|------|-------------|------|", "score": 0.492, "match_basis": "verbatim_token+global_search"}, {"md_atom_id": "md_model04_a018", "md_file": "knowledge_base/model/04_associated_persons.md", "md_atom_type": "TABLE_HEADER", "md_parent_section": "§4 [SDTM v2.0 — Chapter 4: Associated Persons Data]", "md_verbatim": "| Variable | Label | Type | Role | Notes |\n|----------|-------|------|------|-------|", "score": 0.4714, "match_basis": "verbatim_token+global_search"}], "candidate_count": 5, "zero_candidate": false}
{"pdf_atom_id": "sv20_p0062_a007", "pdf_atom_type": "TABLE_ROW", "pdf_source": "SDTM_v2.0", "pdf_page": 62, "pdf_parent_section": "§5.2.2 Non-host Organism Identifiers Dataset", "pdf_verbatim": "1 | STUDYID | Study Identifier | Char | | Identifier | | | C83082 | A sequence of characters used by the sponsor to uniquely identify the study. | | | |", "figure_ref": null, "candidates": [{"md_atom_id": "md_ch08_a073", "md_file": "knowledge_base/chapters/ch08_relationships.md", "md_atom_type": "TABLE_ROW", "md_parent_section": "§8.2.1 [Related Records (RELREC)]", "md_verbatim": "| STUDYID | Study Identifier | Char | | Identifier | Unique identifier for a study. | Req |", "score": 0.5426, "match_basis": "verbatim_token+global_search"}, {"md_atom_id": "md_ch08_a321", "md_file": "knowledge_base/chapters/ch08_relationships.md", "md_atom_type": "TABLE_ROW", "md_parent_section": "§8.8 [Related Specimens (RELSPEC)]", "md_verbatim": "| STUDYID | Study Identifier | Char | | Identifier | Unique identifier for a study. | Req |", "score": 0.5426, "match_basis": "verbatim_token+global_search"}, {"md_atom_id": "md_model02_a173", "md_file": "knowledge_base/model/02_observation_classes.md", "md_atom_type": "TABLE_ROW", "md_parent_section": "§3.1.4 Identifiers for All Classes", "md_verbatim": "| 9 | --SEQ | Sequence Number | Num | Identifier | Unique within STUDYID, USUBJID, and DOMAIN |", "score": 0.5095, "match_basis": "verbatim_token+global_search"}, {"md_atom_id": "md_model06_a019", "md_file": "knowledge_base/model/06_relationship_datasets.md", "md_atom_type": "TABLE_ROW", "md_parent_section": "§6.1 Related Records (RELREC)", "md_verbatim": "| 1 | STUDYID | Study Identifier | Char | Identifier | |", "score": 0.5, "match_basis": "verbatim_token+global_search"}, {"md_atom_id": "md_model06_a040", "md_file": "knowledge_base/model/06_relationship_datasets.md", "md_atom_type": "TABLE_ROW", "md_parent_section": "§6.2 Supplemental Qualifiers (SUPP--)", "md_verbatim": "| 1 | STUDYID | Study Identifier | Char | Identifier | |", "score": 0.5, "match_basis": "verbatim_token+global_search"}], "candidate_count": 5, "zero_candidate": false}
{"pdf_atom_id": "sv20_p0062_a008", "pdf_atom_type": "TABLE_ROW", "pdf_source": "SDTM_v2.0", "pdf_page": 62, "pdf_parent_section": "§5.2.2 Non-host Organism Identifiers Dataset", "pdf_verbatim": "2 | DOMAIN | Domain Abbreviation | Char | | Identifier | | | C49558 | An abbreviation for a collection of observations, with a topic-specific commonality. | 2-character abbreviation, which must be \"OI\". | | |", "figure_ref": null, "candidates": [{"md_atom_id": "md_ch10_a023", "md_file": "knowledge_base/chapters/ch10_appendices.md", "md_atom_type": "TABLE_ROW", "md_parent_section": "§10.B [Glossary and Abbreviations]", "md_verbatim": "| Domain | A collection of observations with a topic-specific commonality |", "score": 0.638, "match_basis": "verbatim_token+global_search"}, {"md_atom_id": "md_model02_a166", "md_file": "knowledge_base/model/02_observation_classes.md", "md_atom_type": "TABLE_ROW", "md_parent_section": "§3.1.4 Identifiers for All Classes", "md_verbatim": "| 2 | DOMAIN | Domain Abbreviation | Char | Identifier | Two-character abbreviation for the domain |", "score": 0.5466, "match_basis": "verbatim_token+global_search"}, {"md_atom_id": "md_model06_a020", "md_file": "knowledge_base/model/06_relationship_datasets.md", "md_atom_type": "TABLE_ROW", "md_parent_section": "§6.1 Related Records (RELREC)", "md_verbatim": "| 2 | RDOMAIN | Related Domain Abbreviation | Char | Identifier | 2-character abbreviation for the domain of the parent record(s) |", "score": 0.5118, "match_basis": "verbatim_token+global_search"}, {"md_atom_id": "md_model06_a041", "md_file": "knowledge_base/model/06_relationship_datasets.md", "md_atom_type": "TABLE_ROW", "md_parent_section": "§6.2 Supplemental Qualifiers (SUPP--)", "md_verbatim": "| 2 | RDOMAIN | Related Domain Abbreviation | Char | Identifier | 2-character abbreviation for the domain of the parent record(s) |", "score": 0.5118, "match_basis": "verbatim_token+global_search"}, {"md_atom_id": "md_ch08_a159", "md_file": "knowledge_base/chapters/ch08_relationships.md", "md_atom_type": "TABLE_ROW", "md_parent_section": "§8.4.1 [Supplemental Qualifiers (SUPP--)]", "md_verbatim": "| RDOMAIN | Related Domain Abbreviation | Char | (DOMAIN) | Identifier | Two-character abbreviation for the domain of the parent record(s). | Req |", "score": 0.5069, "match_basis": "verbatim_token+global_search"}], "candidate_count": 5, "zero_candidate": false}
{"pdf_atom_id": "sv20_p0062_a009", "pdf_atom_type": "TABLE_ROW", "pdf_source": "SDTM_v2.0", "pdf_page": 62, "pdf_parent_section": "§5.2.2 Non-host Organism Identifiers Dataset", "pdf_verbatim": "3 | NHOID | Non-Host Organism Identifier | Char | | Identifier | | | | | Sponsor-defined identifier for a non-host organism. | | |", "figure_ref": null, "candidates": [{"md_atom_id": "md_model02_a170", "md_file": "knowledge_base/model/02_observation_classes.md", "md_atom_type": "TABLE_ROW", "md_parent_section": "§3.1.4 Identifiers for All Classes", "md_verbatim": "| 6 | NHOID | Non-Host Organism Identifier | Char | Identifier | Sponsor-defined identifier for a non-host organism |", "score": 0.9, "match_basis": "verbatim_token+global_search"}, {"md_atom_id": "md_model05_a188", "md_file": "knowledge_base/model/05_study_level_data.md", "md_atom_type": "TABLE_ROW", "md_parent_section": "§ Non-host Organism Identifiers (OI)", "md_verbatim": "| 3 | NHOID | Non-host Organism Identifier | Char | Identifier |", "score": 0.7, "match_basis": "verbatim_token+global_search"}, {"md_atom_id": "md_varindex_a020", "md_file": "knowledge_base/VARIABLE_INDEX.md", "md_atom_type": "TABLE_ROW", "md_parent_section": "§ 一、通用变量（出现在 2+ 个域，共 24 个）", "md_verbatim": "| NHOID | 4 | GF, IS, MS, OI | Non-Host Organism Identifier | Char | Identifier | Perm* |", "score": 0.6771, "match_basis": "verbatim_token+global_search"}, {"md_atom_id": "md_varindex_a659", "md_file": "knowledge_base/VARIABLE_INDEX.md", "md_atom_type": "TABLE_ROW", "md_parent_section": "§ 二、领域专属变量（仅 1 个域，共 1499 个），按域分组", "md_verbatim": "| HOSPID | Sponsor-Defined Identifier | Char | Identifier | Perm | — |", "score": 0.6316, "match_basis": "verbatim_token+global_search"}, {"md_atom_id": "md_varindex_a042", "md_file": "knowledge_base/VARIABLE_INDEX.md", "md_atom_type": "TABLE_ROW", "md_parent_section": "§ 二、领域专属变量（仅 1 个域，共 1499 个），按域分组", "md_verbatim": "| AESPID | Sponsor-Defined Identifier | Char | Identifier | Perm | — |", "score": 0.6077, "match_basis": "verbatim_token+global_search"}], "candidate_count": 5, "zero_candidate": false}
{"pdf_atom_id": "sv20_p0062_a010", "pdf_atom_type": "TABLE_ROW", "pdf_source": "SDTM_v2.0", "pdf_page": 62, "pdf_parent_section": "§5.2.2 Non-host Organism Identifiers Dataset", "pdf_verbatim": "4 | OISEQ | Sequence Number | Num | | Identifier | | | | | Sequence number given to ensure uniqueness within a parameter within an organism (NHOID). | | |", "figure_ref": null, "candidates": [{"md_atom_id": "md_model05_a189", "md_file": "knowledge_base/model/05_study_level_data.md", "md_atom_type": "TABLE_ROW", "md_parent_section": "§ Non-host Organism Identifiers (OI)", "md_verbatim": "| 4 | OISEQ | Sequence Number | Num | Identifier |", "score": 0.5264, "match_basis": "verbatim_token+global_search"}, {"md_atom_id": "md_varindex_a1087", "md_file": "knowledge_base/VARIABLE_INDEX.md", "md_atom_type": "TABLE_ROW", "md_parent_section": "§ 二、领域专属变量（仅 1 个域，共 1499 个），按域分组", "md_verbatim": "| OISEQ | Sequence Number | Num | Identifier | Req | — |", "score": 0.5222, "match_basis": "verbatim_token+global_search"}, {"md_atom_id": "md_model02_a173", "md_file": "knowledge_base/model/02_observation_classes.md", "md_atom_type": "TABLE_ROW", "md_parent_section": "§3.1.4 Identifiers for All Classes", "md_verbatim": "| 9 | --SEQ | Sequence Number | Num | Identifier | Unique within STUDYID, USUBJID, and DOMAIN |", "score": 0.5206, "match_basis": "verbatim_token+global_search"}, {"md_atom_id": "md_model05_a175", "md_file": "knowledge_base/model/05_study_level_data.md", "md_atom_type": "TABLE_ROW", "md_parent_section": "§ Device Identifiers (DI)", "md_verbatim": "| 4 | DISEQ | Sequence Number | Num | Identifier |", "score": 0.5111, "match_basis": "verbatim_token+global_search"}, {"md_atom_id": "md_varindex_a856", "md_file": "knowledge_base/VARIABLE_INDEX.md", "md_atom_type": "TABLE_ROW", "md_parent_section": "§ 二、领域专属变量（仅 1 个域，共 1499 个），按域分组", "md_verbatim": "| MISEQ | Sequence Number | Num | Identifier | Req | — |", "score": 0.5073, "match_basis": "verbatim_token+global_search"}], "candidate_count": 5, "zero_candidate": false}
{"pdf_atom_id": "sv20_p0062_a011", "pdf_atom_type": "TABLE_ROW", "pdf_source": "SDTM_v2.0", "pdf_page": 62, "pdf_parent_section": "§5.2.2 Non-host Organism Identifiers Dataset", "pdf_verbatim": "5 | OIPARMCD | Non-Host Organism ID Element Short Name | Char | | Topic | | | | | Short name of the taxon being described. | | |", "figure_ref": null, "candidates": [{"md_atom_id": "md_model05_a190", "md_file": "knowledge_base/model/05_study_level_data.md", "md_atom_type": "TABLE_ROW", "md_parent_section": "§ Non-host Organism Identifiers (OI)", "md_verbatim": "| 5 | OIPARMCD | Non-Host Organism ID Element Short Name | Char | Topic |", "score": 0.7091, "match_basis": "verbatim_token+global_search"}, {"md_atom_id": "md_varindex_a1088", "md_file": "knowledge_base/VARIABLE_INDEX.md", "md_atom_type": "TABLE_ROW", "md_parent_section": "§ 二、领域专属变量（仅 1 个域，共 1499 个），按域分组", "md_verbatim": "| OIPARMCD | Non-host Organism ID Element Short Name | Char | Topic | Req | C179591 |", "score": 0.66, "match_basis": "verbatim_token+global_search"}, {"md_atom_id": "md_model05_a191", "md_file": "knowledge_base/model/05_study_level_data.md", "md_atom_type": "TABLE_ROW", "md_parent_section": "§ Non-host Organism Identifiers (OI)", "md_verbatim": "| 6 | OIPARM | Non-Host Organism ID Element Name | Char | Synonym Qualifier (OIPARMCD) |", "score": 0.5618, "match_basis": "verbatim_token+global_search"}, {"md_atom_id": "md_varindex_a1089", "md_file": "knowledge_base/VARIABLE_INDEX.md", "md_atom_type": "TABLE_ROW", "md_parent_section": "§ 二、领域专属变量（仅 1 个域，共 1499 个），按域分组", "md_verbatim": "| OIPARM | Non-host Organism ID Element Name | Char | Synonym Qualifier | Req | C179590 |", "score": 0.5164, "match_basis": "verbatim_token+global_search"}, {"md_atom_id": "md_model05_a176", "md_file": "knowledge_base/model/05_study_level_data.md", "md_atom_type": "TABLE_ROW", "md_parent_section": "§ Device Identifiers (DI)", "md_verbatim": "| 5 | DIPARMCD | Device Identifier Element Short Name | Char | Topic |", "score": 0.5143, "match_basis": "verbatim_token+global_search"}], "candidate_count": 5, "zero_candidate": false}
{"pdf_atom_id": "sv20_p0062_a012", "pdf_atom_type": "TABLE_ROW", "pdf_source": "SDTM_v2.0", "pdf_page": 62, "pdf_parent_section": "§5.2.2 Non-host Organism Identifiers Dataset", "pdf_verbatim": "6 | OIPARM | Non-Host Organism ID Element Name | Char | | Synonym Qualifier | OIPARMCD | | | | Name of the taxon being described. | | |", "figure_ref": null, "candidates": [{"md_atom_id": "md_model05_a191", "md_file": "knowledge_base/model/05_study_level_data.md", "md_atom_type": "TABLE_ROW", "md_parent_section": "§ Non-host Organism Identifiers (OI)", "md_verbatim": "| 6 | OIPARM | Non-Host Organism ID Element Name | Char | Synonym Qualifier (OIPARMCD) |", "score": 0.7286, "match_basis": "verbatim_token+global_search"}, {"md_atom_id": "md_varindex_a1089", "md_file": "knowledge_base/VARIABLE_INDEX.md", "md_atom_type": "TABLE_ROW", "md_parent_section": "§ 二、领域专属变量（仅 1 个域，共 1499 个），按域分组", "md_verbatim": "| OIPARM | Non-host Organism ID Element Name | Char | Synonym Qualifier | Req | C179590 |", "score": 0.66, "match_basis": "verbatim_token+global_search"}, {"md_atom_id": "md_model05_a177", "md_file": "knowledge_base/model/05_study_level_data.md", "md_atom_type": "TABLE_ROW", "md_parent_section": "§ Device Identifiers (DI)", "md_verbatim": "| 6 | DIPARM | Device Identifier Element Name | Char | Synonym Qualifier (DIPARMCD) |", "score": 0.569, "match_basis": "verbatim_token+global_search"}, {"md_atom_id": "md_model05_a190", "md_file": "knowledge_base/model/05_study_level_data.md", "md_atom_type": "TABLE_ROW", "md_parent_section": "§ Non-host Organism Identifiers (OI)", "md_verbatim": "| 5 | OIPARMCD | Non-Host Organism ID Element Short Name | Char | Topic |", "score": 0.5618, "match_basis": "verbatim_token+global_search"}, {"md_atom_id": "md_model05_a024", "md_file": "knowledge_base/model/05_study_level_data.md", "md_atom_type": "TABLE_ROW", "md_parent_section": "§ Trial Elements (TE)", "md_verbatim": "| 4 | ELEMENT | Description of Element | Char | Synonym Qualifier |", "score": 0.5556, "match_basis": "verbatim_token+global_search"}], "candidate_count": 5, "zero_candidate": false}
{"pdf_atom_id": "sv20_p0062_a013", "pdf_atom_type": "TABLE_ROW", "pdf_source": "SDTM_v2.0", "pdf_page": 62, "pdf_parent_section": "§5.2.2 Non-host Organism Identifiers Dataset", "pdf_verbatim": "7 | OIVAL | Non-Host Organism ID Element Value | Char | | Result Qualifier | | | | | Value for the taxon in OIPARMCD/OIPARM for the organism identified by NHOID. | | |", "figure_ref": null, "candidates": [{"md_atom_id": "md_model05_a192", "md_file": "knowledge_base/model/05_study_level_data.md", "md_atom_type": "TABLE_ROW", "md_parent_section": "§ Non-host Organism Identifiers (OI)", "md_verbatim": "| 7 | OIVAL | Non-Host Organism ID Element Value | Char | Result Qualifier |", "score": 0.6765, "match_basis": "verbatim_token+global_search"}, {"md_atom_id": "md_varindex_a1090", "md_file": "knowledge_base/VARIABLE_INDEX.md", "md_atom_type": "TABLE_ROW", "md_parent_section": "§ 二、领域专属变量（仅 1 个域，共 1499 个），按域分组", "md_verbatim": "| OIVAL | Non-host Organism ID Element Value | Char | Result Qualifier | Req | — |", "score": 0.6692, "match_basis": "verbatim_token+global_search"}, {"md_atom_id": "md_model05_a191", "md_file": "knowledge_base/model/05_study_level_data.md", "md_atom_type": "TABLE_ROW", "md_parent_section": "§ Non-host Organism Identifiers (OI)", "md_verbatim": "| 6 | OIPARM | Non-Host Organism ID Element Name | Char | Synonym Qualifier (OIPARMCD) |", "score": 0.6053, "match_basis": "verbatim_token+global_search"}, {"md_atom_id": "md_model05_a178", "md_file": "knowledge_base/model/05_study_level_data.md", "md_atom_type": "TABLE_ROW", "md_parent_section": "§ Device Identifiers (DI)", "md_verbatim": "| 7 | DIVAL | Device Identifier Element Value | Char | Result Qualifier |", "score": 0.5786, "match_basis": "verbatim_token+global_search"}, {"md_atom_id": "md_model05_a188", "md_file": "knowledge_base/model/05_study_level_data.md", "md_atom_type": "TABLE_ROW", "md_parent_section": "§ Non-host Organism Identifiers (OI)", "md_verbatim": "| 3 | NHOID | Non-host Organism Identifier | Char | Identifier |", "score": 0.5588, "match_basis": "verbatim_token+global_search"}], "candidate_count": 5, "zero_candidate": false}
{"pdf_atom_id": "sv20_p0063_a001", "pdf_atom_type": "FIGURE", "pdf_source": "SDTM_v2.0", "pdf_page": 63, "pdf_parent_section": "§5.2.2 Non-host Organism Identifiers Dataset", "pdf_verbatim": "[FIGURE: Concept Map showing relationships between Non-host Organism Identifier Variables]", "figure_ref": "pdf_p063+top", "candidates": [{"md_atom_id": "md_ch02_a080", "md_file": "knowledge_base/chapters/ch02_fundamentals.md", "md_atom_type": "FIGURE", "md_parent_section": "§2.6 [Creating a New Domain]", "md_verbatim": "```mermaid\ngraph TD\n    A[\"Identifier Variables\"] -- AND --> D[\"New Domain\"]\n    B[\"Timing Variables\"] -- AND --> D\n    C[\"Topic and Qualifier Variables\"] --> E[\"Interventions- Specific Variables\"]\n   [TRUNCATED:FIGURE]", "score": 0.4187, "match_basis": "verbatim_token+global_figure"}, {"md_atom_id": "md_model05_a184", "md_file": "knowledge_base/model/05_study_level_data.md", "md_atom_type": "FIGURE", "md_parent_section": "§ Non-host Organism Identifiers (OI)", "md_verbatim": "```mermaid\ngraph TD\n    Study[\"Study\"]\n    NHO[\"Non-HostOrganism\"]\n    Taxon[\"Taxon\"]\n    ID[\"identifier(NHOID)\"]\n    PARAM[\"parameter(OIPARM, OIPARMCD)\"]\n    VAL[\"value(OIVAL)\"]\n\n    Study -->|involv [TRUNCATED:FIGURE]", "score": 0.3923, "match_basis": "verbatim_token+global_figure"}, {"md_atom_id": "md_ch04_a345", "md_file": "knowledge_base/chapters/ch04_general_assumptions.md", "md_atom_type": "FIGURE", "md_parent_section": "§4.2.7.4 [\"Specify\" Values for --OBJ]", "md_verbatim": "```mermaid\ngraph TD\n    A[\"Findings about data for an event or intervention<br/>where the name of the event or intervention<br/>was entered as free text\"]\n    A --> B{\"Topic variable<br/>coded?\"}\n     [TRUNCATED:FIGURE]", "score": 0.3609, "match_basis": "verbatim_token+global_figure"}, {"md_atom_id": "md_model01_a013", "md_file": "knowledge_base/model/01_concepts_and_terms.md", "md_atom_type": "FIGURE", "md_parent_section": "§2.1 [Model Concepts and Terms — Variables]", "md_verbatim": "```mermaid\ngraph TD\n    %% Key:\n    %% Plain rounded box = Group of individually specified datasets\n    %% Filled box (:::extensible) = Extensible set of domains based on a common model\n\n    SDTM[\"Stu [TRUNCATED:FIGURE]", "score": 0.343, "match_basis": "verbatim_token+global_figure"}, {"md_atom_id": "md_dmTA_ex_a226", "md_file": "knowledge_base/domains/TA/examples.md", "md_atom_type": "FIGURE", "md_parent_section": "§TA.7 [Example 7]", "md_verbatim": "```mermaid\ngraph LR\n    subgraph SE[\"Screen Epoch\"]\n        s1[Screen]\n        s2[Screen]\n    end\n    subgraph IE[\"Induction Treatment Epoch\"]\n        cr1[\"Chemo+Rad\"] --> cr2[\"Chemo+Rad*\"]\n        cs [TRUNCATED:FIGURE]", "score": 0.3425, "match_basis": "verbatim_token+global_figure"}], "candidate_count": 5, "zero_candidate": false}
{"pdf_atom_id": "sv20_p0064_a001", "pdf_atom_type": "HEADING", "pdf_source": "SDTM_v2.0", "pdf_page": 64, "pdf_parent_section": "§6 [DATASETS FOR REPRESENTING RELATIONSHIPS]", "pdf_verbatim": "6 Datasets for Representing Relationships", "figure_ref": null, "candidates": [{"md_atom_id": "md_model06_a001", "md_file": "knowledge_base/model/06_relationship_datasets.md", "md_atom_type": "HEADING", "md_parent_section": "§ SDTM v2.0 — Chapter 6: Datasets for Representing Relationships", "md_verbatim": "# SDTM v2.0 — Chapter 6: Datasets for Representing Relationships", "score": 0.78, "match_basis": "verbatim_token+global_search"}, {"md_atom_id": "md_ch08_a001", "md_file": "knowledge_base/chapters/ch08_relationships.md", "md_atom_type": "HEADING", "md_parent_section": "§8 [Representing Relationships and Data]", "md_verbatim": "# SDTMIG v3.4 — Chapter 8: Representing Relationships and Data", "score": 0.6632, "match_basis": "verbatim_token+global_search"}, {"md_atom_id": "md_model06_a101", "md_file": "knowledge_base/model/06_relationship_datasets.md", "md_atom_type": "HEADING", "md_parent_section": "§ Summary of Relationship Datasets", "md_verbatim": "## Summary of Relationship Datasets", "score": 0.5909, "match_basis": "verbatim_token+global_search"}, {"md_atom_id": "md_ch04_a010", "md_file": "knowledge_base/chapters/ch04_general_assumptions.md", "md_atom_type": "HEADING", "md_parent_section": "§4.1 [General Domain Assumptions]", "md_verbatim": "### 4.1.2 Relationship to Analysis Datasets", "score": 0.5824, "match_basis": "verbatim_token+global_search"}, {"md_atom_id": "md_dmRELREC_ex_a033", "md_file": "knowledge_base/domains/RELREC/examples.md", "md_atom_type": "HEADING", "md_parent_section": "§RELREC [RELREC — Examples]", "md_verbatim": "## Dataset Relationship Example", "score": 0.5727, "match_basis": "verbatim_token+global_search"}], "candidate_count": 5, "zero_candidate": false}
{"pdf_atom_id": "sv20_p0064_a002", "pdf_atom_type": "SENTENCE", "pdf_source": "SDTM_v2.0", "pdf_page": 64, "pdf_parent_section": "§6 [DATASETS FOR REPRESENTING RELATIONSHIPS]", "pdf_verbatim": "There are many occasions when it is necessary or desirable to represent relationships among datasets or records.", "figure_ref": null, "candidates": [{"md_atom_id": "md_model06_a004", "md_file": "knowledge_base/model/06_relationship_datasets.md", "md_atom_type": "SENTENCE", "md_parent_section": "§ Overview", "md_verbatim": "There are many occasions when it is necessary or desirable to represent relationships among datasets or records.", "score": 0.9, "match_basis": "verbatim_token+global_search"}, {"md_atom_id": "md_dmEX_ex_a241", "md_file": "knowledge_base/domains/EX/examples.md", "md_atom_type": "SENTENCE", "md_parent_section": "§EX.7 [Example 7]", "md_verbatim": "The RELREC dataset represents relationships between EC, EX, and VS.", "score": 0.5206, "match_basis": "verbatim_token+global_search"}, {"md_atom_id": "md_dmTR_ex_a042", "md_file": "knowledge_base/domains/TR/examples.md", "md_atom_type": "SENTENCE", "md_parent_section": "§TR.1 [Example 2 (continued from TU)]", "md_verbatim": "The relationship between the TU and TR datasets is represented in RELREC.", "score": 0.5174, "match_basis": "verbatim_token+global_search"}, {"md_atom_id": "md_dmSR_ex_a043", "md_file": "knowledge_base/domains/SR/examples.md", "md_atom_type": "SENTENCE", "md_parent_section": "§SR.2 [Example 2]", "md_verbatim": "The relationships between SR and EX records are represented at the record level in RELREC.", "score": 0.5083, "match_basis": "verbatim_token+global_search"}, {"md_atom_id": "md_dmDS_ex_a066", "md_file": "knowledge_base/domains/DS/examples.md", "md_atom_type": "SENTENCE", "md_parent_section": "§DS.4 [Example 4]", "md_verbatim": "The relationship between the DS and AE records is represented in RELREC.", "score": 0.5, "match_basis": "verbatim_token+global_search"}], "candidate_count": 5, "zero_candidate": false}
{"pdf_atom_id": "sv20_p0064_a003", "pdf_atom_type": "SENTENCE", "pdf_source": "SDTM_v2.0", "pdf_page": 64, "pdf_parent_section": "§6 [DATASETS FOR REPRESENTING RELATIONSHIPS]", "pdf_verbatim": "The SDTM includes the following relationship datasets:", "figure_ref": null, "candidates": [{"md_atom_id": "md_model06_a005", "md_file": "knowledge_base/model/06_relationship_datasets.md", "md_atom_type": "SENTENCE", "md_parent_section": "§ Overview", "md_verbatim": "The SDTM includes the following relationship datasets:", "score": 0.9, "match_basis": "verbatim_token+global_search"}, {"md_atom_id": "md_dmFA_ex_a155", "md_file": "knowledge_base/domains/FA/examples.md", "md_atom_type": "SENTENCE", "md_parent_section": "§FA.6 [Example 6]", "md_verbatim": "Because the AE identifier (AESPID) was included in the FA dataset, AE and FA data can be related with a dataset-to-dataset relationship.", "score": 0.5211, "match_basis": "verbatim_token+global_search"}, {"md_atom_id": "md_model01_a051", "md_file": "knowledge_base/model/01_concepts_and_terms.md", "md_atom_type": "SENTENCE", "md_parent_section": "§2.1 [Model Concepts and Terms — Variables]", "md_verbatim": "Some relationship datasets include the variable RDOMAIN, to describe a relationship to a domain for data about individuals.", "score": 0.519, "match_basis": "verbatim_token+global_search"}, {"md_atom_id": "md_model01_a053", "md_file": "knowledge_base/model/01_concepts_and_terms.md", "md_atom_type": "SENTENCE", "md_parent_section": "§2.1 [Model Concepts and Terms — Variables]", "md_verbatim": "The Device-subject Relationships dataset includes the variable DOMAIN, but other study reference datasets do not.", "score": 0.5091, "match_basis": "verbatim_token+global_search"}, {"md_atom_id": "md_dmCE_ex_a119", "md_file": "knowledge_base/domains/CE/examples.md", "md_atom_type": "SENTENCE", "md_parent_section": "§CE.3 [Example 3]", "md_verbatim": "**Rows 1-2:** Show the dataset-to-dataset relationship between MH and PR records.", "score": 0.5043, "match_basis": "verbatim_token+global_search"}], "candidate_count": 5, "zero_candidate": false}
{"pdf_atom_id": "sv20_p0064_a004", "pdf_atom_type": "LIST_ITEM", "pdf_source": "SDTM_v2.0", "pdf_page": 64, "pdf_parent_section": "§6 [DATASETS FOR REPRESENTING RELATIONSHIPS]", "pdf_verbatim": "Related Records Dataset, which represents 2 types of relationships:", "figure_ref": null, "candidates": [{"md_atom_id": "md_model06_a006", "md_file": "knowledge_base/model/06_relationship_datasets.md", "md_atom_type": "LIST_ITEM", "md_parent_section": "§ Overview", "md_verbatim": "- **Related Records Dataset** — represents 2 types of relationships: between independent records for a subject, and between records in 2 or more datasets", "score": 0.6458, "match_basis": "verbatim_token+global_search"}, {"md_atom_id": "md_ch08_a009", "md_file": "knowledge_base/chapters/ch08_relationships.md", "md_atom_type": "LIST_ITEM", "md_parent_section": "§8 [Representing Relationships and Data]", "md_verbatim": "- **Section 8.3**, Relating Datasets — representing a relationship between 2 (or more) datasets where records of 1 (or more) dataset(s) are related to record(s) in another dataset (or datasets)", "score": 0.5949, "match_basis": "verbatim_token+global_search"}, {"md_atom_id": "md_ch08_a014", "md_file": "knowledge_base/chapters/ch08_relationships.md", "md_atom_type": "LIST_ITEM", "md_parent_section": "§8 [Representing Relationships and Data]", "md_verbatim": "- **Section 8.8**, Related Specimens — a dataset used to represent relationships between specimens", "score": 0.5778, "match_basis": "verbatim_token+global_search"}, {"md_atom_id": "md_model06_a008", "md_file": "knowledge_base/model/06_relationship_datasets.md", "md_atom_type": "LIST_ITEM", "md_parent_section": "§ Overview", "md_verbatim": "- **Pool Definition Dataset** — represents relationships between a subject and a pool of subjects", "score": 0.5526, "match_basis": "verbatim_token+global_search"}, {"md_atom_id": "md_model06_a011", "md_file": "knowledge_base/model/06_relationship_datasets.md", "md_atom_type": "LIST_ITEM", "md_parent_section": "§ Overview", "md_verbatim": "- **Device-subject Relationships Dataset** — represents relationships between devices and study subjects", "score": 0.5526, "match_basis": "verbatim_token+global_search"}], "candidate_count": 5, "zero_candidate": false}
{"pdf_atom_id": "sv20_p0064_a005", "pdf_atom_type": "LIST_ITEM", "pdf_source": "SDTM_v2.0", "pdf_page": 64, "pdf_parent_section": "§6 [DATASETS FOR REPRESENTING RELATIONSHIPS]", "pdf_verbatim": "A relationship between independent records (usually in separate datasets) for a subject (e.g., a concomitant medication taken to treat an adverse event)", "figure_ref": null, "candidates": [{"md_atom_id": "md_ch08_a008", "md_file": "knowledge_base/chapters/ch08_relationships.md", "md_atom_type": "LIST_ITEM", "md_parent_section": "§8 [Representing Relationships and Data]", "md_verbatim": "- **Section 8.2**, Relating Peer Records — representing relationships between independent records (usually in separate domains) for a subject, such as a concomitant medication taken to treat an adverse event", "score": 0.7364, "match_basis": "verbatim_token+global_search"}, {"md_atom_id": "md_model06_a006", "md_file": "knowledge_base/model/06_relationship_datasets.md", "md_atom_type": "LIST_ITEM", "md_parent_section": "§ Overview", "md_verbatim": "- **Related Records Dataset** — represents 2 types of relationships: between independent records for a subject, and between records in 2 or more datasets", "score": 0.5645, "match_basis": "verbatim_token+global_search"}, {"md_atom_id": "md_ch08_a065", "md_file": "knowledge_base/chapters/ch08_relationships.md", "md_atom_type": "LIST_ITEM", "md_parent_section": "§8.2 [Relating Peer Records]", "md_verbatim": "- explicit relationships, such as concomitant medications taken as a result of an adverse event; or", "score": 0.5308, "match_basis": "verbatim_token+global_search"}, {"md_atom_id": "md_dmRELREC_assn_a007", "md_file": "knowledge_base/domains/RELREC/assumptions.md", "md_atom_type": "LIST_ITEM", "md_parent_section": "§RELREC [RELREC — Assumptions]", "md_verbatim": "- explicit relationships, such as concomitant medications taken as a result of an adverse event; or", "score": 0.5308, "match_basis": "verbatim_token+global_search"}, {"md_atom_id": "md_ch08_a009", "md_file": "knowledge_base/chapters/ch08_relationships.md", "md_atom_type": "LIST_ITEM", "md_parent_section": "§8 [Representing Relationships and Data]", "md_verbatim": "- **Section 8.3**, Relating Datasets — representing a relationship between 2 (or more) datasets where records of 1 (or more) dataset(s) are related to record(s) in another dataset (or datasets)", "score": 0.474, "match_basis": "verbatim_token+global_search"}], "candidate_count": 5, "zero_candidate": false}
{"pdf_atom_id": "sv20_p0064_a006", "pdf_atom_type": "LIST_ITEM", "pdf_source": "SDTM_v2.0", "pdf_page": 64, "pdf_parent_section": "§6 [DATASETS FOR REPRESENTING RELATIONSHIPS]", "pdf_verbatim": "A relationship between 2 (or more) datasets where records of 1 (or more) dataset(s) are related to record(s) in another dataset (or datasets)", "figure_ref": null, "candidates": [{"md_atom_id": "md_ch08_a009", "md_file": "knowledge_base/chapters/ch08_relationships.md", "md_atom_type": "LIST_ITEM", "md_parent_section": "§8 [Representing Relationships and Data]", "md_verbatim": "- **Section 8.3**, Relating Datasets — representing a relationship between 2 (or more) datasets where records of 1 (or more) dataset(s) are related to record(s) in another dataset (or datasets)", "score": 0.7471, "match_basis": "verbatim_token+global_search"}, {"md_atom_id": "md_dmOE_ex_a045", "md_file": "knowledge_base/domains/OE/examples.md", "md_atom_type": "LIST_ITEM", "md_parent_section": "§OE.3 [Example 3]", "md_verbatim": "- The relationship between the OE and PR domains in the RELREC dataset", "score": 0.587, "match_basis": "verbatim_token+global_search"}, {"md_atom_id": "md_model06_a006", "md_file": "knowledge_base/model/06_relationship_datasets.md", "md_atom_type": "LIST_ITEM", "md_parent_section": "§ Overview", "md_verbatim": "- **Related Records Dataset** — represents 2 types of relationships: between independent records for a subject, and between records in 2 or more datasets", "score": 0.5813, "match_basis": "verbatim_token+global_search"}, {"md_atom_id": "md_dmCE_ex_a119", "md_file": "knowledge_base/domains/CE/examples.md", "md_atom_type": "SENTENCE", "md_parent_section": "§CE.3 [Example 3]", "md_verbatim": "**Rows 1-2:** Show the dataset-to-dataset relationship between MH and PR records.", "score": 0.5728, "match_basis": "verbatim_token+global_search"}, {"md_atom_id": "md_ch08_a328", "md_file": "knowledge_base/chapters/ch08_relationships.md", "md_atom_type": "LIST_ITEM", "md_parent_section": "§8.8 [Related Specimens (RELSPEC)]", "md_verbatim": "1. The RELSPEC dataset is not used to manage relationships between any other datasets or domains.", "score": 0.5727, "match_basis": "verbatim_token+global_search"}], "candidate_count": 5, "zero_candidate": false}
{"pdf_atom_id": "sv20_p0064_a007", "pdf_atom_type": "LIST_ITEM", "pdf_source": "SDTM_v2.0", "pdf_page": 64, "pdf_parent_section": "§6 [DATASETS FOR REPRESENTING RELATIONSHIPS]", "pdf_verbatim": "Supplemental Qualifiers Dataset, which represents dependent relationships where data that cannot be represented by a standard variable within a general-observation class dataset record (or records) can be related back to that record", "figure_ref": null, "candidates": [{"md_atom_id": "md_model06_a007", "md_file": "knowledge_base/model/06_relationship_datasets.md", "md_atom_type": "LIST_ITEM", "md_parent_section": "§ Overview", "md_verbatim": "- **Supplemental Qualifiers Dataset** — represents dependent relationships where data cannot be represented by a standard variable", "score": 0.7121, "match_basis": "verbatim_token+global_search"}, {"md_atom_id": "md_ch08_a010", "md_file": "knowledge_base/chapters/ch08_relationships.md", "md_atom_type": "LIST_ITEM", "md_parent_section": "§8 [Representing Relationships and Data]", "md_verbatim": "- **Section 8.4**, Relating Non-standard Variable Values to a Parent Domain — the method for representing the dependent relationship where data that cannot be represented by a standard variable within DM or a GOC domain record can be related back to that record", "score": 0.5855, "match_basis": "verbatim_token+global_search"}, {"md_atom_id": "md_dmHO_assn_a005", "md_file": "knowledge_base/domains/HO/assumptions.md", "md_atom_type": "LIST_ITEM", "md_parent_section": "§HO [HO — Assumptions]", "md_verbatim": "   a. The supplemental qualifier with QNAM = \"HOINDC\" would be used to represent the indication/medical condition for the encounter (e.g., stroke). Note that --INDC is an Interventions class variable, so is not a standard variable for HO, which is an Events class domain.", "score": 0.5224, "match_basis": "verbatim_token+global_search"}, {"md_atom_id": "md_dmHO_assn_a007", "md_file": "knowledge_base/domains/HO/assumptions.md", "md_atom_type": "LIST_ITEM", "md_parent_section": "§HO [HO — Assumptions]", "md_verbatim": "4. If collected data includes the name of the provider or the facility where the encounter took place, this may be represented using the supplemental qualifier with QNAM = \"HONAM\". Note that --NAM is a Findings class variable, so is not a standard variable for HO, which is an Events class domain.", "score": 0.5089, "match_basis": "verbatim_token+global_search"}, {"md_atom_id": "md_model06_a006", "md_file": "knowledge_base/model/06_relationship_datasets.md", "md_atom_type": "LIST_ITEM", "md_parent_section": "§ Overview", "md_verbatim": "- **Related Records Dataset** — represents 2 types of relationships: between independent records for a subject, and between records in 2 or more datasets", "score": 0.4949, "match_basis": "verbatim_token+global_search"}], "candidate_count": 5, "zero_candidate": false}
{"pdf_atom_id": "sv20_p0064_a008", "pdf_atom_type": "LIST_ITEM", "pdf_source": "SDTM_v2.0", "pdf_page": 64, "pdf_parent_section": "§6 [DATASETS FOR REPRESENTING RELATIONSHIPS]", "pdf_verbatim": "Pool Definition Dataset, which represents relationships between a subject and a pool of subjects", "figure_ref": null, "candidates": [{"md_atom_id": "md_model06_a008", "md_file": "knowledge_base/model/06_relationship_datasets.md", "md_atom_type": "LIST_ITEM", "md_parent_section": "§ Overview", "md_verbatim": "- **Pool Definition Dataset** — represents relationships between a subject and a pool of subjects", "score": 0.8617, "match_basis": "verbatim_token+global_search"}, {"md_atom_id": "md_model06_a011", "md_file": "knowledge_base/model/06_relationship_datasets.md", "md_atom_type": "LIST_ITEM", "md_parent_section": "§ Overview", "md_verbatim": "- **Device-subject Relationships Dataset** — represents relationships between devices and study subjects", "score": 0.6927, "match_basis": "verbatim_token+global_search"}, {"md_atom_id": "md_model06_a009", "md_file": "knowledge_base/model/06_relationship_datasets.md", "md_atom_type": "LIST_ITEM", "md_parent_section": "§ Overview", "md_verbatim": "- **Related Subjects Dataset** — represents relationships between study subjects other than membership in a pool", "score": 0.6524, "match_basis": "verbatim_token+global_search"}, {"md_atom_id": "md_model06_a010", "md_file": "knowledge_base/model/06_relationship_datasets.md", "md_atom_type": "LIST_ITEM", "md_parent_section": "§ Overview", "md_verbatim": "- **Associated Persons Relationships Dataset** — represents relationships between associated person(s) and study subjects", "score": 0.6484, "match_basis": "verbatim_token+global_search"}, {"md_atom_id": "md_model06_a006", "md_file": "knowledge_base/model/06_relationship_datasets.md", "md_atom_type": "LIST_ITEM", "md_parent_section": "§ Overview", "md_verbatim": "- **Related Records Dataset** — represents 2 types of relationships: between independent records for a subject, and between records in 2 or more datasets", "score": 0.6088, "match_basis": "verbatim_token+global_search"}], "candidate_count": 5, "zero_candidate": false}
{"pdf_atom_id": "sv20_p0064_a009", "pdf_atom_type": "LIST_ITEM", "pdf_source": "SDTM_v2.0", "pdf_page": 64, "pdf_parent_section": "§6 [DATASETS FOR REPRESENTING RELATIONSHIPS]", "pdf_verbatim": "Related Subjects Dataset, which represents relationships between study subjects other than membership in a pool.", "figure_ref": null, "candidates": [{"md_atom_id": "md_model06_a009", "md_file": "knowledge_base/model/06_relationship_datasets.md", "md_atom_type": "LIST_ITEM", "md_parent_section": "§ Overview", "md_verbatim": "- **Related Subjects Dataset** — represents relationships between study subjects other than membership in a pool", "score": 0.8679, "match_basis": "verbatim_token+global_search"}, {"md_atom_id": "md_model06_a010", "md_file": "knowledge_base/model/06_relationship_datasets.md", "md_atom_type": "LIST_ITEM", "md_parent_section": "§ Overview", "md_verbatim": "- **Associated Persons Relationships Dataset** — represents relationships between associated person(s) and study subjects", "score": 0.6727, "match_basis": "verbatim_token+global_search"}, {"md_atom_id": "md_model06_a011", "md_file": "knowledge_base/model/06_relationship_datasets.md", "md_atom_type": "LIST_ITEM", "md_parent_section": "§ Overview", "md_verbatim": "- **Device-subject Relationships Dataset** — represents relationships between devices and study subjects", "score": 0.6677, "match_basis": "verbatim_token+global_search"}, {"md_atom_id": "md_model06_a008", "md_file": "knowledge_base/model/06_relationship_datasets.md", "md_atom_type": "LIST_ITEM", "md_parent_section": "§ Overview", "md_verbatim": "- **Pool Definition Dataset** — represents relationships between a subject and a pool of subjects", "score": 0.6524, "match_basis": "verbatim_token+global_search"}, {"md_atom_id": "md_dmRELSUB_assn_a002", "md_file": "knowledge_base/domains/RELSUB/assumptions.md", "md_atom_type": "SENTENCE", "md_parent_section": "§RELSUB [RELSUB — Assumptions]", "md_verbatim": "A dataset used to represent relationships between study subjects.", "score": 0.5928, "match_basis": "verbatim_token+global_search"}], "candidate_count": 5, "zero_candidate": false}
{"pdf_atom_id": "sv20_p0064_a010", "pdf_atom_type": "LIST_ITEM", "pdf_source": "SDTM_v2.0", "pdf_page": 64, "pdf_parent_section": "§6 [DATASETS FOR REPRESENTING RELATIONSHIPS]", "pdf_verbatim": "Associated Persons Relationships Dataset, which represents relationships between associated person(s) and study subjects", "figure_ref": null, "candidates": [{"md_atom_id": "md_model06_a010", "md_file": "knowledge_base/model/06_relationship_datasets.md", "md_atom_type": "LIST_ITEM", "md_parent_section": "§ Overview", "md_verbatim": "- **Associated Persons Relationships Dataset** — represents relationships between associated person(s) and study subjects", "score": 0.8667, "match_basis": "verbatim_token+global_search"}, {"md_atom_id": "md_model06_a011", "md_file": "knowledge_base/model/06_relationship_datasets.md", "md_atom_type": "LIST_ITEM", "md_parent_section": "§ Overview", "md_verbatim": "- **Device-subject Relationships Dataset** — represents relationships between devices and study subjects", "score": 0.6966, "match_basis": "verbatim_token+global_search"}, {"md_atom_id": "md_model04_a023", "md_file": "knowledge_base/model/04_associated_persons.md", "md_atom_type": "SENTENCE", "md_parent_section": "§4 [SDTM v2.0 — Chapter 4: Associated Persons Data]", "md_verbatim": "Relationships of an associated person to study subjects may be represented in the Associated Persons Relationships dataset.", "score": 0.6732, "match_basis": "verbatim_token+global_search"}, {"md_atom_id": "md_model06_a009", "md_file": "knowledge_base/model/06_relationship_datasets.md", "md_atom_type": "LIST_ITEM", "md_parent_section": "§ Overview", "md_verbatim": "- **Related Subjects Dataset** — represents relationships between study subjects other than membership in a pool", "score": 0.6727, "match_basis": "verbatim_token+global_search"}, {"md_atom_id": "md_model06_a008", "md_file": "knowledge_base/model/06_relationship_datasets.md", "md_atom_type": "LIST_ITEM", "md_parent_section": "§ Overview", "md_verbatim": "- **Pool Definition Dataset** — represents relationships between a subject and a pool of subjects", "score": 0.6484, "match_basis": "verbatim_token+global_search"}], "candidate_count": 5, "zero_candidate": false}
{"pdf_atom_id": "sv20_p0064_a011", "pdf_atom_type": "LIST_ITEM", "pdf_source": "SDTM_v2.0", "pdf_page": 64, "pdf_parent_section": "§6 [DATASETS FOR REPRESENTING RELATIONSHIPS]", "pdf_verbatim": "Device-subject Relationships Dataset, which represents relationships between devices and study subjects", "figure_ref": null, "candidates": [{"md_atom_id": "md_model06_a011", "md_file": "knowledge_base/model/06_relationship_datasets.md", "md_atom_type": "LIST_ITEM", "md_parent_section": "§ Overview", "md_verbatim": "- **Device-subject Relationships Dataset** — represents relationships between devices and study subjects", "score": 0.8617, "match_basis": "verbatim_token+global_search"}, {"md_atom_id": "md_model06_a010", "md_file": "knowledge_base/model/06_relationship_datasets.md", "md_atom_type": "LIST_ITEM", "md_parent_section": "§ Overview", "md_verbatim": "- **Associated Persons Relationships Dataset** — represents relationships between associated person(s) and study subjects", "score": 0.6966, "match_basis": "verbatim_token+global_search"}, {"md_atom_id": "md_model06_a008", "md_file": "knowledge_base/model/06_relationship_datasets.md", "md_atom_type": "LIST_ITEM", "md_parent_section": "§ Overview", "md_verbatim": "- **Pool Definition Dataset** — represents relationships between a subject and a pool of subjects", "score": 0.6927, "match_basis": "verbatim_token+global_search"}, {"md_atom_id": "md_model06_a009", "md_file": "knowledge_base/model/06_relationship_datasets.md", "md_atom_type": "LIST_ITEM", "md_parent_section": "§ Overview", "md_verbatim": "- **Related Subjects Dataset** — represents relationships between study subjects other than membership in a pool", "score": 0.6677, "match_basis": "verbatim_token+global_search"}, {"md_atom_id": "md_dmRELSUB_assn_a002", "md_file": "knowledge_base/domains/RELSUB/assumptions.md", "md_atom_type": "SENTENCE", "md_parent_section": "§RELSUB [RELSUB — Assumptions]", "md_verbatim": "A dataset used to represent relationships between study subjects.", "score": 0.6631, "match_basis": "verbatim_token+global_search"}], "candidate_count": 5, "zero_candidate": false}
{"pdf_atom_id": "sv20_p0064_a012", "pdf_atom_type": "LIST_ITEM", "pdf_source": "SDTM_v2.0", "pdf_page": 64, "pdf_parent_section": "§6 [DATASETS FOR REPRESENTING RELATIONSHIPS]", "pdf_verbatim": "Related Specimens Dataset, which represents relationships between collected specimens and specimens derived from them", "figure_ref": null, "candidates": [{"md_atom_id": "md_model06_a012", "md_file": "knowledge_base/model/06_relationship_datasets.md", "md_atom_type": "LIST_ITEM", "md_parent_section": "§ Overview", "md_verbatim": "- **Related Specimens Dataset** — represents relationships between collected specimens and specimens derived from them", "score": 0.8684, "match_basis": "verbatim_token+global_search"}, {"md_atom_id": "md_ch08_a014", "md_file": "knowledge_base/chapters/ch08_relationships.md", "md_atom_type": "LIST_ITEM", "md_parent_section": "§8 [Representing Relationships and Data]", "md_verbatim": "- **Section 8.8**, Related Specimens — a dataset used to represent relationships between specimens", "score": 0.6738, "match_basis": "verbatim_token+global_search"}, {"md_atom_id": "md_ch08_a317", "md_file": "knowledge_base/chapters/ch08_relationships.md", "md_atom_type": "SENTENCE", "md_parent_section": "§8.8 [Related Specimens (RELSPEC)]", "md_verbatim": "A dataset used to represent relationships between specimens.", "score": 0.5659, "match_basis": "verbatim_token+global_search"}, {"md_atom_id": "md_dmRELSPEC_assn_a003", "md_file": "knowledge_base/domains/RELSPEC/assumptions.md", "md_atom_type": "SENTENCE", "md_parent_section": "§RELSPEC [RELSPEC — Assumptions]", "md_verbatim": "A dataset used to represent relationships between specimens.", "score": 0.5659, "match_basis": "verbatim_token+global_search"}, {"md_atom_id": "md_model06_a008", "md_file": "knowledge_base/model/06_relationship_datasets.md", "md_atom_type": "LIST_ITEM", "md_parent_section": "§ Overview", "md_verbatim": "- **Pool Definition Dataset** — represents relationships between a subject and a pool of subjects", "score": 0.5657, "match_basis": "verbatim_token+global_search"}], "candidate_count": 5, "zero_candidate": false}
{"pdf_atom_id": "sv20_p0064_a013", "pdf_atom_type": "SENTENCE", "pdf_source": "SDTM_v2.0", "pdf_page": 64, "pdf_parent_section": "§6 [DATASETS FOR REPRESENTING RELATIONSHIPS]", "pdf_verbatim": "The implementation guides define specific details and examples for each of these relationships.", "figure_ref": null, "candidates": [{"md_atom_id": "md_model06_a013", "md_file": "knowledge_base/model/06_relationship_datasets.md", "md_atom_type": "SENTENCE", "md_parent_section": "§ Overview", "md_verbatim": "The implementation guides define specific details and examples for each of these relationships.", "score": 0.9, "match_basis": "verbatim_token+global_search"}, {"md_atom_id": "md_ch08_a333", "md_file": "knowledge_base/chapters/ch08_relationships.md", "md_atom_type": "SENTENCE", "md_parent_section": "§8.8 [Related Specimens (RELSPEC)]", "md_verbatim": "**Figure. Sample Specimen Relationship**", "score": 0.4789, "match_basis": "verbatim_token+global_search"}, {"md_atom_id": "md_ch04_a387", "md_file": "knowledge_base/chapters/ch04_general_assumptions.md", "md_atom_type": "SENTENCE", "md_parent_section": "§4.2.8.3 [Multiple Values for a Non-result Qualifier Variable]", "md_verbatim": "In each of these examples, the use of SUPPAE should be documented in the Define-XML document and the annotated CRF.", "score": 0.4583, "match_basis": "verbatim_token+global_search"}, {"md_atom_id": "md_ch08_a111", "md_file": "knowledge_base/chapters/ch08_relationships.md", "md_atom_type": "SENTENCE", "md_parent_section": "§8.3 [Relating Datasets Using RELREC]", "md_verbatim": "The relationship is defined by including a single record for each related dataset that identifies the key(s) of the dataset that can be used to relate the respective records.", "score": 0.4533, "match_basis": "verbatim_token+global_search"}, {"md_atom_id": "md_ch08_a055", "md_file": "knowledge_base/chapters/ch08_relationships.md", "md_atom_type": "SENTENCE", "md_parent_section": "§8.2 [Relating Peer Records]", "md_verbatim": "A relationship is defined by adding a record to RELREC for each record to be related and by assigning a unique character identifier value for the relationship.", "score": 0.45, "match_basis": "verbatim_token+global_search"}], "candidate_count": 5, "zero_candidate": false}
{"pdf_atom_id": "sv20_p0064_a014", "pdf_atom_type": "HEADING", "pdf_source": "SDTM_v2.0", "pdf_page": 64, "pdf_parent_section": "§6 [DATASETS FOR REPRESENTING RELATIONSHIPS]", "pdf_verbatim": "6.1 Related Records Dataset", "figure_ref": null, "candidates": [{"md_atom_id": "md_model06_a014", "md_file": "knowledge_base/model/06_relationship_datasets.md", "md_atom_type": "HEADING", "md_parent_section": "§6.1 Related Records (RELREC)", "md_verbatim": "## 6.1 Related Records (RELREC)", "score": 0.6529, "match_basis": "verbatim_token+global_search"}, {"md_atom_id": "md_ch08_a067", "md_file": "knowledge_base/chapters/ch08_relationships.md", "md_atom_type": "HEADING", "md_parent_section": "§8.2 [Relating Peer Records]", "md_verbatim": "### 8.2.1 Related Records (RELREC)", "score": 0.6529, "match_basis": "verbatim_token+global_search"}, {"md_atom_id": "md_dmPC_ex_a057", "md_file": "knowledge_base/domains/PC/examples.md", "md_atom_type": "HEADING", "md_parent_section": "§PC.2 [Relating PC and PP — Overview]", "md_verbatim": "### PC-PP Relating Records", "score": 0.5667, "match_basis": "verbatim_token+global_search"}, {"md_atom_id": "md_dmPC_ex_a050", "md_file": "knowledge_base/domains/PC/examples.md", "md_atom_type": "HEADING", "md_parent_section": "§PC.2 [Relating PC and PP — Overview]", "md_verbatim": "### PC-PP Relating Datasets", "score": 0.5526, "match_basis": "verbatim_token+global_search"}, {"md_atom_id": "md_dmRELREC_assn_a013", "md_file": "knowledge_base/domains/RELREC/assumptions.md", "md_atom_type": "HEADING", "md_parent_section": "§RELREC [RELREC — Assumptions]", "md_verbatim": "## Relating Datasets", "score": 0.5526, "match_basis": "verbatim_token+global_search"}], "candidate_count": 5, "zero_candidate": false}
{"pdf_atom_id": "sv20_p0064_a015", "pdf_atom_type": "HEADING", "pdf_source": "SDTM_v2.0", "pdf_page": 64, "pdf_parent_section": "§6.1 [Related Records Dataset]", "pdf_verbatim": "RELREC Dataset", "figure_ref": null, "candidates": [{"md_atom_id": "md_ch08_a081", "md_file": "knowledge_base/chapters/ch08_relationships.md", "md_atom_type": "HEADING", "md_parent_section": "§8.2 [Relating Peer Records]", "md_verbatim": "### 8.2.2 RELREC Dataset Examples", "score": 0.66, "match_basis": "verbatim_token+global_search"}, {"md_atom_id": "md_ch08_a109", "md_file": "knowledge_base/chapters/ch08_relationships.md", "md_atom_type": "HEADING", "md_parent_section": "§8 [Representing Relationships and Data]", "md_verbatim": "## 8.3 Relating Datasets Using RELREC", "score": 0.6176, "match_basis": "verbatim_token+global_search"}, {"md_atom_id": "md_dmPP_ex_a081", "md_file": "knowledge_base/domains/PP/examples.md", "md_atom_type": "HEADING", "md_parent_section": "§PP [PP — Examples]", "md_verbatim": "## Shared PP Dataset for RELREC Examples", "score": 0.57, "match_basis": "verbatim_token+global_search"}, {"md_atom_id": "md_dmPC_ex_a050", "md_file": "knowledge_base/domains/PC/examples.md", "md_atom_type": "HEADING", "md_parent_section": "§PC.2 [Relating PC and PP — Overview]", "md_verbatim": "### PC-PP Relating Datasets", "score": 0.54, "match_basis": "verbatim_token+global_search"}, {"md_atom_id": "md_dmRELREC_assn_a013", "md_file": "knowledge_base/domains/RELREC/assumptions.md", "md_atom_type": "HEADING", "md_parent_section": "§RELREC [RELREC — Assumptions]", "md_verbatim": "## Relating Datasets", "score": 0.54, "match_basis": "verbatim_token+global_search"}], "candidate_count": 5, "zero_candidate": false}
{"pdf_atom_id": "sv20_p0064_a016", "pdf_atom_type": "TABLE_HEADER", "pdf_source": "SDTM_v2.0", "pdf_page": 64, "pdf_parent_section": "§6.1 [Related Records Dataset]", "pdf_verbatim": "# | Variable Name | Variable Label | Type | Format | Role | Variable(s) Qualified | Usage Restrictions | Variable C-code | Definition | Notes | Examples", "figure_ref": null, "candidates": [{"md_atom_id": "md_model02_a195", "md_file": "knowledge_base/model/02_observation_classes.md", "md_atom_type": "TABLE_HEADER", "md_parent_section": "§3.1.5 > Date/Time Variables", "md_verbatim": "| # | Variable | Label | Type | Format | Notes |\n|---|----------|-------|------|--------|-------|", "score": 0.4929, "match_basis": "verbatim_token+global_search"}, {"md_atom_id": "md_ch08_a072", "md_file": "knowledge_base/chapters/ch08_relationships.md", "md_atom_type": "TABLE_HEADER", "md_parent_section": "§8.2.1 [Related Records (RELREC)]", "md_verbatim": "| Variable Name | Variable Label | Type | Controlled Terms, Codelist or Format | Role | CDISC Notes | Core |\n|--------------|----------------|------|--------------------------------------|------|-------------|------|", "score": 0.492, "match_basis": "verbatim_token+global_search"}, {"md_atom_id": "md_ch08_a157", "md_file": "knowledge_base/chapters/ch08_relationships.md", "md_atom_type": "TABLE_HEADER", "md_parent_section": "§8.4.1 [Supplemental Qualifiers (SUPP--)]", "md_verbatim": "| Variable Name | Variable Label | Type | Controlled Terms, Codelist or Format | Role | CDISC Notes | Core |\n|--------------|----------------|------|--------------------------------------|------|-------------|------|", "score": 0.492, "match_basis": "verbatim_token+global_search"}, {"md_atom_id": "md_ch08_a320", "md_file": "knowledge_base/chapters/ch08_relationships.md", "md_atom_type": "TABLE_HEADER", "md_parent_section": "§8.8 [Related Specimens (RELSPEC)]", "md_verbatim": "| Variable Name | Variable Label | Type | Controlled Terms, Codelist or Format | Role | CDISC Notes | Core |\n|--------------|----------------|------|--------------------------------------|------|-------------|------|", "score": 0.492, "match_basis": "verbatim_token+global_search"}, {"md_atom_id": "md_model04_a018", "md_file": "knowledge_base/model/04_associated_persons.md", "md_atom_type": "TABLE_HEADER", "md_parent_section": "§4 [SDTM v2.0 — Chapter 4: Associated Persons Data]", "md_verbatim": "| Variable | Label | Type | Role | Notes |\n|----------|-------|------|------|-------|", "score": 0.4714, "match_basis": "verbatim_token+global_search"}], "candidate_count": 5, "zero_candidate": false}
{"pdf_atom_id": "sv20_p0064_a017", "pdf_atom_type": "TABLE_ROW", "pdf_source": "SDTM_v2.0", "pdf_page": 64, "pdf_parent_section": "§6.1 [Related Records Dataset]", "pdf_verbatim": "1 | STUDYID | Study Identifier | Char | | Identifier | | | C83082 | A sequence of characters used by the sponsor to uniquely identify the study. | | | |", "figure_ref": null, "candidates": [{"md_atom_id": "md_ch08_a073", "md_file": "knowledge_base/chapters/ch08_relationships.md", "md_atom_type": "TABLE_ROW", "md_parent_section": "§8.2.1 [Related Records (RELREC)]", "md_verbatim": "| STUDYID | Study Identifier | Char | | Identifier | Unique identifier for a study. | Req |", "score": 0.5426, "match_basis": "verbatim_token+global_search"}, {"md_atom_id": "md_ch08_a321", "md_file": "knowledge_base/chapters/ch08_relationships.md", "md_atom_type": "TABLE_ROW", "md_parent_section": "§8.8 [Related Specimens (RELSPEC)]", "md_verbatim": "| STUDYID | Study Identifier | Char | | Identifier | Unique identifier for a study. | Req |", "score": 0.5426, "match_basis": "verbatim_token+global_search"}, {"md_atom_id": "md_model02_a173", "md_file": "knowledge_base/model/02_observation_classes.md", "md_atom_type": "TABLE_ROW", "md_parent_section": "§3.1.4 Identifiers for All Classes", "md_verbatim": "| 9 | --SEQ | Sequence Number | Num | Identifier | Unique within STUDYID, USUBJID, and DOMAIN |", "score": 0.5095, "match_basis": "verbatim_token+global_search"}, {"md_atom_id": "md_model06_a019", "md_file": "knowledge_base/model/06_relationship_datasets.md", "md_atom_type": "TABLE_ROW", "md_parent_section": "§6.1 Related Records (RELREC)", "md_verbatim": "| 1 | STUDYID | Study Identifier | Char | Identifier | |", "score": 0.5, "match_basis": "verbatim_token+global_search"}, {"md_atom_id": "md_model06_a040", "md_file": "knowledge_base/model/06_relationship_datasets.md", "md_atom_type": "TABLE_ROW", "md_parent_section": "§6.2 Supplemental Qualifiers (SUPP--)", "md_verbatim": "| 1 | STUDYID | Study Identifier | Char | Identifier | |", "score": 0.5, "match_basis": "verbatim_token+global_search"}], "candidate_count": 5, "zero_candidate": false}
{"pdf_atom_id": "sv20_p0064_a018", "pdf_atom_type": "TABLE_ROW", "pdf_source": "SDTM_v2.0", "pdf_page": 64, "pdf_parent_section": "§6.1 [Related Records Dataset]", "pdf_verbatim": "2 | RDOMAIN | Related Domain Abbreviation | Char | | Identifier | | | | | 2-character abbreviation for the domain of the parent record(s). | | |", "figure_ref": null, "candidates": [{"md_atom_id": "md_model06_a020", "md_file": "knowledge_base/model/06_relationship_datasets.md", "md_atom_type": "TABLE_ROW", "md_parent_section": "§6.1 Related Records (RELREC)", "md_verbatim": "| 2 | RDOMAIN | Related Domain Abbreviation | Char | Identifier | 2-character abbreviation for the domain of the parent record(s) |", "score": 0.9, "match_basis": "verbatim_token+global_search"}, {"md_atom_id": "md_model06_a041", "md_file": "knowledge_base/model/06_relationship_datasets.md", "md_atom_type": "TABLE_ROW", "md_parent_section": "§6.2 Supplemental Qualifiers (SUPP--)", "md_verbatim": "| 2 | RDOMAIN | Related Domain Abbreviation | Char | Identifier | 2-character abbreviation for the domain of the parent record(s) |", "score": 0.9, "match_basis": "verbatim_token+global_search"}, {"md_atom_id": "md_ch08_a159", "md_file": "knowledge_base/chapters/ch08_relationships.md", "md_atom_type": "TABLE_ROW", "md_parent_section": "§8.4.1 [Supplemental Qualifiers (SUPP--)]", "md_verbatim": "| RDOMAIN | Related Domain Abbreviation | Char | (DOMAIN) | Identifier | Two-character abbreviation for the domain of the parent record(s). | Req |", "score": 0.8739, "match_basis": "verbatim_token+global_search"}, {"md_atom_id": "md_ch08_a074", "md_file": "knowledge_base/chapters/ch08_relationships.md", "md_atom_type": "TABLE_ROW", "md_parent_section": "§8.2.1 [Related Records (RELREC)]", "md_verbatim": "| RDOMAIN | Related Domain Abbreviation | Char | (DOMAIN) | Identifier | Abbreviation for the domain of the parent record(s). | Req |", "score": 0.82, "match_basis": "verbatim_token+global_search"}, {"md_atom_id": "md_model02_a166", "md_file": "knowledge_base/model/02_observation_classes.md", "md_atom_type": "TABLE_ROW", "md_parent_section": "§3.1.4 Identifiers for All Classes", "md_verbatim": "| 2 | DOMAIN | Domain Abbreviation | Char | Identifier | Two-character abbreviation for the domain |", "score": 0.7133, "match_basis": "verbatim_token+global_search"}], "candidate_count": 5, "zero_candidate": false}
{"pdf_atom_id": "sv20_p0064_a019", "pdf_atom_type": "TABLE_ROW", "pdf_source": "SDTM_v2.0", "pdf_page": 64, "pdf_parent_section": "§6.1 [Related Records Dataset]", "pdf_verbatim": "3 | USUBJID | Unique Subject Identifier | Char | | Identifier | | | C69256 | A sequence of characters used to uniquely identify a subject across all studies for all applications or submissions involving the product. | | | |", "figure_ref": null, "candidates": [{"md_atom_id": "md_ch08_a075", "md_file": "knowledge_base/chapters/ch08_relationships.md", "md_atom_type": "TABLE_ROW", "md_parent_section": "§8.2.1 [Related Records (RELREC)]", "md_verbatim": "| USUBJID | Unique Subject Identifier | Char | | Identifier | Identifier used to uniquely identify a subject across all studies for all applications or submissions involving the product. | Exp |", "score": 0.7843, "match_basis": "verbatim_token+global_search"}, {"md_atom_id": "md_ch08_a322", "md_file": "knowledge_base/chapters/ch08_relationships.md", "md_atom_type": "TABLE_ROW", "md_parent_section": "§8.8 [Related Specimens (RELSPEC)]", "md_verbatim": "| USUBJID | Unique Subject Identifier | Char | | Identifier | Identifier used to uniquely identify a subject across all studies for all applications or submissions involving the product. | Req |", "score": 0.7843, "match_basis": "verbatim_token+global_search"}, {"md_atom_id": "md_ch08_a160", "md_file": "knowledge_base/chapters/ch08_relationships.md", "md_atom_type": "TABLE_ROW", "md_parent_section": "§8.4.1 [Supplemental Qualifiers (SUPP--)]", "md_verbatim": "| USUBJID | Unique Subject Identifier | Char | | Identifier | Identifier used to uniquely identify a subject across all studies for all applications or submissions involving the product. This is the value of USUBJID in the parent record(s). | Req |", "score": 0.7232, "match_basis": "verbatim_token+global_search"}, {"md_atom_id": "md_model02_a167", "md_file": "knowledge_base/model/02_observation_classes.md", "md_atom_type": "TABLE_ROW", "md_parent_section": "§3.1.4 Identifiers for All Classes", "md_verbatim": "| 3 | USUBJID | Unique Subject Identifier | Char | Identifier | Unique identifier for a subject across all studies for the submission |", "score": 0.6, "match_basis": "verbatim_token+global_search"}, {"md_atom_id": "md_ch04_a203", "md_file": "knowledge_base/chapters/ch04_general_assumptions.md", "md_atom_type": "SENTENCE", "md_parent_section": "§4.2.3 [Use of \"Subject\" and USUBJID]", "md_verbatim": "To identify a subject uniquely across all studies for all applications or submissions involving the product, a unique identifier (USUBJID) should be assigned and included in all datasets.", "score": 0.4835, "match_basis": "verbatim_token+global_search"}], "candidate_count": 5, "zero_candidate": false}
{"pdf_atom_id": "sv20_p0064_a020", "pdf_atom_type": "TABLE_ROW", "pdf_source": "SDTM_v2.0", "pdf_page": 64, "pdf_parent_section": "§6.1 [Related Records Dataset]", "pdf_verbatim": "4 | APID | Associated Persons Identifier | Char | | Identifier | | | | | Identifier for a single associated person, a group of associated persons, or a pool of associated persons. If APID identifies a pool, POOLDEF records must exist for each associated person (see Section 6.3, Pool Definition Dataset, and Section 4, Associated Persons Data). | | |", "figure_ref": null, "candidates": [{"md_atom_id": "md_model04_a019", "md_file": "knowledge_base/model/04_associated_persons.md", "md_atom_type": "TABLE_ROW", "md_parent_section": "§4 [SDTM v2.0 — Chapter 4: Associated Persons Data]", "md_verbatim": "| APID | Associated Persons Identifier | Char | Identifier | Identifier for a single associated person, a group of associated persons, or a pool of associated persons. If APID identifies a pool, POOLDEF records must exist for each associated person (see Section 6.3, Pool Definition Dataset, and Section 4, Associated Persons Data). |", "score": 0.9, "match_basis": "verbatim_token+global_search"}, {"md_atom_id": "md_model06_a022", "md_file": "knowledge_base/model/06_relationship_datasets.md", "md_atom_type": "TABLE_ROW", "md_parent_section": "§6.1 Related Records (RELREC)", "md_verbatim": "| 4 | APID | Associated Persons Identifier | Char | Identifier | Identifier for a single associated person, a group, or a pool of associated persons |", "score": 0.6088, "match_basis": "verbatim_token+global_search"}, {"md_atom_id": "md_model06_a043", "md_file": "knowledge_base/model/06_relationship_datasets.md", "md_atom_type": "TABLE_ROW", "md_parent_section": "§6.2 Supplemental Qualifiers (SUPP--)", "md_verbatim": "| 4 | APID | Associated Persons Identifier | Char | Identifier | |", "score": 0.5206, "match_basis": "verbatim_token+global_search"}, {"md_atom_id": "md_model06_a063", "md_file": "knowledge_base/model/06_relationship_datasets.md", "md_atom_type": "TABLE_ROW", "md_parent_section": "§6.3 Pool Definition (POOLDEF)", "md_verbatim": "| 4 | APID | Associated Persons Identifier | Char | Identifier |", "score": 0.5206, "match_basis": "verbatim_token+global_search"}, {"md_atom_id": "md_model06_a086", "md_file": "knowledge_base/model/06_relationship_datasets.md", "md_atom_type": "TABLE_ROW", "md_parent_section": "§6.6 Associated Persons Related Subjects (APRELSUB)", "md_verbatim": "| 2 | APID | Associated Person Identifier | Char | Identifier |", "score": 0.5118, "match_basis": "verbatim_token+global_search"}], "candidate_count": 5, "zero_candidate": false}
{"pdf_atom_id": "sv20_p0065_a001", "pdf_atom_type": "TABLE_ROW", "pdf_source": "SDTM_v2.0", "pdf_page": 65, "pdf_parent_section": "§6.1 [Related Records Dataset]", "pdf_verbatim": "5 | POOLID | Pool Identifier | Char | | Identifier | | | C117053 | A sequence of characters used to uniquely identify a group of subjects that have been pooled together. | | | |", "figure_ref": null, "candidates": [{"md_atom_id": "md_model06_a023", "md_file": "knowledge_base/model/06_relationship_datasets.md", "md_atom_type": "TABLE_ROW", "md_parent_section": "§6.1 Related Records (RELREC)", "md_verbatim": "| 5 | POOLID | Pool Identifier | Char | Identifier | For pooled subject data |", "score": 0.4938, "match_basis": "verbatim_token+global_search"}, {"md_atom_id": "md_model06_a042", "md_file": "knowledge_base/model/06_relationship_datasets.md", "md_atom_type": "TABLE_ROW", "md_parent_section": "§6.2 Supplemental Qualifiers (SUPP--)", "md_verbatim": "| 3 | USUBJID | Unique Subject Identifier | Char | Identifier | |", "score": 0.4754, "match_basis": "verbatim_token+global_search"}, {"md_atom_id": "md_model06_a062", "md_file": "knowledge_base/model/06_relationship_datasets.md", "md_atom_type": "TABLE_ROW", "md_parent_section": "§6.3 Pool Definition (POOLDEF)", "md_verbatim": "| 3 | USUBJID | Unique Subject Identifier | Char | Identifier |", "score": 0.4754, "match_basis": "verbatim_token+global_search"}, {"md_atom_id": "md_model06_a069", "md_file": "knowledge_base/model/06_relationship_datasets.md", "md_atom_type": "TABLE_ROW", "md_parent_section": "§6.4 Related Subjects (RELSUB)", "md_verbatim": "| 2 | USUBJID | Unique Subject Identifier | Char | Identifier |", "score": 0.4754, "match_basis": "verbatim_token+global_search"}, {"md_atom_id": "md_model06_a079", "md_file": "knowledge_base/model/06_relationship_datasets.md", "md_atom_type": "TABLE_ROW", "md_parent_section": "§6.5 Device-subject Relationships (DR)", "md_verbatim": "| 3 | USUBJID | Unique Subject Identifier | Char | Identifier |", "score": 0.4754, "match_basis": "verbatim_token+global_search"}], "candidate_count": 5, "zero_candidate": false}
{"pdf_atom_id": "sv20_p0065_a002", "pdf_atom_type": "TABLE_ROW", "pdf_source": "SDTM_v2.0", "pdf_page": 65, "pdf_parent_section": "§6.1 [Related Records Dataset]", "pdf_verbatim": "6 | SPDEVID | Sponsor Device Identifier | Char | | Identifier | | | C117060 | A sequence of characters used by the sponsor to uniquely identify a specific device. | | | |", "figure_ref": null, "candidates": [{"md_atom_id": "md_model06_a024", "md_file": "knowledge_base/model/06_relationship_datasets.md", "md_atom_type": "TABLE_ROW", "md_parent_section": "§6.1 Related Records (RELREC)", "md_verbatim": "| 6 | SPDEVID | Sponsor Device Identifier | Char | Identifier | |", "score": 0.5491, "match_basis": "verbatim_token+global_search"}, {"md_atom_id": "md_model06_a045", "md_file": "knowledge_base/model/06_relationship_datasets.md", "md_atom_type": "TABLE_ROW", "md_parent_section": "§6.2 Supplemental Qualifiers (SUPP--)", "md_verbatim": "| 6 | SPDEVID | Sponsor Device Identifier | Char | Identifier | |", "score": 0.5491, "match_basis": "verbatim_token+global_search"}, {"md_atom_id": "md_model06_a080", "md_file": "knowledge_base/model/06_relationship_datasets.md", "md_atom_type": "TABLE_ROW", "md_parent_section": "§6.5 Device-subject Relationships (DR)", "md_verbatim": "| 4 | SPDEVID | Sponsor Device Identifier | Char | Identifier |", "score": 0.5491, "match_basis": "verbatim_token+global_search"}, {"md_atom_id": "md_model02_a169", "md_file": "knowledge_base/model/02_observation_classes.md", "md_atom_type": "TABLE_ROW", "md_parent_section": "§3.1.4 Identifiers for All Classes", "md_verbatim": "| 5 | SPDEVID | Sponsor Device Identifier | Char | Identifier | |", "score": 0.5491, "match_basis": "verbatim_token+global_search"}, {"md_atom_id": "md_model03_a075", "md_file": "knowledge_base/model/03_special_purpose_domains.md", "md_atom_type": "TABLE_ROW", "md_parent_section": "§ Comments (CO) > Variables (15 variables)", "md_verbatim": "| 6 | SPDEVID | Sponsor Device Identifier | Char | Identifier |", "score": 0.5491, "match_basis": "verbatim_token+global_search"}], "candidate_count": 5, "zero_candidate": false}
{"pdf_atom_id": "sv20_p0065_a003", "pdf_atom_type": "TABLE_ROW", "pdf_source": "SDTM_v2.0", "pdf_page": 65, "pdf_parent_section": "§6.1 [Related Records Dataset]", "pdf_verbatim": "7 | IDVAR | Identifying Variable | Char | | Identifier | | | | | Name of the identifying variable in the general-observation-class dataset that identifies the related record(s). | --SEQ and --GRPID | |", "figure_ref": null, "candidates": [{"md_atom_id": "md_model06_a025", "md_file": "knowledge_base/model/06_relationship_datasets.md", "md_atom_type": "TABLE_ROW", "md_parent_section": "§6.1 Related Records (RELREC)", "md_verbatim": "| 7 | IDVAR | Identifying Variable | Char | Identifier | Name of the identifying variable in the general-observation-class dataset that identifies the related record(s) |", "score": 0.8531, "match_basis": "verbatim_token+global_search"}, {"md_atom_id": "md_ch08_a076", "md_file": "knowledge_base/chapters/ch08_relationships.md", "md_atom_type": "TABLE_ROW", "md_parent_section": "§8.2.1 [Related Records (RELREC)]", "md_verbatim": "| IDVAR | Identifying Variable | Char | * | Identifier | Name of the identifying variable in the general-observation-class dataset that identifies the related record(s). Examples: --SEQ, --GRPID. | Req |", "score": 0.8324, "match_basis": "verbatim_token+global_search"}, {"md_atom_id": "md_ch08_a161", "md_file": "knowledge_base/chapters/ch08_relationships.md", "md_atom_type": "TABLE_ROW", "md_parent_section": "§8.4.1 [Supplemental Qualifiers (SUPP--)]", "md_verbatim": "| IDVAR | Identifying Variable | Char | * | Identifier | Identifying variable in the dataset that identifies the related record(s). Examples: --SEQ, --GRPID. | Exp |", "score": 0.6718, "match_basis": "verbatim_token+global_search"}, {"md_atom_id": "md_model06_a046", "md_file": "knowledge_base/model/06_relationship_datasets.md", "md_atom_type": "TABLE_ROW", "md_parent_section": "§6.2 Supplemental Qualifiers (SUPP--)", "md_verbatim": "| 7 | IDVAR | Identifying Variable | Char | Identifier | Identifying variable in the parent dataset that identifies the related record(s) |", "score": 0.6582, "match_basis": "verbatim_token+global_search"}, {"md_atom_id": "md_model06_a047", "md_file": "knowledge_base/model/06_relationship_datasets.md", "md_atom_type": "TABLE_ROW", "md_parent_section": "§6.2 Supplemental Qualifiers (SUPP--)", "md_verbatim": "| 8 | IDVARVAL | Identifying Variable Value | Char | Identifier | Value of identifying variable of the parent record(s) |", "score": 0.5366, "match_basis": "verbatim_token+global_search"}], "candidate_count": 5, "zero_candidate": false}
{"pdf_atom_id": "sv20_p0065_a004", "pdf_atom_type": "TABLE_ROW", "pdf_source": "SDTM_v2.0", "pdf_page": 65, "pdf_parent_section": "§6.1 [Related Records Dataset]", "pdf_verbatim": "8 | IDVARVAL | Identifying Variable Value | Char | | Identifier | | | | | Value of identifying variable described in IDVAR. If --SEQ is the variable being used to describe this record, then the value of --SEQ is entered here. | | |", "figure_ref": null, "candidates": [{"md_atom_id": "md_ch08_a077", "md_file": "knowledge_base/chapters/ch08_relationships.md", "md_atom_type": "TABLE_ROW", "md_parent_section": "§8.2.1 [Related Records (RELREC)]", "md_verbatim": "| IDVARVAL | Identifying Variable Value | Char | | Identifier | Value of identifying variable described in IDVAR. If --SEQ is the variable being used to describe this record, then the value of --SEQ would be entered here. | Exp |", "score": 0.8571, "match_basis": "verbatim_token+global_search"}, {"md_atom_id": "md_model06_a026", "md_file": "knowledge_base/model/06_relationship_datasets.md", "md_atom_type": "TABLE_ROW", "md_parent_section": "§6.1 Related Records (RELREC)", "md_verbatim": "| 8 | IDVARVAL | Identifying Variable Value | Char | Identifier | Value of identifying variable described in IDVAR |", "score": 0.6923, "match_basis": "verbatim_token+global_search"}, {"md_atom_id": "md_model06_a047", "md_file": "knowledge_base/model/06_relationship_datasets.md", "md_atom_type": "TABLE_ROW", "md_parent_section": "§6.2 Supplemental Qualifiers (SUPP--)", "md_verbatim": "| 8 | IDVARVAL | Identifying Variable Value | Char | Identifier | Value of identifying variable of the parent record(s) |", "score": 0.6491, "match_basis": "verbatim_token+global_search"}, {"md_atom_id": "md_ch08_a162", "md_file": "knowledge_base/chapters/ch08_relationships.md", "md_atom_type": "TABLE_ROW", "md_parent_section": "§8.4.1 [Supplemental Qualifiers (SUPP--)]", "md_verbatim": "| IDVARVAL | Identifying Variable Value | Char | | Identifier | Value of identifying variable of the parent record(s). | Exp |", "score": 0.6429, "match_basis": "verbatim_token+global_search"}, {"md_atom_id": "md_model03_a078", "md_file": "knowledge_base/model/03_special_purpose_domains.md", "md_atom_type": "TABLE_ROW", "md_parent_section": "§ Comments (CO) > Variables (15 variables)", "md_verbatim": "| 9 | IDVARVAL | Identifying Variable Value | Char | Record Qualifier |", "score": 0.6321, "match_basis": "verbatim_token+global_search"}], "candidate_count": 5, "zero_candidate": false}
{"pdf_atom_id": "sv20_p0065_a005", "pdf_atom_type": "TABLE_ROW", "pdf_source": "SDTM_v2.0", "pdf_page": 65, "pdf_parent_section": "§6.1 [Related Records Dataset]", "pdf_verbatim": "9 | RELTYPE | Relationship Type | Char | | Record Qualifier | | | | | Identifies the hierarchical level of the records in the relationship. Values should be either ONE or MANY. However, values are only necessary when identifying a relationship between datasets. | | |", "figure_ref": null, "candidates": [{"md_atom_id": "md_ch08_a078", "md_file": "knowledge_base/chapters/ch08_relationships.md", "md_atom_type": "TABLE_ROW", "md_parent_section": "§8.2.1 [Related Records (RELREC)]", "md_verbatim": "| RELTYPE | Relationship Type | Char | (RELTYPE) | Record Qualifier | Identifies the hierarchical level of the records in the relationship. Values should be either \"ONE\" or \"MANY\". Used only when identifying a relationship between datasets (as described in Section 8.3, Relating Datasets). | Exp |", "score": 0.7528, "match_basis": "verbatim_token+global_search"}, {"md_atom_id": "md_model06_a027", "md_file": "knowledge_base/model/06_relationship_datasets.md", "md_atom_type": "TABLE_ROW", "md_parent_section": "§6.1 Related Records (RELREC)", "md_verbatim": "| 9 | RELTYPE | Relationship Type | Char | Record Qualifier | Identifies the hierarchical level of the records in the relationship. Values should be either ONE or MANY. |", "score": 0.6978, "match_basis": "verbatim_token+global_search"}, {"md_atom_id": "md_ch08_a079", "md_file": "knowledge_base/chapters/ch08_relationships.md", "md_atom_type": "TABLE_ROW", "md_parent_section": "§8.2.1 [Related Records (RELREC)]", "md_verbatim": "| RELID | Relationship Identifier | Char | | Record Qualifier | Unique value within USUBJID that identifies the relationship. All records for the same USUBJID that have the same RELID are considered related/associated. RELID can be any value the sponsor chooses, and is only meaningful within the RELREC dataset to identify the related/associated domain records. | Req |", "score": 0.4804, "match_basis": "verbatim_token+global_search"}, {"md_atom_id": "md_varindex_a1284", "md_file": "knowledge_base/VARIABLE_INDEX.md", "md_atom_type": "TABLE_ROW", "md_parent_section": "§ 二、领域专属变量（仅 1 个域，共 1499 个），按域分组", "md_verbatim": "| RELID | Relationship Identifier | Char | Record Qualifier | Req | — |", "score": 0.4768, "match_basis": "verbatim_token+global_search"}, {"md_atom_id": "md_model06_a028", "md_file": "knowledge_base/model/06_relationship_datasets.md", "md_atom_type": "TABLE_ROW", "md_parent_section": "§6.1 Related Records (RELREC)", "md_verbatim": "| 10 | RELID | Relationship Identifier | Char | Record Qualifier | RELID value should be unique within the ID variable (e.g., USUBJID, APID, POOLID, SPDEVID) that is the subject of the relationship |", "score": 0.4748, "match_basis": "verbatim_token+global_search"}], "candidate_count": 5, "zero_candidate": false}
{"pdf_atom_id": "sv20_p0065_a006", "pdf_atom_type": "TABLE_ROW", "pdf_source": "SDTM_v2.0", "pdf_page": 65, "pdf_parent_section": "§6.1 [Related Records Dataset]", "pdf_verbatim": "10 | RELID | Relationship Identifier | Char | | Record Qualifier | | | | | RELID value should be unique within the ID variable (e.g., USUBJID, APID, POOLID, SPDEVID) that is the subject of the relationship. All records with this ID variable that have the same RELID are considered related/associated. RELID can be any value the sponsor chooses, and is only meaningful within the RELREC dataset to identify the related/associated Domain records. | | |", "figure_ref": null, "candidates": [{"md_atom_id": "md_ch08_a079", "md_file": "knowledge_base/chapters/ch08_relationships.md", "md_atom_type": "TABLE_ROW", "md_parent_section": "§8.2.1 [Related Records (RELREC)]", "md_verbatim": "| RELID | Relationship Identifier | Char | | Record Qualifier | Unique value within USUBJID that identifies the relationship. All records for the same USUBJID that have the same RELID are considered related/associated. RELID can be any value the sponsor chooses, and is only meaningful within the RELREC dataset to identify the related/associated domain records. | Req |", "score": 0.7763, "match_basis": "verbatim_token+global_search"}, {"md_atom_id": "md_model06_a028", "md_file": "knowledge_base/model/06_relationship_datasets.md", "md_atom_type": "TABLE_ROW", "md_parent_section": "§6.1 Related Records (RELREC)", "md_verbatim": "| 10 | RELID | Relationship Identifier | Char | Record Qualifier | RELID value should be unique within the ID variable (e.g., USUBJID, APID, POOLID, SPDEVID) that is the subject of the relationship |", "score": 0.6375, "match_basis": "verbatim_token+global_search"}, {"md_atom_id": "md_ch08_a078", "md_file": "knowledge_base/chapters/ch08_relationships.md", "md_atom_type": "TABLE_ROW", "md_parent_section": "§8.2.1 [Related Records (RELREC)]", "md_verbatim": "| RELTYPE | Relationship Type | Char | (RELTYPE) | Record Qualifier | Identifies the hierarchical level of the records in the relationship. Values should be either \"ONE\" or \"MANY\". Used only when identifying a relationship between datasets (as described in Section 8.3, Relating Datasets). | Exp |", "score": 0.4699, "match_basis": "verbatim_token+global_search"}, {"md_atom_id": "md_model06_a021", "md_file": "knowledge_base/model/06_relationship_datasets.md", "md_atom_type": "TABLE_ROW", "md_parent_section": "§6.1 Related Records (RELREC)", "md_verbatim": "| 3 | USUBJID | Unique Subject Identifier | Char | Identifier | Null for dataset-level relationships |", "score": 0.4644, "match_basis": "verbatim_token+global_search"}, {"md_atom_id": "md_model06_a025", "md_file": "knowledge_base/model/06_relationship_datasets.md", "md_atom_type": "TABLE_ROW", "md_parent_section": "§6.1 Related Records (RELREC)", "md_verbatim": "| 7 | IDVAR | Identifying Variable | Char | Identifier | Name of the identifying variable in the general-observation-class dataset that identifies the related record(s) |", "score": 0.4633, "match_basis": "verbatim_token+global_search"}], "candidate_count": 5, "zero_candidate": false}
{"pdf_atom_id": "sv20_p0065_a007", "pdf_atom_type": "HEADING", "pdf_source": "SDTM_v2.0", "pdf_page": 65, "pdf_parent_section": "§6 [DATASETS FOR REPRESENTING RELATIONSHIPS]", "pdf_verbatim": "6.2 Supplemental Qualifiers Dataset", "figure_ref": null, "candidates": [{"md_atom_id": "md_model06_a035", "md_file": "knowledge_base/model/06_relationship_datasets.md", "md_atom_type": "HEADING", "md_parent_section": "§6.2 Supplemental Qualifiers (SUPP--)", "md_verbatim": "## 6.2 Supplemental Qualifiers (SUPP--)", "score": 0.7696, "match_basis": "verbatim_token+global_search"}, {"md_atom_id": "md_ch08_a155", "md_file": "knowledge_base/chapters/ch08_relationships.md", "md_atom_type": "HEADING", "md_parent_section": "§8.4 [Relating Non-standard Variable Values to a Parent Domain]", "md_verbatim": "### 8.4.1 Supplemental Qualifiers (SUPP--)", "score": 0.7696, "match_basis": "verbatim_token+global_search"}, {"md_atom_id": "md_ch08_a199", "md_file": "knowledge_base/chapters/ch08_relationships.md", "md_atom_type": "HEADING", "md_parent_section": "§8.4 [Relating Non-standard Variable Values to a Parent Domain]", "md_verbatim": "### 8.4.4 When Not to Use Supplemental Qualifiers", "score": 0.7, "match_basis": "verbatim_token+global_search"}, {"md_atom_id": "md_dmSUPPQUAL_assn_a010", "md_file": "knowledge_base/domains/SUPPQUAL/assumptions.md", "md_atom_type": "HEADING", "md_parent_section": "§SUPPQUAL [SUPPQUAL — Assumptions]", "md_verbatim": "## When Not to Use Supplemental Qualifiers", "score": 0.7, "match_basis": "verbatim_token+global_search"}, {"md_atom_id": "md_ch08_a174", "md_file": "knowledge_base/chapters/ch08_relationships.md", "md_atom_type": "HEADING", "md_parent_section": "§8.4 [Relating Non-standard Variable Values to a Parent Domain]", "md_verbatim": "### 8.4.2 Submitting Supplemental Qualifiers in Separate Datasets", "score": 0.6632, "match_basis": "verbatim_token+global_search"}], "candidate_count": 5, "zero_candidate": false}
{"pdf_atom_id": "sv20_p0065_a008", "pdf_atom_type": "SENTENCE", "pdf_source": "SDTM_v2.0", "pdf_page": 65, "pdf_parent_section": "§6.2 [Supplemental Qualifiers Dataset]", "pdf_verbatim": "For information on the naming of supplemental qualifier datasets, see the SDTMIG, SENDIG, and SDTMIG-AP.", "figure_ref": null, "candidates": [{"md_atom_id": "md_ch03_a088", "md_file": "knowledge_base/chapters/ch03_submitting_data.md", "md_atom_type": "SENTENCE", "md_parent_section": "§3.2.1 [Dataset-level Metadata]", "md_verbatim": "Separate Supplemental Qualifier datasets of the form supp--.xpt are required.", "score": 0.5557, "match_basis": "verbatim_token+global_search"}, {"md_atom_id": "md_ch10_a062", "md_file": "knowledge_base/chapters/ch10_appendices.md", "md_atom_type": "SENTENCE", "md_parent_section": "§10.C [Controlled Terminology]", "md_verbatim": "An initial set of standard name codes for use in supplemental qualifiers (SUPP--) datasets:", "score": 0.5476, "match_basis": "verbatim_token+global_search"}, {"md_atom_id": "md_model06_a054", "md_file": "knowledge_base/model/06_relationship_datasets.md", "md_atom_type": "SENTENCE", "md_parent_section": "§6.2 Supplemental Qualifiers (SUPP--)", "md_verbatim": "Separate Supplemental Qualifier datasets of the form `supp--.xpt` are required (e.g., `suppae.xpt`, `suppcm.xpt`).", "score": 0.54, "match_basis": "verbatim_token+global_search"}, {"md_atom_id": "md_ch04_a901", "md_file": "knowledge_base/chapters/ch04_general_assumptions.md", "md_atom_type": "SENTENCE", "md_parent_section": "§4.5.3.1 [Test Name (--TEST) Greater than 40 Characters]", "md_verbatim": "This convention should also be applied to the qualifier value label (QLABEL) in Supplemental Qualifiers (SUPP--) datasets.", "score": 0.5167, "match_basis": "verbatim_token+global_search"}, {"md_atom_id": "md_dmNV_ex_a016", "md_file": "knowledge_base/domains/NV/examples.md", "md_atom_type": "SENTENCE", "md_parent_section": "§NV.1 [Example 1]", "md_verbatim": "The reference region used for the SUVR tests shown is represented in a supplemental qualifiers dataset.", "score": 0.508, "match_basis": "verbatim_token+global_search"}], "candidate_count": 5, "zero_candidate": false}
{"pdf_atom_id": "sv20_p0065_a009", "pdf_atom_type": "HEADING", "pdf_source": "SDTM_v2.0", "pdf_page": 65, "pdf_parent_section": "§6.2 [Supplemental Qualifiers Dataset]", "pdf_verbatim": "SUPP-- Dataset", "figure_ref": null, "candidates": [{"md_atom_id": "md_ch03_a021", "md_file": "knowledge_base/chapters/ch03_submitting_data.md", "md_atom_type": "HEADING", "md_parent_section": "§3.2 [Using the CDISC Domain Models in Regulatory Submissions — Dataset Metadata]", "md_verbatim": "### 3.2.1 Dataset-level Metadata", "score": 0.5143, "match_basis": "verbatim_token+global_search"}, {"md_atom_id": "md_ch02_a026", "md_file": "knowledge_base/chapters/ch02_fundamentals.md", "md_atom_type": "HEADING", "md_parent_section": "§2 [Fundamentals of the SDTM]", "md_verbatim": "## 2.2 Datasets and Domains", "score": 0.5143, "match_basis": "verbatim_token+global_search"}, {"md_atom_id": "md_dmPC_ex_a050", "md_file": "knowledge_base/domains/PC/examples.md", "md_atom_type": "HEADING", "md_parent_section": "§PC.2 [Relating PC and PP — Overview]", "md_verbatim": "### PC-PP Relating Datasets", "score": 0.5143, "match_basis": "verbatim_token+global_search"}, {"md_atom_id": "md_dmRELREC_assn_a013", "md_file": "knowledge_base/domains/RELREC/assumptions.md", "md_atom_type": "HEADING", "md_parent_section": "§RELREC [RELREC — Assumptions]", "md_verbatim": "## Relating Datasets", "score": 0.5143, "match_basis": "verbatim_token+global_search"}, {"md_atom_id": "md_ch08_a081", "md_file": "knowledge_base/chapters/ch08_relationships.md", "md_atom_type": "HEADING", "md_parent_section": "§8.2 [Relating Peer Records]", "md_verbatim": "### 8.2.2 RELREC Dataset Examples", "score": 0.4765, "match_basis": "verbatim_token+global_search"}], "candidate_count": 5, "zero_candidate": false}
{"pdf_atom_id": "sv20_p0065_a010", "pdf_atom_type": "TABLE_HEADER", "pdf_source": "SDTM_v2.0", "pdf_page": 65, "pdf_parent_section": "§6.2 [Supplemental Qualifiers Dataset]", "pdf_verbatim": "# | Variable Name | Variable Label | Type | Format | Role | Variable(s) Qualified | Usage Restrictions | Variable C-code | Definition | Notes | Examples", "figure_ref": null, "candidates": [{"md_atom_id": "md_model02_a195", "md_file": "knowledge_base/model/02_observation_classes.md", "md_atom_type": "TABLE_HEADER", "md_parent_section": "§3.1.5 > Date/Time Variables", "md_verbatim": "| # | Variable | Label | Type | Format | Notes |\n|---|----------|-------|------|--------|-------|", "score": 0.4929, "match_basis": "verbatim_token+global_search"}, {"md_atom_id": "md_ch08_a072", "md_file": "knowledge_base/chapters/ch08_relationships.md", "md_atom_type": "TABLE_HEADER", "md_parent_section": "§8.2.1 [Related Records (RELREC)]", "md_verbatim": "| Variable Name | Variable Label | Type | Controlled Terms, Codelist or Format | Role | CDISC Notes | Core |\n|--------------|----------------|------|--------------------------------------|------|-------------|------|", "score": 0.492, "match_basis": "verbatim_token+global_search"}, {"md_atom_id": "md_ch08_a157", "md_file": "knowledge_base/chapters/ch08_relationships.md", "md_atom_type": "TABLE_HEADER", "md_parent_section": "§8.4.1 [Supplemental Qualifiers (SUPP--)]", "md_verbatim": "| Variable Name | Variable Label | Type | Controlled Terms, Codelist or Format | Role | CDISC Notes | Core |\n|--------------|----------------|------|--------------------------------------|------|-------------|------|", "score": 0.492, "match_basis": "verbatim_token+global_search"}, {"md_atom_id": "md_ch08_a320", "md_file": "knowledge_base/chapters/ch08_relationships.md", "md_atom_type": "TABLE_HEADER", "md_parent_section": "§8.8 [Related Specimens (RELSPEC)]", "md_verbatim": "| Variable Name | Variable Label | Type | Controlled Terms, Codelist or Format | Role | CDISC Notes | Core |\n|--------------|----------------|------|--------------------------------------|------|-------------|------|", "score": 0.492, "match_basis": "verbatim_token+global_search"}, {"md_atom_id": "md_model04_a018", "md_file": "knowledge_base/model/04_associated_persons.md", "md_atom_type": "TABLE_HEADER", "md_parent_section": "§4 [SDTM v2.0 — Chapter 4: Associated Persons Data]", "md_verbatim": "| Variable | Label | Type | Role | Notes |\n|----------|-------|------|------|-------|", "score": 0.4714, "match_basis": "verbatim_token+global_search"}], "candidate_count": 5, "zero_candidate": false}
{"pdf_atom_id": "sv20_p0065_a011", "pdf_atom_type": "TABLE_ROW", "pdf_source": "SDTM_v2.0", "pdf_page": 65, "pdf_parent_section": "§6.2 [Supplemental Qualifiers Dataset]", "pdf_verbatim": "1 | STUDYID | Study Identifier | Char | | Identifier | | | C83082 | A sequence of characters used by the sponsor to uniquely identify the study. | | | |", "figure_ref": null, "candidates": [{"md_atom_id": "md_ch08_a073", "md_file": "knowledge_base/chapters/ch08_relationships.md", "md_atom_type": "TABLE_ROW", "md_parent_section": "§8.2.1 [Related Records (RELREC)]", "md_verbatim": "| STUDYID | Study Identifier | Char | | Identifier | Unique identifier for a study. | Req |", "score": 0.5426, "match_basis": "verbatim_token+global_search"}, {"md_atom_id": "md_ch08_a321", "md_file": "knowledge_base/chapters/ch08_relationships.md", "md_atom_type": "TABLE_ROW", "md_parent_section": "§8.8 [Related Specimens (RELSPEC)]", "md_verbatim": "| STUDYID | Study Identifier | Char | | Identifier | Unique identifier for a study. | Req |", "score": 0.5426, "match_basis": "verbatim_token+global_search"}, {"md_atom_id": "md_model02_a173", "md_file": "knowledge_base/model/02_observation_classes.md", "md_atom_type": "TABLE_ROW", "md_parent_section": "§3.1.4 Identifiers for All Classes", "md_verbatim": "| 9 | --SEQ | Sequence Number | Num | Identifier | Unique within STUDYID, USUBJID, and DOMAIN |", "score": 0.5095, "match_basis": "verbatim_token+global_search"}, {"md_atom_id": "md_model06_a019", "md_file": "knowledge_base/model/06_relationship_datasets.md", "md_atom_type": "TABLE_ROW", "md_parent_section": "§6.1 Related Records (RELREC)", "md_verbatim": "| 1 | STUDYID | Study Identifier | Char | Identifier | |", "score": 0.5, "match_basis": "verbatim_token+global_search"}, {"md_atom_id": "md_model06_a040", "md_file": "knowledge_base/model/06_relationship_datasets.md", "md_atom_type": "TABLE_ROW", "md_parent_section": "§6.2 Supplemental Qualifiers (SUPP--)", "md_verbatim": "| 1 | STUDYID | Study Identifier | Char | Identifier | |", "score": 0.5, "match_basis": "verbatim_token+global_search"}], "candidate_count": 5, "zero_candidate": false}
{"pdf_atom_id": "sv20_p0065_a012", "pdf_atom_type": "TABLE_ROW", "pdf_source": "SDTM_v2.0", "pdf_page": 65, "pdf_parent_section": "§6.2 [Supplemental Qualifiers Dataset]", "pdf_verbatim": "2 | RDOMAIN | Related Domain Abbreviation | Char | | Identifier | | | | | 2-character abbreviation for the domain of the parent record(s). | | |", "figure_ref": null, "candidates": [{"md_atom_id": "md_model06_a020", "md_file": "knowledge_base/model/06_relationship_datasets.md", "md_atom_type": "TABLE_ROW", "md_parent_section": "§6.1 Related Records (RELREC)", "md_verbatim": "| 2 | RDOMAIN | Related Domain Abbreviation | Char | Identifier | 2-character abbreviation for the domain of the parent record(s) |", "score": 0.9, "match_basis": "verbatim_token+global_search"}, {"md_atom_id": "md_model06_a041", "md_file": "knowledge_base/model/06_relationship_datasets.md", "md_atom_type": "TABLE_ROW", "md_parent_section": "§6.2 Supplemental Qualifiers (SUPP--)", "md_verbatim": "| 2 | RDOMAIN | Related Domain Abbreviation | Char | Identifier | 2-character abbreviation for the domain of the parent record(s) |", "score": 0.9, "match_basis": "verbatim_token+global_search"}, {"md_atom_id": "md_ch08_a159", "md_file": "knowledge_base/chapters/ch08_relationships.md", "md_atom_type": "TABLE_ROW", "md_parent_section": "§8.4.1 [Supplemental Qualifiers (SUPP--)]", "md_verbatim": "| RDOMAIN | Related Domain Abbreviation | Char | (DOMAIN) | Identifier | Two-character abbreviation for the domain of the parent record(s). | Req |", "score": 0.8739, "match_basis": "verbatim_token+global_search"}, {"md_atom_id": "md_ch08_a074", "md_file": "knowledge_base/chapters/ch08_relationships.md", "md_atom_type": "TABLE_ROW", "md_parent_section": "§8.2.1 [Related Records (RELREC)]", "md_verbatim": "| RDOMAIN | Related Domain Abbreviation | Char | (DOMAIN) | Identifier | Abbreviation for the domain of the parent record(s). | Req |", "score": 0.82, "match_basis": "verbatim_token+global_search"}, {"md_atom_id": "md_model02_a166", "md_file": "knowledge_base/model/02_observation_classes.md", "md_atom_type": "TABLE_ROW", "md_parent_section": "§3.1.4 Identifiers for All Classes", "md_verbatim": "| 2 | DOMAIN | Domain Abbreviation | Char | Identifier | Two-character abbreviation for the domain |", "score": 0.7133, "match_basis": "verbatim_token+global_search"}], "candidate_count": 5, "zero_candidate": false}
{"pdf_atom_id": "sv20_p0065_a013", "pdf_atom_type": "TABLE_ROW", "pdf_source": "SDTM_v2.0", "pdf_page": 65, "pdf_parent_section": "§6.2 [Supplemental Qualifiers Dataset]", "pdf_verbatim": "3 | USUBJID | Unique Subject Identifier | Char | | Identifier | | | C69256 | A sequence of characters used to uniquely identify a subject across all studies for all applications or submissions involving the product. | | | |", "figure_ref": null, "candidates": [{"md_atom_id": "md_ch08_a075", "md_file": "knowledge_base/chapters/ch08_relationships.md", "md_atom_type": "TABLE_ROW", "md_parent_section": "§8.2.1 [Related Records (RELREC)]", "md_verbatim": "| USUBJID | Unique Subject Identifier | Char | | Identifier | Identifier used to uniquely identify a subject across all studies for all applications or submissions involving the product. | Exp |", "score": 0.7843, "match_basis": "verbatim_token+global_search"}, {"md_atom_id": "md_ch08_a322", "md_file": "knowledge_base/chapters/ch08_relationships.md", "md_atom_type": "TABLE_ROW", "md_parent_section": "§8.8 [Related Specimens (RELSPEC)]", "md_verbatim": "| USUBJID | Unique Subject Identifier | Char | | Identifier | Identifier used to uniquely identify a subject across all studies for all applications or submissions involving the product. | Req |", "score": 0.7843, "match_basis": "verbatim_token+global_search"}, {"md_atom_id": "md_ch08_a160", "md_file": "knowledge_base/chapters/ch08_relationships.md", "md_atom_type": "TABLE_ROW", "md_parent_section": "§8.4.1 [Supplemental Qualifiers (SUPP--)]", "md_verbatim": "| USUBJID | Unique Subject Identifier | Char | | Identifier | Identifier used to uniquely identify a subject across all studies for all applications or submissions involving the product. This is the value of USUBJID in the parent record(s). | Req |", "score": 0.7232, "match_basis": "verbatim_token+global_search"}, {"md_atom_id": "md_model02_a167", "md_file": "knowledge_base/model/02_observation_classes.md", "md_atom_type": "TABLE_ROW", "md_parent_section": "§3.1.4 Identifiers for All Classes", "md_verbatim": "| 3 | USUBJID | Unique Subject Identifier | Char | Identifier | Unique identifier for a subject across all studies for the submission |", "score": 0.6, "match_basis": "verbatim_token+global_search"}, {"md_atom_id": "md_ch04_a203", "md_file": "knowledge_base/chapters/ch04_general_assumptions.md", "md_atom_type": "SENTENCE", "md_parent_section": "§4.2.3 [Use of \"Subject\" and USUBJID]", "md_verbatim": "To identify a subject uniquely across all studies for all applications or submissions involving the product, a unique identifier (USUBJID) should be assigned and included in all datasets.", "score": 0.4835, "match_basis": "verbatim_token+global_search"}], "candidate_count": 5, "zero_candidate": false}
{"pdf_atom_id": "sv20_p0065_a014", "pdf_atom_type": "TABLE_ROW", "pdf_source": "SDTM_v2.0", "pdf_page": 65, "pdf_parent_section": "§6.2 [Supplemental Qualifiers Dataset]", "pdf_verbatim": "4 | APID | Associated Persons Identifier | Char | | Identifier | | | | | Identifier for a single associated person, a group of associated persons, or a pool of associated persons. If APID identifies a pool, POOLDEF records must exist for each associated person (see Section 6.3, Pool Definition Dataset, and Section 4, Associated Persons Data). | | |", "figure_ref": null, "candidates": [{"md_atom_id": "md_model04_a019", "md_file": "knowledge_base/model/04_associated_persons.md", "md_atom_type": "TABLE_ROW", "md_parent_section": "§4 [SDTM v2.0 — Chapter 4: Associated Persons Data]", "md_verbatim": "| APID | Associated Persons Identifier | Char | Identifier | Identifier for a single associated person, a group of associated persons, or a pool of associated persons. If APID identifies a pool, POOLDEF records must exist for each associated person (see Section 6.3, Pool Definition Dataset, and Section 4, Associated Persons Data). |", "score": 0.9, "match_basis": "verbatim_token+global_search"}, {"md_atom_id": "md_model06_a022", "md_file": "knowledge_base/model/06_relationship_datasets.md", "md_atom_type": "TABLE_ROW", "md_parent_section": "§6.1 Related Records (RELREC)", "md_verbatim": "| 4 | APID | Associated Persons Identifier | Char | Identifier | Identifier for a single associated person, a group, or a pool of associated persons |", "score": 0.6088, "match_basis": "verbatim_token+global_search"}, {"md_atom_id": "md_model06_a043", "md_file": "knowledge_base/model/06_relationship_datasets.md", "md_atom_type": "TABLE_ROW", "md_parent_section": "§6.2 Supplemental Qualifiers (SUPP--)", "md_verbatim": "| 4 | APID | Associated Persons Identifier | Char | Identifier | |", "score": 0.5206, "match_basis": "verbatim_token+global_search"}, {"md_atom_id": "md_model06_a063", "md_file": "knowledge_base/model/06_relationship_datasets.md", "md_atom_type": "TABLE_ROW", "md_parent_section": "§6.3 Pool Definition (POOLDEF)", "md_verbatim": "| 4 | APID | Associated Persons Identifier | Char | Identifier |", "score": 0.5206, "match_basis": "verbatim_token+global_search"}, {"md_atom_id": "md_model06_a086", "md_file": "knowledge_base/model/06_relationship_datasets.md", "md_atom_type": "TABLE_ROW", "md_parent_section": "§6.6 Associated Persons Related Subjects (APRELSUB)", "md_verbatim": "| 2 | APID | Associated Person Identifier | Char | Identifier |", "score": 0.5118, "match_basis": "verbatim_token+global_search"}], "candidate_count": 5, "zero_candidate": false}
{"pdf_atom_id": "sv20_p0066_a001", "pdf_atom_type": "TABLE_ROW", "pdf_source": "SDTM_v2.0", "pdf_page": 66, "pdf_parent_section": "§6.2 [Supplemental Qualifiers Dataset]", "pdf_verbatim": "5 | POOLID | Pool Identifier | Char | | Identifier | | | | | A sequence of characters used to uniquely identify a group of subjects that have been pooled together. | | |", "figure_ref": null, "candidates": [{"md_atom_id": "md_model06_a023", "md_file": "knowledge_base/model/06_relationship_datasets.md", "md_atom_type": "TABLE_ROW", "md_parent_section": "§6.1 Related Records (RELREC)", "md_verbatim": "| 5 | POOLID | Pool Identifier | Char | Identifier | For pooled subject data |", "score": 0.51, "match_basis": "verbatim_token+global_search"}, {"md_atom_id": "md_model06_a042", "md_file": "knowledge_base/model/06_relationship_datasets.md", "md_atom_type": "TABLE_ROW", "md_parent_section": "§6.2 Supplemental Qualifiers (SUPP--)", "md_verbatim": "| 3 | USUBJID | Unique Subject Identifier | Char | Identifier | |", "score": 0.49, "match_basis": "verbatim_token+global_search"}, {"md_atom_id": "md_model06_a062", "md_file": "knowledge_base/model/06_relationship_datasets.md", "md_atom_type": "TABLE_ROW", "md_parent_section": "§6.3 Pool Definition (POOLDEF)", "md_verbatim": "| 3 | USUBJID | Unique Subject Identifier | Char | Identifier |", "score": 0.49, "match_basis": "verbatim_token+global_search"}, {"md_atom_id": "md_model06_a069", "md_file": "knowledge_base/model/06_relationship_datasets.md", "md_atom_type": "TABLE_ROW", "md_parent_section": "§6.4 Related Subjects (RELSUB)", "md_verbatim": "| 2 | USUBJID | Unique Subject Identifier | Char | Identifier |", "score": 0.49, "match_basis": "verbatim_token+global_search"}, {"md_atom_id": "md_model06_a079", "md_file": "knowledge_base/model/06_relationship_datasets.md", "md_atom_type": "TABLE_ROW", "md_parent_section": "§6.5 Device-subject Relationships (DR)", "md_verbatim": "| 3 | USUBJID | Unique Subject Identifier | Char | Identifier |", "score": 0.49, "match_basis": "verbatim_token+global_search"}], "candidate_count": 5, "zero_candidate": false}
{"pdf_atom_id": "sv20_p0066_a002", "pdf_atom_type": "TABLE_ROW", "pdf_source": "SDTM_v2.0", "pdf_page": 66, "pdf_parent_section": "§6.2 [Supplemental Qualifiers Dataset]", "pdf_verbatim": "6 | SPDEVID | Sponsor Device Identifier | Char | | Identifier | | | C117060 | A sequence of characters used by the sponsor to uniquely identify a specific device. | | | |", "figure_ref": null, "candidates": [{"md_atom_id": "md_model06_a024", "md_file": "knowledge_base/model/06_relationship_datasets.md", "md_atom_type": "TABLE_ROW", "md_parent_section": "§6.1 Related Records (RELREC)", "md_verbatim": "| 6 | SPDEVID | Sponsor Device Identifier | Char | Identifier | |", "score": 0.5491, "match_basis": "verbatim_token+global_search"}, {"md_atom_id": "md_model06_a045", "md_file": "knowledge_base/model/06_relationship_datasets.md", "md_atom_type": "TABLE_ROW", "md_parent_section": "§6.2 Supplemental Qualifiers (SUPP--)", "md_verbatim": "| 6 | SPDEVID | Sponsor Device Identifier | Char | Identifier | |", "score": 0.5491, "match_basis": "verbatim_token+global_search"}, {"md_atom_id": "md_model06_a080", "md_file": "knowledge_base/model/06_relationship_datasets.md", "md_atom_type": "TABLE_ROW", "md_parent_section": "§6.5 Device-subject Relationships (DR)", "md_verbatim": "| 4 | SPDEVID | Sponsor Device Identifier | Char | Identifier |", "score": 0.5491, "match_basis": "verbatim_token+global_search"}, {"md_atom_id": "md_model02_a169", "md_file": "knowledge_base/model/02_observation_classes.md", "md_atom_type": "TABLE_ROW", "md_parent_section": "§3.1.4 Identifiers for All Classes", "md_verbatim": "| 5 | SPDEVID | Sponsor Device Identifier | Char | Identifier | |", "score": 0.5491, "match_basis": "verbatim_token+global_search"}, {"md_atom_id": "md_model03_a075", "md_file": "knowledge_base/model/03_special_purpose_domains.md", "md_atom_type": "TABLE_ROW", "md_parent_section": "§ Comments (CO) > Variables (15 variables)", "md_verbatim": "| 6 | SPDEVID | Sponsor Device Identifier | Char | Identifier |", "score": 0.5491, "match_basis": "verbatim_token+global_search"}], "candidate_count": 5, "zero_candidate": false}
{"pdf_atom_id": "sv20_p0066_a003", "pdf_atom_type": "TABLE_ROW", "pdf_source": "SDTM_v2.0", "pdf_page": 66, "pdf_parent_section": "§6.2 [Supplemental Qualifiers Dataset]", "pdf_verbatim": "7 | IDVAR | Identifying Variable | Char | | Identifier | | | | | Identifying variable in the parent dataset that identifies the related record(s). | --SEQ, --GRPID | |", "figure_ref": null, "candidates": [{"md_atom_id": "md_model06_a046", "md_file": "knowledge_base/model/06_relationship_datasets.md", "md_atom_type": "TABLE_ROW", "md_parent_section": "§6.2 Supplemental Qualifiers (SUPP--)", "md_verbatim": "| 7 | IDVAR | Identifying Variable | Char | Identifier | Identifying variable in the parent dataset that identifies the related record(s) |", "score": 0.8489, "match_basis": "verbatim_token+global_search"}, {"md_atom_id": "md_ch08_a161", "md_file": "knowledge_base/chapters/ch08_relationships.md", "md_atom_type": "TABLE_ROW", "md_parent_section": "§8.4.1 [Supplemental Qualifiers (SUPP--)]", "md_verbatim": "| IDVAR | Identifying Variable | Char | * | Identifier | Identifying variable in the dataset that identifies the related record(s). Examples: --SEQ, --GRPID. | Exp |", "score": 0.7889, "match_basis": "verbatim_token+global_search"}, {"md_atom_id": "md_model06_a025", "md_file": "knowledge_base/model/06_relationship_datasets.md", "md_atom_type": "TABLE_ROW", "md_parent_section": "§6.1 Related Records (RELREC)", "md_verbatim": "| 7 | IDVAR | Identifying Variable | Char | Identifier | Name of the identifying variable in the general-observation-class dataset that identifies the related record(s) |", "score": 0.6636, "match_basis": "verbatim_token+global_search"}, {"md_atom_id": "md_ch08_a076", "md_file": "knowledge_base/chapters/ch08_relationships.md", "md_atom_type": "TABLE_ROW", "md_parent_section": "§8.2.1 [Related Records (RELREC)]", "md_verbatim": "| IDVAR | Identifying Variable | Char | * | Identifier | Name of the identifying variable in the general-observation-class dataset that identifies the related record(s). Examples: --SEQ, --GRPID. | Req |", "score": 0.6616, "match_basis": "verbatim_token+global_search"}, {"md_atom_id": "md_model06_a047", "md_file": "knowledge_base/model/06_relationship_datasets.md", "md_atom_type": "TABLE_ROW", "md_parent_section": "§6.2 Supplemental Qualifiers (SUPP--)", "md_verbatim": "| 8 | IDVARVAL | Identifying Variable Value | Char | Identifier | Value of identifying variable of the parent record(s) |", "score": 0.6462, "match_basis": "verbatim_token+global_search"}], "candidate_count": 5, "zero_candidate": false}
{"pdf_atom_id": "sv20_p0066_a004", "pdf_atom_type": "TABLE_ROW", "pdf_source": "SDTM_v2.0", "pdf_page": 66, "pdf_parent_section": "§6.2 [Supplemental Qualifiers Dataset]", "pdf_verbatim": "8 | IDVARVAL | Identifying Variable Value | Char | | Identifier | | | | | Value of identifying variable of the parent record(s). | | |", "figure_ref": null, "candidates": [{"md_atom_id": "md_model06_a047", "md_file": "knowledge_base/model/06_relationship_datasets.md", "md_atom_type": "TABLE_ROW", "md_parent_section": "§6.2 Supplemental Qualifiers (SUPP--)", "md_verbatim": "| 8 | IDVARVAL | Identifying Variable Value | Char | Identifier | Value of identifying variable of the parent record(s) |", "score": 0.9, "match_basis": "verbatim_token+global_search"}, {"md_atom_id": "md_ch08_a162", "md_file": "knowledge_base/chapters/ch08_relationships.md", "md_atom_type": "TABLE_ROW", "md_parent_section": "§8.4.1 [Supplemental Qualifiers (SUPP--)]", "md_verbatim": "| IDVARVAL | Identifying Variable Value | Char | | Identifier | Value of identifying variable of the parent record(s). | Exp |", "score": 0.8833, "match_basis": "verbatim_token+global_search"}, {"md_atom_id": "md_model03_a078", "md_file": "knowledge_base/model/03_special_purpose_domains.md", "md_atom_type": "TABLE_ROW", "md_parent_section": "§ Comments (CO) > Variables (15 variables)", "md_verbatim": "| 9 | IDVARVAL | Identifying Variable Value | Char | Record Qualifier |", "score": 0.7769, "match_basis": "verbatim_token+global_search"}, {"md_atom_id": "md_model03_a077", "md_file": "knowledge_base/model/03_special_purpose_domains.md", "md_atom_type": "TABLE_ROW", "md_parent_section": "§ Comments (CO) > Variables (15 variables)", "md_verbatim": "| 8 | IDVAR | Identifying Variable | Char | Record Qualifier |", "score": 0.7, "match_basis": "verbatim_token+global_search"}, {"md_atom_id": "md_varindex_a027", "md_file": "knowledge_base/VARIABLE_INDEX.md", "md_atom_type": "TABLE_ROW", "md_parent_section": "§ 一、通用变量（出现在 2+ 个域，共 24 个）", "md_verbatim": "| IDVARVAL | 3 | CO, RELREC, SUPPQUAL | Identifying Variable Value | Char | Record Qualifier* | Exp* |", "score": 0.6957, "match_basis": "verbatim_token+global_search"}], "candidate_count": 5, "zero_candidate": false}
{"pdf_atom_id": "sv20_p0066_a005", "pdf_atom_type": "TABLE_ROW", "pdf_source": "SDTM_v2.0", "pdf_page": 66, "pdf_parent_section": "§6.2 [Supplemental Qualifiers Dataset]", "pdf_verbatim": "9 | QNAM | Qualifier Variable Name | Char | | Topic | | | | | The short name of the qualifier variable, which is used as a column name in a domain view with data from the parent domain. The value in QNAM cannot be longer than 8 characters, nor can it start with a number (e.g., \"1TEST\"). QNAM cannot contain characters other than letters, numbers, or underscores. This will often be the column name in the sponsor's operational dataset. QNAM should not be the name of any standard ADaM variable. | | |", "figure_ref": null, "candidates": [{"md_atom_id": "md_ch08_a163", "md_file": "knowledge_base/chapters/ch08_relationships.md", "md_atom_type": "TABLE_ROW", "md_parent_section": "§8.4.1 [Supplemental Qualifiers (SUPP--)]", "md_verbatim": "| QNAM | Qualifier Variable Name | Char | * | Topic | The short name of the qualifier variable, which is used as a column name in a domain view with data from the parent domain. The value in QNAM cannot be longer than 8 characters, nor can it start with a number (e.g., \"1TEST\" is not valid). QNAM cannot contain characters other than letters, numbers, or underscores. This will often be the column name in the sponsor's operational dataset. | Req |", "score": 0.8418, "match_basis": "verbatim_token+global_search"}, {"md_atom_id": "md_ch08_a164", "md_file": "knowledge_base/chapters/ch08_relationships.md", "md_atom_type": "TABLE_ROW", "md_parent_section": "§8.4.1 [Supplemental Qualifiers (SUPP--)]", "md_verbatim": "| QLABEL | Qualifier Variable Label | Char | | Synonym Qualifier | This is the long name or label associated with QNAM. The value in QLABEL cannot be longer than 40 characters. This will often be the column label in the sponsor's original dataset. | Req |", "score": 0.54, "match_basis": "verbatim_token+global_search"}, {"md_atom_id": "md_ch08_a079", "md_file": "knowledge_base/chapters/ch08_relationships.md", "md_atom_type": "TABLE_ROW", "md_parent_section": "§8.2.1 [Related Records (RELREC)]", "md_verbatim": "| RELID | Relationship Identifier | Char | | Record Qualifier | Unique value within USUBJID that identifies the relationship. All records for the same USUBJID that have the same RELID are considered related/associated. RELID can be any value the sponsor chooses, and is only meaningful within the RELREC dataset to identify the related/associated domain records. | Req |", "score": 0.4316, "match_basis": "verbatim_token+global_search"}, {"md_atom_id": "md_ch08_a265", "md_file": "knowledge_base/chapters/ch08_relationships.md", "md_atom_type": "TABLE_ROW", "md_parent_section": "§8.6.3 [Guidelines for Differentiating Between Interventions, Events, Findings, and Findings About Events or Interventions]", "md_verbatim": "| Does this data meet the criteria for representation in a Questionnaires, Ratings, and Scales (QRS) domain? | The criteria for QRS are available at: https://www.cdisc.org/foundational/qrs. There are many standard questionnaires and rating scales that collect information about symptoms. The fact that these data are findings about symptoms does not mean that the data should be represented in FA rather than a QRS domain (QS, FT, or RS). Data about symptoms may be collected in a format that is usually associated with questionnaires and rating scales (e.g., visual analog scale). This format alone does not mean that the data should be represented in a QRS domain. |", "score": 0.4237, "match_basis": "verbatim_token+global_search"}, {"md_atom_id": "md_model06_a048", "md_file": "knowledge_base/model/06_relationship_datasets.md", "md_atom_type": "TABLE_ROW", "md_parent_section": "§6.2 Supplemental Qualifiers (SUPP--)", "md_verbatim": "| 9 | QNAM | Qualifier Variable Name | Char | Topic | 8-character name for the supplemental qualifier |", "score": 0.4234, "match_basis": "verbatim_token+global_search"}], "candidate_count": 5, "zero_candidate": false}
{"pdf_atom_id": "sv20_p0066_a006", "pdf_atom_type": "TABLE_ROW", "pdf_source": "SDTM_v2.0", "pdf_page": 66, "pdf_parent_section": "§6.2 [Supplemental Qualifiers Dataset]", "pdf_verbatim": "10 | QLABEL | Qualifier Variable Label | Char | | Synonym Qualifier | QNAM | | | | This is the long name or label associated with QNAM. The value in QLABEL cannot be longer than 40 characters. This will often be the column label in the sponsor's original dataset. | | |", "figure_ref": null, "candidates": [{"md_atom_id": "md_ch08_a164", "md_file": "knowledge_base/chapters/ch08_relationships.md", "md_atom_type": "TABLE_ROW", "md_parent_section": "§8.4.1 [Supplemental Qualifiers (SUPP--)]", "md_verbatim": "| QLABEL | Qualifier Variable Label | Char | | Synonym Qualifier | This is the long name or label associated with QNAM. The value in QLABEL cannot be longer than 40 characters. This will often be the column label in the sponsor's original dataset. | Req |", "score": 0.8929, "match_basis": "verbatim_token+global_search"}, {"md_atom_id": "md_ch08_a163", "md_file": "knowledge_base/chapters/ch08_relationships.md", "md_atom_type": "TABLE_ROW", "md_parent_section": "§8.4.1 [Supplemental Qualifiers (SUPP--)]", "md_verbatim": "| QNAM | Qualifier Variable Name | Char | * | Topic | The short name of the qualifier variable, which is used as a column name in a domain view with data from the parent domain. The value in QNAM cannot be longer than 8 characters, nor can it start with a number (e.g., \"1TEST\" is not valid). QNAM cannot contain characters other than letters, numbers, or underscores. This will often be the column name in the sponsor's operational dataset. | Req |", "score": 0.5566, "match_basis": "verbatim_token+global_search"}, {"md_atom_id": "md_model06_a049", "md_file": "knowledge_base/model/06_relationship_datasets.md", "md_atom_type": "TABLE_ROW", "md_parent_section": "§6.2 Supplemental Qualifiers (SUPP--)", "md_verbatim": "| 10 | QLABEL | Qualifier Variable Label | Char | Synonym Qualifier | Human-readable label associated with QNAM |", "score": 0.5374, "match_basis": "verbatim_token+global_search"}, {"md_atom_id": "md_ch08_a165", "md_file": "knowledge_base/chapters/ch08_relationships.md", "md_atom_type": "TABLE_ROW", "md_parent_section": "§8.4.1 [Supplemental Qualifiers (SUPP--)]", "md_verbatim": "| QVAL | Data Value | Char | | Result Qualifier | Result of, response to, or value associated with QNAM. A value for this column is required; no records can be in SUPP-- with a null value for QVAL. | Req |", "score": 0.5019, "match_basis": "verbatim_token+global_search"}, {"md_atom_id": "md_varindex_a1485", "md_file": "knowledge_base/VARIABLE_INDEX.md", "md_atom_type": "TABLE_ROW", "md_parent_section": "§ 二、领域专属变量（仅 1 个域，共 1499 个），按域分组", "md_verbatim": "| QLABEL | Qualifier Variable Label | Char | Synonym Qualifier | Req | — |", "score": 0.4694, "match_basis": "verbatim_token+global_search"}], "candidate_count": 5, "zero_candidate": false}
{"pdf_atom_id": "sv20_p0066_a007", "pdf_atom_type": "TABLE_ROW", "pdf_source": "SDTM_v2.0", "pdf_page": 66, "pdf_parent_section": "§6.2 [Supplemental Qualifiers Dataset]", "pdf_verbatim": "11 | QVAL | Data Value | Char | | Result Qualifier | | | | | Result of, response to, or value associated with QNAM. A value for this column is required; no records can be in a SUPP-- dataset with a null value for QVAL. | | |", "figure_ref": null, "candidates": [{"md_atom_id": "md_ch08_a165", "md_file": "knowledge_base/chapters/ch08_relationships.md", "md_atom_type": "TABLE_ROW", "md_parent_section": "§8.4.1 [Supplemental Qualifiers (SUPP--)]", "md_verbatim": "| QVAL | Data Value | Char | | Result Qualifier | Result of, response to, or value associated with QNAM. A value for this column is required; no records can be in SUPP-- with a null value for QVAL. | Req |", "score": 0.871, "match_basis": "verbatim_token+global_search"}, {"md_atom_id": "md_ch08_a164", "md_file": "knowledge_base/chapters/ch08_relationships.md", "md_atom_type": "TABLE_ROW", "md_parent_section": "§8.4.1 [Supplemental Qualifiers (SUPP--)]", "md_verbatim": "| QLABEL | Qualifier Variable Label | Char | | Synonym Qualifier | This is the long name or label associated with QNAM. The value in QLABEL cannot be longer than 40 characters. This will often be the column label in the sponsor's original dataset. | Req |", "score": 0.5243, "match_basis": "verbatim_token+global_search"}, {"md_atom_id": "md_varindex_a1486", "md_file": "knowledge_base/VARIABLE_INDEX.md", "md_atom_type": "TABLE_ROW", "md_parent_section": "§ 二、领域专属变量（仅 1 个域，共 1499 个），按域分组", "md_verbatim": "| QVAL | Data Value | Char | Result Qualifier | Req | — |", "score": 0.4935, "match_basis": "verbatim_token+global_search"}, {"md_atom_id": "md_ch08_a079", "md_file": "knowledge_base/chapters/ch08_relationships.md", "md_atom_type": "TABLE_ROW", "md_parent_section": "§8.2.1 [Related Records (RELREC)]", "md_verbatim": "| RELID | Relationship Identifier | Char | | Record Qualifier | Unique value within USUBJID that identifies the relationship. All records for the same USUBJID that have the same RELID are considered related/associated. RELID can be any value the sponsor chooses, and is only meaningful within the RELREC dataset to identify the related/associated domain records. | Req |", "score": 0.486, "match_basis": "verbatim_token+global_search"}, {"md_atom_id": "md_model06_a050", "md_file": "knowledge_base/model/06_relationship_datasets.md", "md_atom_type": "TABLE_ROW", "md_parent_section": "§6.2 Supplemental Qualifiers (SUPP--)", "md_verbatim": "| 11 | QVAL | Data Value | Char | Result Qualifier | The actual data value |", "score": 0.4727, "match_basis": "verbatim_token+global_search"}], "candidate_count": 5, "zero_candidate": false}
{"pdf_atom_id": "sv20_p0066_a008", "pdf_atom_type": "TABLE_ROW", "pdf_source": "SDTM_v2.0", "pdf_page": 66, "pdf_parent_section": "§6.2 [Supplemental Qualifiers Dataset]", "pdf_verbatim": "12 | QORIG | Origin | Char | | Record Qualifier | | | | | Because QVAL can represent a mixture of collected (on a CRF), derived, or assigned items, QORIG is used to indicate the origin of this data. | | |", "figure_ref": null, "candidates": [{"md_atom_id": "md_ch08_a166", "md_file": "knowledge_base/chapters/ch08_relationships.md", "md_atom_type": "TABLE_ROW", "md_parent_section": "§8.4.1 [Supplemental Qualifiers (SUPP--)]", "md_verbatim": "| QORIG | Origin | Char | | Record Qualifier | Because QVAL can represent a mixture of collected (on a CRF), derived, or assigned items, QORIG is used to indicate the origin of this data. Examples: \"CRF\", \"Assigned\", \"Derived\". See Section 4.1.8, Origin Metadata. | Req |", "score": 0.7909, "match_basis": "verbatim_token+global_search"}, {"md_atom_id": "md_model06_a051", "md_file": "knowledge_base/model/06_relationship_datasets.md", "md_atom_type": "TABLE_ROW", "md_parent_section": "§6.2 Supplemental Qualifiers (SUPP--)", "md_verbatim": "| 12 | QORIG | Origin | Char | Record Qualifier | Source of the data: \"CRF\", \"ASSIGNED\", \"DERIVED\" |", "score": 0.5605, "match_basis": "verbatim_token+global_search"}, {"md_atom_id": "md_model02_a135", "md_file": "knowledge_base/model/02_observation_classes.md", "md_atom_type": "TABLE_ROW", "md_parent_section": "§3.1.3 > Topic and Qualifier Variables (100 variables)", "md_verbatim": "| --ORRES | Result or Finding in Original Units | Char | Result Qualifier | Original collected result |", "score": 0.4624, "match_basis": "verbatim_token+global_search"}, {"md_atom_id": "md_varindex_a220", "md_file": "knowledge_base/VARIABLE_INDEX.md", "md_atom_type": "TABLE_ROW", "md_parent_section": "§ 二、领域专属变量（仅 1 个域，共 1499 个），按域分组", "md_verbatim": "| CMREASND | Reason Medication Not Collected | Char | Record Qualifier | Perm | — |", "score": 0.4568, "match_basis": "verbatim_token+global_search"}, {"md_atom_id": "md_varindex_a302", "md_file": "knowledge_base/VARIABLE_INDEX.md", "md_atom_type": "TABLE_ROW", "md_parent_section": "§ 二、领域专属变量（仅 1 个域，共 1499 个），按域分组", "md_verbatim": "| CPCLSIG | Clinically Significant, Collected | Char | Record Qualifier | Perm | C66742 |", "score": 0.4548, "match_basis": "verbatim_token+global_search"}], "candidate_count": 5, "zero_candidate": false}
{"pdf_atom_id": "sv20_p0066_a009", "pdf_atom_type": "TABLE_ROW", "pdf_source": "SDTM_v2.0", "pdf_page": 66, "pdf_parent_section": "§6.2 [Supplemental Qualifiers Dataset]", "pdf_verbatim": "13 | QEVAL | Evaluator | Char | | Record Qualifier | | | | | Used only for results that are subjective (e.g., assigned by a person or a group). Should be null for records that contain objectively collected or derived data. | \"ADJUDICATION COMMITTEE\", \"STATISTICIAN\", \"DATABASE ADMINISTRATOR\", \"CLINICAL COORDINATOR\" | |", "figure_ref": null, "candidates": [{"md_atom_id": "md_ch08_a167", "md_file": "knowledge_base/chapters/ch08_relationships.md", "md_atom_type": "TABLE_ROW", "md_parent_section": "§8.4.1 [Supplemental Qualifiers (SUPP--)]", "md_verbatim": "| QEVAL | Evaluator | Char | (EVAL) | Record Qualifier | Used only for results that are subjective (e.g., assigned by a person or a group). Should be null for records that contain objectively collected or derived data. Examples: \"ADJUDICATION COMMITTEE\", \"STATISTICIAN\", \"DATABASE ADMINISTRATOR\", \"CLINICAL COORDINATOR\". | Exp |", "score": 0.8693, "match_basis": "verbatim_token+global_search"}, {"md_atom_id": "md_ch08_a166", "md_file": "knowledge_base/chapters/ch08_relationships.md", "md_atom_type": "TABLE_ROW", "md_parent_section": "§8.4.1 [Supplemental Qualifiers (SUPP--)]", "md_verbatim": "| QORIG | Origin | Char | | Record Qualifier | Because QVAL can represent a mixture of collected (on a CRF), derived, or assigned items, QORIG is used to indicate the origin of this data. Examples: \"CRF\", \"Assigned\", \"Derived\". See Section 4.1.8, Origin Metadata. | Req |", "score": 0.4474, "match_basis": "verbatim_token+global_search"}, {"md_atom_id": "md_model02_a043", "md_file": "knowledge_base/model/02_observation_classes.md", "md_atom_type": "TABLE_ROW", "md_parent_section": "§3.1.1 > Topic and Qualifier Variables (43 variables)", "md_verbatim": "| 28 | --LOC | Location of Administration | Char | Record Qualifier | \"ARM\" for an injection site |", "score": 0.4314, "match_basis": "verbatim_token+global_search"}, {"md_atom_id": "md_model02_a057", "md_file": "knowledge_base/model/02_observation_classes.md", "md_atom_type": "TABLE_ROW", "md_parent_section": "§3.1.1 > Topic and Qualifier Variables (43 variables)", "md_verbatim": "| 42 | --RSTIND | Restraint Indicator | Char | Record Qualifier | Whether animal subject was restrained. Not in human clinical trials |", "score": 0.4308, "match_basis": "verbatim_token+global_search"}, {"md_atom_id": "md_model02_a044", "md_file": "knowledge_base/model/02_observation_classes.md", "md_atom_type": "TABLE_ROW", "md_parent_section": "§3.1.1 > Topic and Qualifier Variables (43 variables)", "md_verbatim": "| 29 | --METHOD | Method of Administration | Char | Record Qualifier | \"INFUSION\", \"INTRAVENOUS\". Not in human clinical trials; EX domain only |", "score": 0.4253, "match_basis": "verbatim_token+global_search"}], "candidate_count": 5, "zero_candidate": false}
{"pdf_atom_id": "sv20_p0067_a001", "pdf_atom_type": "HEADING", "pdf_source": "SDTM_v2.0", "pdf_page": 67, "pdf_parent_section": "§6 [DATASETS FOR REPRESENTING RELATIONSHIPS]", "pdf_verbatim": "6.3 Pool Definition Dataset", "figure_ref": null, "candidates": [{"md_atom_id": "md_model06_a056", "md_file": "knowledge_base/model/06_relationship_datasets.md", "md_atom_type": "HEADING", "md_parent_section": "§6.3 Pool Definition (POOLDEF)", "md_verbatim": "## 6.3 Pool Definition (POOLDEF)", "score": 0.6529, "match_basis": "verbatim_token+global_search"}, {"md_atom_id": "md_ch04_a041", "md_file": "knowledge_base/chapters/ch04_general_assumptions.md", "md_atom_type": "HEADING", "md_parent_section": "§4.1 [General Domain Assumptions]", "md_verbatim": "### 4.1.6 Additional Guidance on Dataset Naming", "score": 0.46, "match_basis": "verbatim_token+global_search"}, {"md_atom_id": "md_dmRELREC_ex_a033", "md_file": "knowledge_base/domains/RELREC/examples.md", "md_atom_type": "HEADING", "md_parent_section": "§RELREC [RELREC — Examples]", "md_verbatim": "## Dataset Relationship Example", "score": 0.45, "match_basis": "verbatim_token+global_search"}, {"md_atom_id": "md_model06_a101", "md_file": "knowledge_base/model/06_relationship_datasets.md", "md_atom_type": "HEADING", "md_parent_section": "§ Summary of Relationship Datasets", "md_verbatim": "## Summary of Relationship Datasets", "score": 0.4448, "match_basis": "verbatim_token+global_search"}, {"md_atom_id": "md_ch04_a010", "md_file": "knowledge_base/chapters/ch04_general_assumptions.md", "md_atom_type": "HEADING", "md_parent_section": "§4.1 [General Domain Assumptions]", "md_verbatim": "### 4.1.2 Relationship to Analysis Datasets", "score": 0.44, "match_basis": "verbatim_token+global_search"}], "candidate_count": 5, "zero_candidate": false}
