{"pdf_atom_id": "ig34_p0036_a034", "pdf_atom_type": "LIST_ITEM", "pdf_source": "SDTMIG_v3.4", "pdf_page": 36, "pdf_parent_section": "§4.3.1 Controlled Terms, Codelist or Format Column", "pdf_verbatim": "A short reference to an external terminology (e.g., \"MedDRA\", \"ISO 3166-1 alpha-3\")", "figure_ref": null, "candidates": [{"md_atom_id": "md_ch04_a424", "md_file": "knowledge_base/chapters/ch04_general_assumptions.md", "md_atom_type": "LIST_ITEM", "md_parent_section": "§4.3.1 [Controlled Terms, Codelist or Format Column]", "md_verbatim": "- A short reference to an external terminology (e.g., \"MedDRA\", \"ISO 3166-1 alpha-3\")", "score": 0.9, "match_basis": "verbatim_token+chapter_route:ch04"}, {"md_atom_id": "md_ch04_a248", "md_file": "knowledge_base/chapters/ch04_general_assumptions.md", "md_atom_type": "LIST_ITEM", "md_parent_section": "§4.2.6 [Grouping Variables and Categorization]", "md_verbatim": "3. --CAT/--SCAT may have some controlled terminology.", "score": 0.4102, "match_basis": "verbatim_token+chapter_route:ch04"}, {"md_atom_id": "md_ch04_a185", "md_file": "knowledge_base/chapters/ch04_general_assumptions.md", "md_atom_type": "LIST_ITEM", "md_parent_section": "§4.2.1.1 [--TEST and --TESTCD Conventions (Findings)]", "md_verbatim": "- Both are subject to controlled terminology where available", "score": 0.4017, "match_basis": "verbatim_token+chapter_route:ch04"}, {"md_atom_id": "md_ch04_a416", "md_file": "knowledge_base/chapters/ch04_general_assumptions.md", "md_atom_type": "LIST_ITEM", "md_parent_section": "§4.2.9 [Variable Lengths]", "md_verbatim": "    - The length for variables that use controlled terminology can be set to the length of the longest term.", "score": 0.3831, "match_basis": "verbatim_token+chapter_route:ch04"}, {"md_atom_id": "md_ch04_a251", "md_file": "knowledge_base/chapters/ch04_general_assumptions.md", "md_atom_type": "LIST_ITEM", "md_parent_section": "§4.2.6 [Grouping Variables and Categorization]", "md_verbatim": "6. --GRPID values are sponsor-defined, and will not be subject to controlled terminology.", "score": 0.3783, "match_basis": "verbatim_token+chapter_route:ch04"}], "candidate_count": 5, "zero_candidate": false}
{"pdf_atom_id": "ig34_p0036_a035", "pdf_atom_type": "SENTENCE", "pdf_source": "SDTMIG_v3.4", "pdf_page": 36, "pdf_parent_section": "§4.3.1 Controlled Terms, Codelist or Format Column", "pdf_verbatim": "In addition, the Controlled Terms, Codelist or Format column has been used to indicate variables that use an ISO 8601 format.", "figure_ref": null, "candidates": [{"md_atom_id": "md_ch04_a425", "md_file": "knowledge_base/chapters/ch04_general_assumptions.md", "md_atom_type": "SENTENCE", "md_parent_section": "§4.3.1 [Controlled Terms, Codelist or Format Column]", "md_verbatim": "In addition, the Controlled Terms, Codelist or Format column has been used to indicate variables that use an ISO 8601 format.", "score": 0.9, "match_basis": "verbatim_token+chapter_route:ch04"}, {"md_atom_id": "md_ch04_a433", "md_file": "knowledge_base/chapters/ch04_general_assumptions.md", "md_atom_type": "SENTENCE", "md_parent_section": "§4.3.3 [Controlled Terminology Values]", "md_verbatim": "A null value is implied for any list of controlled terms unless the variable is \"Required\" (see Section 4.1.5, SDTM Core Designations).", "score": 0.4582, "match_basis": "verbatim_token+chapter_route:ch04"}, {"md_atom_id": "md_ch04_a683", "md_file": "knowledge_base/chapters/ch04_general_assumptions.md", "md_atom_type": "SENTENCE", "md_parent_section": "§4.4.8 [Date and Time Reported in a Domain Based on Findings]", "md_verbatim": "In order to ensure that the critical timing information is always represented in the same variable, the --DTC variable is used to represent the time of specimen collection.", "score": 0.4347, "match_basis": "verbatim_token+chapter_route:ch04"}, {"md_atom_id": "md_ch04_a990", "md_file": "knowledge_base/chapters/ch04_general_assumptions.md", "md_atom_type": "SENTENCE", "md_parent_section": "§4.5.7 [Presence or Absence of Prespecified Interventions and Events]", "md_verbatim": "The --PRESP variable is used to indicate whether a specific intervention (--TRT) or event (--TERM) was solicited.", "score": 0.4341, "match_basis": "verbatim_token+chapter_route:ch04"}, {"md_atom_id": "md_ch04_a156", "md_file": "knowledge_base/chapters/ch04_general_assumptions.md", "md_atom_type": "SENTENCE", "md_parent_section": "§4.1.9 [Assigning Natural Keys in the Metadata]", "md_verbatim": "The use of generic test codes helps to create distinct lists of manageable controlled terminology for --TESTCD.", "score": 0.4333, "match_basis": "verbatim_token+chapter_route:ch04"}], "candidate_count": 5, "zero_candidate": false}
{"pdf_atom_id": "ig34_p0037_a001", "pdf_atom_type": "HEADING", "pdf_source": "SDTMIG_v3.4", "pdf_page": 37, "pdf_parent_section": "§4.3.2 Controlled Terminology Text Case", "pdf_verbatim": "4.3.2 Controlled Terminology Text Case", "figure_ref": null, "candidates": [{"md_atom_id": "md_ch04_a426", "md_file": "knowledge_base/chapters/ch04_general_assumptions.md", "md_atom_type": "HEADING", "md_parent_section": "§4.3 [Coding and Controlled Terminology Assumptions]", "md_verbatim": "### 4.3.2 Controlled Terminology Text Case", "score": 0.9, "match_basis": "verbatim_token+chapter_route:ch04"}, {"md_atom_id": "md_ch04_a429", "md_file": "knowledge_base/chapters/ch04_general_assumptions.md", "md_atom_type": "HEADING", "md_parent_section": "§4.3 [Coding and Controlled Terminology Assumptions]", "md_verbatim": "### 4.3.3 Controlled Terminology Values", "score": 0.708, "match_basis": "verbatim_token+chapter_route:ch04"}, {"md_atom_id": "md_ch04_a417", "md_file": "knowledge_base/chapters/ch04_general_assumptions.md", "md_atom_type": "HEADING", "md_parent_section": "§4 [General Assumptions]", "md_verbatim": "## 4.3 Coding and Controlled Terminology Assumptions", "score": 0.5914, "match_basis": "verbatim_token+chapter_route:ch04"}, {"md_atom_id": "md_ch04_a437", "md_file": "knowledge_base/chapters/ch04_general_assumptions.md", "md_atom_type": "HEADING", "md_parent_section": "§4.3 [Coding and Controlled Terminology Assumptions]", "md_verbatim": "### 4.3.4 Use of Controlled Terminology and Arbitrary Number Codes", "score": 0.5757, "match_basis": "verbatim_token+chapter_route:ch04"}, {"md_atom_id": "md_ch04_a441", "md_file": "knowledge_base/chapters/ch04_general_assumptions.md", "md_atom_type": "HEADING", "md_parent_section": "§4.3 [Coding and Controlled Terminology Assumptions]", "md_verbatim": "### 4.3.5 Storing Controlled Terminology for Synonym Qualifier Variables (MedDRA and WHODrug)", "score": 0.4821, "match_basis": "verbatim_token+chapter_route:ch04"}], "candidate_count": 5, "zero_candidate": false}
{"pdf_atom_id": "ig34_p0037_a002", "pdf_atom_type": "SENTENCE", "pdf_source": "SDTMIG_v3.4", "pdf_page": 37, "pdf_parent_section": "§4.3.2 Controlled Terminology Text Case", "pdf_verbatim": "Terms from controlled terminology should be in the case that appears the source codelist or code system (e.g., CDISC codelist or external code system such as MedDRA).", "figure_ref": null, "candidates": [{"md_atom_id": "md_ch04_a427", "md_file": "knowledge_base/chapters/ch04_general_assumptions.md", "md_atom_type": "SENTENCE", "md_parent_section": "§4.3.2 [Controlled Terminology Text Case]", "md_verbatim": "Terms from controlled terminology should be in the case that appears in the source codelist or code system (e.g., CDISC codelist or external code system such as MedDRA).", "score": 0.9, "match_basis": "verbatim_token+chapter_route:ch04"}, {"md_atom_id": "md_ch04_a457", "md_file": "knowledge_base/chapters/ch04_general_assumptions.md", "md_atom_type": "SENTENCE", "md_parent_section": "§4.3.6 [Storing Topic Variables for General Domain Models]", "md_verbatim": "If CDISC Controlled Terminology exists, it should be used; otherwise, sponsors should define their own controlled list of terms.", "score": 0.4953, "match_basis": "verbatim_token+chapter_route:ch04"}, {"md_atom_id": "md_ch04_a043", "md_file": "knowledge_base/chapters/ch04_general_assumptions.md", "md_atom_type": "SENTENCE", "md_parent_section": "§4.1.6 [Additional Guidance on Dataset Naming]", "md_verbatim": "(See the SDTM Domain Abbreviation codelist, C66734, in CDISC Controlled Terminology at https://www.cancer.gov/research/resources/terminology/cdisc for standard domain codes.)", "score": 0.4794, "match_basis": "verbatim_token+chapter_route:ch04"}, {"md_atom_id": "md_ch04_a995", "md_file": "knowledge_base/chapters/ch04_general_assumptions.md", "md_atom_type": "SENTENCE", "md_parent_section": "§4.5.7 [Presence or Absence of Prespecified Interventions and Events]", "md_verbatim": "It has controlled terminology of \"Y\" and \"N\" (for \"Yes\" and \"No\").", "score": 0.4545, "match_basis": "verbatim_token+chapter_route:ch04"}, {"md_atom_id": "md_ch04_a388", "md_file": "knowledge_base/chapters/ch04_general_assumptions.md", "md_atom_type": "SENTENCE", "md_parent_section": "§4.2.8.3 [Multiple Values for a Non-result Qualifier Variable]", "md_verbatim": "The controlled terminology used should be documented as part of value-level metadata.", "score": 0.4535, "match_basis": "verbatim_token+chapter_route:ch04"}], "candidate_count": 5, "zero_candidate": false}
{"pdf_atom_id": "ig34_p0037_a003", "pdf_atom_type": "CROSS_REF", "pdf_source": "SDTMIG_v3.4", "pdf_page": 37, "pdf_parent_section": "§4.3.2 Controlled Terminology Text Case", "pdf_verbatim": "See Section 4.2.4, Text Case in Submitted Data.", "figure_ref": null, "candidates": [{"md_atom_id": "md_ch04_a428", "md_file": "knowledge_base/chapters/ch04_general_assumptions.md", "md_atom_type": "SENTENCE", "md_parent_section": "§4.3.2 [Controlled Terminology Text Case]", "md_verbatim": "See Section 4.2.4, Text Case in Submitted Data.", "score": 0.69, "match_basis": "verbatim_token+chapter_route:ch04"}, {"md_atom_id": "md_ch04_a213", "md_file": "knowledge_base/chapters/ch04_general_assumptions.md", "md_atom_type": "HEADING", "md_parent_section": "§4.2 [General Variable Assumptions]", "md_verbatim": "### 4.2.4 Text Case in Submitted Data", "score": 0.5005, "match_basis": "verbatim_token+chapter_route:ch04"}, {"md_atom_id": "md_ch04_a257", "md_file": "knowledge_base/chapters/ch04_general_assumptions.md", "md_atom_type": "HEADING", "md_parent_section": "§4.2 [General Variable Assumptions]", "md_verbatim": "### 4.2.7 Submitting Free Text from the CRF", "score": 0.24, "match_basis": "verbatim_token+chapter_route:ch04"}, {"md_atom_id": "md_ch04_a260", "md_file": "knowledge_base/chapters/ch04_general_assumptions.md", "md_atom_type": "SENTENCE", "md_parent_section": "§4.2.7 [Submitting Free Text from the CRF]", "md_verbatim": "The manner in which these data are submitted will vary based on their role.", "score": 0.24, "match_basis": "verbatim_token+chapter_route:ch04"}, {"md_atom_id": "md_ch04_a358", "md_file": "knowledge_base/chapters/ch04_general_assumptions.md", "md_atom_type": "SENTENCE", "md_parent_section": "§4.2.8.2 [Multiple Values for a Findings Result Variable]", "md_verbatim": "See Section 4.1.9, Assigning Natural Keys in the Metadata.", "score": 0.2163, "match_basis": "verbatim_token+chapter_route:ch04"}], "candidate_count": 5, "zero_candidate": false}
{"pdf_atom_id": "ig34_p0037_a004", "pdf_atom_type": "HEADING", "pdf_source": "SDTMIG_v3.4", "pdf_page": 37, "pdf_parent_section": "§4.3.3 Controlled Terminology Values", "pdf_verbatim": "4.3.3 Controlled Terminology Values", "figure_ref": null, "candidates": [{"md_atom_id": "md_ch04_a429", "md_file": "knowledge_base/chapters/ch04_general_assumptions.md", "md_atom_type": "HEADING", "md_parent_section": "§4.3 [Coding and Controlled Terminology Assumptions]", "md_verbatim": "### 4.3.3 Controlled Terminology Values", "score": 0.9, "match_basis": "verbatim_token+chapter_route:ch04"}, {"md_atom_id": "md_ch04_a426", "md_file": "knowledge_base/chapters/ch04_general_assumptions.md", "md_atom_type": "HEADING", "md_parent_section": "§4.3 [Coding and Controlled Terminology Assumptions]", "md_verbatim": "### 4.3.2 Controlled Terminology Text Case", "score": 0.708, "match_basis": "verbatim_token+chapter_route:ch04"}, {"md_atom_id": "md_ch04_a417", "md_file": "knowledge_base/chapters/ch04_general_assumptions.md", "md_atom_type": "HEADING", "md_parent_section": "§4 [General Assumptions]", "md_verbatim": "## 4.3 Coding and Controlled Terminology Assumptions", "score": 0.5914, "match_basis": "verbatim_token+chapter_route:ch04"}, {"md_atom_id": "md_ch04_a437", "md_file": "knowledge_base/chapters/ch04_general_assumptions.md", "md_atom_type": "HEADING", "md_parent_section": "§4.3 [Coding and Controlled Terminology Assumptions]", "md_verbatim": "### 4.3.4 Use of Controlled Terminology and Arbitrary Number Codes", "score": 0.5757, "match_basis": "verbatim_token+chapter_route:ch04"}, {"md_atom_id": "md_ch04_a441", "md_file": "knowledge_base/chapters/ch04_general_assumptions.md", "md_atom_type": "HEADING", "md_parent_section": "§4.3 [Coding and Controlled Terminology Assumptions]", "md_verbatim": "### 4.3.5 Storing Controlled Terminology for Synonym Qualifier Variables (MedDRA and WHODrug)", "score": 0.4821, "match_basis": "verbatim_token+chapter_route:ch04"}], "candidate_count": 5, "zero_candidate": false}
{"pdf_atom_id": "ig34_p0037_a005", "pdf_atom_type": "SENTENCE", "pdf_source": "SDTMIG_v3.4", "pdf_page": 37, "pdf_parent_section": "§4.3.3 Controlled Terminology Values", "pdf_verbatim": "The controlled terminology or a reference to the controlled terminology should be included in the Define-XML document file wherever applicable.", "figure_ref": null, "candidates": [{"md_atom_id": "md_ch04_a430", "md_file": "knowledge_base/chapters/ch04_general_assumptions.md", "md_atom_type": "SENTENCE", "md_parent_section": "§4.3.3 [Controlled Terminology Values]", "md_verbatim": "The controlled terminology or a reference to it should be included in the Define-XML document wherever applicable.", "score": 0.8803, "match_basis": "verbatim_token+chapter_route:ch04"}, {"md_atom_id": "md_ch04_a388", "md_file": "knowledge_base/chapters/ch04_general_assumptions.md", "md_atom_type": "SENTENCE", "md_parent_section": "§4.2.8.3 [Multiple Values for a Non-result Qualifier Variable]", "md_verbatim": "The controlled terminology used should be documented as part of value-level metadata.", "score": 0.5231, "match_basis": "verbatim_token+chapter_route:ch04"}, {"md_atom_id": "md_ch04_a457", "md_file": "knowledge_base/chapters/ch04_general_assumptions.md", "md_atom_type": "SENTENCE", "md_parent_section": "§4.3.6 [Storing Topic Variables for General Domain Models]", "md_verbatim": "If CDISC Controlled Terminology exists, it should be used; otherwise, sponsors should define their own controlled list of terms.", "score": 0.4884, "match_basis": "verbatim_token+chapter_route:ch04"}, {"md_atom_id": "md_ch04_a436", "md_file": "knowledge_base/chapters/ch04_general_assumptions.md", "md_atom_type": "SENTENCE", "md_parent_section": "§4.3.3 [Controlled Terminology Values]", "md_verbatim": "Future versions of the Define-XML specification are expected to include information on representing subsets of controlled terminology.", "score": 0.4771, "match_basis": "verbatim_token+chapter_route:ch04"}, {"md_atom_id": "md_ch04_a263", "md_file": "knowledge_base/chapters/ch04_general_assumptions.md", "md_atom_type": "SENTENCE", "md_parent_section": "§4.2.7.1 [\"Specify\" Values for Non-Result Qualifier Variables]", "md_verbatim": "When applicable, controlled terminology should be used for SUPP-- field names (QNAM) and their associated labels (QLABEL; see Section 8.4 and Appendix C1, Supplemental Qualifiers Name Codes).", "score": 0.4707, "match_basis": "verbatim_token+chapter_route:ch04"}], "candidate_count": 5, "zero_candidate": false}
{"pdf_atom_id": "ig34_p0037_a006", "pdf_atom_type": "SENTENCE", "pdf_source": "SDTMIG_v3.4", "pdf_page": 37, "pdf_parent_section": "§4.3.3 Controlled Terminology Values", "pdf_verbatim": "All values in the permissible value set for the study should be included, whether or not they are represented in the submitted data.", "figure_ref": null, "candidates": [{"md_atom_id": "md_ch04_a431", "md_file": "knowledge_base/chapters/ch04_general_assumptions.md", "md_atom_type": "SENTENCE", "md_parent_section": "§4.3.3 [Controlled Terminology Values]", "md_verbatim": "All values in the permissible value set for the study should be included, whether or not they are represented in submitted data.", "score": 0.9, "match_basis": "verbatim_token+chapter_route:ch04"}, {"md_atom_id": "md_ch04_a432", "md_file": "knowledge_base/chapters/ch04_general_assumptions.md", "md_atom_type": "SENTENCE", "md_parent_section": "§4.3.3 [Controlled Terminology Values]", "md_verbatim": "Note that a null value should not be included in the permissible value set.", "score": 0.5542, "match_basis": "verbatim_token+chapter_route:ch04"}, {"md_atom_id": "md_ch04_a996", "md_file": "knowledge_base/chapters/ch04_general_assumptions.md", "md_atom_type": "SENTENCE", "md_parent_section": "§4.5.7 [Presence or Absence of Prespecified Interventions and Events]", "md_verbatim": "It is a permissible variable and may be omitted from the dataset if no topic-variable values were prespecified.", "score": 0.4747, "match_basis": "verbatim_token+chapter_route:ch04"}, {"md_atom_id": "md_ch04_a040", "md_file": "knowledge_base/chapters/ch04_general_assumptions.md", "md_atom_type": "LIST_ITEM", "md_parent_section": "§4.1.5 [SDTM Core Designations]", "md_verbatim": "- If a study did not include a data item that would be represented in a Permissible variable, then that variable should not be included in the SDTM dataset and should not be declared in the Define-XML document.", "score": 0.4681, "match_basis": "verbatim_token+chapter_route:ch04"}, {"md_atom_id": "md_ch04_a992", "md_file": "knowledge_base/chapters/ch04_general_assumptions.md", "md_atom_type": "SENTENCE", "md_parent_section": "§4.5.7 [Presence or Absence of Prespecified Interventions and Events]", "md_verbatim": "It is a permissible variable, and should only be used when the topic variable values come from a prespecified list.", "score": 0.4537, "match_basis": "verbatim_token+chapter_route:ch04"}], "candidate_count": 5, "zero_candidate": false}
{"pdf_atom_id": "ig34_p0037_a007", "pdf_atom_type": "SENTENCE", "pdf_source": "SDTMIG_v3.4", "pdf_page": 37, "pdf_parent_section": "§4.3.3 Controlled Terminology Values", "pdf_verbatim": "Note that a null value should not be included in the permissible value set.", "figure_ref": null, "candidates": [{"md_atom_id": "md_ch04_a432", "md_file": "knowledge_base/chapters/ch04_general_assumptions.md", "md_atom_type": "SENTENCE", "md_parent_section": "§4.3.3 [Controlled Terminology Values]", "md_verbatim": "Note that a null value should not be included in the permissible value set.", "score": 0.9, "match_basis": "verbatim_token+chapter_route:ch04"}, {"md_atom_id": "md_ch04_a431", "md_file": "knowledge_base/chapters/ch04_general_assumptions.md", "md_atom_type": "SENTENCE", "md_parent_section": "§4.3.3 [Controlled Terminology Values]", "md_verbatim": "All values in the permissible value set for the study should be included, whether or not they are represented in submitted data.", "score": 0.5542, "match_basis": "verbatim_token+chapter_route:ch04"}, {"md_atom_id": "md_ch04_a022", "md_file": "knowledge_base/chapters/ch04_general_assumptions.md", "md_atom_type": "SENTENCE", "md_parent_section": "§4.1.3.1 [EPOCH Variable Guidance]", "md_verbatim": "If it is not possible to determine the epoch of an observation, then EPOCH should be null.", "score": 0.468, "match_basis": "verbatim_token+chapter_route:ch04"}, {"md_atom_id": "md_ch04_a992", "md_file": "knowledge_base/chapters/ch04_general_assumptions.md", "md_atom_type": "SENTENCE", "md_parent_section": "§4.5.7 [Presence or Absence of Prespecified Interventions and Events]", "md_verbatim": "It is a permissible variable, and should only be used when the topic variable values come from a prespecified list.", "score": 0.4645, "match_basis": "verbatim_token+chapter_route:ch04"}, {"md_atom_id": "md_ch04_a513", "md_file": "knowledge_base/chapters/ch04_general_assumptions.md", "md_atom_type": "SENTENCE", "md_parent_section": "§4.4.2 [Date/Time Precision]", "md_verbatim": "If the date and time values are completely missing, the SDTM date time field should be null.", "score": 0.45, "match_basis": "verbatim_token+chapter_route:ch04"}], "candidate_count": 5, "zero_candidate": false}
{"pdf_atom_id": "ig34_p0037_a008", "pdf_atom_type": "SENTENCE", "pdf_source": "SDTMIG_v3.4", "pdf_page": 37, "pdf_parent_section": "§4.3.3 Controlled Terminology Values", "pdf_verbatim": "A null value is implied for any list of controlled terms unless the variable is \"Required\" (see Section 4.1.5, SDTM Core Designations).", "figure_ref": null, "candidates": [{"md_atom_id": "md_ch04_a433", "md_file": "knowledge_base/chapters/ch04_general_assumptions.md", "md_atom_type": "SENTENCE", "md_parent_section": "§4.3.3 [Controlled Terminology Values]", "md_verbatim": "A null value is implied for any list of controlled terms unless the variable is \"Required\" (see Section 4.1.5, SDTM Core Designations).", "score": 0.9, "match_basis": "verbatim_token+chapter_route:ch04"}, {"md_atom_id": "md_ch04_a425", "md_file": "knowledge_base/chapters/ch04_general_assumptions.md", "md_atom_type": "SENTENCE", "md_parent_section": "§4.3.1 [Controlled Terms, Codelist or Format Column]", "md_verbatim": "In addition, the Controlled Terms, Codelist or Format column has been used to indicate variables that use an ISO 8601 format.", "score": 0.4582, "match_basis": "verbatim_token+chapter_route:ch04"}, {"md_atom_id": "md_ch04_a365", "md_file": "knowledge_base/chapters/ch04_general_assumptions.md", "md_atom_type": "SENTENCE", "md_parent_section": "§4.2.8.3 [Multiple Values for a Non-result Qualifier Variable]", "md_verbatim": "The values stored in QVAL should be consistent with the controlled terminology associated with the standard variable.", "score": 0.45, "match_basis": "verbatim_token+chapter_route:ch04"}, {"md_atom_id": "md_ch04_a991", "md_file": "knowledge_base/chapters/ch04_general_assumptions.md", "md_atom_type": "SENTENCE", "md_parent_section": "§4.5.7 [Presence or Absence of Prespecified Interventions and Events]", "md_verbatim": "It has controlled terminology of \"Y\" (for \"Yes\") or a null value.", "score": 0.4391, "match_basis": "verbatim_token+chapter_route:ch04"}, {"md_atom_id": "md_ch04_a954", "md_file": "knowledge_base/chapters/ch04_general_assumptions.md", "md_atom_type": "SENTENCE", "md_parent_section": "§4.5.4 [Evaluators in the Interventions and Events Observation Classes]", "md_verbatim": "The QEVAL variable can be used to describe the evaluator for any data item in a SUPP-- dataset (see Section 8.4.1, Supplemental Qualifiers -- SUPP-- Datasets), but is not required when the data are objective.", "score": 0.4309, "match_basis": "verbatim_token+chapter_route:ch04"}], "candidate_count": 5, "zero_candidate": false}
{"pdf_atom_id": "ig34_p0037_a009", "pdf_atom_type": "SENTENCE", "pdf_source": "SDTMIG_v3.4", "pdf_page": 37, "pdf_parent_section": "§4.3.3 Controlled Terminology Values", "pdf_verbatim": "When a domain or dataset specification includes a codelist for a variable, not every value in that codelist may have been part of planned data collection; only values that were part of planned data collection should be included in the Define-XML document.", "figure_ref": null, "candidates": [{"md_atom_id": "md_ch04_a434", "md_file": "knowledge_base/chapters/ch04_general_assumptions.md", "md_atom_type": "SENTENCE", "md_parent_section": "§4.3.3 [Controlled Terminology Values]", "md_verbatim": "When a domain or dataset specification includes a codelist for a variable, not every value in that codelist may have been part of planned data collection; only values that were part of planned data collection should be included in the Define-XML document.", "score": 0.9, "match_basis": "verbatim_token+chapter_route:ch04"}, {"md_atom_id": "md_ch04_a017", "md_file": "knowledge_base/chapters/ch04_general_assumptions.md", "md_atom_type": "SENTENCE", "md_parent_section": "§4.1.3.1 [EPOCH Variable Guidance]", "md_verbatim": "When EPOCH is included in a Findings class domain, it should be based on the --DTC variable, since this is the date/time of the test or, for tests performed on specimens, the date/time of specimen collection.", "score": 0.4918, "match_basis": "verbatim_token+chapter_route:ch04"}, {"md_atom_id": "md_ch04_a262", "md_file": "knowledge_base/chapters/ch04_general_assumptions.md", "md_atom_type": "SENTENCE", "md_parent_section": "§4.2.7.1 [\"Specify\" Values for Non-Result Qualifier Variables]", "md_verbatim": "When free-text information is collected to supplement a standard non-result qualifier field, the free-text value should be placed in the SUPP-- dataset described in Section 8.4, Relating Non-standard Variable Values to a Parent Domain.", "score": 0.4762, "match_basis": "verbatim_token+chapter_route:ch04"}, {"md_atom_id": "md_ch04_a955", "md_file": "knowledge_base/chapters/ch04_general_assumptions.md", "md_atom_type": "SENTENCE", "md_parent_section": "§4.5.4 [Evaluators in the Interventions and Events Observation Classes]", "md_verbatim": "For observations that have primary and secondary evaluations of specific qualifier variables, sponsors should put data from the primary evaluation into the standard domain dataset and data from the secondary evaluation into the Supplemental Qualifier datasets (SUPP--).", "score": 0.4617, "match_basis": "verbatim_token+chapter_route:ch04"}, {"md_atom_id": "md_ch04_a134", "md_file": "knowledge_base/chapters/ch04_general_assumptions.md", "md_atom_type": "SENTENCE", "md_parent_section": "§4.1.8.2 [Origin Metadata for Records]", "md_verbatim": "When both derived and collected values are reported in a variable, the origin is to be described using value-level metadata in the Define-XML document.", "score": 0.4584, "match_basis": "verbatim_token+chapter_route:ch04"}], "candidate_count": 5, "zero_candidate": false}
{"pdf_atom_id": "ig34_p0037_a010", "pdf_atom_type": "SENTENCE", "pdf_source": "SDTMIG_v3.4", "pdf_page": 37, "pdf_parent_section": "§4.3.3 Controlled Terminology Values", "pdf_verbatim": "For example, --PRESP variables are associated with the NY codelist, but only the value \"Y\" is allowed in --PRESP variables.", "figure_ref": null, "candidates": [{"md_atom_id": "md_ch04_a435", "md_file": "knowledge_base/chapters/ch04_general_assumptions.md", "md_atom_type": "SENTENCE", "md_parent_section": "§4.3.3 [Controlled Terminology Values]", "md_verbatim": "For example, --PRESP variables are associated with the NY codelist, but only the value \"Y\" is allowed in --PRESP variables.", "score": 0.9, "match_basis": "verbatim_token+chapter_route:ch04"}, {"md_atom_id": "md_ch04_a365", "md_file": "knowledge_base/chapters/ch04_general_assumptions.md", "md_atom_type": "SENTENCE", "md_parent_section": "§4.2.8.3 [Multiple Values for a Non-result Qualifier Variable]", "md_verbatim": "The values stored in QVAL should be consistent with the controlled terminology associated with the standard variable.", "score": 0.45, "match_basis": "verbatim_token+chapter_route:ch04"}, {"md_atom_id": "md_ch04_a832", "md_file": "knowledge_base/chapters/ch04_general_assumptions.md", "md_atom_type": "SENTENCE", "md_parent_section": "§4.5.1.3 [Examples of Original and Standard Units and Test Not Done]", "md_verbatim": "The following examples illustrate the use of Findings results variables and are not meant as comprehensive domain examples.", "score": 0.4326, "match_basis": "verbatim_token+chapter_route:ch04"}, {"md_atom_id": "md_ch04_a992", "md_file": "knowledge_base/chapters/ch04_general_assumptions.md", "md_atom_type": "SENTENCE", "md_parent_section": "§4.5.7 [Presence or Absence of Prespecified Interventions and Events]", "md_verbatim": "It is a permissible variable, and should only be used when the topic variable values come from a prespecified list.", "score": 0.4325, "match_basis": "verbatim_token+chapter_route:ch04"}, {"md_atom_id": "md_ch04_a516", "md_file": "knowledge_base/chapters/ch04_general_assumptions.md", "md_atom_type": "SENTENCE", "md_parent_section": "§4.4.2 [Date/Time Precision]", "md_verbatim": "The following table provides examples of ISO 8601 representations of complete and truncated date/time values.", "score": 0.4271, "match_basis": "verbatim_token+chapter_route:ch04"}], "candidate_count": 5, "zero_candidate": false}
{"pdf_atom_id": "ig34_p0037_a011", "pdf_atom_type": "SENTENCE", "pdf_source": "SDTMIG_v3.4", "pdf_page": 37, "pdf_parent_section": "§4.3.3 Controlled Terminology Values", "pdf_verbatim": "Future versions of the Define-XML specification are expected to include information on representing subsets of controlled terminology.", "figure_ref": null, "candidates": [{"md_atom_id": "md_ch04_a436", "md_file": "knowledge_base/chapters/ch04_general_assumptions.md", "md_atom_type": "SENTENCE", "md_parent_section": "§4.3.3 [Controlled Terminology Values]", "md_verbatim": "Future versions of the Define-XML specification are expected to include information on representing subsets of controlled terminology.", "score": 0.9, "match_basis": "verbatim_token+chapter_route:ch04"}, {"md_atom_id": "md_ch04_a420", "md_file": "knowledge_base/chapters/ch04_general_assumptions.md", "md_atom_type": "SENTENCE", "md_parent_section": "§4.3.1 [Controlled Terms, Codelist or Format Column]", "md_verbatim": "As of SDTMIG v3.3, controlled terminology is represented in the following ways:", "score": 0.4862, "match_basis": "verbatim_token+chapter_route:ch04"}, {"md_atom_id": "md_ch04_a430", "md_file": "knowledge_base/chapters/ch04_general_assumptions.md", "md_atom_type": "SENTENCE", "md_parent_section": "§4.3.3 [Controlled Terminology Values]", "md_verbatim": "The controlled terminology or a reference to it should be included in the Define-XML document wherever applicable.", "score": 0.4806, "match_basis": "verbatim_token+chapter_route:ch04"}, {"md_atom_id": "md_ch04_a337", "md_file": "knowledge_base/chapters/ch04_general_assumptions.md", "md_atom_type": "SENTENCE", "md_parent_section": "§4.2.7.3 [\"Specify\" Values for Topic Variables]", "md_verbatim": "If specific tests are not listed on the CRF and the investigator has the option of writing in tests, then the name of the test would have to be coded to ensure that all --TESTCD and --TEST values are consistent with the test controlled terminology.", "score": 0.4559, "match_basis": "verbatim_token+chapter_route:ch04"}, {"md_atom_id": "md_ch04_a683", "md_file": "knowledge_base/chapters/ch04_general_assumptions.md", "md_atom_type": "SENTENCE", "md_parent_section": "§4.4.8 [Date and Time Reported in a Domain Based on Findings]", "md_verbatim": "In order to ensure that the critical timing information is always represented in the same variable, the --DTC variable is used to represent the time of specimen collection.", "score": 0.45, "match_basis": "verbatim_token+chapter_route:ch04"}], "candidate_count": 5, "zero_candidate": false}
{"pdf_atom_id": "ig34_p0037_a012", "pdf_atom_type": "HEADING", "pdf_source": "SDTMIG_v3.4", "pdf_page": 37, "pdf_parent_section": "§4.3.4 Use of Controlled Terminology and Arbitrary Number Codes", "pdf_verbatim": "4.3.4 Use of Controlled Terminology and Arbitrary Number Codes", "figure_ref": null, "candidates": [{"md_atom_id": "md_ch04_a437", "md_file": "knowledge_base/chapters/ch04_general_assumptions.md", "md_atom_type": "HEADING", "md_parent_section": "§4.3 [Coding and Controlled Terminology Assumptions]", "md_verbatim": "### 4.3.4 Use of Controlled Terminology and Arbitrary Number Codes", "score": 0.9, "match_basis": "verbatim_token+chapter_route:ch04"}, {"md_atom_id": "md_ch04_a426", "md_file": "knowledge_base/chapters/ch04_general_assumptions.md", "md_atom_type": "HEADING", "md_parent_section": "§4.3 [Coding and Controlled Terminology Assumptions]", "md_verbatim": "### 4.3.2 Controlled Terminology Text Case", "score": 0.5757, "match_basis": "verbatim_token+chapter_route:ch04"}, {"md_atom_id": "md_ch04_a429", "md_file": "knowledge_base/chapters/ch04_general_assumptions.md", "md_atom_type": "HEADING", "md_parent_section": "§4.3 [Coding and Controlled Terminology Assumptions]", "md_verbatim": "### 4.3.3 Controlled Terminology Values", "score": 0.5757, "match_basis": "verbatim_token+chapter_route:ch04"}, {"md_atom_id": "md_ch04_a417", "md_file": "knowledge_base/chapters/ch04_general_assumptions.md", "md_atom_type": "HEADING", "md_parent_section": "§4 [General Assumptions]", "md_verbatim": "## 4.3 Coding and Controlled Terminology Assumptions", "score": 0.5533, "match_basis": "verbatim_token+chapter_route:ch04"}, {"md_atom_id": "md_ch04_a441", "md_file": "knowledge_base/chapters/ch04_general_assumptions.md", "md_atom_type": "HEADING", "md_parent_section": "§4.3 [Coding and Controlled Terminology Assumptions]", "md_verbatim": "### 4.3.5 Storing Controlled Terminology for Synonym Qualifier Variables (MedDRA and WHODrug)", "score": 0.4612, "match_basis": "verbatim_token+chapter_route:ch04"}], "candidate_count": 5, "zero_candidate": false}
{"pdf_atom_id": "ig34_p0037_a013", "pdf_atom_type": "SENTENCE", "pdf_source": "SDTMIG_v3.4", "pdf_page": 37, "pdf_parent_section": "§4.3.4 Use of Controlled Terminology and Arbitrary Number Codes", "pdf_verbatim": "Controlled terminology or human-readable text should be used instead of arbitrary number codes in order to reduce ambiguity for submission reviewers.", "figure_ref": null, "candidates": [{"md_atom_id": "md_ch04_a438", "md_file": "knowledge_base/chapters/ch04_general_assumptions.md", "md_atom_type": "SENTENCE", "md_parent_section": "§4.3.4 [Use of Controlled Terminology and Arbitrary Number Codes]", "md_verbatim": "Controlled terminology or human-readable text should be used instead of arbitrary number codes in order to reduce ambiguity for submission reviewers.", "score": 0.9, "match_basis": "verbatim_token+chapter_route:ch04"}, {"md_atom_id": "md_ch04_a156", "md_file": "knowledge_base/chapters/ch04_general_assumptions.md", "md_atom_type": "SENTENCE", "md_parent_section": "§4.1.9 [Assigning Natural Keys in the Metadata]", "md_verbatim": "The use of generic test codes helps to create distinct lists of manageable controlled terminology for --TESTCD.", "score": 0.4405, "match_basis": "verbatim_token+chapter_route:ch04"}, {"md_atom_id": "md_ch04_a388", "md_file": "knowledge_base/chapters/ch04_general_assumptions.md", "md_atom_type": "SENTENCE", "md_parent_section": "§4.2.8.3 [Multiple Values for a Non-result Qualifier Variable]", "md_verbatim": "The controlled terminology used should be documented as part of value-level metadata.", "score": 0.4385, "match_basis": "verbatim_token+chapter_route:ch04"}, {"md_atom_id": "md_ch04_a263", "md_file": "knowledge_base/chapters/ch04_general_assumptions.md", "md_atom_type": "SENTENCE", "md_parent_section": "§4.2.7.1 [\"Specify\" Values for Non-Result Qualifier Variables]", "md_verbatim": "When applicable, controlled terminology should be used for SUPP-- field names (QNAM) and their associated labels (QLABEL; see Section 8.4 and Appendix C1, Supplemental Qualifiers Name Codes).", "score": 0.4338, "match_basis": "verbatim_token+chapter_route:ch04"}, {"md_atom_id": "md_ch04_a365", "md_file": "knowledge_base/chapters/ch04_general_assumptions.md", "md_atom_type": "SENTENCE", "md_parent_section": "§4.2.8.3 [Multiple Values for a Non-result Qualifier Variable]", "md_verbatim": "The values stored in QVAL should be consistent with the controlled terminology associated with the standard variable.", "score": 0.4282, "match_basis": "verbatim_token+chapter_route:ch04"}], "candidate_count": 5, "zero_candidate": false}
{"pdf_atom_id": "ig34_p0037_a014", "pdf_atom_type": "SENTENCE", "pdf_source": "SDTMIG_v3.4", "pdf_page": 37, "pdf_parent_section": "§4.3.4 Use of Controlled Terminology and Arbitrary Number Codes", "pdf_verbatim": "For example, CMDECOD would contain human-readable dictionary text rather than a numeric code.", "figure_ref": null, "candidates": [{"md_atom_id": "md_ch04_a439", "md_file": "knowledge_base/chapters/ch04_general_assumptions.md", "md_atom_type": "SENTENCE", "md_parent_section": "§4.3.4 [Use of Controlled Terminology and Arbitrary Number Codes]", "md_verbatim": "For example, CMDECOD would contain human-readable dictionary text rather than a numeric code.", "score": 0.9, "match_basis": "verbatim_token+chapter_route:ch04"}, {"md_atom_id": "md_ch04_a459", "md_file": "knowledge_base/chapters/ch04_general_assumptions.md", "md_atom_type": "SENTENCE", "md_parent_section": "§4.3.6 [Storing Topic Variables for General Domain Models]", "md_verbatim": "In most cases — other than Physical Examination (PE) — the dictionary-coded text is derived into --DECOD.", "score": 0.4703, "match_basis": "verbatim_token+chapter_route:ch04"}, {"md_atom_id": "md_ch04_a460", "md_file": "knowledge_base/chapters/ch04_general_assumptions.md", "md_atom_type": "SENTENCE", "md_parent_section": "§4.3.6 [Storing Topic Variables for General Domain Models]", "md_verbatim": "Because the PEORRES variable is modified instead of the topic variable for PE, the dictionary-derived text would be placed in PESTRESC.", "score": 0.4267, "match_basis": "verbatim_token+chapter_route:ch04"}, {"md_atom_id": "md_ch04_a438", "md_file": "knowledge_base/chapters/ch04_general_assumptions.md", "md_atom_type": "SENTENCE", "md_parent_section": "§4.3.4 [Use of Controlled Terminology and Arbitrary Number Codes]", "md_verbatim": "Controlled terminology or human-readable text should be used instead of arbitrary number codes in order to reduce ambiguity for submission reviewers.", "score": 0.4135, "match_basis": "verbatim_token+chapter_route:ch04"}, {"md_atom_id": "md_ch04_a472", "md_file": "knowledge_base/chapters/ch04_general_assumptions.md", "md_atom_type": "SENTENCE", "md_parent_section": "§4.3.7 [Use of \"Yes\" and \"No\" Values]", "md_verbatim": "An example of when it would be acceptable to use only a value of \"Y\" would be for Last Observation Before Exposure Flag (--LOBXFL), where \"N\" is not necessary to indicate that a value is not the last observation before exposure.", "score": 0.4059, "match_basis": "verbatim_token+chapter_route:ch04"}], "candidate_count": 5, "zero_candidate": false}
{"pdf_atom_id": "ig34_p0037_a015", "pdf_atom_type": "SENTENCE", "pdf_source": "SDTMIG_v3.4", "pdf_page": 37, "pdf_parent_section": "§4.3.4 Use of Controlled Terminology and Arbitrary Number Codes", "pdf_verbatim": "Numeric code values may be submitted as Supplemental Qualifiers if necessary.", "figure_ref": null, "candidates": [{"md_atom_id": "md_ch04_a440", "md_file": "knowledge_base/chapters/ch04_general_assumptions.md", "md_atom_type": "SENTENCE", "md_parent_section": "§4.3.4 [Use of Controlled Terminology and Arbitrary Number Codes]", "md_verbatim": "Numeric code values may be submitted as Supplemental Qualifiers if necessary.", "score": 0.9, "match_basis": "verbatim_token+chapter_route:ch04"}, {"md_atom_id": "md_ch04_a103", "md_file": "knowledge_base/chapters/ch04_general_assumptions.md", "md_atom_type": "SENTENCE", "md_parent_section": "§4.1.7.1 [Example of Splitting Questionnaires]", "md_verbatim": "**Supplemental Qualifiers for QSCG — suppqscg.xpt**", "score": 0.516, "match_basis": "verbatim_token+chapter_route:ch04"}, {"md_atom_id": "md_ch04_a107", "md_file": "knowledge_base/chapters/ch04_general_assumptions.md", "md_atom_type": "SENTENCE", "md_parent_section": "§4.1.7.1 [Example of Splitting Questionnaires]", "md_verbatim": "**Supplemental Qualifiers for QSPI — suppqspi.xpt**", "score": 0.516, "match_basis": "verbatim_token+chapter_route:ch04"}, {"md_atom_id": "md_ch04_a119", "md_file": "knowledge_base/chapters/ch04_general_assumptions.md", "md_atom_type": "SENTENCE", "md_parent_section": "§4.1.7.1 [Example of Splitting Questionnaires]", "md_verbatim": "**Supplemental Qualifiers for QSSW — suppqssw.xpt**", "score": 0.516, "match_basis": "verbatim_token+chapter_route:ch04"}, {"md_atom_id": "md_ch04_a901", "md_file": "knowledge_base/chapters/ch04_general_assumptions.md", "md_atom_type": "SENTENCE", "md_parent_section": "§4.5.3.1 [Test Name (--TEST) Greater than 40 Characters]", "md_verbatim": "This convention should also be applied to the qualifier value label (QLABEL) in Supplemental Qualifiers (SUPP--) datasets.", "score": 0.4703, "match_basis": "verbatim_token+chapter_route:ch04"}], "candidate_count": 5, "zero_candidate": false}
{"pdf_atom_id": "ig34_p0037_a016", "pdf_atom_type": "HEADING", "pdf_source": "SDTMIG_v3.4", "pdf_page": 37, "pdf_parent_section": "§4.3.5 Storing Controlled Terminology for Synonym Qualifier Variables", "pdf_verbatim": "4.3.5 Storing Controlled Terminology for Synonym Qualifier Variables", "figure_ref": null, "candidates": [{"md_atom_id": "md_ch04_a441", "md_file": "knowledge_base/chapters/ch04_general_assumptions.md", "md_atom_type": "HEADING", "md_parent_section": "§4.3 [Coding and Controlled Terminology Assumptions]", "md_verbatim": "### 4.3.5 Storing Controlled Terminology for Synonym Qualifier Variables (MedDRA and WHODrug)", "score": 0.7846, "match_basis": "verbatim_token+chapter_route:ch04"}, {"md_atom_id": "md_ch04_a426", "md_file": "knowledge_base/chapters/ch04_general_assumptions.md", "md_atom_type": "HEADING", "md_parent_section": "§4.3 [Coding and Controlled Terminology Assumptions]", "md_verbatim": "### 4.3.2 Controlled Terminology Text Case", "score": 0.5217, "match_basis": "verbatim_token+chapter_route:ch04"}, {"md_atom_id": "md_ch04_a429", "md_file": "knowledge_base/chapters/ch04_general_assumptions.md", "md_atom_type": "HEADING", "md_parent_section": "§4.3 [Coding and Controlled Terminology Assumptions]", "md_verbatim": "### 4.3.3 Controlled Terminology Values", "score": 0.5217, "match_basis": "verbatim_token+chapter_route:ch04"}, {"md_atom_id": "md_ch04_a417", "md_file": "knowledge_base/chapters/ch04_general_assumptions.md", "md_atom_type": "HEADING", "md_parent_section": "§4 [General Assumptions]", "md_verbatim": "## 4.3 Coding and Controlled Terminology Assumptions", "score": 0.4964, "match_basis": "verbatim_token+chapter_route:ch04"}, {"md_atom_id": "md_ch04_a437", "md_file": "knowledge_base/chapters/ch04_general_assumptions.md", "md_atom_type": "HEADING", "md_parent_section": "§4.3 [Coding and Controlled Terminology Assumptions]", "md_verbatim": "### 4.3.4 Use of Controlled Terminology and Arbitrary Number Codes", "score": 0.4759, "match_basis": "verbatim_token+chapter_route:ch04"}], "candidate_count": 5, "zero_candidate": false}
{"pdf_atom_id": "ig34_p0037_a017", "pdf_atom_type": "LIST_ITEM", "pdf_source": "SDTMIG_v3.4", "pdf_page": 37, "pdf_parent_section": "§4.3.5 Storing Controlled Terminology for Synonym Qualifier Variables", "pdf_verbatim": "For events such as adverse events and medical history, populate --DECOD with the dictionary's preferred term and populate --BODSYS with the preferred body system name.", "figure_ref": null, "candidates": [{"md_atom_id": "md_ch04_a443", "md_file": "knowledge_base/chapters/ch04_general_assumptions.md", "md_atom_type": "LIST_ITEM", "md_parent_section": "§4.3.5 [Storing Controlled Terminology for Synonym Qualifier Variables (MedDRA and WHODrug)]", "md_verbatim": "- For events such as adverse events and medical history, populate **--DECOD** with the dictionary's preferred term and populate **--BODSYS** with the preferred body system name", "score": 0.9, "match_basis": "verbatim_token+chapter_route:ch04"}, {"md_atom_id": "md_ch04_a448", "md_file": "knowledge_base/chapters/ch04_general_assumptions.md", "md_atom_type": "LIST_ITEM", "md_parent_section": "§4.3.5 [Storing Controlled Terminology for Synonym Qualifier Variables (MedDRA and WHODrug)]", "md_verbatim": "- For concomitant medications, populate **CMDECOD** with the drug's generic name and populate **CMCLAS** with the drug class used for the sponsor's analysis and summary tables", "score": 0.429, "match_basis": "verbatim_token+chapter_route:ch04"}, {"md_atom_id": "md_ch04_a444", "md_file": "knowledge_base/chapters/ch04_general_assumptions.md", "md_atom_type": "LIST_ITEM", "md_parent_section": "§4.3.5 [Storing Controlled Terminology for Synonym Qualifier Variables (MedDRA and WHODrug)]", "md_verbatim": "- If a dictionary is multi-axial, the value in **--BODSYS** should represent the system organ class (SOC) used for the sponsor's analysis and summary tables, which may not necessarily be the primary SOC; populate **--SOC** with the dictionary-derived primary SOC; in cases where the primary SOC was used for analysis, --BODSYS and --SOC are the same", "score": 0.4261, "match_basis": "verbatim_token+chapter_route:ch04"}, {"md_atom_id": "md_ch04_a445", "md_file": "knowledge_base/chapters/ch04_general_assumptions.md", "md_atom_type": "LIST_ITEM", "md_parent_section": "§4.3.5 [Storing Controlled Terminology for Synonym Qualifier Variables (MedDRA and WHODrug)]", "md_verbatim": "- If MedDRA is used to code events, the intermediate levels in the MedDRA hierarchy should also be represented in the dataset; a pair of variables has been defined for each of the levels of the hierarchy other than SOC and Preferred Term (PT): one to represent the text description and the other to represent the code value associated with it", "score": 0.4029, "match_basis": "verbatim_token+chapter_route:ch04"}, {"md_atom_id": "md_ch04_a796", "md_file": "knowledge_base/chapters/ch04_general_assumptions.md", "md_atom_type": "LIST_ITEM", "md_parent_section": "§4.4.11 [Disease Milestones and Disease Milestone Timing Variables]", "md_verbatim": "- When the subject of the question is the disease milestone itself, RELMIDS may be populated with a value such as **\"ENTIRE EVENT\"** or **\"ENTIRE TREATMENT\"**", "score": 0.3971, "match_basis": "verbatim_token+chapter_route:ch04"}], "candidate_count": 5, "zero_candidate": false}
{"pdf_atom_id": "ig34_p0037_a018", "pdf_atom_type": "SENTENCE", "pdf_source": "SDTMIG_v3.4", "pdf_page": 37, "pdf_parent_section": "§4.3.5 Storing Controlled Terminology for Synonym Qualifier Variables", "pdf_verbatim": "If a dictionary is multi-axial, the value in --BODSYS should represent the system organ class (SOC) used for the sponsor's analysis and summary tables, which may not necessarily be the primary SOC.", "figure_ref": null, "candidates": [{"md_atom_id": "md_ch04_a444", "md_file": "knowledge_base/chapters/ch04_general_assumptions.md", "md_atom_type": "LIST_ITEM", "md_parent_section": "§4.3.5 [Storing Controlled Terminology for Synonym Qualifier Variables (MedDRA and WHODrug)]", "md_verbatim": "- If a dictionary is multi-axial, the value in **--BODSYS** should represent the system organ class (SOC) used for the sponsor's analysis and summary tables, which may not necessarily be the primary SOC; populate **--SOC** with the dictionary-derived primary SOC; in cases where the primary SOC was used for analysis, --BODSYS and --SOC are the same", "score": 0.6798, "match_basis": "verbatim_token+chapter_route:ch04"}, {"md_atom_id": "md_ch04_a361", "md_file": "knowledge_base/chapters/ch04_general_assumptions.md", "md_atom_type": "SENTENCE", "md_parent_section": "§4.2.8.3 [Multiple Values for a Non-result Qualifier Variable]", "md_verbatim": "If multiple values exist (e.g., due to a \"Check all that apply\" instruction on a CRF), then the value for the qualifier variable should be \"MULTIPLE\" and SUPP-- should be used to store the individual responses.", "score": 0.4128, "match_basis": "verbatim_token+chapter_route:ch04"}, {"md_atom_id": "md_ch04_a389", "md_file": "knowledge_base/chapters/ch04_general_assumptions.md", "md_atom_type": "SENTENCE", "md_parent_section": "§4.2.8.3 [Multiple Values for a Non-result Qualifier Variable]", "md_verbatim": "If the sponsor has clearly documented that one response is of primary interest (e.g., in the CRF, protocol, or analysis plan), the standard domain variable may be populated with the primary response and SUPP-- may be used to store the secondary response(s).", "score": 0.4091, "match_basis": "verbatim_token+chapter_route:ch04"}, {"md_atom_id": "md_ch04_a647", "md_file": "knowledge_base/chapters/ch04_general_assumptions.md", "md_atom_type": "SENTENCE", "md_parent_section": "§4.4.7 [Use of Relative Timing Variables]", "md_verbatim": "**Restriction on --STRTPT values:** If the reference time point corresponds to the date of collection or assessment, **AFTER is not a valid value** for --STRTPT because it would represent an event after the date of collection.", "score": 0.4083, "match_basis": "verbatim_token+chapter_route:ch04"}, {"md_atom_id": "md_ch04_a955", "md_file": "knowledge_base/chapters/ch04_general_assumptions.md", "md_atom_type": "SENTENCE", "md_parent_section": "§4.5.4 [Evaluators in the Interventions and Events Observation Classes]", "md_verbatim": "For observations that have primary and secondary evaluations of specific qualifier variables, sponsors should put data from the primary evaluation into the standard domain dataset and data from the secondary evaluation into the Supplemental Qualifier datasets (SUPP--).", "score": 0.4068, "match_basis": "verbatim_token+chapter_route:ch04"}], "candidate_count": 5, "zero_candidate": false}
{"pdf_atom_id": "ig34_p0037_a019", "pdf_atom_type": "SENTENCE", "pdf_source": "SDTMIG_v3.4", "pdf_page": 37, "pdf_parent_section": "§4.3.5 Storing Controlled Terminology for Synonym Qualifier Variables", "pdf_verbatim": "Populate --SOC with the dictionary-derived primary SOC.", "figure_ref": null, "candidates": [{"md_atom_id": "md_ch04_a459", "md_file": "knowledge_base/chapters/ch04_general_assumptions.md", "md_atom_type": "SENTENCE", "md_parent_section": "§4.3.6 [Storing Topic Variables for General Domain Models]", "md_verbatim": "In most cases — other than Physical Examination (PE) — the dictionary-coded text is derived into --DECOD.", "score": 0.4448, "match_basis": "verbatim_token+chapter_route:ch04"}, {"md_atom_id": "md_ch04_a245", "md_file": "knowledge_base/chapters/ch04_general_assumptions.md", "md_atom_type": "SENTENCE", "md_parent_section": "§4.2.6 [Grouping Variables and Categorization]", "md_verbatim": "The primary distinctions between --CAT/--SCAT and --GRPID are:", "score": 0.4174, "match_basis": "verbatim_token+chapter_route:ch04"}, {"md_atom_id": "md_ch04_a460", "md_file": "knowledge_base/chapters/ch04_general_assumptions.md", "md_atom_type": "SENTENCE", "md_parent_section": "§4.3.6 [Storing Topic Variables for General Domain Models]", "md_verbatim": "Because the PEORRES variable is modified instead of the topic variable for PE, the dictionary-derived text would be placed in PESTRESC.", "score": 0.4167, "match_basis": "verbatim_token+chapter_route:ch04"}, {"md_atom_id": "md_ch04_a336", "md_file": "knowledge_base/chapters/ch04_general_assumptions.md", "md_atom_type": "SENTENCE", "md_parent_section": "§4.2.7.3 [\"Specify\" Values for Topic Variables]", "md_verbatim": "--TESTCD and --TEST should be populated with the code and description of the test found in the specified text.", "score": 0.4138, "match_basis": "verbatim_token+chapter_route:ch04"}, {"md_atom_id": "md_ch04_a439", "md_file": "knowledge_base/chapters/ch04_general_assumptions.md", "md_atom_type": "SENTENCE", "md_parent_section": "§4.3.4 [Use of Controlled Terminology and Arbitrary Number Codes]", "md_verbatim": "For example, CMDECOD would contain human-readable dictionary text rather than a numeric code.", "score": 0.3896, "match_basis": "verbatim_token+chapter_route:ch04"}], "candidate_count": 5, "zero_candidate": false}
{"pdf_atom_id": "ig34_p0037_a020", "pdf_atom_type": "SENTENCE", "pdf_source": "SDTMIG_v3.4", "pdf_page": 37, "pdf_parent_section": "§4.3.5 Storing Controlled Terminology for Synonym Qualifier Variables", "pdf_verbatim": "In cases where the primary SOC was used for analysis, --BODSYS and --SOC are the same.", "figure_ref": null, "candidates": [{"md_atom_id": "md_ch04_a1040", "md_file": "knowledge_base/chapters/ch04_general_assumptions.md", "md_atom_type": "SENTENCE", "md_parent_section": "§4.5.9 [Baseline Values]", "md_verbatim": "The content of --LOBXFL and ABLFL will be exactly the same when the SAP specifies that the baseline used for analysis is the last non-missing value prior to RFXSTDTC.", "score": 0.4129, "match_basis": "verbatim_token+chapter_route:ch04"}, {"md_atom_id": "md_ch04_a389", "md_file": "knowledge_base/chapters/ch04_general_assumptions.md", "md_atom_type": "SENTENCE", "md_parent_section": "§4.2.8.3 [Multiple Values for a Non-result Qualifier Variable]", "md_verbatim": "If the sponsor has clearly documented that one response is of primary interest (e.g., in the CRF, protocol, or analysis plan), the standard domain variable may be populated with the primary response and SUPP-- may be used to store the secondary response(s).", "score": 0.395, "match_basis": "verbatim_token+chapter_route:ch04"}, {"md_atom_id": "md_ch04_a245", "md_file": "knowledge_base/chapters/ch04_general_assumptions.md", "md_atom_type": "SENTENCE", "md_parent_section": "§4.2.6 [Grouping Variables and Categorization]", "md_verbatim": "The primary distinctions between --CAT/--SCAT and --GRPID are:", "score": 0.3941, "match_basis": "verbatim_token+chapter_route:ch04"}, {"md_atom_id": "md_ch04_a1039", "md_file": "knowledge_base/chapters/ch04_general_assumptions.md", "md_atom_type": "SENTENCE", "md_parent_section": "§4.5.9 [Baseline Values]", "md_verbatim": "The SDTM variable --LOBXFL (and/or --BLFL, if used) can be copied to ADaM for traceability and transparency, but only the ADaM variable ABLFL would be used to signify baseline for analysis.", "score": 0.3907, "match_basis": "verbatim_token+chapter_route:ch04"}, {"md_atom_id": "md_ch04_a444", "md_file": "knowledge_base/chapters/ch04_general_assumptions.md", "md_atom_type": "LIST_ITEM", "md_parent_section": "§4.3.5 [Storing Controlled Terminology for Synonym Qualifier Variables (MedDRA and WHODrug)]", "md_verbatim": "- If a dictionary is multi-axial, the value in **--BODSYS** should represent the system organ class (SOC) used for the sponsor's analysis and summary tables, which may not necessarily be the primary SOC; populate **--SOC** with the dictionary-derived primary SOC; in cases where the primary SOC was used for analysis, --BODSYS and --SOC are the same", "score": 0.3855, "match_basis": "verbatim_token+chapter_route:ch04"}], "candidate_count": 5, "zero_candidate": false}
{"pdf_atom_id": "ig34_p0037_a021", "pdf_atom_type": "LIST_ITEM", "pdf_source": "SDTMIG_v3.4", "pdf_page": 37, "pdf_parent_section": "§4.3.5 Storing Controlled Terminology for Synonym Qualifier Variables", "pdf_verbatim": "If MedDRA is used to code events, the intermediate levels in the MedDRA hierarchy should also be represented in the dataset.", "figure_ref": null, "candidates": [{"md_atom_id": "md_ch04_a445", "md_file": "knowledge_base/chapters/ch04_general_assumptions.md", "md_atom_type": "LIST_ITEM", "md_parent_section": "§4.3.5 [Storing Controlled Terminology for Synonym Qualifier Variables (MedDRA and WHODrug)]", "md_verbatim": "- If MedDRA is used to code events, the intermediate levels in the MedDRA hierarchy should also be represented in the dataset; a pair of variables has been defined for each of the levels of the hierarchy other than SOC and Preferred Term (PT): one to represent the text description and the other to represent the code value associated with it", "score": 0.5913, "match_basis": "verbatim_token+chapter_route:ch04"}, {"md_atom_id": "md_ch04_a191", "md_file": "knowledge_base/chapters/ch04_general_assumptions.md", "md_atom_type": "LIST_ITEM", "md_parent_section": "§4.2.1.3 [--TERM Conventions (Events)]", "md_verbatim": "- Should represent the term as reported on the CRF", "score": 0.4636, "match_basis": "verbatim_token+chapter_route:ch04"}, {"md_atom_id": "md_ch04_a446", "md_file": "knowledge_base/chapters/ch04_general_assumptions.md", "md_atom_type": "LIST_ITEM", "md_parent_section": "§4.3.5 [Storing Controlled Terminology for Synonym Qualifier Variables (MedDRA and WHODrug)]", "md_verbatim": "  - For example, **--LLT** should be used to represent the Lowest Level Term text description and **--LLTCD** should be used to represent the Lowest Level Term code value", "score": 0.4615, "match_basis": "verbatim_token+chapter_route:ch04"}, {"md_atom_id": "md_ch04_a188", "md_file": "knowledge_base/chapters/ch04_general_assumptions.md", "md_atom_type": "LIST_ITEM", "md_parent_section": "§4.2.1.2 [--TRT Conventions (Interventions)]", "md_verbatim": "- Should represent the name as reported on the CRF", "score": 0.4368, "match_basis": "verbatim_token+chapter_route:ch04"}, {"md_atom_id": "md_ch04_a1026", "md_file": "knowledge_base/chapters/ch04_general_assumptions.md", "md_atom_type": "LIST_ITEM", "md_parent_section": "§4.5.8 [Accounting for Long-term Follow-up]", "md_verbatim": "5. The long-term follow-up phase would be represented in Trial Arms (TA), Trial Elements (TE), and Trial Visits (TV).", "score": 0.4315, "match_basis": "verbatim_token+chapter_route:ch04"}], "candidate_count": 5, "zero_candidate": false}
{"pdf_atom_id": "ig34_p0037_a022", "pdf_atom_type": "SENTENCE", "pdf_source": "SDTMIG_v3.4", "pdf_page": 37, "pdf_parent_section": "§4.3.5 Storing Controlled Terminology for Synonym Qualifier Variables", "pdf_verbatim": "A pair of variables has been defined for each of the levels of the hierarchy other than SOC and Preferred Term (PT): one to represent the text description and the other to represent the code value associated with it.", "figure_ref": null, "candidates": [{"md_atom_id": "md_ch04_a445", "md_file": "knowledge_base/chapters/ch04_general_assumptions.md", "md_atom_type": "LIST_ITEM", "md_parent_section": "§4.3.5 [Storing Controlled Terminology for Synonym Qualifier Variables (MedDRA and WHODrug)]", "md_verbatim": "- If MedDRA is used to code events, the intermediate levels in the MedDRA hierarchy should also be represented in the dataset; a pair of variables has been defined for each of the levels of the hierarchy other than SOC and Preferred Term (PT): one to represent the text description and the other to represent the code value associated with it", "score": 0.6702, "match_basis": "verbatim_token+chapter_route:ch04"}, {"md_atom_id": "md_ch04_a705", "md_file": "knowledge_base/chapters/ch04_general_assumptions.md", "md_atom_type": "SENTENCE", "md_parent_section": "§4.4.10 [Representing Time Points]", "md_verbatim": "Time points can be represented using the time point variables --TPT, --TPTNUM, --ELTM, and the time-point anchors --TPTREF (text description) and --RFTDTC (date/time).", "score": 0.4667, "match_basis": "verbatim_token+chapter_route:ch04"}, {"md_atom_id": "md_ch04_a435", "md_file": "knowledge_base/chapters/ch04_general_assumptions.md", "md_atom_type": "SENTENCE", "md_parent_section": "§4.3.3 [Controlled Terminology Values]", "md_verbatim": "For example, --PRESP variables are associated with the NY codelist, but only the value \"Y\" is allowed in --PRESP variables.", "score": 0.4592, "match_basis": "verbatim_token+chapter_route:ch04"}, {"md_atom_id": "md_ch04_a977", "md_file": "knowledge_base/chapters/ch04_general_assumptions.md", "md_atom_type": "SENTENCE", "md_parent_section": "§4.5.6 [Supplemental Reason Variables]", "md_verbatim": "For Events and Interventions domains where prespecified occurrences have a reason for the \"Y\" or \"N\" value of --OCCUR, the reason can be represented with the variable --REASOC.", "score": 0.4487, "match_basis": "verbatim_token+chapter_route:ch04"}, {"md_atom_id": "md_ch04_a810", "md_file": "knowledge_base/chapters/ch04_general_assumptions.md", "md_atom_type": "SENTENCE", "md_parent_section": "§4.4.11 [Disease Milestones and Disease Milestone Timing Variables]", "md_verbatim": "When disease milestones have been defined for a study, the MIDS variable serves to link observations associated with a disease milestone in a way similar to how VISITNUM links observations collected at a visit.", "score": 0.4338, "match_basis": "verbatim_token+chapter_route:ch04"}], "candidate_count": 5, "zero_candidate": false}
{"pdf_atom_id": "ig34_p0037_a023", "pdf_atom_type": "SENTENCE", "pdf_source": "SDTMIG_v3.4", "pdf_page": 37, "pdf_parent_section": "§4.3.5 Storing Controlled Terminology for Synonym Qualifier Variables", "pdf_verbatim": "For example, --LLT should be used to represent the Lowest Level Term text description and --LLTCD should be used to represent the Lowest Level Term code value.", "figure_ref": null, "candidates": [{"md_atom_id": "md_ch04_a446", "md_file": "knowledge_base/chapters/ch04_general_assumptions.md", "md_atom_type": "LIST_ITEM", "md_parent_section": "§4.3.5 [Storing Controlled Terminology for Synonym Qualifier Variables (MedDRA and WHODrug)]", "md_verbatim": "  - For example, **--LLT** should be used to represent the Lowest Level Term text description and **--LLTCD** should be used to represent the Lowest Level Term code value", "score": 0.81, "match_basis": "verbatim_token+chapter_route:ch04"}, {"md_atom_id": "md_ch04_a336", "md_file": "knowledge_base/chapters/ch04_general_assumptions.md", "md_atom_type": "SENTENCE", "md_parent_section": "§4.2.7.3 [\"Specify\" Values for Topic Variables]", "md_verbatim": "--TESTCD and --TEST should be populated with the code and description of the test found in the specified text.", "score": 0.48, "match_basis": "verbatim_token+chapter_route:ch04"}, {"md_atom_id": "md_ch04_a333", "md_file": "knowledge_base/chapters/ch04_general_assumptions.md", "md_atom_type": "SENTENCE", "md_parent_section": "§4.2.7.3 [\"Specify\" Values for Topic Variables]", "md_verbatim": "--TERM should be populated with the description of the event found in the specified text and --PRESP could be used to distinguish between prespecified and free-text responses.", "score": 0.463, "match_basis": "verbatim_token+chapter_route:ch04"}, {"md_atom_id": "md_ch04_a272", "md_file": "knowledge_base/chapters/ch04_general_assumptions.md", "md_atom_type": "SENTENCE", "md_parent_section": "§4.2.7.1 [\"Specify\" Values for Non-Result Qualifier Variables]", "md_verbatim": "The free-text description should be stored in the SUPPEX dataset.", "score": 0.45, "match_basis": "verbatim_token+chapter_route:ch04"}, {"md_atom_id": "md_ch04_a516", "md_file": "knowledge_base/chapters/ch04_general_assumptions.md", "md_atom_type": "SENTENCE", "md_parent_section": "§4.4.2 [Date/Time Precision]", "md_verbatim": "The following table provides examples of ISO 8601 representations of complete and truncated date/time values.", "score": 0.4465, "match_basis": "verbatim_token+chapter_route:ch04"}], "candidate_count": 5, "zero_candidate": false}
{"pdf_atom_id": "ig34_p0037_a024", "pdf_atom_type": "LIST_ITEM", "pdf_source": "SDTMIG_v3.4", "pdf_page": 37, "pdf_parent_section": "§4.3.5 Storing Controlled Terminology for Synonym Qualifier Variables", "pdf_verbatim": "For concomitant medications, populate CMDECOD with the drug's generic name and populate CMCLAS with the drug class used for the sponsor's analysis and summary tables.", "figure_ref": null, "candidates": [{"md_atom_id": "md_ch04_a448", "md_file": "knowledge_base/chapters/ch04_general_assumptions.md", "md_atom_type": "LIST_ITEM", "md_parent_section": "§4.3.5 [Storing Controlled Terminology for Synonym Qualifier Variables (MedDRA and WHODrug)]", "md_verbatim": "- For concomitant medications, populate **CMDECOD** with the drug's generic name and populate **CMCLAS** with the drug class used for the sponsor's analysis and summary tables", "score": 0.9, "match_basis": "verbatim_token+chapter_route:ch04"}, {"md_atom_id": "md_ch04_a444", "md_file": "knowledge_base/chapters/ch04_general_assumptions.md", "md_atom_type": "LIST_ITEM", "md_parent_section": "§4.3.5 [Storing Controlled Terminology for Synonym Qualifier Variables (MedDRA and WHODrug)]", "md_verbatim": "- If a dictionary is multi-axial, the value in **--BODSYS** should represent the system organ class (SOC) used for the sponsor's analysis and summary tables, which may not necessarily be the primary SOC; populate **--SOC** with the dictionary-derived primary SOC; in cases where the primary SOC was used for analysis, --BODSYS and --SOC are the same", "score": 0.4836, "match_basis": "verbatim_token+chapter_route:ch04"}, {"md_atom_id": "md_ch04_a652", "md_file": "knowledge_base/chapters/ch04_general_assumptions.md", "md_atom_type": "LIST_ITEM", "md_parent_section": "§4.4.7 [Use of Relative Timing Variables]", "md_verbatim": "- **Concomitant Medications (--STRF/--ENRF):** --STRF = \"BEFORE\", --ENRF = \"DURING\"", "score": 0.4425, "match_basis": "verbatim_token+chapter_route:ch04"}, {"md_atom_id": "md_ch04_a450", "md_file": "knowledge_base/chapters/ch04_general_assumptions.md", "md_atom_type": "LIST_ITEM", "md_parent_section": "§4.3.5 [Storing Controlled Terminology for Synonym Qualifier Variables (MedDRA and WHODrug)]", "md_verbatim": "- For concomitant medications, supplemental qualifiers may be used to represent additional coding dictionary information (e.g., a drug's ATC codes from the WHO Drug Dictionary); see Section 8.4, Relating Non-standard Variable Values to a Parent Domain", "score": 0.431, "match_basis": "verbatim_token+chapter_route:ch04"}, {"md_atom_id": "md_ch04_a443", "md_file": "knowledge_base/chapters/ch04_general_assumptions.md", "md_atom_type": "LIST_ITEM", "md_parent_section": "§4.3.5 [Storing Controlled Terminology for Synonym Qualifier Variables (MedDRA and WHODrug)]", "md_verbatim": "- For events such as adverse events and medical history, populate **--DECOD** with the dictionary's preferred term and populate **--BODSYS** with the preferred body system name", "score": 0.429, "match_basis": "verbatim_token+chapter_route:ch04"}], "candidate_count": 5, "zero_candidate": false}
{"pdf_atom_id": "ig34_p0037_a025", "pdf_atom_type": "SENTENCE", "pdf_source": "SDTMIG_v3.4", "pdf_page": 37, "pdf_parent_section": "§4.3.5 Storing Controlled Terminology for Synonym Qualifier Variables", "pdf_verbatim": "If coding to multiple classes, follow Section 4.2.8.1, Multiple Values for an Intervention or Event Topic Variable, or omit CMCLAS.", "figure_ref": null, "candidates": [{"md_atom_id": "md_ch04_a449", "md_file": "knowledge_base/chapters/ch04_general_assumptions.md", "md_atom_type": "LIST_ITEM", "md_parent_section": "§4.3.5 [Storing Controlled Terminology for Synonym Qualifier Variables (MedDRA and WHODrug)]", "md_verbatim": "- If coding to multiple classes, follow Section 4.2.8.1 (Multiple Values for an Intervention or Event Topic Variable), or omit CMCLAS", "score": 0.81, "match_basis": "verbatim_token+chapter_route:ch04"}, {"md_atom_id": "md_ch04_a455", "md_file": "knowledge_base/chapters/ch04_general_assumptions.md", "md_atom_type": "SENTENCE", "md_parent_section": "§4.3.6 [Storing Topic Variables for General Domain Models]", "md_verbatim": "For an Interventions domain, the topic variable is --TRT.", "score": 0.5069, "match_basis": "verbatim_token+chapter_route:ch04"}, {"md_atom_id": "md_ch04_a976", "md_file": "knowledge_base/chapters/ch04_general_assumptions.md", "md_atom_type": "SENTENCE", "md_parent_section": "§4.5.6 [Supplemental Reason Variables]", "md_verbatim": "The SDTM general observation classes include the --REASND variable to submit the reason a response is not present (a result in a findings class or an --OCCUR value in an events or interventions variable).", "score": 0.4758, "match_basis": "verbatim_token+chapter_route:ch04"}, {"md_atom_id": "md_ch04_a458", "md_file": "knowledge_base/chapters/ch04_general_assumptions.md", "md_atom_type": "SENTENCE", "md_parent_section": "§4.3.6 [Storing Topic Variables for General Domain Models]", "md_verbatim": "If the verbatim topic variable in an Interventions or Event domain is modified to facilitate coding, the modified text is stored in --MODIFY.", "score": 0.4735, "match_basis": "verbatim_token+chapter_route:ch04"}, {"md_atom_id": "md_ch04_a453", "md_file": "knowledge_base/chapters/ch04_general_assumptions.md", "md_atom_type": "SENTENCE", "md_parent_section": "§4.3.6 [Storing Topic Variables for General Domain Models]", "md_verbatim": "The topic variable for the Interventions and Events general observation-class models is often stored as verbatim text.", "score": 0.4714, "match_basis": "verbatim_token+chapter_route:ch04"}], "candidate_count": 5, "zero_candidate": false}
{"pdf_atom_id": "ig34_p0037_a026", "pdf_atom_type": "LIST_ITEM", "pdf_source": "SDTMIG_v3.4", "pdf_page": 37, "pdf_parent_section": "§4.3.5 Storing Controlled Terminology for Synonym Qualifier Variables", "pdf_verbatim": "For concomitant medications, supplemental qualifiers may be used to represent additional coding dictionary information (e.g., a drug's ATC codes from the WHO Drug Dictionary; see Section 8.4, Relating Non-standard Variable Values to a Parent Domain).", "figure_ref": null, "candidates": [{"md_atom_id": "md_ch04_a450", "md_file": "knowledge_base/chapters/ch04_general_assumptions.md", "md_atom_type": "LIST_ITEM", "md_parent_section": "§4.3.5 [Storing Controlled Terminology for Synonym Qualifier Variables (MedDRA and WHODrug)]", "md_verbatim": "- For concomitant medications, supplemental qualifiers may be used to represent additional coding dictionary information (e.g., a drug's ATC codes from the WHO Drug Dictionary); see Section 8.4, Relating Non-standard Variable Values to a Parent Domain", "score": 0.9, "match_basis": "verbatim_token+chapter_route:ch04"}, {"md_atom_id": "md_ch04_a908", "md_file": "knowledge_base/chapters/ch04_general_assumptions.md", "md_atom_type": "LIST_ITEM", "md_parent_section": "§4.5.3.2 [Text Strings Greater than 200 Characters in Other Variables]", "md_verbatim": "- The **first 200 characters** of text should be stored in the parent domain variable and each additional 200 characters of text should be stored in a record in the SUPP-- dataset (see Section 8.4, Relating Non-standard Variable Values to a Parent Domain)", "score": 0.5074, "match_basis": "verbatim_token+chapter_route:ch04"}, {"md_atom_id": "md_ch04_a262", "md_file": "knowledge_base/chapters/ch04_general_assumptions.md", "md_atom_type": "SENTENCE", "md_parent_section": "§4.2.7.1 [\"Specify\" Values for Non-Result Qualifier Variables]", "md_verbatim": "When free-text information is collected to supplement a standard non-result qualifier field, the free-text value should be placed in the SUPP-- dataset described in Section 8.4, Relating Non-standard Variable Values to a Parent Domain.", "score": 0.4629, "match_basis": "verbatim_token+chapter_route:ch04"}, {"md_atom_id": "md_ch04_a059", "md_file": "knowledge_base/chapters/ch04_general_assumptions.md", "md_atom_type": "LIST_ITEM", "md_parent_section": "§4.1.7 [Splitting Domains]", "md_verbatim": "6. For domains with 2-letter domain codes (i.e., other than SUPPxx and RELREC), split dataset names can be up to 4 characters in length. For example, if splitting by --CAT, dataset names would be the domain name plus up to 2 additional characters (e.g., QS36 for SF-36). If splitting Findings About by parent domain, then the dataset name would be the domain code, \"FA\", plus the 2-character domain code for parent domain code (e.g., \"FACM\"). The 4-character dataset-name limitation allows the use of a Supplemental Qualifier dataset associated with the split dataset.", "score": 0.46, "match_basis": "verbatim_token+chapter_route:ch04"}, {"md_atom_id": "md_ch04_a060", "md_file": "knowledge_base/chapters/ch04_general_assumptions.md", "md_atom_type": "LIST_ITEM", "md_parent_section": "§4.1.7 [Splitting Domains]", "md_verbatim": "7. Supplemental Qualifier datasets for split domains would also be split. The nomenclature would include the additional 1 to 2 characters used to identify the split dataset (e.g., SUPPQS36, SUPPFACM). The value of RDOMAIN in the SUPP-- datasets would be the 2-character domain code (e.g., QS, FA).", "score": 0.4579, "match_basis": "verbatim_token+chapter_route:ch04"}], "candidate_count": 5, "zero_candidate": false}
{"pdf_atom_id": "ig34_p0037_a027", "pdf_atom_type": "NOTE", "pdf_source": "SDTMIG_v3.4", "pdf_page": 37, "pdf_parent_section": "§4.3.5 Storing Controlled Terminology for Synonym Qualifier Variables", "pdf_verbatim": "The sponsor is expected to provide the dictionary name and version used to map the terms by utilizing the Define-XML external codelist attributes.", "figure_ref": null, "candidates": [{"md_atom_id": "md_ch04_a451", "md_file": "knowledge_base/chapters/ch04_general_assumptions.md", "md_atom_type": "SENTENCE", "md_parent_section": "§4.3.5 [Storing Controlled Terminology for Synonym Qualifier Variables (MedDRA and WHODrug)]", "md_verbatim": "The sponsor is expected to provide the dictionary name and version used to map the terms by utilizing the Define-XML external codelist attributes.", "score": 0.81, "match_basis": "verbatim_token+chapter_route:ch04"}, {"md_atom_id": "md_ch04_a473", "md_file": "knowledge_base/chapters/ch04_general_assumptions.md", "md_atom_type": "NOTE", "md_parent_section": "§4.3.7 [Use of \"Yes\" and \"No\" Values]", "md_verbatim": "> **Note:** Permissible values for variables with controlled terms of \"Y\" or \"N\" may be extended to include \"U\" or \"NA\" if it is the sponsor's practice to explicitly collect or derive values indicating \"Unknown\" or \"Not Applicable\" for that variable.", "score": 0.3667, "match_basis": "verbatim_token+chapter_route:ch04"}, {"md_atom_id": "md_ch04_a902", "md_file": "knowledge_base/chapters/ch04_general_assumptions.md", "md_atom_type": "NOTE", "md_parent_section": "§4.5.3.1 [Test Name (--TEST) Greater than 40 Characters]", "md_verbatim": "**Exception — IETEST in IE and TI domains:** IETEST values in the Inclusion/Exclusion Criteria Not Met (IE) and Trial Inclusion/Exclusion Criteria (TI) domains are exceptions to the 40-character rule and are limited to 200 characters, because these are not expected to be transformed to column labels. Values of IETEST that exceed 200 characters should be described in study metadata as per the convention above.", "score": 0.3651, "match_basis": "verbatim_token+chapter_route:ch04"}, {"md_atom_id": "md_ch04_a068", "md_file": "knowledge_base/chapters/ch04_general_assumptions.md", "md_atom_type": "NOTE", "md_parent_section": "§4.1.7 [Splitting Domains]", "md_verbatim": "> **Note:** Submission of split SDTM domains may be subject to additional dataset-splitting conventions as defined by regulators via technical specifications and/or as negotiated with regulatory reviewers.", "score": 0.3644, "match_basis": "verbatim_token+chapter_route:ch04"}, {"md_atom_id": "md_ch04_a649", "md_file": "knowledge_base/chapters/ch04_general_assumptions.md", "md_atom_type": "NOTE", "md_parent_section": "§4.4.7 [Use of Relative Timing Variables]", "md_verbatim": "**Note:** \"DURING\" and \"DURING/AFTER\" are in the STENRF codelist but describe timing relative to an interval of time rather than a point in time, so are **not allowable for use with --STRTPT and --ENRTPT** variables.", "score": 0.3609, "match_basis": "verbatim_token+chapter_route:ch04"}], "candidate_count": 5, "zero_candidate": false}
{"pdf_atom_id": "ig34_p0037_a028", "pdf_atom_type": "HEADING", "pdf_source": "SDTMIG_v3.4", "pdf_page": 37, "pdf_parent_section": "§4.3.6 Storing Topic Variables for General Domain Models", "pdf_verbatim": "4.3.6 Storing Topic Variables for General Domain Models", "figure_ref": null, "candidates": [{"md_atom_id": "md_ch04_a452", "md_file": "knowledge_base/chapters/ch04_general_assumptions.md", "md_atom_type": "HEADING", "md_parent_section": "§4.3 [Coding and Controlled Terminology Assumptions]", "md_verbatim": "### 4.3.6 Storing Topic Variables for General Domain Models", "score": 0.9, "match_basis": "verbatim_token+chapter_route:ch04"}, {"md_atom_id": "md_ch04_a893", "md_file": "knowledge_base/chapters/ch04_general_assumptions.md", "md_atom_type": "HEADING", "md_parent_section": "§4.5 [Other Assumptions]", "md_verbatim": "### 4.5.3 Text Strings that Exceed the Maximum Length for General Observation-class Domain Variables", "score": 0.4839, "match_basis": "verbatim_token+chapter_route:ch04"}, {"md_atom_id": "md_ch04_a172", "md_file": "knowledge_base/chapters/ch04_general_assumptions.md", "md_atom_type": "HEADING", "md_parent_section": "§4 [Assumptions for Domain Models]", "md_verbatim": "## 4.2 General Variable Assumptions", "score": 0.4737, "match_basis": "verbatim_token+chapter_route:ch04"}, {"md_atom_id": "md_ch04_a316", "md_file": "knowledge_base/chapters/ch04_general_assumptions.md", "md_atom_type": "HEADING", "md_parent_section": "§4.2.7 [Submitting Free Text from the CRF]", "md_verbatim": "#### 4.2.7.3 \"Specify\" Values for Topic Variables", "score": 0.4737, "match_basis": "verbatim_token+chapter_route:ch04"}, {"md_atom_id": "md_ch04_a006", "md_file": "knowledge_base/chapters/ch04_general_assumptions.md", "md_atom_type": "HEADING", "md_parent_section": "§4 [Assumptions for Domain Models]", "md_verbatim": "## 4.1 General Domain Assumptions", "score": 0.4421, "match_basis": "verbatim_token+chapter_route:ch04"}], "candidate_count": 5, "zero_candidate": false}
{"pdf_atom_id": "ig34_p0037_a029", "pdf_atom_type": "SENTENCE", "pdf_source": "SDTMIG_v3.4", "pdf_page": 37, "pdf_parent_section": "§4.3.6 Storing Topic Variables for General Domain Models", "pdf_verbatim": "The topic variable for the Interventions and Events general observation-class models is often stored as verbatim text.", "figure_ref": null, "candidates": [{"md_atom_id": "md_ch04_a453", "md_file": "knowledge_base/chapters/ch04_general_assumptions.md", "md_atom_type": "SENTENCE", "md_parent_section": "§4.3.6 [Storing Topic Variables for General Domain Models]", "md_verbatim": "The topic variable for the Interventions and Events general observation-class models is often stored as verbatim text.", "score": 0.9, "match_basis": "verbatim_token+chapter_route:ch04"}, {"md_atom_id": "md_ch04_a458", "md_file": "knowledge_base/chapters/ch04_general_assumptions.md", "md_atom_type": "SENTENCE", "md_parent_section": "§4.3.6 [Storing Topic Variables for General Domain Models]", "md_verbatim": "If the verbatim topic variable in an Interventions or Event domain is modified to facilitate coding, the modified text is stored in --MODIFY.", "score": 0.5692, "match_basis": "verbatim_token+chapter_route:ch04"}, {"md_atom_id": "md_ch04_a477", "md_file": "knowledge_base/chapters/ch04_general_assumptions.md", "md_atom_type": "SENTENCE", "md_parent_section": "§4.4 [Actual and Relative Time Assumptions]", "md_verbatim": "In the Events or Interventions general observation class, this could be the start date of the event or intervention.", "score": 0.5507, "match_basis": "verbatim_token+chapter_route:ch04"}, {"md_atom_id": "md_ch04_a030", "md_file": "knowledge_base/chapters/ch04_general_assumptions.md", "md_atom_type": "SENTENCE", "md_parent_section": "§4.1.4 [Order of the Variables]", "md_verbatim": "Variables for the 3 general observation classes must be ordered with Identifiers variables first, followed by Topic, Qualifier, and Timing variables.", "score": 0.5176, "match_basis": "verbatim_token+chapter_route:ch04"}, {"md_atom_id": "md_ch04_a018", "md_file": "knowledge_base/chapters/ch04_general_assumptions.md", "md_atom_type": "SENTENCE", "md_parent_section": "§4.1.3.1 [EPOCH Variable Guidance]", "md_verbatim": "For observations in Interventions or Events class domains, EPOCH should be based on the --STDTC variable, since this is the start of the intervention or event.", "score": 0.5169, "match_basis": "verbatim_token+chapter_route:ch04"}], "candidate_count": 5, "zero_candidate": false}
{"pdf_atom_id": "ig34_p0037_a030", "pdf_atom_type": "SENTENCE", "pdf_source": "SDTMIG_v3.4", "pdf_page": 37, "pdf_parent_section": "§4.3.6 Storing Topic Variables for General Domain Models", "pdf_verbatim": "For an Events domain, the topic variable is --TERM.", "figure_ref": null, "candidates": [{"md_atom_id": "md_ch04_a454", "md_file": "knowledge_base/chapters/ch04_general_assumptions.md", "md_atom_type": "SENTENCE", "md_parent_section": "§4.3.6 [Storing Topic Variables for General Domain Models]", "md_verbatim": "For an Events domain, the topic variable is --TERM.", "score": 0.9, "match_basis": "verbatim_token+chapter_route:ch04"}, {"md_atom_id": "md_ch04_a455", "md_file": "knowledge_base/chapters/ch04_general_assumptions.md", "md_atom_type": "SENTENCE", "md_parent_section": "§4.3.6 [Storing Topic Variables for General Domain Models]", "md_verbatim": "For an Interventions domain, the topic variable is --TRT.", "score": 0.66, "match_basis": "verbatim_token+chapter_route:ch04"}, {"md_atom_id": "md_ch04_a458", "md_file": "knowledge_base/chapters/ch04_general_assumptions.md", "md_atom_type": "SENTENCE", "md_parent_section": "§4.3.6 [Storing Topic Variables for General Domain Models]", "md_verbatim": "If the verbatim topic variable in an Interventions or Event domain is modified to facilitate coding, the modified text is stored in --MODIFY.", "score": 0.4831, "match_basis": "verbatim_token+chapter_route:ch04"}, {"md_atom_id": "md_ch04_a018", "md_file": "knowledge_base/chapters/ch04_general_assumptions.md", "md_atom_type": "SENTENCE", "md_parent_section": "§4.1.3.1 [EPOCH Variable Guidance]", "md_verbatim": "For observations in Interventions or Events class domains, EPOCH should be based on the --STDTC variable, since this is the start of the intervention or event.", "score": 0.47, "match_basis": "verbatim_token+chapter_route:ch04"}, {"md_atom_id": "md_ch04_a453", "md_file": "knowledge_base/chapters/ch04_general_assumptions.md", "md_atom_type": "SENTENCE", "md_parent_section": "§4.3.6 [Storing Topic Variables for General Domain Models]", "md_verbatim": "The topic variable for the Interventions and Events general observation-class models is often stored as verbatim text.", "score": 0.4548, "match_basis": "verbatim_token+chapter_route:ch04"}], "candidate_count": 5, "zero_candidate": false}
{"pdf_atom_id": "ig34_p0037_a031", "pdf_atom_type": "SENTENCE", "pdf_source": "SDTMIG_v3.4", "pdf_page": 37, "pdf_parent_section": "§4.3.6 Storing Topic Variables for General Domain Models", "pdf_verbatim": "For an Interventions domain, the topic variable is --TRT.", "figure_ref": null, "candidates": [{"md_atom_id": "md_ch04_a455", "md_file": "knowledge_base/chapters/ch04_general_assumptions.md", "md_atom_type": "SENTENCE", "md_parent_section": "§4.3.6 [Storing Topic Variables for General Domain Models]", "md_verbatim": "For an Interventions domain, the topic variable is --TRT.", "score": 0.9, "match_basis": "verbatim_token+chapter_route:ch04"}, {"md_atom_id": "md_ch04_a454", "md_file": "knowledge_base/chapters/ch04_general_assumptions.md", "md_atom_type": "SENTENCE", "md_parent_section": "§4.3.6 [Storing Topic Variables for General Domain Models]", "md_verbatim": "For an Events domain, the topic variable is --TERM.", "score": 0.66, "match_basis": "verbatim_token+chapter_route:ch04"}, {"md_atom_id": "md_ch04_a458", "md_file": "knowledge_base/chapters/ch04_general_assumptions.md", "md_atom_type": "SENTENCE", "md_parent_section": "§4.3.6 [Storing Topic Variables for General Domain Models]", "md_verbatim": "If the verbatim topic variable in an Interventions or Event domain is modified to facilitate coding, the modified text is stored in --MODIFY.", "score": 0.5586, "match_basis": "verbatim_token+chapter_route:ch04"}, {"md_atom_id": "md_ch04_a018", "md_file": "knowledge_base/chapters/ch04_general_assumptions.md", "md_atom_type": "SENTENCE", "md_parent_section": "§4.1.3.1 [EPOCH Variable Guidance]", "md_verbatim": "For observations in Interventions or Events class domains, EPOCH should be based on the --STDTC variable, since this is the start of the intervention or event.", "score": 0.53, "match_basis": "verbatim_token+chapter_route:ch04"}, {"md_atom_id": "md_ch04_a453", "md_file": "knowledge_base/chapters/ch04_general_assumptions.md", "md_atom_type": "SENTENCE", "md_parent_section": "§4.3.6 [Storing Topic Variables for General Domain Models]", "md_verbatim": "The topic variable for the Interventions and Events general observation-class models is often stored as verbatim text.", "score": 0.5129, "match_basis": "verbatim_token+chapter_route:ch04"}], "candidate_count": 5, "zero_candidate": false}
{"pdf_atom_id": "ig34_p0037_a032", "pdf_atom_type": "SENTENCE", "pdf_source": "SDTMIG_v3.4", "pdf_page": 37, "pdf_parent_section": "§4.3.6 Storing Topic Variables for General Domain Models", "pdf_verbatim": "For a Findings domain, the topic variable --TESTCD should use controlled terminology (e.g., \"SYSBP\" for systolic blood pressure).", "figure_ref": null, "candidates": [{"md_atom_id": "md_ch04_a456", "md_file": "knowledge_base/chapters/ch04_general_assumptions.md", "md_atom_type": "SENTENCE", "md_parent_section": "§4.3.6 [Storing Topic Variables for General Domain Models]", "md_verbatim": "For a Findings domain, the topic variable --TESTCD should use controlled terminology (e.g., \"SYSBP\" for systolic blood pressure).", "score": 0.9, "match_basis": "verbatim_token+chapter_route:ch04"}, {"md_atom_id": "md_ch04_a999", "md_file": "knowledge_base/chapters/ch04_general_assumptions.md", "md_atom_type": "SENTENCE", "md_parent_section": "§4.5.7 [Presence or Absence of Prespecified Interventions and Events]", "md_verbatim": "As in Findings, --STAT has controlled terminology of NOT DONE.", "score": 0.4971, "match_basis": "verbatim_token+chapter_route:ch04"}, {"md_atom_id": "md_ch04_a005", "md_file": "knowledge_base/chapters/ch04_general_assumptions.md", "md_atom_type": "SENTENCE", "md_parent_section": "§4.0 [Overview]", "md_verbatim": "It covers general domain assumptions, general variable assumptions, coding and controlled terminology assumptions, actual and relative time assumptions, and other assumptions.", "score": 0.4898, "match_basis": "verbatim_token+chapter_route:ch04"}, {"md_atom_id": "md_ch04_a365", "md_file": "knowledge_base/chapters/ch04_general_assumptions.md", "md_atom_type": "SENTENCE", "md_parent_section": "§4.2.8.3 [Multiple Values for a Non-result Qualifier Variable]", "md_verbatim": "The values stored in QVAL should be consistent with the controlled terminology associated with the standard variable.", "score": 0.4832, "match_basis": "verbatim_token+chapter_route:ch04"}, {"md_atom_id": "md_ch04_a156", "md_file": "knowledge_base/chapters/ch04_general_assumptions.md", "md_atom_type": "SENTENCE", "md_parent_section": "§4.1.9 [Assigning Natural Keys in the Metadata]", "md_verbatim": "The use of generic test codes helps to create distinct lists of manageable controlled terminology for --TESTCD.", "score": 0.4677, "match_basis": "verbatim_token+chapter_route:ch04"}], "candidate_count": 5, "zero_candidate": false}
{"pdf_atom_id": "ig34_p0037_a033", "pdf_atom_type": "SENTENCE", "pdf_source": "SDTMIG_v3.4", "pdf_page": 37, "pdf_parent_section": "§4.3.6 Storing Topic Variables for General Domain Models", "pdf_verbatim": "If CDISC Controlled Terminology exists, it should be used; otherwise, sponsors should define their own controlled list of terms.", "figure_ref": null, "candidates": [{"md_atom_id": "md_ch04_a457", "md_file": "knowledge_base/chapters/ch04_general_assumptions.md", "md_atom_type": "SENTENCE", "md_parent_section": "§4.3.6 [Storing Topic Variables for General Domain Models]", "md_verbatim": "If CDISC Controlled Terminology exists, it should be used; otherwise, sponsors should define their own controlled list of terms.", "score": 0.9, "match_basis": "verbatim_token+chapter_route:ch04"}, {"md_atom_id": "md_ch04_a427", "md_file": "knowledge_base/chapters/ch04_general_assumptions.md", "md_atom_type": "SENTENCE", "md_parent_section": "§4.3.2 [Controlled Terminology Text Case]", "md_verbatim": "Terms from controlled terminology should be in the case that appears in the source codelist or code system (e.g., CDISC codelist or external code system such as MedDRA).", "score": 0.4953, "match_basis": "verbatim_token+chapter_route:ch04"}, {"md_atom_id": "md_ch04_a388", "md_file": "knowledge_base/chapters/ch04_general_assumptions.md", "md_atom_type": "SENTENCE", "md_parent_section": "§4.2.8.3 [Multiple Values for a Non-result Qualifier Variable]", "md_verbatim": "The controlled terminology used should be documented as part of value-level metadata.", "score": 0.4946, "match_basis": "verbatim_token+chapter_route:ch04"}, {"md_atom_id": "md_ch04_a430", "md_file": "knowledge_base/chapters/ch04_general_assumptions.md", "md_atom_type": "SENTENCE", "md_parent_section": "§4.3.3 [Controlled Terminology Values]", "md_verbatim": "The controlled terminology or a reference to it should be included in the Define-XML document wherever applicable.", "score": 0.4929, "match_basis": "verbatim_token+chapter_route:ch04"}, {"md_atom_id": "md_ch04_a995", "md_file": "knowledge_base/chapters/ch04_general_assumptions.md", "md_atom_type": "SENTENCE", "md_parent_section": "§4.5.7 [Presence or Absence of Prespecified Interventions and Events]", "md_verbatim": "It has controlled terminology of \"Y\" and \"N\" (for \"Yes\" and \"No\").", "score": 0.4821, "match_basis": "verbatim_token+chapter_route:ch04"}], "candidate_count": 5, "zero_candidate": false}
{"pdf_atom_id": "ig34_p0037_a034", "pdf_atom_type": "SENTENCE", "pdf_source": "SDTMIG_v3.4", "pdf_page": 37, "pdf_parent_section": "§4.3.6 Storing Topic Variables for General Domain Models", "pdf_verbatim": "If the verbatim topic variable in an Interventions or Event domain is modified to facilitate coding, the modified text is stored in --MODIFY.", "figure_ref": null, "candidates": [{"md_atom_id": "md_ch04_a458", "md_file": "knowledge_base/chapters/ch04_general_assumptions.md", "md_atom_type": "SENTENCE", "md_parent_section": "§4.3.6 [Storing Topic Variables for General Domain Models]", "md_verbatim": "If the verbatim topic variable in an Interventions or Event domain is modified to facilitate coding, the modified text is stored in --MODIFY.", "score": 0.9, "match_basis": "verbatim_token+chapter_route:ch04"}, {"md_atom_id": "md_ch04_a453", "md_file": "knowledge_base/chapters/ch04_general_assumptions.md", "md_atom_type": "SENTENCE", "md_parent_section": "§4.3.6 [Storing Topic Variables for General Domain Models]", "md_verbatim": "The topic variable for the Interventions and Events general observation-class models is often stored as verbatim text.", "score": 0.5692, "match_basis": "verbatim_token+chapter_route:ch04"}, {"md_atom_id": "md_ch04_a455", "md_file": "knowledge_base/chapters/ch04_general_assumptions.md", "md_atom_type": "SENTENCE", "md_parent_section": "§4.3.6 [Storing Topic Variables for General Domain Models]", "md_verbatim": "For an Interventions domain, the topic variable is --TRT.", "score": 0.5586, "match_basis": "verbatim_token+chapter_route:ch04"}, {"md_atom_id": "md_ch04_a454", "md_file": "knowledge_base/chapters/ch04_general_assumptions.md", "md_atom_type": "SENTENCE", "md_parent_section": "§4.3.6 [Storing Topic Variables for General Domain Models]", "md_verbatim": "For an Events domain, the topic variable is --TERM.", "score": 0.4831, "match_basis": "verbatim_token+chapter_route:ch04"}, {"md_atom_id": "md_ch04_a994", "md_file": "knowledge_base/chapters/ch04_general_assumptions.md", "md_atom_type": "SENTENCE", "md_parent_section": "§4.5.7 [Presence or Absence of Prespecified Interventions and Events]", "md_verbatim": "The --OCCUR variable is used to indicate whether a prespecified intervention or event occurred or did not occur.", "score": 0.4704, "match_basis": "verbatim_token+chapter_route:ch04"}], "candidate_count": 5, "zero_candidate": false}
{"pdf_atom_id": "ig34_p0037_a035", "pdf_atom_type": "SENTENCE", "pdf_source": "SDTMIG_v3.4", "pdf_page": 37, "pdf_parent_section": "§4.3.6 Storing Topic Variables for General Domain Models", "pdf_verbatim": "In most cases—other than Physical Examination (PE)—the [TRUNCATED_AT_PAGE_BOUNDARY]", "figure_ref": null, "candidates": [{"md_atom_id": "md_ch04_a459", "md_file": "knowledge_base/chapters/ch04_general_assumptions.md", "md_atom_type": "SENTENCE", "md_parent_section": "§4.3.6 [Storing Topic Variables for General Domain Models]", "md_verbatim": "In most cases — other than Physical Examination (PE) — the dictionary-coded text is derived into --DECOD.", "score": 0.5644, "match_basis": "verbatim_token+chapter_route:ch04"}, {"md_atom_id": "md_ch04_a146", "md_file": "knowledge_base/chapters/ch04_general_assumptions.md", "md_atom_type": "SENTENCE", "md_parent_section": "§4.1.9 [Assigning Natural Keys in the Metadata]", "md_verbatim": "The important concept here is that a domain is not limited by physical structure.", "score": 0.3957, "match_basis": "verbatim_token+chapter_route:ch04"}, {"md_atom_id": "md_ch04_a516", "md_file": "knowledge_base/chapters/ch04_general_assumptions.md", "md_atom_type": "SENTENCE", "md_parent_section": "§4.4.2 [Date/Time Precision]", "md_verbatim": "The following table provides examples of ISO 8601 representations of complete and truncated date/time values.", "score": 0.3918, "match_basis": "verbatim_token+chapter_route:ch04"}, {"md_atom_id": "md_ch04_a650", "md_file": "knowledge_base/chapters/ch04_general_assumptions.md", "md_atom_type": "SENTENCE", "md_parent_section": "§4.4.7 [Use of Relative Timing Variables]", "md_verbatim": "**Example applications:**", "score": 0.3875, "match_basis": "verbatim_token+chapter_route:ch04"}, {"md_atom_id": "md_ch04_a147", "md_file": "knowledge_base/chapters/ch04_general_assumptions.md", "md_atom_type": "SENTENCE", "md_parent_section": "§4.1.9 [Assigning Natural Keys in the Metadata]", "md_verbatim": "A domain may comprise more than 1 physical dataset (e.g., the main domain dataset and its associated Supplemental Qualifiers dataset).", "score": 0.3867, "match_basis": "verbatim_token+chapter_route:ch04"}], "candidate_count": 5, "zero_candidate": false}
{"pdf_atom_id": "ig34_p0038_a001", "pdf_atom_type": "SENTENCE", "pdf_source": "SDTMIG_v3.4", "pdf_page": 38, "pdf_parent_section": "§4.3.6 Storing Topic Variables for General Domain Models", "pdf_verbatim": "dictionary-coded text is derived into --DECOD.", "figure_ref": null, "candidates": [{"md_atom_id": "md_ch04_a459", "md_file": "knowledge_base/chapters/ch04_general_assumptions.md", "md_atom_type": "SENTENCE", "md_parent_section": "§4.3.6 [Storing Topic Variables for General Domain Models]", "md_verbatim": "In most cases — other than Physical Examination (PE) — the dictionary-coded text is derived into --DECOD.", "score": 0.5933, "match_basis": "verbatim_token+chapter_route:ch04"}, {"md_atom_id": "md_ch04_a439", "md_file": "knowledge_base/chapters/ch04_general_assumptions.md", "md_atom_type": "SENTENCE", "md_parent_section": "§4.3.4 [Use of Controlled Terminology and Arbitrary Number Codes]", "md_verbatim": "For example, CMDECOD would contain human-readable dictionary text rather than a numeric code.", "score": 0.4579, "match_basis": "verbatim_token+chapter_route:ch04"}, {"md_atom_id": "md_ch04_a460", "md_file": "knowledge_base/chapters/ch04_general_assumptions.md", "md_atom_type": "SENTENCE", "md_parent_section": "§4.3.6 [Storing Topic Variables for General Domain Models]", "md_verbatim": "Because the PEORRES variable is modified instead of the topic variable for PE, the dictionary-derived text would be placed in PESTRESC.", "score": 0.4364, "match_basis": "verbatim_token+chapter_route:ch04"}, {"md_atom_id": "md_ch04_a428", "md_file": "knowledge_base/chapters/ch04_general_assumptions.md", "md_atom_type": "SENTENCE", "md_parent_section": "§4.3.2 [Controlled Terminology Text Case]", "md_verbatim": "See Section 4.2.4, Text Case in Submitted Data.", "score": 0.3833, "match_basis": "verbatim_token+chapter_route:ch04"}, {"md_atom_id": "md_ch04_a451", "md_file": "knowledge_base/chapters/ch04_general_assumptions.md", "md_atom_type": "SENTENCE", "md_parent_section": "§4.3.5 [Storing Controlled Terminology for Synonym Qualifier Variables (MedDRA and WHODrug)]", "md_verbatim": "The sponsor is expected to provide the dictionary name and version used to map the terms by utilizing the Define-XML external codelist attributes.", "score": 0.3825, "match_basis": "verbatim_token+chapter_route:ch04"}], "candidate_count": 5, "zero_candidate": false}
{"pdf_atom_id": "ig34_p0038_a002", "pdf_atom_type": "SENTENCE", "pdf_source": "SDTMIG_v3.4", "pdf_page": 38, "pdf_parent_section": "§4.3.6 Storing Topic Variables for General Domain Models", "pdf_verbatim": "Because the PEORRES variable is modified instead of the topic variable for PE, the dictionary-derived text would be placed in PESTRESC.", "figure_ref": null, "candidates": [{"md_atom_id": "md_ch04_a460", "md_file": "knowledge_base/chapters/ch04_general_assumptions.md", "md_atom_type": "SENTENCE", "md_parent_section": "§4.3.6 [Storing Topic Variables for General Domain Models]", "md_verbatim": "Because the PEORRES variable is modified instead of the topic variable for PE, the dictionary-derived text would be placed in PESTRESC.", "score": 0.9, "match_basis": "verbatim_token+chapter_route:ch04"}, {"md_atom_id": "md_ch04_a439", "md_file": "knowledge_base/chapters/ch04_general_assumptions.md", "md_atom_type": "SENTENCE", "md_parent_section": "§4.3.4 [Use of Controlled Terminology and Arbitrary Number Codes]", "md_verbatim": "For example, CMDECOD would contain human-readable dictionary text rather than a numeric code.", "score": 0.4267, "match_basis": "verbatim_token+chapter_route:ch04"}, {"md_atom_id": "md_ch04_a458", "md_file": "knowledge_base/chapters/ch04_general_assumptions.md", "md_atom_type": "SENTENCE", "md_parent_section": "§4.3.6 [Storing Topic Variables for General Domain Models]", "md_verbatim": "If the verbatim topic variable in an Interventions or Event domain is modified to facilitate coding, the modified text is stored in --MODIFY.", "score": 0.4263, "match_basis": "verbatim_token+chapter_route:ch04"}, {"md_atom_id": "md_ch04_a992", "md_file": "knowledge_base/chapters/ch04_general_assumptions.md", "md_atom_type": "SENTENCE", "md_parent_section": "§4.5.7 [Presence or Absence of Prespecified Interventions and Events]", "md_verbatim": "It is a permissible variable, and should only be used when the topic variable values come from a prespecified list.", "score": 0.4121, "match_basis": "verbatim_token+chapter_route:ch04"}, {"md_atom_id": "md_ch04_a459", "md_file": "knowledge_base/chapters/ch04_general_assumptions.md", "md_atom_type": "SENTENCE", "md_parent_section": "§4.3.6 [Storing Topic Variables for General Domain Models]", "md_verbatim": "In most cases — other than Physical Examination (PE) — the dictionary-coded text is derived into --DECOD.", "score": 0.4091, "match_basis": "verbatim_token+chapter_route:ch04"}], "candidate_count": 5, "zero_candidate": false}
{"pdf_atom_id": "ig34_p0038_a003", "pdf_atom_type": "SENTENCE", "pdf_source": "SDTMIG_v3.4", "pdf_page": 38, "pdf_parent_section": "§4.3.6 Storing Topic Variables for General Domain Models", "pdf_verbatim": "The variables used in each of the defined domains are:", "figure_ref": null, "candidates": [{"md_atom_id": "md_ch04_a454", "md_file": "knowledge_base/chapters/ch04_general_assumptions.md", "md_atom_type": "SENTENCE", "md_parent_section": "§4.3.6 [Storing Topic Variables for General Domain Models]", "md_verbatim": "For an Events domain, the topic variable is --TERM.", "score": 0.5, "match_basis": "verbatim_token+chapter_route:ch04"}, {"md_atom_id": "md_ch04_a455", "md_file": "knowledge_base/chapters/ch04_general_assumptions.md", "md_atom_type": "SENTENCE", "md_parent_section": "§4.3.6 [Storing Topic Variables for General Domain Models]", "md_verbatim": "For an Interventions domain, the topic variable is --TRT.", "score": 0.4692, "match_basis": "verbatim_token+chapter_route:ch04"}, {"md_atom_id": "md_ch04_a028", "md_file": "knowledge_base/chapters/ch04_general_assumptions.md", "md_atom_type": "SENTENCE", "md_parent_section": "§4.1.4 [Order of the Variables]", "md_verbatim": "The order of variables in the Define-XML document must reflect the order of variables in the dataset.", "score": 0.46, "match_basis": "verbatim_token+chapter_route:ch04"}, {"md_atom_id": "md_ch04_a239", "md_file": "knowledge_base/chapters/ch04_general_assumptions.md", "md_atom_type": "SENTENCE", "md_parent_section": "§4.2.6 [Grouping Variables and Categorization]", "md_verbatim": "Although --SPID and --REFID are Identifier variables, they may sometimes be used as grouping variables and may also have meaning across domains.", "score": 0.4478, "match_basis": "verbatim_token+chapter_route:ch04"}, {"md_atom_id": "md_ch04_a1032", "md_file": "knowledge_base/chapters/ch04_general_assumptions.md", "md_atom_type": "SENTENCE", "md_parent_section": "§4.5.9 [Baseline Values]", "md_verbatim": "In domains where --BLFL was permissible, the variable --LOBXFL was added with a core value of permissible.", "score": 0.4412, "match_basis": "verbatim_token+chapter_route:ch04"}], "candidate_count": 5, "zero_candidate": false}
{"pdf_atom_id": "ig34_p0038_a004", "pdf_atom_type": "TABLE_HEADER", "pdf_source": "SDTMIG_v3.4", "pdf_page": 38, "pdf_parent_section": "§4.3.6 Storing Topic Variables for General Domain Models", "pdf_verbatim": "Domain | Original Verbatim | Modified Verbatim | Standardized Value", "figure_ref": null, "candidates": [{"md_atom_id": "md_ch04_a461", "md_file": "knowledge_base/chapters/ch04_general_assumptions.md", "md_atom_type": "TABLE_HEADER", "md_parent_section": "§4.3.6 [Storing Topic Variables for General Domain Models]", "md_verbatim": "| Domain | Original Verbatim | Modified Verbatim | Standardized Value |\n|--------|-------------------|-------------------|--------------------|", "score": 0.9, "match_basis": "verbatim_token+chapter_route:ch04"}, {"md_atom_id": "md_ch04_a536", "md_file": "knowledge_base/chapters/ch04_general_assumptions.md", "md_atom_type": "TABLE_HEADER", "md_parent_section": "§4.4.2 [Date/Time Precision]", "md_verbatim": "| # | Date and Time as Originally Recorded | Level of Uncertainty | ISO 8601 Date/Time |\n|---|--------------------------------------|---------------------|-------------------|", "score": 0.39, "match_basis": "verbatim_token+chapter_route:ch04"}, {"md_atom_id": "md_ch04_a518", "md_file": "knowledge_base/chapters/ch04_general_assumptions.md", "md_atom_type": "TABLE_HEADER", "md_parent_section": "§4.4.2 [Date/Time Precision]", "md_verbatim": "| # | Date and Time as Originally Recorded | Precision | ISO 8601 Date/Time |\n|---|--------------------------------------|-----------|-------------------|", "score": 0.3873, "match_basis": "verbatim_token+chapter_route:ch04"}, {"md_atom_id": "md_ch04_a579", "md_file": "knowledge_base/chapters/ch04_general_assumptions.md", "md_atom_type": "TABLE_HEADER", "md_parent_section": "§4.4.3.1 [Intervals of Time and Use of Duration]", "md_verbatim": "| Duration as originally recorded | ISO 8601 Duration |\n|---------------------------------|-------------------|", "score": 0.3824, "match_basis": "verbatim_token+chapter_route:ch04"}, {"md_atom_id": "md_ch04_a923", "md_file": "knowledge_base/chapters/ch04_general_assumptions.md", "md_atom_type": "TABLE_HEADER", "md_parent_section": "§4.5.3.2 [Text Strings Greater than 200 Characters in Other Variables]", "md_verbatim": "| Row | STUDYID | RDOMAIN | USUBJID | IDVAR | IDVARVAL | QNAM | QLABEL | QVAL | QORIG |\n|-----|---------|---------|---------|-------|----------|------|--------|------|-------|", "score": 0.37, "match_basis": "verbatim_token+chapter_route:ch04"}], "candidate_count": 5, "zero_candidate": false}
{"pdf_atom_id": "ig34_p0038_a005", "pdf_atom_type": "TABLE_ROW", "pdf_source": "SDTMIG_v3.4", "pdf_page": 38, "pdf_parent_section": "§4.3.6 Storing Topic Variables for General Domain Models", "pdf_verbatim": "AE | AETERM | AEMODIFY | AEDECOD", "figure_ref": null, "candidates": [{"md_atom_id": "md_ch04_a462", "md_file": "knowledge_base/chapters/ch04_general_assumptions.md", "md_atom_type": "TABLE_ROW", "md_parent_section": "§4.3.6 [Storing Topic Variables for General Domain Models]", "md_verbatim": "| AE | AETERM | AEMODIFY | AEDECOD |", "score": 0.9, "match_basis": "verbatim_token+chapter_route:ch04"}, {"md_atom_id": "md_ch04_a465", "md_file": "knowledge_base/chapters/ch04_general_assumptions.md", "md_atom_type": "TABLE_ROW", "md_parent_section": "§4.3.6 [Storing Topic Variables for General Domain Models]", "md_verbatim": "| MH | MHTERM | MHMODIFY | MHDECOD |", "score": 0.5571, "match_basis": "verbatim_token+chapter_route:ch04"}, {"md_atom_id": "md_ch04_a464", "md_file": "knowledge_base/chapters/ch04_general_assumptions.md", "md_atom_type": "TABLE_ROW", "md_parent_section": "§4.3.6 [Storing Topic Variables for General Domain Models]", "md_verbatim": "| CM | CMTRT | CMMODIFY | CMDECOD |", "score": 0.4909, "match_basis": "verbatim_token+chapter_route:ch04"}, {"md_atom_id": "md_ch04_a463", "md_file": "knowledge_base/chapters/ch04_general_assumptions.md", "md_atom_type": "TABLE_ROW", "md_parent_section": "§4.3.6 [Storing Topic Variables for General Domain Models]", "md_verbatim": "| DS | DSTERM | | DSDECOD |", "score": 0.4579, "match_basis": "verbatim_token+chapter_route:ch04"}, {"md_atom_id": "md_ch04_a466", "md_file": "knowledge_base/chapters/ch04_general_assumptions.md", "md_atom_type": "TABLE_ROW", "md_parent_section": "§4.3.6 [Storing Topic Variables for General Domain Models]", "md_verbatim": "| PE | PEORRES | PEMODIFY | PESTRESC |", "score": 0.4154, "match_basis": "verbatim_token+chapter_route:ch04"}], "candidate_count": 5, "zero_candidate": false}
{"pdf_atom_id": "ig34_p0038_a006", "pdf_atom_type": "TABLE_ROW", "pdf_source": "SDTMIG_v3.4", "pdf_page": 38, "pdf_parent_section": "§4.3.6 Storing Topic Variables for General Domain Models", "pdf_verbatim": "DS | DSTERM | | DSDECOD", "figure_ref": null, "candidates": [{"md_atom_id": "md_ch04_a463", "md_file": "knowledge_base/chapters/ch04_general_assumptions.md", "md_atom_type": "TABLE_ROW", "md_parent_section": "§4.3.6 [Storing Topic Variables for General Domain Models]", "md_verbatim": "| DS | DSTERM | | DSDECOD |", "score": 0.9, "match_basis": "verbatim_token+chapter_route:ch04"}, {"md_atom_id": "md_ch04_a462", "md_file": "knowledge_base/chapters/ch04_general_assumptions.md", "md_atom_type": "TABLE_ROW", "md_parent_section": "§4.3.6 [Storing Topic Variables for General Domain Models]", "md_verbatim": "| AE | AETERM | AEMODIFY | AEDECOD |", "score": 0.4579, "match_basis": "verbatim_token+chapter_route:ch04"}, {"md_atom_id": "md_ch04_a465", "md_file": "knowledge_base/chapters/ch04_general_assumptions.md", "md_atom_type": "TABLE_ROW", "md_parent_section": "§4.3.6 [Storing Topic Variables for General Domain Models]", "md_verbatim": "| MH | MHTERM | MHMODIFY | MHDECOD |", "score": 0.4579, "match_basis": "verbatim_token+chapter_route:ch04"}, {"md_atom_id": "md_ch04_a464", "md_file": "knowledge_base/chapters/ch04_general_assumptions.md", "md_atom_type": "TABLE_ROW", "md_parent_section": "§4.3.6 [Storing Topic Variables for General Domain Models]", "md_verbatim": "| CM | CMTRT | CMMODIFY | CMDECOD |", "score": 0.39, "match_basis": "verbatim_token+chapter_route:ch04"}, {"md_atom_id": "md_ch04_a521", "md_file": "knowledge_base/chapters/ch04_general_assumptions.md", "md_atom_type": "TABLE_ROW", "md_parent_section": "§4.4.2 [Date/Time Precision]", "md_verbatim": "| 3 | December 15, 2003 13:14 | Unknown seconds | 2003-12-15T13:14 |", "score": 0.3429, "match_basis": "verbatim_token+chapter_route:ch04"}], "candidate_count": 5, "zero_candidate": false}
{"pdf_atom_id": "ig34_p0038_a007", "pdf_atom_type": "TABLE_ROW", "pdf_source": "SDTMIG_v3.4", "pdf_page": 38, "pdf_parent_section": "§4.3.6 Storing Topic Variables for General Domain Models", "pdf_verbatim": "CM | CMTRT | CMMODIFY | CMDECOD", "figure_ref": null, "candidates": [{"md_atom_id": "md_ch04_a464", "md_file": "knowledge_base/chapters/ch04_general_assumptions.md", "md_atom_type": "TABLE_ROW", "md_parent_section": "§4.3.6 [Storing Topic Variables for General Domain Models]", "md_verbatim": "| CM | CMTRT | CMMODIFY | CMDECOD |", "score": 0.9, "match_basis": "verbatim_token+chapter_route:ch04"}, {"md_atom_id": "md_ch04_a462", "md_file": "knowledge_base/chapters/ch04_general_assumptions.md", "md_atom_type": "TABLE_ROW", "md_parent_section": "§4.3.6 [Storing Topic Variables for General Domain Models]", "md_verbatim": "| AE | AETERM | AEMODIFY | AEDECOD |", "score": 0.4909, "match_basis": "verbatim_token+chapter_route:ch04"}, {"md_atom_id": "md_ch04_a465", "md_file": "knowledge_base/chapters/ch04_general_assumptions.md", "md_atom_type": "TABLE_ROW", "md_parent_section": "§4.3.6 [Storing Topic Variables for General Domain Models]", "md_verbatim": "| MH | MHTERM | MHMODIFY | MHDECOD |", "score": 0.4909, "match_basis": "verbatim_token+chapter_route:ch04"}, {"md_atom_id": "md_ch04_a466", "md_file": "knowledge_base/chapters/ch04_general_assumptions.md", "md_atom_type": "TABLE_ROW", "md_parent_section": "§4.3.6 [Storing Topic Variables for General Domain Models]", "md_verbatim": "| PE | PEORRES | PEMODIFY | PESTRESC |", "score": 0.3923, "match_basis": "verbatim_token+chapter_route:ch04"}, {"md_atom_id": "md_ch04_a463", "md_file": "knowledge_base/chapters/ch04_general_assumptions.md", "md_atom_type": "TABLE_ROW", "md_parent_section": "§4.3.6 [Storing Topic Variables for General Domain Models]", "md_verbatim": "| DS | DSTERM | | DSDECOD |", "score": 0.39, "match_basis": "verbatim_token+chapter_route:ch04"}], "candidate_count": 5, "zero_candidate": false}
{"pdf_atom_id": "ig34_p0038_a008", "pdf_atom_type": "TABLE_ROW", "pdf_source": "SDTMIG_v3.4", "pdf_page": 38, "pdf_parent_section": "§4.3.6 Storing Topic Variables for General Domain Models", "pdf_verbatim": "MH | MHTERM | MHMODIFY | MHDECOD", "figure_ref": null, "candidates": [{"md_atom_id": "md_ch04_a465", "md_file": "knowledge_base/chapters/ch04_general_assumptions.md", "md_atom_type": "TABLE_ROW", "md_parent_section": "§4.3.6 [Storing Topic Variables for General Domain Models]", "md_verbatim": "| MH | MHTERM | MHMODIFY | MHDECOD |", "score": 0.9, "match_basis": "verbatim_token+chapter_route:ch04"}, {"md_atom_id": "md_ch04_a462", "md_file": "knowledge_base/chapters/ch04_general_assumptions.md", "md_atom_type": "TABLE_ROW", "md_parent_section": "§4.3.6 [Storing Topic Variables for General Domain Models]", "md_verbatim": "| AE | AETERM | AEMODIFY | AEDECOD |", "score": 0.5571, "match_basis": "verbatim_token+chapter_route:ch04"}, {"md_atom_id": "md_ch04_a464", "md_file": "knowledge_base/chapters/ch04_general_assumptions.md", "md_atom_type": "TABLE_ROW", "md_parent_section": "§4.3.6 [Storing Topic Variables for General Domain Models]", "md_verbatim": "| CM | CMTRT | CMMODIFY | CMDECOD |", "score": 0.4909, "match_basis": "verbatim_token+chapter_route:ch04"}, {"md_atom_id": "md_ch04_a463", "md_file": "knowledge_base/chapters/ch04_general_assumptions.md", "md_atom_type": "TABLE_ROW", "md_parent_section": "§4.3.6 [Storing Topic Variables for General Domain Models]", "md_verbatim": "| DS | DSTERM | | DSDECOD |", "score": 0.4579, "match_basis": "verbatim_token+chapter_route:ch04"}, {"md_atom_id": "md_ch04_a466", "md_file": "knowledge_base/chapters/ch04_general_assumptions.md", "md_atom_type": "TABLE_ROW", "md_parent_section": "§4.3.6 [Storing Topic Variables for General Domain Models]", "md_verbatim": "| PE | PEORRES | PEMODIFY | PESTRESC |", "score": 0.3889, "match_basis": "verbatim_token+chapter_route:ch04"}], "candidate_count": 5, "zero_candidate": false}
{"pdf_atom_id": "ig34_p0038_a009", "pdf_atom_type": "TABLE_ROW", "pdf_source": "SDTMIG_v3.4", "pdf_page": 38, "pdf_parent_section": "§4.3.6 Storing Topic Variables for General Domain Models", "pdf_verbatim": "PE | PEORRES | PEMODIFY | PESTRESC", "figure_ref": null, "candidates": [{"md_atom_id": "md_ch04_a466", "md_file": "knowledge_base/chapters/ch04_general_assumptions.md", "md_atom_type": "TABLE_ROW", "md_parent_section": "§4.3.6 [Storing Topic Variables for General Domain Models]", "md_verbatim": "| PE | PEORRES | PEMODIFY | PESTRESC |", "score": 0.9, "match_basis": "verbatim_token+chapter_route:ch04"}, {"md_atom_id": "md_ch04_a308", "md_file": "knowledge_base/chapters/ch04_general_assumptions.md", "md_atom_type": "TABLE_HEADER", "md_parent_section": "§4.2.7.2 [\"Specify\" Values for Result Qualifier Variables]", "md_verbatim": "   | SCTEST    | SCORRES     | SCSTRESC |\n   |-----------|-------------|----------|", "score": 0.4226, "match_basis": "verbatim_token+chapter_route:ch04"}, {"md_atom_id": "md_ch04_a311", "md_file": "knowledge_base/chapters/ch04_general_assumptions.md", "md_atom_type": "TABLE_HEADER", "md_parent_section": "§4.2.7.2 [\"Specify\" Values for Result Qualifier Variables]", "md_verbatim": "   | SCTEST    | SCORRES     | SCSTRESC |\n   |-----------|-------------|----------|", "score": 0.4226, "match_basis": "verbatim_token+chapter_route:ch04"}, {"md_atom_id": "md_ch04_a314", "md_file": "knowledge_base/chapters/ch04_general_assumptions.md", "md_atom_type": "TABLE_HEADER", "md_parent_section": "§4.2.7.2 [\"Specify\" Values for Result Qualifier Variables]", "md_verbatim": "   | SCTEST    | SCORRES     | SCSTRESC     |\n   |-----------|-------------|--------------|", "score": 0.4226, "match_basis": "verbatim_token+chapter_route:ch04"}, {"md_atom_id": "md_ch04_a462", "md_file": "knowledge_base/chapters/ch04_general_assumptions.md", "md_atom_type": "TABLE_ROW", "md_parent_section": "§4.3.6 [Storing Topic Variables for General Domain Models]", "md_verbatim": "| AE | AETERM | AEMODIFY | AEDECOD |", "score": 0.4154, "match_basis": "verbatim_token+chapter_route:ch04"}], "candidate_count": 5, "zero_candidate": false}
{"pdf_atom_id": "ig34_p0038_a010", "pdf_atom_type": "HEADING", "pdf_source": "SDTMIG_v3.4", "pdf_page": 38, "pdf_parent_section": "§4.3.7 Use of \"Yes\" and \"No\" Values", "pdf_verbatim": "4.3.7 Use of \"Yes\" and \"No\" Values", "figure_ref": null, "candidates": [{"md_atom_id": "md_ch04_a467", "md_file": "knowledge_base/chapters/ch04_general_assumptions.md", "md_atom_type": "HEADING", "md_parent_section": "§4.3 [Coding and Controlled Terminology Assumptions]", "md_verbatim": "### 4.3.7 Use of \"Yes\" and \"No\" Values", "score": 0.9, "match_basis": "verbatim_token+chapter_route:ch04"}, {"md_atom_id": "md_ch04_a1028", "md_file": "knowledge_base/chapters/ch04_general_assumptions.md", "md_atom_type": "HEADING", "md_parent_section": "§4.5 [Other Assumptions]", "md_verbatim": "### 4.5.9 Baseline Values", "score": 0.4846, "match_basis": "verbatim_token+chapter_route:ch04"}, {"md_atom_id": "md_ch04_a341", "md_file": "knowledge_base/chapters/ch04_general_assumptions.md", "md_atom_type": "HEADING", "md_parent_section": "§4.2.7 [Submitting Free Text from the CRF]", "md_verbatim": "#### 4.2.7.4 \"Specify\" Values for --OBJ", "score": 0.4714, "match_basis": "verbatim_token+chapter_route:ch04"}, {"md_atom_id": "md_ch04_a346", "md_file": "knowledge_base/chapters/ch04_general_assumptions.md", "md_atom_type": "HEADING", "md_parent_section": "§4.2 [General Variable Assumptions]", "md_verbatim": "### 4.2.8 Multiple Values for a Variable", "score": 0.42, "match_basis": "verbatim_token+chapter_route:ch04"}, {"md_atom_id": "md_ch04_a215", "md_file": "knowledge_base/chapters/ch04_general_assumptions.md", "md_atom_type": "HEADING", "md_parent_section": "§4.2 [General Variable Assumptions]", "md_verbatim": "### 4.2.5 Convention for Missing Values", "score": 0.4143, "match_basis": "verbatim_token+chapter_route:ch04"}], "candidate_count": 5, "zero_candidate": false}
{"pdf_atom_id": "ig34_p0038_a011", "pdf_atom_type": "SENTENCE", "pdf_source": "SDTMIG_v3.4", "pdf_page": 38, "pdf_parent_section": "§4.3.7 Use of \"Yes\" and \"No\" Values", "pdf_verbatim": "Variables where the response is \"Yes\" or \"No\" (\"Y\" or \"N\") should normally be populated for both \"Y\" and \"N\" responses.", "figure_ref": null, "candidates": [{"md_atom_id": "md_ch04_a468", "md_file": "knowledge_base/chapters/ch04_general_assumptions.md", "md_atom_type": "SENTENCE", "md_parent_section": "§4.3.7 [Use of \"Yes\" and \"No\" Values]", "md_verbatim": "Variables where the response is \"Yes\" or \"No\" (\"Y\" or \"N\") should normally be populated for both \"Y\" and \"N\" responses.", "score": 0.9, "match_basis": "verbatim_token+chapter_route:ch04"}, {"md_atom_id": "md_ch04_a615", "md_file": "knowledge_base/chapters/ch04_general_assumptions.md", "md_atom_type": "SENTENCE", "md_parent_section": "§4.4.5 [Clinical Encounters and Visits]", "md_verbatim": "Sponsor practices for populating visit variables for **unplanned visits** may vary:", "score": 0.4477, "match_basis": "verbatim_token+chapter_route:ch04"}, {"md_atom_id": "md_ch04_a956", "md_file": "knowledge_base/chapters/ch04_general_assumptions.md", "md_atom_type": "SENTENCE", "md_parent_section": "§4.5.4 [Evaluators in the Interventions and Events Observation Classes]", "md_verbatim": "Within each SUPP-- record, the value for QNAM should be formed by appending a \"1\" to the corresponding standard domain variable name.", "score": 0.4367, "match_basis": "verbatim_token+chapter_route:ch04"}, {"md_atom_id": "md_ch04_a333", "md_file": "knowledge_base/chapters/ch04_general_assumptions.md", "md_atom_type": "SENTENCE", "md_parent_section": "§4.2.7.3 [\"Specify\" Values for Topic Variables]", "md_verbatim": "--TERM should be populated with the description of the event found in the specified text and --PRESP could be used to distinguish between prespecified and free-text responses.", "score": 0.4364, "match_basis": "verbatim_token+chapter_route:ch04"}, {"md_atom_id": "md_ch04_a361", "md_file": "knowledge_base/chapters/ch04_general_assumptions.md", "md_atom_type": "SENTENCE", "md_parent_section": "§4.2.8.3 [Multiple Values for a Non-result Qualifier Variable]", "md_verbatim": "If multiple values exist (e.g., due to a \"Check all that apply\" instruction on a CRF), then the value for the qualifier variable should be \"MULTIPLE\" and SUPP-- should be used to store the individual responses.", "score": 0.434, "match_basis": "verbatim_token+chapter_route:ch04"}], "candidate_count": 5, "zero_candidate": false}
{"pdf_atom_id": "ig34_p0038_a012", "pdf_atom_type": "SENTENCE", "pdf_source": "SDTMIG_v3.4", "pdf_page": 38, "pdf_parent_section": "§4.3.7 Use of \"Yes\" and \"No\" Values", "pdf_verbatim": "This eliminates confusion regarding whether a blank response indicates \"N\" or is a missing value.", "figure_ref": null, "candidates": [{"md_atom_id": "md_ch04_a469", "md_file": "knowledge_base/chapters/ch04_general_assumptions.md", "md_atom_type": "SENTENCE", "md_parent_section": "§4.3.7 [Use of \"Yes\" and \"No\" Values]", "md_verbatim": "This eliminates confusion regarding whether a blank response indicates \"N\" or is a missing value.", "score": 0.9, "match_basis": "verbatim_token+chapter_route:ch04"}, {"md_atom_id": "md_ch04_a471", "md_file": "knowledge_base/chapters/ch04_general_assumptions.md", "md_atom_type": "SENTENCE", "md_parent_section": "§4.3.7 [Use of \"Yes\" and \"No\" Values]", "md_verbatim": "In such situations, where it is unambiguous to populate only the response of interest, it is permissible to populate only 1 value (\"Y\" or \"N\") and leave the alternate value blank.", "score": 0.4355, "match_basis": "verbatim_token+chapter_route:ch04"}, {"md_atom_id": "md_ch04_a136", "md_file": "knowledge_base/chapters/ch04_general_assumptions.md", "md_atom_type": "SENTENCE", "md_parent_section": "§4.1.9 [Assigning Natural Keys in the Metadata]", "md_verbatim": "Section 3.2, Using the CDISC Domain Models in Regulatory Submissions — Dataset Metadata, indicates that a sponsor should include in the metadata the variables that contribute to the natural key for a domain.", "score": 0.4128, "match_basis": "verbatim_token+chapter_route:ch04"}, {"md_atom_id": "md_ch04_a277", "md_file": "knowledge_base/chapters/ch04_general_assumptions.md", "md_atom_type": "SENTENCE", "md_parent_section": "§4.2.7.1 [\"Specify\" Values for Non-Result Qualifier Variables]", "md_verbatim": "For example, consider a CRF that collects the indication for an analgesic concomitant medication (CMINDC) using a list of prespecified values and an \"Other, specify\" field:", "score": 0.4075, "match_basis": "verbatim_token+chapter_route:ch04"}, {"md_atom_id": "md_ch04_a306", "md_file": "knowledge_base/chapters/ch04_general_assumptions.md", "md_atom_type": "SENTENCE", "md_parent_section": "§4.2.7.2 [\"Specify\" Values for Result Qualifier Variables]", "md_verbatim": "As in the preceding discussion for non-result qualifier values, the sponsor has several options for submission:", "score": 0.4034, "match_basis": "verbatim_token+chapter_route:ch04"}], "candidate_count": 5, "zero_candidate": false}
{"pdf_atom_id": "ig34_p0038_a013", "pdf_atom_type": "SENTENCE", "pdf_source": "SDTMIG_v3.4", "pdf_page": 38, "pdf_parent_section": "§4.3.7 Use of \"Yes\" and \"No\" Values", "pdf_verbatim": "However, some variables are collected or derived in a manner that allows only 1 response, such as when a single checkbox indicates \"Yes\".", "figure_ref": null, "candidates": [{"md_atom_id": "md_ch04_a470", "md_file": "knowledge_base/chapters/ch04_general_assumptions.md", "md_atom_type": "SENTENCE", "md_parent_section": "§4.3.7 [Use of \"Yes\" and \"No\" Values]", "md_verbatim": "However, some variables are collected or derived in a manner that allows only 1 response, such as when a single checkbox indicates \"Yes\".", "score": 0.9, "match_basis": "verbatim_token+chapter_route:ch04"}, {"md_atom_id": "md_ch04_a131", "md_file": "knowledge_base/chapters/ch04_general_assumptions.md", "md_atom_type": "SENTENCE", "md_parent_section": "§4.1.8.2 [Origin Metadata for Records]", "md_verbatim": "Sponsors are cautioned to recognize that a derived origin means that all values for that variable were derived, and that collected on the CRF applies to all values as well.", "score": 0.4389, "match_basis": "verbatim_token+chapter_route:ch04"}, {"md_atom_id": "md_ch04_a134", "md_file": "knowledge_base/chapters/ch04_general_assumptions.md", "md_atom_type": "SENTENCE", "md_parent_section": "§4.1.8.2 [Origin Metadata for Records]", "md_verbatim": "When both derived and collected values are reported in a variable, the origin is to be described using value-level metadata in the Define-XML document.", "score": 0.4297, "match_basis": "verbatim_token+chapter_route:ch04"}, {"md_atom_id": "md_ch04_a978", "md_file": "knowledge_base/chapters/ch04_general_assumptions.md", "md_atom_type": "SENTENCE", "md_parent_section": "§4.5.6 [Supplemental Reason Variables]", "md_verbatim": "However, sponsors sometimes collect the reason that something was done.", "score": 0.4256, "match_basis": "verbatim_token+chapter_route:ch04"}, {"md_atom_id": "md_ch04_a904", "md_file": "knowledge_base/chapters/ch04_general_assumptions.md", "md_atom_type": "SENTENCE", "md_parent_section": "§4.5.3.2 [Text Strings Greater than 200 Characters in Other Variables]", "md_verbatim": "Some sponsors may collect data values longer than 200 characters for some variables.", "score": 0.4253, "match_basis": "verbatim_token+chapter_route:ch04"}], "candidate_count": 5, "zero_candidate": false}
{"pdf_atom_id": "ig34_p0038_a014", "pdf_atom_type": "SENTENCE", "pdf_source": "SDTMIG_v3.4", "pdf_page": 38, "pdf_parent_section": "§4.3.7 Use of \"Yes\" and \"No\" Values", "pdf_verbatim": "In situations such as these, where it is unambiguous to populate only the response of interest, it is permissible to populate only 1 value (\"Y\" or \"N\") and leave the alternate value blank.", "figure_ref": null, "candidates": [{"md_atom_id": "md_ch04_a471", "md_file": "knowledge_base/chapters/ch04_general_assumptions.md", "md_atom_type": "SENTENCE", "md_parent_section": "§4.3.7 [Use of \"Yes\" and \"No\" Values]", "md_verbatim": "In such situations, where it is unambiguous to populate only the response of interest, it is permissible to populate only 1 value (\"Y\" or \"N\") and leave the alternate value blank.", "score": 0.8818, "match_basis": "verbatim_token+chapter_route:ch04"}, {"md_atom_id": "md_ch04_a469", "md_file": "knowledge_base/chapters/ch04_general_assumptions.md", "md_atom_type": "SENTENCE", "md_parent_section": "§4.3.7 [Use of \"Yes\" and \"No\" Values]", "md_verbatim": "This eliminates confusion regarding whether a blank response indicates \"N\" or is a missing value.", "score": 0.4326, "match_basis": "verbatim_token+chapter_route:ch04"}, {"md_atom_id": "md_ch04_a468", "md_file": "knowledge_base/chapters/ch04_general_assumptions.md", "md_atom_type": "SENTENCE", "md_parent_section": "§4.3.7 [Use of \"Yes\" and \"No\" Values]", "md_verbatim": "Variables where the response is \"Yes\" or \"No\" (\"Y\" or \"N\") should normally be populated for both \"Y\" and \"N\" responses.", "score": 0.4227, "match_basis": "verbatim_token+chapter_route:ch04"}, {"md_atom_id": "md_ch04_a992", "md_file": "knowledge_base/chapters/ch04_general_assumptions.md", "md_atom_type": "SENTENCE", "md_parent_section": "§4.5.7 [Presence or Absence of Prespecified Interventions and Events]", "md_verbatim": "It is a permissible variable, and should only be used when the topic variable values come from a prespecified list.", "score": 0.4187, "match_basis": "verbatim_token+chapter_route:ch04"}, {"md_atom_id": "md_ch04_a1032", "md_file": "knowledge_base/chapters/ch04_general_assumptions.md", "md_atom_type": "SENTENCE", "md_parent_section": "§4.5.9 [Baseline Values]", "md_verbatim": "In domains where --BLFL was permissible, the variable --LOBXFL was added with a core value of permissible.", "score": 0.4067, "match_basis": "verbatim_token+chapter_route:ch04"}], "candidate_count": 5, "zero_candidate": false}
{"pdf_atom_id": "ig34_p0038_a015", "pdf_atom_type": "SENTENCE", "pdf_source": "SDTMIG_v3.4", "pdf_page": 38, "pdf_parent_section": "§4.3.7 Use of \"Yes\" and \"No\" Values", "pdf_verbatim": "An example of when it would be acceptable to use only a value of \"Y\" would be for Last Observation Before Exposure Flag (--LOBXFL) variables, where \"N\" is not necessary to indicate that a value is not the last observation before exposure.", "figure_ref": null, "candidates": [{"md_atom_id": "md_ch04_a472", "md_file": "knowledge_base/chapters/ch04_general_assumptions.md", "md_atom_type": "SENTENCE", "md_parent_section": "§4.3.7 [Use of \"Yes\" and \"No\" Values]", "md_verbatim": "An example of when it would be acceptable to use only a value of \"Y\" would be for Last Observation Before Exposure Flag (--LOBXFL), where \"N\" is not necessary to indicate that a value is not the last observation before exposure.", "score": 0.86, "match_basis": "verbatim_token+chapter_route:ch04"}, {"md_atom_id": "md_ch04_a636", "md_file": "knowledge_base/chapters/ch04_general_assumptions.md", "md_atom_type": "SENTENCE", "md_parent_section": "§4.4.7 [Use of Relative Timing Variables]", "md_verbatim": "Note that in this example, the information collected is with respect to the start of the concomitant medication use only, and therefore the collected data corresponds to variable CMSTRF, not CMENRF.", "score": 0.4349, "match_basis": "verbatim_token+chapter_route:ch04"}, {"md_atom_id": "md_ch04_a478", "md_file": "knowledge_base/chapters/ch04_general_assumptions.md", "md_atom_type": "SENTENCE", "md_parent_section": "§4.4 [Actual and Relative Time Assumptions]", "md_verbatim": "In the Findings observation class, where data are usually collected at multiple visits, at least 1 timing variable must be used.", "score": 0.4327, "match_basis": "verbatim_token+chapter_route:ch04"}, {"md_atom_id": "md_ch04_a608", "md_file": "knowledge_base/chapters/ch04_general_assumptions.md", "md_atom_type": "SENTENCE", "md_parent_section": "§4.4.5 [Clinical Encounters and Visits]", "md_verbatim": "In the Findings observation class, where data are usually collected at multiple visits, at least 1 timing variable must be used.", "score": 0.4327, "match_basis": "verbatim_token+chapter_route:ch04"}, {"md_atom_id": "md_ch04_a435", "md_file": "knowledge_base/chapters/ch04_general_assumptions.md", "md_atom_type": "SENTENCE", "md_parent_section": "§4.3.3 [Controlled Terminology Values]", "md_verbatim": "For example, --PRESP variables are associated with the NY codelist, but only the value \"Y\" is allowed in --PRESP variables.", "score": 0.42, "match_basis": "verbatim_token+chapter_route:ch04"}], "candidate_count": 5, "zero_candidate": false}
{"pdf_atom_id": "ig34_p0038_a016", "pdf_atom_type": "NOTE", "pdf_source": "SDTMIG_v3.4", "pdf_page": 38, "pdf_parent_section": "§4.3.7 Use of \"Yes\" and \"No\" Values", "pdf_verbatim": "Note: Permissible values for variables with controlled terms of \"Y\" or \"N\" may be extended to include \"U\" or \"NA\" if it is the sponsor's practice to explicitly collect or derive values indicating \"Unknown\" or \"Not Applicable\" for that variable.", "figure_ref": null, "candidates": [{"md_atom_id": "md_ch04_a473", "md_file": "knowledge_base/chapters/ch04_general_assumptions.md", "md_atom_type": "NOTE", "md_parent_section": "§4.3.7 [Use of \"Yes\" and \"No\" Values]", "md_verbatim": "> **Note:** Permissible values for variables with controlled terms of \"Y\" or \"N\" may be extended to include \"U\" or \"NA\" if it is the sponsor's practice to explicitly collect or derive values indicating \"Unknown\" or \"Not Applicable\" for that variable.", "score": 0.9, "match_basis": "verbatim_token+chapter_route:ch04"}, {"md_atom_id": "md_ch04_a649", "md_file": "knowledge_base/chapters/ch04_general_assumptions.md", "md_atom_type": "NOTE", "md_parent_section": "§4.4.7 [Use of Relative Timing Variables]", "md_verbatim": "**Note:** \"DURING\" and \"DURING/AFTER\" are in the STENRF codelist but describe timing relative to an interval of time rather than a point in time, so are **not allowable for use with --STRTPT and --ENRTPT** variables.", "score": 0.3839, "match_basis": "verbatim_token+chapter_route:ch04"}, {"md_atom_id": "md_ch04_a726", "md_file": "knowledge_base/chapters/ch04_general_assumptions.md", "md_atom_type": "NOTE", "md_parent_section": "§4.4.10 [Representing Time Points]", "md_verbatim": "> Note that the value in LBELTM represents the end of the specimen collection interval.", "score": 0.3835, "match_basis": "verbatim_token+chapter_route:ch04"}, {"md_atom_id": "md_ch04_a418", "md_file": "knowledge_base/chapters/ch04_general_assumptions.md", "md_atom_type": "NOTE", "md_parent_section": "§4.3 [Coding and Controlled Terminology Assumptions]", "md_verbatim": "> **Note:** Examples provided in the CDISC Notes column and domain examples are only examples and not intended to imply controlled terminology. For current CDISC Controlled Terminology, visit https://datascience.cancer.gov/resources/cancer-vocabulary/cdisc-terminology.", "score": 0.3805, "match_basis": "verbatim_token+chapter_route:ch04"}, {"md_atom_id": "md_ch04_a902", "md_file": "knowledge_base/chapters/ch04_general_assumptions.md", "md_atom_type": "NOTE", "md_parent_section": "§4.5.3.1 [Test Name (--TEST) Greater than 40 Characters]", "md_verbatim": "**Exception — IETEST in IE and TI domains:** IETEST values in the Inclusion/Exclusion Criteria Not Met (IE) and Trial Inclusion/Exclusion Criteria (TI) domains are exceptions to the 40-character rule and are limited to 200 characters, because these are not expected to be transformed to column labels. Values of IETEST that exceed 200 characters should be described in study metadata as per the convention above.", "score": 0.3754, "match_basis": "verbatim_token+chapter_route:ch04"}], "candidate_count": 5, "zero_candidate": false}
{"pdf_atom_id": "ig34_p0038_a017", "pdf_atom_type": "HEADING", "pdf_source": "SDTMIG_v3.4", "pdf_page": 38, "pdf_parent_section": "§4.4 Actual and Relative Time Assumptions", "pdf_verbatim": "4.4 Actual and Relative Time Assumptions", "figure_ref": null, "candidates": [{"md_atom_id": "md_ch04_a474", "md_file": "knowledge_base/chapters/ch04_general_assumptions.md", "md_atom_type": "HEADING", "md_parent_section": "§4 [General Assumptions]", "md_verbatim": "## 4.4 Actual and Relative Time Assumptions", "score": 0.9, "match_basis": "verbatim_token+chapter_route:ch04"}, {"md_atom_id": "md_ch04_a814", "md_file": "knowledge_base/chapters/ch04_general_assumptions.md", "md_atom_type": "HEADING", "md_parent_section": "§4 [General Assumptions]", "md_verbatim": "## 4.5 Other Assumptions", "score": 0.516, "match_basis": "verbatim_token+chapter_route:ch04"}, {"md_atom_id": "md_ch04_a006", "md_file": "knowledge_base/chapters/ch04_general_assumptions.md", "md_atom_type": "HEADING", "md_parent_section": "§4 [Assumptions for Domain Models]", "md_verbatim": "## 4.1 General Domain Assumptions", "score": 0.4742, "match_basis": "verbatim_token+chapter_route:ch04"}, {"md_atom_id": "md_ch04_a172", "md_file": "knowledge_base/chapters/ch04_general_assumptions.md", "md_atom_type": "HEADING", "md_parent_section": "§4 [Assumptions for Domain Models]", "md_verbatim": "## 4.2 General Variable Assumptions", "score": 0.4636, "match_basis": "verbatim_token+chapter_route:ch04"}, {"md_atom_id": "md_ch04_a417", "md_file": "knowledge_base/chapters/ch04_general_assumptions.md", "md_atom_type": "HEADING", "md_parent_section": "§4 [General Assumptions]", "md_verbatim": "## 4.3 Coding and Controlled Terminology Assumptions", "score": 0.4395, "match_basis": "verbatim_token+chapter_route:ch04"}], "candidate_count": 5, "zero_candidate": false}
{"pdf_atom_id": "ig34_p0038_a018", "pdf_atom_type": "SENTENCE", "pdf_source": "SDTMIG_v3.4", "pdf_page": 38, "pdf_parent_section": "§4.4 Actual and Relative Time Assumptions", "pdf_verbatim": "Timing variables (SDTM Section 3.1.5, Timing Variables for All Classes) are an essential component of all SDTM subject-level domain datasets.", "figure_ref": null, "candidates": [{"md_atom_id": "md_ch04_a475", "md_file": "knowledge_base/chapters/ch04_general_assumptions.md", "md_atom_type": "SENTENCE", "md_parent_section": "§4.4 [Actual and Relative Time Assumptions]", "md_verbatim": "Timing variables (SDTM Section 3.1.5, Timing Variables for All Classes) are an essential component of all SDTM subject-level domain datasets.", "score": 0.9, "match_basis": "verbatim_token+chapter_route:ch04"}, {"md_atom_id": "md_ch04_a476", "md_file": "knowledge_base/chapters/ch04_general_assumptions.md", "md_atom_type": "SENTENCE", "md_parent_section": "§4.4 [Actual and Relative Time Assumptions]", "md_verbatim": "In general, all domains based on the 3 general observation classes should have at least 1 timing variable.", "score": 0.4725, "match_basis": "verbatim_token+chapter_route:ch04"}, {"md_atom_id": "md_ch04_a606", "md_file": "knowledge_base/chapters/ch04_general_assumptions.md", "md_atom_type": "SENTENCE", "md_parent_section": "§4.4.5 [Clinical Encounters and Visits]", "md_verbatim": "All domains based on the 3 general observation classes should have at least 1 timing variable.", "score": 0.4725, "match_basis": "verbatim_token+chapter_route:ch04"}, {"md_atom_id": "md_ch04_a031", "md_file": "knowledge_base/chapters/ch04_general_assumptions.md", "md_atom_type": "SENTENCE", "md_parent_section": "§4.1.4 [Order of the Variables]", "md_verbatim": "Within each role, variables must be ordered as shown in SDTM Sections 3.1.1, The Interventions Observation Class; 3.1.2, The Events Observation Class; 3.1.3, The Findings Observation Class; 3.1.3.1, Findings About Events or Interventions; 3.1.4, Identifiers for All Classes; and 3.1.5, Timing Variables for All Classes.", "score": 0.4615, "match_basis": "verbatim_token+chapter_route:ch04"}, {"md_atom_id": "md_ch04_a015", "md_file": "knowledge_base/chapters/ch04_general_assumptions.md", "md_atom_type": "SENTENCE", "md_parent_section": "§4.1.3 [Additional Timing Variables]", "md_verbatim": "Timing variables cannot be added to SUPPQUAL datasets or to RELREC (described in Section 8, Representing Relationships and Data).", "score": 0.4596, "match_basis": "verbatim_token+chapter_route:ch04"}], "candidate_count": 5, "zero_candidate": false}
{"pdf_atom_id": "ig34_p0038_a019", "pdf_atom_type": "SENTENCE", "pdf_source": "SDTMIG_v3.4", "pdf_page": 38, "pdf_parent_section": "§4.4 Actual and Relative Time Assumptions", "pdf_verbatim": "In general, all domains based on the 3 general observation classes should have at least 1 timing variable.", "figure_ref": null, "candidates": [{"md_atom_id": "md_ch04_a476", "md_file": "knowledge_base/chapters/ch04_general_assumptions.md", "md_atom_type": "SENTENCE", "md_parent_section": "§4.4 [Actual and Relative Time Assumptions]", "md_verbatim": "In general, all domains based on the 3 general observation classes should have at least 1 timing variable.", "score": 0.9, "match_basis": "verbatim_token+chapter_route:ch04"}, {"md_atom_id": "md_ch04_a606", "md_file": "knowledge_base/chapters/ch04_general_assumptions.md", "md_atom_type": "SENTENCE", "md_parent_section": "§4.4.5 [Clinical Encounters and Visits]", "md_verbatim": "All domains based on the 3 general observation classes should have at least 1 timing variable.", "score": 0.9, "match_basis": "verbatim_token+chapter_route:ch04"}, {"md_atom_id": "md_ch04_a255", "md_file": "knowledge_base/chapters/ch04_general_assumptions.md", "md_atom_type": "SENTENCE", "md_parent_section": "§4.2.6 [Grouping Variables and Categorization]", "md_verbatim": "In domains based on the Findings general observation class, the --RESCAT variable can be used to categorize results after the fact.", "score": 0.564, "match_basis": "verbatim_token+chapter_route:ch04"}, {"md_atom_id": "md_ch04_a018", "md_file": "knowledge_base/chapters/ch04_general_assumptions.md", "md_atom_type": "SENTENCE", "md_parent_section": "§4.1.3.1 [EPOCH Variable Guidance]", "md_verbatim": "For observations in Interventions or Events class domains, EPOCH should be based on the --STDTC variable, since this is the start of the intervention or event.", "score": 0.5548, "match_basis": "verbatim_token+chapter_route:ch04"}, {"md_atom_id": "md_ch04_a013", "md_file": "knowledge_base/chapters/ch04_general_assumptions.md", "md_atom_type": "SENTENCE", "md_parent_section": "§4.1.3 [Additional Timing Variables]", "md_verbatim": "Additional Timing variables can be added as needed to a standard domain model based on the 3 general observation classes, except for the cases specified in Assumption 4.4.8, Date and Time Reported in a Domain Based on Findings.", "score": 0.5176, "match_basis": "verbatim_token+chapter_route:ch04"}], "candidate_count": 5, "zero_candidate": false}
{"pdf_atom_id": "ig34_p0038_a020", "pdf_atom_type": "SENTENCE", "pdf_source": "SDTMIG_v3.4", "pdf_page": 38, "pdf_parent_section": "§4.4 Actual and Relative Time Assumptions", "pdf_verbatim": "In the Events or Interventions general observation class, this could be the start date of the event or intervention.", "figure_ref": null, "candidates": [{"md_atom_id": "md_ch04_a477", "md_file": "knowledge_base/chapters/ch04_general_assumptions.md", "md_atom_type": "SENTENCE", "md_parent_section": "§4.4 [Actual and Relative Time Assumptions]", "md_verbatim": "In the Events or Interventions general observation class, this could be the start date of the event or intervention.", "score": 0.9, "match_basis": "verbatim_token+chapter_route:ch04"}, {"md_atom_id": "md_ch04_a607", "md_file": "knowledge_base/chapters/ch04_general_assumptions.md", "md_atom_type": "SENTENCE", "md_parent_section": "§4.4.5 [Clinical Encounters and Visits]", "md_verbatim": "For domains in the Events or Interventions observation classes, this could be the start date of the event or intervention.", "score": 0.7304, "match_basis": "verbatim_token+chapter_route:ch04"}, {"md_atom_id": "md_ch04_a018", "md_file": "knowledge_base/chapters/ch04_general_assumptions.md", "md_atom_type": "SENTENCE", "md_parent_section": "§4.1.3.1 [EPOCH Variable Guidance]", "md_verbatim": "For observations in Interventions or Events class domains, EPOCH should be based on the --STDTC variable, since this is the start of the intervention or event.", "score": 0.5813, "match_basis": "verbatim_token+chapter_route:ch04"}, {"md_atom_id": "md_ch04_a453", "md_file": "knowledge_base/chapters/ch04_general_assumptions.md", "md_atom_type": "SENTENCE", "md_parent_section": "§4.3.6 [Storing Topic Variables for General Domain Models]", "md_verbatim": "The topic variable for the Interventions and Events general observation-class models is often stored as verbatim text.", "score": 0.5507, "match_basis": "verbatim_token+chapter_route:ch04"}, {"md_atom_id": "md_ch04_a1007", "md_file": "knowledge_base/chapters/ch04_general_assumptions.md", "md_atom_type": "SENTENCE", "md_parent_section": "§4.5.7 [Presence or Absence of Prespecified Interventions and Events]", "md_verbatim": "Refer to the standard domains in the Events and Interventions general observation classes for additional assumptions and examples.", "score": 0.5451, "match_basis": "verbatim_token+chapter_route:ch04"}], "candidate_count": 5, "zero_candidate": false}
{"pdf_atom_id": "ig34_p0038_a021", "pdf_atom_type": "SENTENCE", "pdf_source": "SDTMIG_v3.4", "pdf_page": 38, "pdf_parent_section": "§4.4 Actual and Relative Time Assumptions", "pdf_verbatim": "In the Findings observation class, where data are usually collected at multiple visits, at least 1 timing variable must be used.", "figure_ref": null, "candidates": [{"md_atom_id": "md_ch04_a478", "md_file": "knowledge_base/chapters/ch04_general_assumptions.md", "md_atom_type": "SENTENCE", "md_parent_section": "§4.4 [Actual and Relative Time Assumptions]", "md_verbatim": "In the Findings observation class, where data are usually collected at multiple visits, at least 1 timing variable must be used.", "score": 0.9, "match_basis": "verbatim_token+chapter_route:ch04"}, {"md_atom_id": "md_ch04_a608", "md_file": "knowledge_base/chapters/ch04_general_assumptions.md", "md_atom_type": "SENTENCE", "md_parent_section": "§4.4.5 [Clinical Encounters and Visits]", "md_verbatim": "In the Findings observation class, where data are usually collected at multiple visits, at least 1 timing variable must be used.", "score": 0.9, "match_basis": "verbatim_token+chapter_route:ch04"}, {"md_atom_id": "md_ch04_a476", "md_file": "knowledge_base/chapters/ch04_general_assumptions.md", "md_atom_type": "SENTENCE", "md_parent_section": "§4.4 [Actual and Relative Time Assumptions]", "md_verbatim": "In general, all domains based on the 3 general observation classes should have at least 1 timing variable.", "score": 0.5024, "match_basis": "verbatim_token+chapter_route:ch04"}, {"md_atom_id": "md_ch04_a606", "md_file": "knowledge_base/chapters/ch04_general_assumptions.md", "md_atom_type": "SENTENCE", "md_parent_section": "§4.4.5 [Clinical Encounters and Visits]", "md_verbatim": "All domains based on the 3 general observation classes should have at least 1 timing variable.", "score": 0.5024, "match_basis": "verbatim_token+chapter_route:ch04"}, {"md_atom_id": "md_ch04_a031", "md_file": "knowledge_base/chapters/ch04_general_assumptions.md", "md_atom_type": "SENTENCE", "md_parent_section": "§4.1.4 [Order of the Variables]", "md_verbatim": "Within each role, variables must be ordered as shown in SDTM Sections 3.1.1, The Interventions Observation Class; 3.1.2, The Events Observation Class; 3.1.3, The Findings Observation Class; 3.1.3.1, Findings About Events or Interventions; 3.1.4, Identifiers for All Classes; and 3.1.5, Timing Variables for All Classes.", "score": 0.485, "match_basis": "verbatim_token+chapter_route:ch04"}], "candidate_count": 5, "zero_candidate": false}
{"pdf_atom_id": "ig34_p0038_a022", "pdf_atom_type": "SENTENCE", "pdf_source": "SDTMIG_v3.4", "pdf_page": 38, "pdf_parent_section": "§4.4 Actual and Relative Time Assumptions", "pdf_verbatim": "The SDTMIG requires dates and times of day to be stored according to the international standard ISO 8601 (http://www.iso.org).", "figure_ref": null, "candidates": [{"md_atom_id": "md_ch04_a479", "md_file": "knowledge_base/chapters/ch04_general_assumptions.md", "md_atom_type": "SENTENCE", "md_parent_section": "§4.4 [Actual and Relative Time Assumptions]", "md_verbatim": "The SDTMIG requires dates and times of day to be stored according to the international standard ISO 8601 (http://www.iso.org).", "score": 0.9, "match_basis": "verbatim_token+chapter_route:ch04"}, {"md_atom_id": "md_ch04_a483", "md_file": "knowledge_base/chapters/ch04_general_assumptions.md", "md_atom_type": "SENTENCE", "md_parent_section": "§4.4.1 [Formats for Date/Time Variables]", "md_verbatim": "The SDTMIG template uses ISO 8601 for calendar dates and times of day, which are expressed as follows:", "score": 0.4425, "match_basis": "verbatim_token+chapter_route:ch04"}, {"md_atom_id": "md_ch04_a556", "md_file": "knowledge_base/chapters/ch04_general_assumptions.md", "md_atom_type": "SENTENCE", "md_parent_section": "§4.4.3.1 [Intervals of Time and Use of Duration]", "md_verbatim": "Both duration and duration units can be provided in the single --DUR variable, in accordance with the ISO 8601 standard.", "score": 0.4301, "match_basis": "verbatim_token+chapter_route:ch04"}, {"md_atom_id": "md_ch04_a480", "md_file": "knowledge_base/chapters/ch04_general_assumptions.md", "md_atom_type": "SENTENCE", "md_parent_section": "§4.4 [Actual and Relative Time Assumptions]", "md_verbatim": "ISO 8601 provides a text-based representation of dates and/or times, intervals of time, and durations of time.", "score": 0.4275, "match_basis": "verbatim_token+chapter_route:ch04"}, {"md_atom_id": "md_ch04_a510", "md_file": "knowledge_base/chapters/ch04_general_assumptions.md", "md_atom_type": "SENTENCE", "md_parent_section": "§4.4.2 [Date/Time Precision]", "md_verbatim": "The concept of representing date/time precision is handled through use of the ISO 8601 standard.", "score": 0.4259, "match_basis": "verbatim_token+chapter_route:ch04"}], "candidate_count": 5, "zero_candidate": false}
{"pdf_atom_id": "ig34_p0038_a023", "pdf_atom_type": "SENTENCE", "pdf_source": "SDTMIG_v3.4", "pdf_page": 38, "pdf_parent_section": "§4.4 Actual and Relative Time Assumptions", "pdf_verbatim": "ISO 8601 provides a text-based representation of dates and/or times, intervals of time, and durations of time.", "figure_ref": null, "candidates": [{"md_atom_id": "md_ch04_a480", "md_file": "knowledge_base/chapters/ch04_general_assumptions.md", "md_atom_type": "SENTENCE", "md_parent_section": "§4.4 [Actual and Relative Time Assumptions]", "md_verbatim": "ISO 8601 provides a text-based representation of dates and/or times, intervals of time, and durations of time.", "score": 0.9, "match_basis": "verbatim_token+chapter_route:ch04"}, {"md_atom_id": "md_ch04_a516", "md_file": "knowledge_base/chapters/ch04_general_assumptions.md", "md_atom_type": "SENTENCE", "md_parent_section": "§4.4.2 [Date/Time Precision]", "md_verbatim": "The following table provides examples of ISO 8601 representations of complete and truncated date/time values.", "score": 0.527, "match_basis": "verbatim_token+chapter_route:ch04"}, {"md_atom_id": "md_ch04_a553", "md_file": "knowledge_base/chapters/ch04_general_assumptions.md", "md_atom_type": "SENTENCE", "md_parent_section": "§4.4.3.1 [Intervals of Time and Use of Duration]", "md_verbatim": "Although this example represents the interval (by providing the start date/time and end date/time to bound the interval of time), it does not provide the value of the duration (the quantity of time).", "score": 0.5175, "match_basis": "verbatim_token+chapter_route:ch04"}, {"md_atom_id": "md_ch04_a578", "md_file": "knowledge_base/chapters/ch04_general_assumptions.md", "md_atom_type": "SENTENCE", "md_parent_section": "§4.4.3.1 [Intervals of Time and Use of Duration]", "md_verbatim": "The following table provides some examples of ISO 8601-compliant representations of durations.", "score": 0.5174, "match_basis": "verbatim_token+chapter_route:ch04"}, {"md_atom_id": "md_ch04_a598", "md_file": "knowledge_base/chapters/ch04_general_assumptions.md", "md_atom_type": "SENTENCE", "md_parent_section": "§4.4.3.2 [Interval with Uncertainty]", "md_verbatim": "where the duration \"Pn...\" is represented before the solidus [/], the end date/time is represented following the solidus, and the entire representation is known as an \"interval.\"", "score": 0.5167, "match_basis": "verbatim_token+chapter_route:ch04"}], "candidate_count": 5, "zero_candidate": false}
{"pdf_atom_id": "ig34_p0038_a024", "pdf_atom_type": "HEADING", "pdf_source": "SDTMIG_v3.4", "pdf_page": 38, "pdf_parent_section": "§4.4.1 Formats for Date/Time Variables", "pdf_verbatim": "4.4.1 Formats for Date/Time Variables", "figure_ref": null, "candidates": [{"md_atom_id": "md_ch04_a481", "md_file": "knowledge_base/chapters/ch04_general_assumptions.md", "md_atom_type": "HEADING", "md_parent_section": "§4.4 [Actual and Relative Time Assumptions]", "md_verbatim": "### 4.4.1 Formats for Date/Time Variables", "score": 0.9, "match_basis": "verbatim_token+chapter_route:ch04"}, {"md_atom_id": "md_ch04_a693", "md_file": "knowledge_base/chapters/ch04_general_assumptions.md", "md_atom_type": "HEADING", "md_parent_section": "§4.4 [Use of Timing Variables]", "md_verbatim": "### 4.4.9 Use of Dates as Result Variables", "score": 0.5455, "match_basis": "verbatim_token+chapter_route:ch04"}, {"md_atom_id": "md_ch04_a124", "md_file": "knowledge_base/chapters/ch04_general_assumptions.md", "md_atom_type": "HEADING", "md_parent_section": "§4.1.8.1 [Origin Metadata for Variables]", "md_verbatim": "#### 4.1.8.1 Origin Metadata for Variables", "score": 0.516, "match_basis": "verbatim_token+chapter_route:ch04"}, {"md_atom_id": "md_ch04_a027", "md_file": "knowledge_base/chapters/ch04_general_assumptions.md", "md_atom_type": "HEADING", "md_parent_section": "§4.1 [General Domain Assumptions]", "md_verbatim": "### 4.1.4 Order of the Variables", "score": 0.51, "match_basis": "verbatim_token+chapter_route:ch04"}, {"md_atom_id": "md_ch04_a599", "md_file": "knowledge_base/chapters/ch04_general_assumptions.md", "md_atom_type": "HEADING", "md_parent_section": "§4.4 [Actual and Relative Time Assumptions]", "md_verbatim": "### 4.4.4 Study Day Variables", "score": 0.51, "match_basis": "verbatim_token+chapter_route:ch04"}], "candidate_count": 5, "zero_candidate": false}
{"pdf_atom_id": "ig34_p0038_a025", "pdf_atom_type": "SENTENCE", "pdf_source": "SDTMIG_v3.4", "pdf_page": 38, "pdf_parent_section": "§4.4.1 Formats for Date/Time Variables", "pdf_verbatim": "An SDTM DTC variable may include data that is represented in ISO 8601 format as a complete date/time, a partial date/time, or an incomplete date/time.", "figure_ref": null, "candidates": [{"md_atom_id": "md_ch04_a482", "md_file": "knowledge_base/chapters/ch04_general_assumptions.md", "md_atom_type": "SENTENCE", "md_parent_section": "§4.4.1 [Formats for Date/Time Variables]", "md_verbatim": "An SDTM DTC variable may include data that is represented in ISO 8601 format as a complete date/time, a partial date/time, or an incomplete date/time.", "score": 0.9, "match_basis": "verbatim_token+chapter_route:ch04"}, {"md_atom_id": "md_ch04_a548", "md_file": "knowledge_base/chapters/ch04_general_assumptions.md", "md_atom_type": "SENTENCE", "md_parent_section": "§4.4.3.1 [Intervals of Time and Use of Duration]", "md_verbatim": "As defined by ISO 8601, an interval of time is the part of a time axis, limited by 2 time \"instants\" such as the times represented in SDTM by the variables --STDTC and --ENDTC.", "score": 0.4829, "match_basis": "verbatim_token+chapter_route:ch04"}, {"md_atom_id": "md_ch04_a516", "md_file": "knowledge_base/chapters/ch04_general_assumptions.md", "md_atom_type": "SENTENCE", "md_parent_section": "§4.4.2 [Date/Time Precision]", "md_verbatim": "The following table provides examples of ISO 8601 representations of complete and truncated date/time values.", "score": 0.4624, "match_basis": "verbatim_token+chapter_route:ch04"}, {"md_atom_id": "md_ch04_a683", "md_file": "knowledge_base/chapters/ch04_general_assumptions.md", "md_atom_type": "SENTENCE", "md_parent_section": "§4.4.8 [Date and Time Reported in a Domain Based on Findings]", "md_verbatim": "In order to ensure that the critical timing information is always represented in the same variable, the --DTC variable is used to represent the time of specimen collection.", "score": 0.4582, "match_basis": "verbatim_token+chapter_route:ch04"}, {"md_atom_id": "md_ch04_a575", "md_file": "knowledge_base/chapters/ch04_general_assumptions.md", "md_atom_type": "SENTENCE", "md_parent_section": "§4.4.3.1 [Intervals of Time and Use of Duration]", "md_verbatim": "ISO 8601 also allows that the \"lowest-order components\" of duration being represented may be represented in decimal format.", "score": 0.4537, "match_basis": "verbatim_token+chapter_route:ch04"}], "candidate_count": 5, "zero_candidate": false}
{"pdf_atom_id": "ig34_p0038_a026", "pdf_atom_type": "SENTENCE", "pdf_source": "SDTMIG_v3.4", "pdf_page": 38, "pdf_parent_section": "§4.4.1 Formats for Date/Time Variables", "pdf_verbatim": "The SDTMIG template uses ISO 8601 for calendar dates and times of day, which are expressed as follows:", "figure_ref": null, "candidates": [{"md_atom_id": "md_ch04_a483", "md_file": "knowledge_base/chapters/ch04_general_assumptions.md", "md_atom_type": "SENTENCE", "md_parent_section": "§4.4.1 [Formats for Date/Time Variables]", "md_verbatim": "The SDTMIG template uses ISO 8601 for calendar dates and times of day, which are expressed as follows:", "score": 0.9, "match_basis": "verbatim_token+chapter_route:ch04"}, {"md_atom_id": "md_ch04_a479", "md_file": "knowledge_base/chapters/ch04_general_assumptions.md", "md_atom_type": "SENTENCE", "md_parent_section": "§4.4 [Actual and Relative Time Assumptions]", "md_verbatim": "The SDTMIG requires dates and times of day to be stored according to the international standard ISO 8601 (http://www.iso.org).", "score": 0.4425, "match_basis": "verbatim_token+chapter_route:ch04"}, {"md_atom_id": "md_ch04_a502", "md_file": "knowledge_base/chapters/ch04_general_assumptions.md", "md_atom_type": "SENTENCE", "md_parent_section": "§4.4.1 [Formats for Date/Time Variables]", "md_verbatim": "Key aspects of the ISO 8601 standard are as follows:", "score": 0.4418, "match_basis": "verbatim_token+chapter_route:ch04"}, {"md_atom_id": "md_ch04_a510", "md_file": "knowledge_base/chapters/ch04_general_assumptions.md", "md_atom_type": "SENTENCE", "md_parent_section": "§4.4.2 [Date/Time Precision]", "md_verbatim": "The concept of representing date/time precision is handled through use of the ISO 8601 standard.", "score": 0.4091, "match_basis": "verbatim_token+chapter_route:ch04"}, {"md_atom_id": "md_ch04_a516", "md_file": "knowledge_base/chapters/ch04_general_assumptions.md", "md_atom_type": "SENTENCE", "md_parent_section": "§4.4.2 [Date/Time Precision]", "md_verbatim": "The following table provides examples of ISO 8601 representations of complete and truncated date/time values.", "score": 0.4091, "match_basis": "verbatim_token+chapter_route:ch04"}], "candidate_count": 5, "zero_candidate": false}
{"pdf_atom_id": "ig34_p0038_a027", "pdf_atom_type": "LIST_ITEM", "pdf_source": "SDTMIG_v3.4", "pdf_page": 38, "pdf_parent_section": "§4.4.1 Formats for Date/Time Variables", "pdf_verbatim": "YYYY-MM-DDThh:mm:ss(.n+)?(((+|-)hh:mm)|Z)?", "figure_ref": null, "candidates": [{"md_atom_id": "md_ch04_a484", "md_file": "knowledge_base/chapters/ch04_general_assumptions.md", "md_atom_type": "CODE_LITERAL", "md_parent_section": "§4.4.1 [Formats for Date/Time Variables]", "md_verbatim": "`YYYY-MM-DDThh:mm:ss(.n+)?(((+|-)hh:mm)|Z)?`", "score": 0.69, "match_basis": "verbatim_token+chapter_route:ch04"}, {"md_atom_id": "md_ch04_a552", "md_file": "knowledge_base/chapters/ch04_general_assumptions.md", "md_atom_type": "CODE_LITERAL", "md_parent_section": "§4.4.3.1 [Intervals of Time and Use of Duration]", "md_verbatim": "`YYYY-MM-DDThh:mm:ss/YYYY-MM-DDThh:mm:ss`", "score": 0.69, "match_basis": "verbatim_token+chapter_route:ch04"}, {"md_atom_id": "md_ch04_a486", "md_file": "knowledge_base/chapters/ch04_general_assumptions.md", "md_atom_type": "LIST_ITEM", "md_parent_section": "§4.4.1 [Formats for Date/Time Variables]", "md_verbatim": "- [YYYY] = four-digit year", "score": 0.3545, "match_basis": "verbatim_token+chapter_route:ch04"}, {"md_atom_id": "md_ch04_a506", "md_file": "knowledge_base/chapters/ch04_general_assumptions.md", "md_atom_type": "LIST_ITEM", "md_parent_section": "§4.4.1 [Formats for Date/Time Variables]", "md_verbatim": "- When a date is stored with a time in the same variable (as a date/time), the date is written in front of the time and the time is preceded with \"T\" using the notation YYYY-MM-DDThh:mm:ss (e.g., 2001-12-26T00:00:01).", "score": 0.3444, "match_basis": "verbatim_token+chapter_route:ch04"}, {"md_atom_id": "md_ch04_a503", "md_file": "knowledge_base/chapters/ch04_general_assumptions.md", "md_atom_type": "LIST_ITEM", "md_parent_section": "§4.4.1 [Formats for Date/Time Variables]", "md_verbatim": "- ISO 8601 represents dates as a text string using the notation YYYY-MM-DD.", "score": 0.3182, "match_basis": "verbatim_token+chapter_route:ch04"}, {"md_atom_id": "md_ch04_a1025", "md_file": "knowledge_base/chapters/ch04_general_assumptions.md", "md_atom_type": "LIST_ITEM", "md_parent_section": "§4.5.8 [Accounting for Long-term Follow-up]", "md_verbatim": "4. If the subject's survival status is \"dead\", the Demographics (DM) variables DTHDTC and DTHFL must be appropriately populated.", "score": 0.3095, "match_basis": "verbatim_token+chapter_route:ch04"}, {"md_atom_id": "md_ch04_a038", "md_file": "knowledge_base/chapters/ch04_general_assumptions.md", "md_atom_type": "LIST_ITEM", "md_parent_section": "§4.1.5 [SDTM Core Designations]", "md_verbatim": "- Domain assumptions that say a Permissible variable is \"generally not used\" do not prohibit use of the variable.", "score": 0.3, "match_basis": "verbatim_token+chapter_route:ch04"}, {"md_atom_id": "md_ch04_a039", "md_file": "knowledge_base/chapters/ch04_general_assumptions.md", "md_atom_type": "LIST_ITEM", "md_parent_section": "§4.1.5 [SDTM Core Designations]", "md_verbatim": "- If a study includes a data item that would be represented in a Permissible variable, then that variable must be included in the SDTM dataset, even if null. Indicate no data were available for that variable in the Define-XML document.", "score": 0.3, "match_basis": "verbatim_token+chapter_route:ch04"}, {"md_atom_id": "md_ch04_a040", "md_file": "knowledge_base/chapters/ch04_general_assumptions.md", "md_atom_type": "LIST_ITEM", "md_parent_section": "§4.1.5 [SDTM Core Designations]", "md_verbatim": "- If a study did not include a data item that would be represented in a Permissible variable, then that variable should not be included in the SDTM dataset and should not be declared in the Define-XML document.", "score": 0.3, "match_basis": "verbatim_token+chapter_route:ch04"}, {"md_atom_id": "md_ch04_a051", "md_file": "knowledge_base/chapters/ch04_general_assumptions.md", "md_atom_type": "LIST_ITEM", "md_parent_section": "§4.1.7 [Splitting Domains]", "md_verbatim": "- A domain based on a general observation class may be split according to values in --CAT. When a domain is split on --CAT, --CAT must not be null.", "score": 0.3, "match_basis": "verbatim_token+chapter_route:ch04"}], "candidate_count": 10, "zero_candidate": false}
{"pdf_atom_id": "ig34_p0038_a028", "pdf_atom_type": "CODE_LITERAL", "pdf_source": "SDTMIG_v3.4", "pdf_page": 38, "pdf_parent_section": "§4.4.1 Formats for Date/Time Variables", "pdf_verbatim": "YYYY-MM-DDThh:mm:ss(.n+)?(((+|-)hh:mm)|Z)?", "figure_ref": null, "candidates": [{"md_atom_id": "md_ch04_a484", "md_file": "knowledge_base/chapters/ch04_general_assumptions.md", "md_atom_type": "CODE_LITERAL", "md_parent_section": "§4.4.1 [Formats for Date/Time Variables]", "md_verbatim": "`YYYY-MM-DDThh:mm:ss(.n+)?(((+|-)hh:mm)|Z)?`", "score": 0.69, "match_basis": "verbatim_token+chapter_route:ch04"}, {"md_atom_id": "md_ch04_a552", "md_file": "knowledge_base/chapters/ch04_general_assumptions.md", "md_atom_type": "CODE_LITERAL", "md_parent_section": "§4.4.3.1 [Intervals of Time and Use of Duration]", "md_verbatim": "`YYYY-MM-DDThh:mm:ss/YYYY-MM-DDThh:mm:ss`", "score": 0.69, "match_basis": "verbatim_token+chapter_route:ch04"}, {"md_atom_id": "md_ch04_a593", "md_file": "knowledge_base/chapters/ch04_general_assumptions.md", "md_atom_type": "CODE_LITERAL", "md_parent_section": "§4.4.3.2 [Interval with Uncertainty]", "md_verbatim": "`YYYY-MM-DDThh:mm:ss/PnYnMnDTnHnMnS`", "score": 0.25, "match_basis": "verbatim_token+chapter_route:ch04"}, {"md_atom_id": "md_ch04_a597", "md_file": "knowledge_base/chapters/ch04_general_assumptions.md", "md_atom_type": "CODE_LITERAL", "md_parent_section": "§4.4.3.2 [Interval with Uncertainty]", "md_verbatim": "`PnYnMnDTnHnMnS/YYYY-MM-DDThh:mm:ss`", "score": 0.25, "match_basis": "verbatim_token+chapter_route:ch04"}, {"md_atom_id": "md_ch04_a486", "md_file": "knowledge_base/chapters/ch04_general_assumptions.md", "md_atom_type": "LIST_ITEM", "md_parent_section": "§4.4.1 [Formats for Date/Time Variables]", "md_verbatim": "- [YYYY] = four-digit year", "score": 0.1445, "match_basis": "verbatim_token+chapter_route:ch04"}, {"md_atom_id": "md_ch04_a506", "md_file": "knowledge_base/chapters/ch04_general_assumptions.md", "md_atom_type": "LIST_ITEM", "md_parent_section": "§4.4.1 [Formats for Date/Time Variables]", "md_verbatim": "- When a date is stored with a time in the same variable (as a date/time), the date is written in front of the time and the time is preceded with \"T\" using the notation YYYY-MM-DDThh:mm:ss (e.g., 2001-12-26T00:00:01).", "score": 0.1344, "match_basis": "verbatim_token+chapter_route:ch04"}, {"md_atom_id": "md_ch04_a503", "md_file": "knowledge_base/chapters/ch04_general_assumptions.md", "md_atom_type": "LIST_ITEM", "md_parent_section": "§4.4.1 [Formats for Date/Time Variables]", "md_verbatim": "- ISO 8601 represents dates as a text string using the notation YYYY-MM-DD.", "score": 0.1082, "match_basis": "verbatim_token+chapter_route:ch04"}, {"md_atom_id": "md_ch04_a1025", "md_file": "knowledge_base/chapters/ch04_general_assumptions.md", "md_atom_type": "LIST_ITEM", "md_parent_section": "§4.5.8 [Accounting for Long-term Follow-up]", "md_verbatim": "4. If the subject's survival status is \"dead\", the Demographics (DM) variables DTHDTC and DTHFL must be appropriately populated.", "score": 0.0995, "match_basis": "verbatim_token+chapter_route:ch04"}, {"md_atom_id": "md_ch04_a001", "md_file": "knowledge_base/chapters/ch04_general_assumptions.md", "md_atom_type": "HEADING", "md_parent_section": "§4 [Assumptions for Domain Models]", "md_verbatim": "# SDTMIG v3.4 — Chapter 4: Assumptions for Domain Models", "score": 0.09, "match_basis": "verbatim_token+chapter_route:ch04"}, {"md_atom_id": "md_ch04_a002", "md_file": "knowledge_base/chapters/ch04_general_assumptions.md", "md_atom_type": "SENTENCE", "md_parent_section": "§4 [Assumptions for Domain Models]", "md_verbatim": "Source: SDTMIG v3.4, Section 4 (Pages 22-59)", "score": 0.09, "match_basis": "verbatim_token+chapter_route:ch04"}], "candidate_count": 10, "zero_candidate": false}
{"pdf_atom_id": "ig34_p0038_a029", "pdf_atom_type": "SENTENCE", "pdf_source": "SDTMIG_v3.4", "pdf_page": 38, "pdf_parent_section": "§4.4.1 Formats for Date/Time Variables", "pdf_verbatim": "where:", "figure_ref": null, "candidates": [{"md_atom_id": "md_ch04_a485", "md_file": "knowledge_base/chapters/ch04_general_assumptions.md", "md_atom_type": "SENTENCE", "md_parent_section": "§4.4.1 [Formats for Date/Time Variables]", "md_verbatim": "where:", "score": 0.9, "match_basis": "verbatim_token+chapter_route:ch04"}, {"md_atom_id": "md_ch04_a559", "md_file": "knowledge_base/chapters/ch04_general_assumptions.md", "md_atom_type": "SENTENCE", "md_parent_section": "§4.4.3.1 [Intervals of Time and Use of Duration]", "md_verbatim": "where the letter designation is defined as:", "score": 0.3818, "match_basis": "verbatim_token+chapter_route:ch04"}, {"md_atom_id": "md_ch04_a125", "md_file": "knowledge_base/chapters/ch04_general_assumptions.md", "md_atom_type": "SENTENCE", "md_parent_section": "§4.1.8.1 [Origin Metadata for Variables]", "md_verbatim": "The origin element in the Define-XML file is used to indicate where the data originated.", "score": 0.3545, "match_basis": "verbatim_token+chapter_route:ch04"}, {"md_atom_id": "md_ch04_a298", "md_file": "knowledge_base/chapters/ch04_general_assumptions.md", "md_atom_type": "SENTENCE", "md_parent_section": "§4.2.7.2 [\"Specify\" Values for Result Qualifier Variables]", "md_verbatim": "For example, consider a CRF where the sponsor requests the subject's eye color:", "score": 0.35, "match_basis": "verbatim_token+chapter_route:ch04"}, {"md_atom_id": "md_ch04_a656", "md_file": "knowledge_base/chapters/ch04_general_assumptions.md", "md_atom_type": "SENTENCE", "md_parent_section": "§4.4.7 [Use of Relative Timing Variables]", "md_verbatim": "When \"Active\" is checked:", "score": 0.3462, "match_basis": "verbatim_token+chapter_route:ch04"}, {"md_atom_id": "md_ch04_a468", "md_file": "knowledge_base/chapters/ch04_general_assumptions.md", "md_atom_type": "SENTENCE", "md_parent_section": "§4.3.7 [Use of \"Yes\" and \"No\" Values]", "md_verbatim": "Variables where the response is \"Yes\" or \"No\" (\"Y\" or \"N\") should normally be populated for both \"Y\" and \"N\" responses.", "score": 0.345, "match_basis": "verbatim_token+chapter_route:ch04"}, {"md_atom_id": "md_ch04_a1032", "md_file": "knowledge_base/chapters/ch04_general_assumptions.md", "md_atom_type": "SENTENCE", "md_parent_section": "§4.5.9 [Baseline Values]", "md_verbatim": "In domains where --BLFL was permissible, the variable --LOBXFL was added with a core value of permissible.", "score": 0.345, "match_basis": "verbatim_token+chapter_route:ch04"}, {"md_atom_id": "md_ch04_a154", "md_file": "knowledge_base/chapters/ch04_general_assumptions.md", "md_atom_type": "SENTENCE", "md_parent_section": "§4.1.9 [Assigning Natural Keys in the Metadata]", "md_verbatim": "where the notation \"QNAM.MKHNDPOS\" means the Supplemental Qualifier whose QNAM is \"MKHNDPOS\".", "score": 0.3439, "match_basis": "verbatim_token+chapter_route:ch04"}, {"md_atom_id": "md_ch04_a241", "md_file": "knowledge_base/chapters/ch04_general_assumptions.md", "md_atom_type": "SENTENCE", "md_parent_section": "§4.2.6 [Grouping Variables and Categorization]", "md_verbatim": "As such, these variables are often used in IDVAR in a RELREC relationship when there is a dataset-to-dataset relationship.", "score": 0.3429, "match_basis": "verbatim_token+chapter_route:ch04"}, {"md_atom_id": "md_ch04_a675", "md_file": "knowledge_base/chapters/ch04_general_assumptions.md", "md_atom_type": "SENTENCE", "md_parent_section": "§4.4.7 [Use of Relative Timing Variables]", "md_verbatim": "When \"Unknown\" is checked:", "score": 0.3429, "match_basis": "verbatim_token+chapter_route:ch04"}], "candidate_count": 10, "zero_candidate": false}
{"pdf_atom_id": "ig34_p0038_a030", "pdf_atom_type": "LIST_ITEM", "pdf_source": "SDTMIG_v3.4", "pdf_page": 38, "pdf_parent_section": "§4.4.1 Formats for Date/Time Variables", "pdf_verbatim": "[YYYY] = four-digit year", "figure_ref": null, "candidates": [{"md_atom_id": "md_ch04_a486", "md_file": "knowledge_base/chapters/ch04_general_assumptions.md", "md_atom_type": "LIST_ITEM", "md_parent_section": "§4.4.1 [Formats for Date/Time Variables]", "md_verbatim": "- [YYYY] = four-digit year", "score": 0.9, "match_basis": "verbatim_token+chapter_route:ch04"}, {"md_atom_id": "md_ch04_a490", "md_file": "knowledge_base/chapters/ch04_general_assumptions.md", "md_atom_type": "LIST_ITEM", "md_parent_section": "§4.4.1 [Formats for Date/Time Variables]", "md_verbatim": "- [hh] = two digits of hour (00 through 23) (am/pm is NOT allowed)", "score": 0.4091, "match_basis": "verbatim_token+chapter_route:ch04"}, {"md_atom_id": "md_ch04_a488", "md_file": "knowledge_base/chapters/ch04_general_assumptions.md", "md_atom_type": "LIST_ITEM", "md_parent_section": "§4.4.1 [Formats for Date/Time Variables]", "md_verbatim": "- [DD] = two-digit day of the month (01 through 31)", "score": 0.3947, "match_basis": "verbatim_token+chapter_route:ch04"}, {"md_atom_id": "md_ch04_a491", "md_file": "knowledge_base/chapters/ch04_general_assumptions.md", "md_atom_type": "LIST_ITEM", "md_parent_section": "§4.4.1 [Formats for Date/Time Variables]", "md_verbatim": "- [mm] = two digits of minute (00 through 59)", "score": 0.3947, "match_basis": "verbatim_token+chapter_route:ch04"}, {"md_atom_id": "md_ch04_a492", "md_file": "knowledge_base/chapters/ch04_general_assumptions.md", "md_atom_type": "LIST_ITEM", "md_parent_section": "§4.4.1 [Formats for Date/Time Variables]", "md_verbatim": "- [ss] = two digits of second (00 through 59)", "score": 0.3947, "match_basis": "verbatim_token+chapter_route:ch04"}], "candidate_count": 5, "zero_candidate": false}
{"pdf_atom_id": "ig34_p0038_a031", "pdf_atom_type": "LIST_ITEM", "pdf_source": "SDTMIG_v3.4", "pdf_page": 38, "pdf_parent_section": "§4.4.1 Formats for Date/Time Variables", "pdf_verbatim": "[MM] = two-digit representation of the month (01-12, 01=January, etc.)", "figure_ref": null, "candidates": [{"md_atom_id": "md_ch04_a487", "md_file": "knowledge_base/chapters/ch04_general_assumptions.md", "md_atom_type": "LIST_ITEM", "md_parent_section": "§4.4.1 [Formats for Date/Time Variables]", "md_verbatim": "- [MM] = two-digit representation of the month (01-12, 01=January, etc.)", "score": 0.9, "match_basis": "verbatim_token+chapter_route:ch04"}, {"md_atom_id": "md_ch04_a504", "md_file": "knowledge_base/chapters/ch04_general_assumptions.md", "md_atom_type": "LIST_ITEM", "md_parent_section": "§4.4.1 [Formats for Date/Time Variables]", "md_verbatim": "- ISO 8601 represents times as a text string using the notation hh:mm:ss(.n+)?(((+|-)hh:mm)|Z)?.", "score": 0.4674, "match_basis": "verbatim_token+chapter_route:ch04"}, {"md_atom_id": "md_ch04_a503", "md_file": "knowledge_base/chapters/ch04_general_assumptions.md", "md_atom_type": "LIST_ITEM", "md_parent_section": "§4.4.1 [Formats for Date/Time Variables]", "md_verbatim": "- ISO 8601 represents dates as a text string using the notation YYYY-MM-DD.", "score": 0.4636, "match_basis": "verbatim_token+chapter_route:ch04"}, {"md_atom_id": "md_ch04_a488", "md_file": "knowledge_base/chapters/ch04_general_assumptions.md", "md_atom_type": "LIST_ITEM", "md_parent_section": "§4.4.1 [Formats for Date/Time Variables]", "md_verbatim": "- [DD] = two-digit day of the month (01 through 31)", "score": 0.45, "match_basis": "verbatim_token+chapter_route:ch04"}, {"md_atom_id": "md_ch04_a865", "md_file": "knowledge_base/chapters/ch04_general_assumptions.md", "md_atom_type": "LIST_ITEM", "md_parent_section": "§4.5.1.3 [Examples of Original and Standard Units and Test Not Done]", "md_verbatim": "- **Row 5:** The overall interpretation of the ECG is represented as a separate test.", "score": 0.4469, "match_basis": "verbatim_token+chapter_route:ch04"}], "candidate_count": 5, "zero_candidate": false}
{"pdf_atom_id": "ig34_p0038_a032", "pdf_atom_type": "LIST_ITEM", "pdf_source": "SDTMIG_v3.4", "pdf_page": 38, "pdf_parent_section": "§4.4.1 Formats for Date/Time Variables", "pdf_verbatim": "[DD] = two-digit day of the month (01 through 31)", "figure_ref": null, "candidates": [{"md_atom_id": "md_ch04_a488", "md_file": "knowledge_base/chapters/ch04_general_assumptions.md", "md_atom_type": "LIST_ITEM", "md_parent_section": "§4.4.1 [Formats for Date/Time Variables]", "md_verbatim": "- [DD] = two-digit day of the month (01 through 31)", "score": 0.9, "match_basis": "verbatim_token+chapter_route:ch04"}, {"md_atom_id": "md_ch04_a491", "md_file": "knowledge_base/chapters/ch04_general_assumptions.md", "md_atom_type": "LIST_ITEM", "md_parent_section": "§4.4.1 [Formats for Date/Time Variables]", "md_verbatim": "- [mm] = two digits of minute (00 through 59)", "score": 0.5842, "match_basis": "verbatim_token+chapter_route:ch04"}, {"md_atom_id": "md_ch04_a492", "md_file": "knowledge_base/chapters/ch04_general_assumptions.md", "md_atom_type": "LIST_ITEM", "md_parent_section": "§4.4.1 [Formats for Date/Time Variables]", "md_verbatim": "- [ss] = two digits of second (00 through 59)", "score": 0.5842, "match_basis": "verbatim_token+chapter_route:ch04"}, {"md_atom_id": "md_ch04_a490", "md_file": "knowledge_base/chapters/ch04_general_assumptions.md", "md_atom_type": "LIST_ITEM", "md_parent_section": "§4.4.1 [Formats for Date/Time Variables]", "md_verbatim": "- [hh] = two digits of hour (00 through 23) (am/pm is NOT allowed)", "score": 0.5348, "match_basis": "verbatim_token+chapter_route:ch04"}, {"md_atom_id": "md_ch04_a487", "md_file": "knowledge_base/chapters/ch04_general_assumptions.md", "md_atom_type": "LIST_ITEM", "md_parent_section": "§4.4.1 [Formats for Date/Time Variables]", "md_verbatim": "- [MM] = two-digit representation of the month (01-12, 01=January, etc.)", "score": 0.45, "match_basis": "verbatim_token+chapter_route:ch04"}], "candidate_count": 5, "zero_candidate": false}
{"pdf_atom_id": "ig34_p0038_a033", "pdf_atom_type": "LIST_ITEM", "pdf_source": "SDTMIG_v3.4", "pdf_page": 38, "pdf_parent_section": "§4.4.1 Formats for Date/Time Variables", "pdf_verbatim": "[T] = (time designator) indicates time information follows", "figure_ref": null, "candidates": [{"md_atom_id": "md_ch04_a489", "md_file": "knowledge_base/chapters/ch04_general_assumptions.md", "md_atom_type": "LIST_ITEM", "md_parent_section": "§4.4.1 [Formats for Date/Time Variables]", "md_verbatim": "- [T] = (time designator) indicates time information follows", "score": 0.9, "match_basis": "verbatim_token+chapter_route:ch04"}, {"md_atom_id": "md_ch04_a564", "md_file": "knowledge_base/chapters/ch04_general_assumptions.md", "md_atom_type": "LIST_ITEM", "md_parent_section": "§4.4.3.1 [Intervals of Time and Use of Duration]", "md_verbatim": "- [D] is used as day designator.", "score": 0.4412, "match_basis": "verbatim_token+chapter_route:ch04"}, {"md_atom_id": "md_ch04_a562", "md_file": "knowledge_base/chapters/ch04_general_assumptions.md", "md_atom_type": "LIST_ITEM", "md_parent_section": "§4.4.3.1 [Intervals of Time and Use of Duration]", "md_verbatim": "- [Y] is used as year designator.", "score": 0.4371, "match_basis": "verbatim_token+chapter_route:ch04"}, {"md_atom_id": "md_ch04_a566", "md_file": "knowledge_base/chapters/ch04_general_assumptions.md", "md_atom_type": "LIST_ITEM", "md_parent_section": "§4.4.3.1 [Intervals of Time and Use of Duration]", "md_verbatim": "- [H] is used as hour designator.", "score": 0.4371, "match_basis": "verbatim_token+chapter_route:ch04"}, {"md_atom_id": "md_ch04_a565", "md_file": "knowledge_base/chapters/ch04_general_assumptions.md", "md_atom_type": "LIST_ITEM", "md_parent_section": "§4.4.3.1 [Intervals of Time and Use of Duration]", "md_verbatim": "- [T] is used as the date/time format separator.", "score": 0.435, "match_basis": "verbatim_token+chapter_route:ch04"}], "candidate_count": 5, "zero_candidate": false}
{"pdf_atom_id": "ig34_p0038_a034", "pdf_atom_type": "LIST_ITEM", "pdf_source": "SDTMIG_v3.4", "pdf_page": 38, "pdf_parent_section": "§4.4.1 Formats for Date/Time Variables", "pdf_verbatim": "[hh] = two digits of hour (00 through 23) (am/pm is NOT allowed)", "figure_ref": null, "candidates": [{"md_atom_id": "md_ch04_a490", "md_file": "knowledge_base/chapters/ch04_general_assumptions.md", "md_atom_type": "LIST_ITEM", "md_parent_section": "§4.4.1 [Formats for Date/Time Variables]", "md_verbatim": "- [hh] = two digits of hour (00 through 23) (am/pm is NOT allowed)", "score": 0.9, "match_basis": "verbatim_token+chapter_route:ch04"}, {"md_atom_id": "md_ch04_a491", "md_file": "knowledge_base/chapters/ch04_general_assumptions.md", "md_atom_type": "LIST_ITEM", "md_parent_section": "§4.4.1 [Formats for Date/Time Variables]", "md_verbatim": "- [mm] = two digits of minute (00 through 59)", "score": 0.5727, "match_basis": "verbatim_token+chapter_route:ch04"}, {"md_atom_id": "md_ch04_a492", "md_file": "knowledge_base/chapters/ch04_general_assumptions.md", "md_atom_type": "LIST_ITEM", "md_parent_section": "§4.4.1 [Formats for Date/Time Variables]", "md_verbatim": "- [ss] = two digits of second (00 through 59)", "score": 0.5727, "match_basis": "verbatim_token+chapter_route:ch04"}, {"md_atom_id": "md_ch04_a488", "md_file": "knowledge_base/chapters/ch04_general_assumptions.md", "md_atom_type": "LIST_ITEM", "md_parent_section": "§4.4.1 [Formats for Date/Time Variables]", "md_verbatim": "- [DD] = two-digit day of the month (01 through 31)", "score": 0.5348, "match_basis": "verbatim_token+chapter_route:ch04"}, {"md_atom_id": "md_ch04_a486", "md_file": "knowledge_base/chapters/ch04_general_assumptions.md", "md_atom_type": "LIST_ITEM", "md_parent_section": "§4.4.1 [Formats for Date/Time Variables]", "md_verbatim": "- [YYYY] = four-digit year", "score": 0.4091, "match_basis": "verbatim_token+chapter_route:ch04"}], "candidate_count": 5, "zero_candidate": false}
{"pdf_atom_id": "ig34_p0038_a035", "pdf_atom_type": "LIST_ITEM", "pdf_source": "SDTMIG_v3.4", "pdf_page": 38, "pdf_parent_section": "§4.4.1 Formats for Date/Time Variables", "pdf_verbatim": "[mm] = two digits of minute (00 through 59)", "figure_ref": null, "candidates": [{"md_atom_id": "md_ch04_a491", "md_file": "knowledge_base/chapters/ch04_general_assumptions.md", "md_atom_type": "LIST_ITEM", "md_parent_section": "§4.4.1 [Formats for Date/Time Variables]", "md_verbatim": "- [mm] = two digits of minute (00 through 59)", "score": 0.9, "match_basis": "verbatim_token+chapter_route:ch04"}, {"md_atom_id": "md_ch04_a492", "md_file": "knowledge_base/chapters/ch04_general_assumptions.md", "md_atom_type": "LIST_ITEM", "md_parent_section": "§4.4.1 [Formats for Date/Time Variables]", "md_verbatim": "- [ss] = two digits of second (00 through 59)", "score": 0.6333, "match_basis": "verbatim_token+chapter_route:ch04"}, {"md_atom_id": "md_ch04_a488", "md_file": "knowledge_base/chapters/ch04_general_assumptions.md", "md_atom_type": "LIST_ITEM", "md_parent_section": "§4.4.1 [Formats for Date/Time Variables]", "md_verbatim": "- [DD] = two-digit day of the month (01 through 31)", "score": 0.5842, "match_basis": "verbatim_token+chapter_route:ch04"}, {"md_atom_id": "md_ch04_a490", "md_file": "knowledge_base/chapters/ch04_general_assumptions.md", "md_atom_type": "LIST_ITEM", "md_parent_section": "§4.4.1 [Formats for Date/Time Variables]", "md_verbatim": "- [hh] = two digits of hour (00 through 23) (am/pm is NOT allowed)", "score": 0.5727, "match_basis": "verbatim_token+chapter_route:ch04"}, {"md_atom_id": "md_ch04_a486", "md_file": "knowledge_base/chapters/ch04_general_assumptions.md", "md_atom_type": "LIST_ITEM", "md_parent_section": "§4.4.1 [Formats for Date/Time Variables]", "md_verbatim": "- [YYYY] = four-digit year", "score": 0.3947, "match_basis": "verbatim_token+chapter_route:ch04"}], "candidate_count": 5, "zero_candidate": false}
{"pdf_atom_id": "ig34_p0038_a036", "pdf_atom_type": "LIST_ITEM", "pdf_source": "SDTMIG_v3.4", "pdf_page": 38, "pdf_parent_section": "§4.4.1 Formats for Date/Time Variables", "pdf_verbatim": "[ss] = two digits of second (00 through 59)", "figure_ref": null, "candidates": [{"md_atom_id": "md_ch04_a492", "md_file": "knowledge_base/chapters/ch04_general_assumptions.md", "md_atom_type": "LIST_ITEM", "md_parent_section": "§4.4.1 [Formats for Date/Time Variables]", "md_verbatim": "- [ss] = two digits of second (00 through 59)", "score": 0.9, "match_basis": "verbatim_token+chapter_route:ch04"}, {"md_atom_id": "md_ch04_a491", "md_file": "knowledge_base/chapters/ch04_general_assumptions.md", "md_atom_type": "LIST_ITEM", "md_parent_section": "§4.4.1 [Formats for Date/Time Variables]", "md_verbatim": "- [mm] = two digits of minute (00 through 59)", "score": 0.6333, "match_basis": "verbatim_token+chapter_route:ch04"}, {"md_atom_id": "md_ch04_a488", "md_file": "knowledge_base/chapters/ch04_general_assumptions.md", "md_atom_type": "LIST_ITEM", "md_parent_section": "§4.4.1 [Formats for Date/Time Variables]", "md_verbatim": "- [DD] = two-digit day of the month (01 through 31)", "score": 0.5842, "match_basis": "verbatim_token+chapter_route:ch04"}, {"md_atom_id": "md_ch04_a490", "md_file": "knowledge_base/chapters/ch04_general_assumptions.md", "md_atom_type": "LIST_ITEM", "md_parent_section": "§4.4.1 [Formats for Date/Time Variables]", "md_verbatim": "- [hh] = two digits of hour (00 through 23) (am/pm is NOT allowed)", "score": 0.5727, "match_basis": "verbatim_token+chapter_route:ch04"}, {"md_atom_id": "md_ch04_a567", "md_file": "knowledge_base/chapters/ch04_general_assumptions.md", "md_atom_type": "LIST_ITEM", "md_parent_section": "§4.4.3.1 [Intervals of Time and Use of Duration]", "md_verbatim": "- [S] is used as second designator.", "score": 0.4, "match_basis": "verbatim_token+chapter_route:ch04"}], "candidate_count": 5, "zero_candidate": false}
{"pdf_atom_id": "ig34_p0038_a037", "pdf_atom_type": "SENTENCE", "pdf_source": "SDTMIG_v3.4", "pdf_page": 38, "pdf_parent_section": "§4.4.1 Formats for Date/Time Variables", "pdf_verbatim": "The last two components, indicated in the format pattern with a question mark, are optional:", "figure_ref": null, "candidates": [{"md_atom_id": "md_ch04_a493", "md_file": "knowledge_base/chapters/ch04_general_assumptions.md", "md_atom_type": "SENTENCE", "md_parent_section": "§4.4.1 [Formats for Date/Time Variables]", "md_verbatim": "The last two components, indicated in the format pattern with a question mark, are optional:", "score": 0.9, "match_basis": "verbatim_token+chapter_route:ch04"}, {"md_atom_id": "md_ch04_a571", "md_file": "knowledge_base/chapters/ch04_general_assumptions.md", "md_atom_type": "SENTENCE", "md_parent_section": "§4.4.3.1 [Intervals of Time and Use of Duration]", "md_verbatim": "As with the date/time format, \"T\" is used to separate the date components from time components.", "score": 0.4745, "match_basis": "verbatim_token+chapter_route:ch04"}, {"md_atom_id": "md_ch04_a535", "md_file": "knowledge_base/chapters/ch04_general_assumptions.md", "md_atom_type": "SENTENCE", "md_parent_section": "§4.4.2 [Date/Time Precision]", "md_verbatim": "When components are omitted, the expected delimiters must still be kept in place and only a single hyphen is to be used to indicate an omitted component.", "score": 0.45, "match_basis": "verbatim_token+chapter_route:ch04"}, {"md_atom_id": "md_ch04_a575", "md_file": "knowledge_base/chapters/ch04_general_assumptions.md", "md_atom_type": "SENTENCE", "md_parent_section": "§4.4.3.1 [Intervals of Time and Use of Duration]", "md_verbatim": "ISO 8601 also allows that the \"lowest-order components\" of duration being represented may be represented in decimal format.", "score": 0.4291, "match_basis": "verbatim_token+chapter_route:ch04"}, {"md_atom_id": "md_ch04_a512", "md_file": "knowledge_base/chapters/ch04_general_assumptions.md", "md_atom_type": "SENTENCE", "md_parent_section": "§4.4.2 [Date/Time Precision]", "md_verbatim": "Missing components are represented by right truncation or a hyphen (for intermediate components that are missing).", "score": 0.4263, "match_basis": "verbatim_token+chapter_route:ch04"}], "candidate_count": 5, "zero_candidate": false}
{"pdf_atom_id": "ig34_p0039_a001", "pdf_atom_type": "LIST_ITEM", "pdf_source": "SDTMIG_v3.4", "pdf_page": 39, "pdf_parent_section": "§4.4.1 Formats for Date/Time Variables", "pdf_verbatim": "[(.n+)?] = optional fractions of seconds", "figure_ref": null, "candidates": [{"md_atom_id": "md_ch04_a494", "md_file": "knowledge_base/chapters/ch04_general_assumptions.md", "md_atom_type": "LIST_ITEM", "md_parent_section": "§4.4.1 [Formats for Date/Time Variables]", "md_verbatim": "- [(.n+)?] = optional fractions of seconds", "score": 0.9, "match_basis": "verbatim_token+chapter_route:ch04"}, {"md_atom_id": "md_ch04_a495", "md_file": "knowledge_base/chapters/ch04_general_assumptions.md", "md_atom_type": "LIST_ITEM", "md_parent_section": "§4.4.1 [Formats for Date/Time Variables]", "md_verbatim": "- [(((+|-)hh:mm)|Z)?] = optional time zone", "score": 0.48, "match_basis": "verbatim_token+chapter_route:ch04"}, {"md_atom_id": "md_ch04_a492", "md_file": "knowledge_base/chapters/ch04_general_assumptions.md", "md_atom_type": "LIST_ITEM", "md_parent_section": "§4.4.1 [Formats for Date/Time Variables]", "md_verbatim": "- [ss] = two digits of second (00 through 59)", "score": 0.3923, "match_basis": "verbatim_token+chapter_route:ch04"}, {"md_atom_id": "md_ch04_a567", "md_file": "knowledge_base/chapters/ch04_general_assumptions.md", "md_atom_type": "LIST_ITEM", "md_parent_section": "§4.4.3.1 [Intervals of Time and Use of Duration]", "md_verbatim": "- [S] is used as second designator.", "score": 0.3923, "match_basis": "verbatim_token+chapter_route:ch04"}, {"md_atom_id": "md_ch04_a291", "md_file": "knowledge_base/chapters/ch04_general_assumptions.md", "md_atom_type": "LIST_ITEM", "md_parent_section": "§4.2.7.1 [\"Specify\" Values for Non-Result Qualifier Variables]", "md_verbatim": "   - CMINDC = \"FRACTURE\"", "score": 0.3783, "match_basis": "verbatim_token+chapter_route:ch04"}], "candidate_count": 5, "zero_candidate": false}
{"pdf_atom_id": "ig34_p0039_a002", "pdf_atom_type": "LIST_ITEM", "pdf_source": "SDTMIG_v3.4", "pdf_page": 39, "pdf_parent_section": "§4.4.1 Formats for Date/Time Variables", "pdf_verbatim": "[(((+|-)hh:mm)|Z)?] = optional time zone", "figure_ref": null, "candidates": [{"md_atom_id": "md_ch04_a495", "md_file": "knowledge_base/chapters/ch04_general_assumptions.md", "md_atom_type": "LIST_ITEM", "md_parent_section": "§4.4.1 [Formats for Date/Time Variables]", "md_verbatim": "- [(((+|-)hh:mm)|Z)?] = optional time zone", "score": 0.9, "match_basis": "verbatim_token+chapter_route:ch04"}, {"md_atom_id": "md_ch04_a494", "md_file": "knowledge_base/chapters/ch04_general_assumptions.md", "md_atom_type": "LIST_ITEM", "md_parent_section": "§4.4.1 [Formats for Date/Time Variables]", "md_verbatim": "- [(.n+)?] = optional fractions of seconds", "score": 0.48, "match_basis": "verbatim_token+chapter_route:ch04"}, {"md_atom_id": "md_ch04_a161", "md_file": "knowledge_base/chapters/ch04_general_assumptions.md", "md_atom_type": "LIST_ITEM", "md_parent_section": "§4.1.9 [Assigning Natural Keys in the Metadata]", "md_verbatim": "- Rotation of the hand", "score": 0.3706, "match_basis": "verbatim_token+chapter_route:ch04"}, {"md_atom_id": "md_ch04_a504", "md_file": "knowledge_base/chapters/ch04_general_assumptions.md", "md_atom_type": "LIST_ITEM", "md_parent_section": "§4.4.1 [Formats for Date/Time Variables]", "md_verbatim": "- ISO 8601 represents times as a text string using the notation hh:mm:ss(.n+)?(((+|-)hh:mm)|Z)?.", "score": 0.3686, "match_basis": "verbatim_token+chapter_route:ch04"}, {"md_atom_id": "md_ch04_a499", "md_file": "knowledge_base/chapters/ch04_general_assumptions.md", "md_atom_type": "LIST_ITEM", "md_parent_section": "§4.4.1 [Formats for Date/Time Variables]", "md_verbatim": "- [/] (solidus): to separate components in the representation of date/time intervals", "score": 0.3652, "match_basis": "verbatim_token+chapter_route:ch04"}], "candidate_count": 5, "zero_candidate": false}
{"pdf_atom_id": "ig34_p0039_a003", "pdf_atom_type": "SENTENCE", "pdf_source": "SDTMIG_v3.4", "pdf_page": 39, "pdf_parent_section": "§4.4.1 Formats for Date/Time Variables", "pdf_verbatim": "Other characters defined for use within the ISO 8601 standard are:", "figure_ref": null, "candidates": [{"md_atom_id": "md_ch04_a496", "md_file": "knowledge_base/chapters/ch04_general_assumptions.md", "md_atom_type": "SENTENCE", "md_parent_section": "§4.4.1 [Formats for Date/Time Variables]", "md_verbatim": "Other characters defined for use within the ISO 8601 standard are:", "score": 0.9, "match_basis": "verbatim_token+chapter_route:ch04"}, {"md_atom_id": "md_ch04_a507", "md_file": "knowledge_base/chapters/ch04_general_assumptions.md", "md_atom_type": "SENTENCE", "md_parent_section": "§4.4.1 [Formats for Date/Time Variables]", "md_verbatim": "Implementation of the ISO 8601 standard means that date/time variables are character/text data types.", "score": 0.4636, "match_basis": "verbatim_token+chapter_route:ch04"}, {"md_atom_id": "md_ch04_a502", "md_file": "knowledge_base/chapters/ch04_general_assumptions.md", "md_atom_type": "SENTENCE", "md_parent_section": "§4.4.1 [Formats for Date/Time Variables]", "md_verbatim": "Key aspects of the ISO 8601 standard are as follows:", "score": 0.4535, "match_basis": "verbatim_token+chapter_route:ch04"}, {"md_atom_id": "md_ch04_a545", "md_file": "knowledge_base/chapters/ch04_general_assumptions.md", "md_atom_type": "SENTENCE", "md_parent_section": "§4.4.2 [Date/Time Precision]", "md_verbatim": "Using a character-based data type to implement the ISO 8601 date/time standard will ensure that the date/time information will be machine- and human-readable without the need for further manipulation, and will be platform- and software-independent.", "score": 0.4321, "match_basis": "verbatim_token+chapter_route:ch04"}, {"md_atom_id": "md_ch04_a556", "md_file": "knowledge_base/chapters/ch04_general_assumptions.md", "md_atom_type": "SENTENCE", "md_parent_section": "§4.4.3.1 [Intervals of Time and Use of Duration]", "md_verbatim": "Both duration and duration units can be provided in the single --DUR variable, in accordance with the ISO 8601 standard.", "score": 0.4164, "match_basis": "verbatim_token+chapter_route:ch04"}], "candidate_count": 5, "zero_candidate": false}
{"pdf_atom_id": "ig34_p0039_a004", "pdf_atom_type": "LIST_ITEM", "pdf_source": "SDTMIG_v3.4", "pdf_page": 39, "pdf_parent_section": "§4.4.1 Formats for Date/Time Variables", "pdf_verbatim": "[-] (hyphen): to separate the time elements \"year\" from \"month\" and \"month\" from \"day\" and to represent missing date components.", "figure_ref": null, "candidates": [{"md_atom_id": "md_ch04_a497", "md_file": "knowledge_base/chapters/ch04_general_assumptions.md", "md_atom_type": "LIST_ITEM", "md_parent_section": "§4.4.1 [Formats for Date/Time Variables]", "md_verbatim": "- [-] (hyphen): to separate the time elements \"year\" from \"month\" and \"month\" from \"day\" and to represent missing date components", "score": 0.9, "match_basis": "verbatim_token+chapter_route:ch04"}, {"md_atom_id": "md_ch04_a499", "md_file": "knowledge_base/chapters/ch04_general_assumptions.md", "md_atom_type": "LIST_ITEM", "md_parent_section": "§4.4.1 [Formats for Date/Time Variables]", "md_verbatim": "- [/] (solidus): to separate components in the representation of date/time intervals", "score": 0.5286, "match_basis": "verbatim_token+chapter_route:ch04"}, {"md_atom_id": "md_ch04_a498", "md_file": "knowledge_base/chapters/ch04_general_assumptions.md", "md_atom_type": "LIST_ITEM", "md_parent_section": "§4.4.1 [Formats for Date/Time Variables]", "md_verbatim": "- [:] (colon): to separate the time elements \"hour\" from \"minute\" and \"minute\" from \"second\"", "score": 0.4831, "match_basis": "verbatim_token+chapter_route:ch04"}, {"md_atom_id": "md_ch04_a500", "md_file": "knowledge_base/chapters/ch04_general_assumptions.md", "md_atom_type": "LIST_ITEM", "md_parent_section": "§4.4.1 [Formats for Date/Time Variables]", "md_verbatim": "- [P] (duration designator): precedes the components that represent the duration", "score": 0.4477, "match_basis": "verbatim_token+chapter_route:ch04"}, {"md_atom_id": "md_ch04_a571", "md_file": "knowledge_base/chapters/ch04_general_assumptions.md", "md_atom_type": "SENTENCE", "md_parent_section": "§4.4.3.1 [Intervals of Time and Use of Duration]", "md_verbatim": "As with the date/time format, \"T\" is used to separate the date components from time components.", "score": 0.4322, "match_basis": "verbatim_token+chapter_route:ch04"}], "candidate_count": 5, "zero_candidate": false}
{"pdf_atom_id": "ig34_p0039_a005", "pdf_atom_type": "LIST_ITEM", "pdf_source": "SDTMIG_v3.4", "pdf_page": 39, "pdf_parent_section": "§4.4.1 Formats for Date/Time Variables", "pdf_verbatim": "[:] (colon): to separate the time elements \"hour\" from \"minute\" and \"minute\" from \"second\"", "figure_ref": null, "candidates": [{"md_atom_id": "md_ch04_a498", "md_file": "knowledge_base/chapters/ch04_general_assumptions.md", "md_atom_type": "LIST_ITEM", "md_parent_section": "§4.4.1 [Formats for Date/Time Variables]", "md_verbatim": "- [:] (colon): to separate the time elements \"hour\" from \"minute\" and \"minute\" from \"second\"", "score": 0.9, "match_basis": "verbatim_token+chapter_route:ch04"}, {"md_atom_id": "md_ch04_a497", "md_file": "knowledge_base/chapters/ch04_general_assumptions.md", "md_atom_type": "LIST_ITEM", "md_parent_section": "§4.4.1 [Formats for Date/Time Variables]", "md_verbatim": "- [-] (hyphen): to separate the time elements \"year\" from \"month\" and \"month\" from \"day\" and to represent missing date components", "score": 0.4831, "match_basis": "verbatim_token+chapter_route:ch04"}, {"md_atom_id": "md_ch04_a565", "md_file": "knowledge_base/chapters/ch04_general_assumptions.md", "md_atom_type": "LIST_ITEM", "md_parent_section": "§4.4.3.1 [Intervals of Time and Use of Duration]", "md_verbatim": "- [T] is used as the date/time format separator.", "score": 0.435, "match_basis": "verbatim_token+chapter_route:ch04"}, {"md_atom_id": "md_ch04_a626", "md_file": "knowledge_base/chapters/ch04_general_assumptions.md", "md_atom_type": "LIST_ITEM", "md_parent_section": "§4.4.6 [Representing Additional Study Days]", "md_verbatim": "- The reference date/time may use Subject Elements (SE) dataset element start date/time", "score": 0.4132, "match_basis": "verbatim_token+chapter_route:ch04"}, {"md_atom_id": "md_ch04_a499", "md_file": "knowledge_base/chapters/ch04_general_assumptions.md", "md_atom_type": "LIST_ITEM", "md_parent_section": "§4.4.1 [Formats for Date/Time Variables]", "md_verbatim": "- [/] (solidus): to separate components in the representation of date/time intervals", "score": 0.4082, "match_basis": "verbatim_token+chapter_route:ch04"}], "candidate_count": 5, "zero_candidate": false}
{"pdf_atom_id": "ig34_p0039_a006", "pdf_atom_type": "LIST_ITEM", "pdf_source": "SDTMIG_v3.4", "pdf_page": 39, "pdf_parent_section": "§4.4.1 Formats for Date/Time Variables", "pdf_verbatim": "[/] (solidus): to separate components in the representation of date/time intervals", "figure_ref": null, "candidates": [{"md_atom_id": "md_ch04_a499", "md_file": "knowledge_base/chapters/ch04_general_assumptions.md", "md_atom_type": "LIST_ITEM", "md_parent_section": "§4.4.1 [Formats for Date/Time Variables]", "md_verbatim": "- [/] (solidus): to separate components in the representation of date/time intervals", "score": 0.9, "match_basis": "verbatim_token+chapter_route:ch04"}, {"md_atom_id": "md_ch04_a865", "md_file": "knowledge_base/chapters/ch04_general_assumptions.md", "md_atom_type": "LIST_ITEM", "md_parent_section": "§4.5.1.3 [Examples of Original and Standard Units and Test Not Done]", "md_verbatim": "- **Row 5:** The overall interpretation of the ECG is represented as a separate test.", "score": 0.5291, "match_basis": "verbatim_token+chapter_route:ch04"}, {"md_atom_id": "md_ch04_a497", "md_file": "knowledge_base/chapters/ch04_general_assumptions.md", "md_atom_type": "LIST_ITEM", "md_parent_section": "§4.4.1 [Formats for Date/Time Variables]", "md_verbatim": "- [-] (hyphen): to separate the time elements \"year\" from \"month\" and \"month\" from \"day\" and to represent missing date components", "score": 0.5286, "match_basis": "verbatim_token+chapter_route:ch04"}, {"md_atom_id": "md_ch04_a500", "md_file": "knowledge_base/chapters/ch04_general_assumptions.md", "md_atom_type": "LIST_ITEM", "md_parent_section": "§4.4.1 [Formats for Date/Time Variables]", "md_verbatim": "- [P] (duration designator): precedes the components that represent the duration", "score": 0.5, "match_basis": "verbatim_token+chapter_route:ch04"}, {"md_atom_id": "md_ch04_a594", "md_file": "knowledge_base/chapters/ch04_general_assumptions.md", "md_atom_type": "SENTENCE", "md_parent_section": "§4.4.3.2 [Interval with Uncertainty]", "md_verbatim": "where the start date/time is represented before the solidus [/], the \"Pn...\" following the solidus represents a \"duration,\" and the entire representation is known as an \"interval.\"", "score": 0.4747, "match_basis": "verbatim_token+chapter_route:ch04"}], "candidate_count": 5, "zero_candidate": false}
{"pdf_atom_id": "ig34_p0039_a007", "pdf_atom_type": "LIST_ITEM", "pdf_source": "SDTMIG_v3.4", "pdf_page": 39, "pdf_parent_section": "§4.4.1 Formats for Date/Time Variables", "pdf_verbatim": "[P] (duration designator): precedes the components that represent the duration", "figure_ref": null, "candidates": [{"md_atom_id": "md_ch04_a500", "md_file": "knowledge_base/chapters/ch04_general_assumptions.md", "md_atom_type": "LIST_ITEM", "md_parent_section": "§4.4.1 [Formats for Date/Time Variables]", "md_verbatim": "- [P] (duration designator): precedes the components that represent the duration", "score": 0.9, "match_basis": "verbatim_token+chapter_route:ch04"}, {"md_atom_id": "md_ch04_a560", "md_file": "knowledge_base/chapters/ch04_general_assumptions.md", "md_atom_type": "LIST_ITEM", "md_parent_section": "§4.4.3.1 [Intervals of Time and Use of Duration]", "md_verbatim": "- [P] (duration designator): precedes the alphanumeric text string that represents the duration. Note that the use of the character \"P\" is based on the historical use of the term \"period\" for duration.", "score": 0.532, "match_basis": "verbatim_token+chapter_route:ch04"}, {"md_atom_id": "md_ch04_a568", "md_file": "knowledge_base/chapters/ch04_general_assumptions.md", "md_atom_type": "LIST_ITEM", "md_parent_section": "§4.4.3.1 [Intervals of Time and Use of Duration]", "md_verbatim": "- [W] is used as week designator, preceding a data element that represents the number of calendar weeks (e.g., P6W represents 6 weeks of calendar time).", "score": 0.5129, "match_basis": "verbatim_token+chapter_route:ch04"}, {"md_atom_id": "md_ch04_a574", "md_file": "knowledge_base/chapters/ch04_general_assumptions.md", "md_atom_type": "SENTENCE", "md_parent_section": "§4.4.3.1 [Intervals of Time and Use of Duration]", "md_verbatim": "If no time component is represented, the [T] time designator must be omitted in ISO 8601 representation.", "score": 0.51, "match_basis": "verbatim_token+chapter_route:ch04"}, {"md_atom_id": "md_ch04_a499", "md_file": "knowledge_base/chapters/ch04_general_assumptions.md", "md_atom_type": "LIST_ITEM", "md_parent_section": "§4.4.1 [Formats for Date/Time Variables]", "md_verbatim": "- [/] (solidus): to separate components in the representation of date/time intervals", "score": 0.5, "match_basis": "verbatim_token+chapter_route:ch04"}], "candidate_count": 5, "zero_candidate": false}
