{"pdf_atom_id": "ig34_p0451_a006", "pdf_atom_type": "TABLE_ROW", "pdf_source": "SDTMIG_v3.4", "pdf_page": 451, "pdf_parent_section": "§10.D Appendix D: CDISC Variable-naming Fragments", "pdf_verbatim": "STANDARD | ST, STD", "figure_ref": null, "candidates": [{"md_atom_id": "md_ch10_a113", "md_file": "knowledge_base/chapters/ch10_appendices.md", "md_atom_type": "TABLE_ROW", "md_parent_section": "§10.D [CDISC Variable-naming Fragments]", "md_verbatim": "| FREQUENCY | FRQ | | STANDARD | ST, STD |", "score": 0.58, "match_basis": "verbatim_token+chapter_route:ch10"}, {"md_atom_id": "md_ch10_a038", "md_file": "knowledge_base/chapters/ch10_appendices.md", "md_atom_type": "TABLE_ROW", "md_parent_section": "§10.B [Glossary and Abbreviations]", "md_verbatim": "| NSV | Non-standard variable |", "score": 0.54, "match_basis": "verbatim_token+chapter_route:ch10"}, {"md_atom_id": "md_ch10_a047", "md_file": "knowledge_base/chapters/ch10_appendices.md", "md_atom_type": "TABLE_ROW", "md_parent_section": "§10.B [Glossary and Abbreviations]", "md_verbatim": "| SEND | Standard for Exchange of Non-Clinical Data |", "score": 0.444, "match_basis": "verbatim_token+chapter_route:ch10"}, {"md_atom_id": "md_ch10_a178", "md_file": "knowledge_base/chapters/ch10_appendices.md", "md_atom_type": "TABLE_ROW", "md_parent_section": "§10.E [Revision History]", "md_verbatim": "| **Section 3. Submitting Data in a Standard Format** | | |", "score": 0.4385, "match_basis": "verbatim_token+chapter_route:ch10"}, {"md_atom_id": "md_ch10_a032", "md_file": "knowledge_base/chapters/ch10_appendices.md", "md_atom_type": "TABLE_ROW", "md_parent_section": "§10.B [Glossary and Abbreviations]", "md_verbatim": "| ISO | International Organization for Standardization |", "score": 0.4241, "match_basis": "verbatim_token+chapter_route:ch10"}], "candidate_count": 5, "zero_candidate": false}
{"pdf_atom_id": "ig34_p0451_a007", "pdf_atom_type": "TABLE_ROW", "pdf_source": "SDTMIG_v3.4", "pdf_page": 451, "pdf_parent_section": "§10.D Appendix D: CDISC Variable-naming Fragments", "pdf_verbatim": "START | ST", "figure_ref": null, "candidates": [{"md_atom_id": "md_ch10_a114", "md_file": "knowledge_base/chapters/ch10_appendices.md", "md_atom_type": "TABLE_ROW", "md_parent_section": "§10.D [CDISC Variable-naming Fragments]", "md_verbatim": "| GRADE | GR | | START | ST |", "score": 0.6, "match_basis": "verbatim_token+chapter_route:ch10"}, {"md_atom_id": "md_ch10_a115", "md_file": "knowledge_base/chapters/ch10_appendices.md", "md_atom_type": "TABLE_ROW", "md_parent_section": "§10.D [CDISC Variable-naming Fragments]", "md_verbatim": "| GROUP | GRP | | STATUS | STAT |", "score": 0.36, "match_basis": "verbatim_token+chapter_route:ch10"}, {"md_atom_id": "md_ch10_a038", "md_file": "knowledge_base/chapters/ch10_appendices.md", "md_atom_type": "TABLE_ROW", "md_parent_section": "§10.B [Glossary and Abbreviations]", "md_verbatim": "| NSV | Non-standard variable |", "score": 0.3375, "match_basis": "verbatim_token+chapter_route:ch10"}, {"md_atom_id": "md_ch10_a113", "md_file": "knowledge_base/chapters/ch10_appendices.md", "md_atom_type": "TABLE_ROW", "md_parent_section": "§10.D [CDISC Variable-naming Fragments]", "md_verbatim": "| FREQUENCY | FRQ | | STANDARD | ST, STD |", "score": 0.3353, "match_basis": "verbatim_token+chapter_route:ch10"}, {"md_atom_id": "md_ch10_a040", "md_file": "knowledge_base/chapters/ch10_appendices.md", "md_atom_type": "TABLE_ROW", "md_parent_section": "§10.B [Glossary and Abbreviations]", "md_verbatim": "| SAP | Statistical analysis plan |", "score": 0.33, "match_basis": "verbatim_token+chapter_route:ch10"}, {"md_atom_id": "md_ch10_a047", "md_file": "knowledge_base/chapters/ch10_appendices.md", "md_atom_type": "TABLE_ROW", "md_parent_section": "§10.B [Glossary and Abbreviations]", "md_verbatim": "| SEND | Standard for Exchange of Non-Clinical Data |", "score": 0.3231, "match_basis": "verbatim_token+chapter_route:ch10"}, {"md_atom_id": "md_ch10_a178", "md_file": "knowledge_base/chapters/ch10_appendices.md", "md_atom_type": "TABLE_ROW", "md_parent_section": "§10.E [Revision History]", "md_verbatim": "| **Section 3. Submitting Data in a Standard Format** | | |", "score": 0.3222, "match_basis": "verbatim_token+chapter_route:ch10"}, {"md_atom_id": "md_ch10_a032", "md_file": "knowledge_base/chapters/ch10_appendices.md", "md_atom_type": "TABLE_ROW", "md_parent_section": "§10.B [Glossary and Abbreviations]", "md_verbatim": "| ISO | International Organization for Standardization |", "score": 0.32, "match_basis": "verbatim_token+chapter_route:ch10"}, {"md_atom_id": "md_ch10_a226", "md_file": "knowledge_base/chapters/ch10_appendices.md", "md_atom_type": "TABLE_ROW", "md_parent_section": "§10.E [Revision History]", "md_verbatim": "| 7.3.2 | Trial Disease Assessments (TD) | Assumption 4 inserted to clarify that start of a schedule is the start of the interval preceding the first assessment; Examples 1 and 3 diagrams updated; values of TDSTOFF corrected |", "score": 0.3194, "match_basis": "verbatim_token+chapter_route:ch10"}, {"md_atom_id": "md_ch10_a031", "md_file": "knowledge_base/chapters/ch10_appendices.md", "md_atom_type": "TABLE_ROW", "md_parent_section": "§10.B [Glossary and Abbreviations]", "md_verbatim": "| ICH E9 | ICH guidelines on Statistical Principles for Clinical Trials |", "score": 0.3167, "match_basis": "verbatim_token+chapter_route:ch10"}], "candidate_count": 10, "zero_candidate": false}
{"pdf_atom_id": "ig34_p0451_a008", "pdf_atom_type": "TABLE_ROW", "pdf_source": "SDTMIG_v3.4", "pdf_page": 451, "pdf_parent_section": "§10.D Appendix D: CDISC Variable-naming Fragments", "pdf_verbatim": "STATUS | STAT", "figure_ref": null, "candidates": [{"md_atom_id": "md_ch10_a115", "md_file": "knowledge_base/chapters/ch10_appendices.md", "md_atom_type": "TABLE_ROW", "md_parent_section": "§10.D [CDISC Variable-naming Fragments]", "md_verbatim": "| GROUP | GRP | | STATUS | STAT |", "score": 0.6, "match_basis": "verbatim_token+chapter_route:ch10"}, {"md_atom_id": "md_ch10_a114", "md_file": "knowledge_base/chapters/ch10_appendices.md", "md_atom_type": "TABLE_ROW", "md_parent_section": "§10.D [CDISC Variable-naming Fragments]", "md_verbatim": "| GRADE | GR | | START | ST |", "score": 0.3667, "match_basis": "verbatim_token+chapter_route:ch10"}, {"md_atom_id": "md_ch10_a040", "md_file": "knowledge_base/chapters/ch10_appendices.md", "md_atom_type": "TABLE_ROW", "md_parent_section": "§10.B [Glossary and Abbreviations]", "md_verbatim": "| SAP | Statistical analysis plan |", "score": 0.36, "match_basis": "verbatim_token+chapter_route:ch10"}, {"md_atom_id": "md_ch10_a038", "md_file": "knowledge_base/chapters/ch10_appendices.md", "md_atom_type": "TABLE_ROW", "md_parent_section": "§10.B [Glossary and Abbreviations]", "md_verbatim": "| NSV | Non-standard variable |", "score": 0.3353, "match_basis": "verbatim_token+chapter_route:ch10"}, {"md_atom_id": "md_ch10_a031", "md_file": "knowledge_base/chapters/ch10_appendices.md", "md_atom_type": "TABLE_ROW", "md_parent_section": "§10.B [Glossary and Abbreviations]", "md_verbatim": "| ICH E9 | ICH guidelines on Statistical Principles for Clinical Trials |", "score": 0.3333, "match_basis": "verbatim_token+chapter_route:ch10"}, {"md_atom_id": "md_ch10_a113", "md_file": "knowledge_base/chapters/ch10_appendices.md", "md_atom_type": "TABLE_ROW", "md_parent_section": "§10.D [CDISC Variable-naming Fragments]", "md_verbatim": "| FREQUENCY | FRQ | | STANDARD | ST, STD |", "score": 0.3333, "match_basis": "verbatim_token+chapter_route:ch10"}, {"md_atom_id": "md_ch10_a076", "md_file": "knowledge_base/chapters/ch10_appendices.md", "md_atom_type": "TABLE_ROW", "md_parent_section": "§10.D [CDISC Variable-naming Fragments]", "md_verbatim": "| ADJUSTMENT | ADJ | | INTERPRETATION | INTP |", "score": 0.325, "match_basis": "verbatim_token+chapter_route:ch10"}, {"md_atom_id": "md_ch10_a047", "md_file": "knowledge_base/chapters/ch10_appendices.md", "md_atom_type": "TABLE_ROW", "md_parent_section": "§10.B [Glossary and Abbreviations]", "md_verbatim": "| SEND | Standard for Exchange of Non-Clinical Data |", "score": 0.3222, "match_basis": "verbatim_token+chapter_route:ch10"}, {"md_atom_id": "md_ch10_a178", "md_file": "knowledge_base/chapters/ch10_appendices.md", "md_atom_type": "TABLE_ROW", "md_parent_section": "§10.E [Revision History]", "md_verbatim": "| **Section 3. Submitting Data in a Standard Format** | | |", "score": 0.3214, "match_basis": "verbatim_token+chapter_route:ch10"}, {"md_atom_id": "md_ch10_a032", "md_file": "knowledge_base/chapters/ch10_appendices.md", "md_atom_type": "TABLE_ROW", "md_parent_section": "§10.B [Glossary and Abbreviations]", "md_verbatim": "| ISO | International Organization for Standardization |", "score": 0.3194, "match_basis": "verbatim_token+chapter_route:ch10"}], "candidate_count": 10, "zero_candidate": false}
{"pdf_atom_id": "ig34_p0451_a009", "pdf_atom_type": "TABLE_ROW", "pdf_source": "SDTMIG_v3.4", "pdf_page": 451, "pdf_parent_section": "§10.D Appendix D: CDISC Variable-naming Fragments", "pdf_verbatim": "SUBCATEGORY | SCAT", "figure_ref": null, "candidates": [{"md_atom_id": "md_ch10_a118", "md_file": "knowledge_base/chapters/ch10_appendices.md", "md_atom_type": "TABLE_ROW", "md_parent_section": "§10.D [CDISC Variable-naming Fragments]", "md_verbatim": "| INDICATION | INDC | | SUBCATEGORY | SCAT |", "score": 0.6333, "match_basis": "verbatim_token+chapter_route:ch10"}, {"md_atom_id": "md_ch10_a083", "md_file": "knowledge_base/chapters/ch10_appendices.md", "md_atom_type": "TABLE_ROW", "md_parent_section": "§10.D [CDISC Variable-naming Fragments]", "md_verbatim": "| CATEGORY | CAT | | NAME | NAM |", "score": 0.6, "match_basis": "verbatim_token+chapter_route:ch10"}, {"md_atom_id": "md_ch10_a080", "md_file": "knowledge_base/chapters/ch10_appendices.md", "md_atom_type": "TABLE_ROW", "md_parent_section": "§10.D [CDISC Variable-naming Fragments]", "md_verbatim": "| BIRTH | BRTH | | LOCATION | LOC |", "score": 0.3316, "match_basis": "verbatim_token+chapter_route:ch10"}, {"md_atom_id": "md_ch10_a103", "md_file": "knowledge_base/chapters/ch10_appendices.md", "md_atom_type": "TABLE_ROW", "md_parent_section": "§10.D [CDISC Variable-naming Fragments]", "md_verbatim": "| EMERGENT | EM | | RELATED | REL, R |", "score": 0.33, "match_basis": "verbatim_token+chapter_route:ch10"}, {"md_atom_id": "md_ch10_a075", "md_file": "knowledge_base/chapters/ch10_appendices.md", "md_atom_type": "TABLE_ROW", "md_parent_section": "§10.D [CDISC Variable-naming Fragments]", "md_verbatim": "| ACTION | ACN | | INDICATOR | IND |", "score": 0.3286, "match_basis": "verbatim_token+chapter_route:ch10"}], "candidate_count": 5, "zero_candidate": false}
{"pdf_atom_id": "ig34_p0451_a010", "pdf_atom_type": "TABLE_ROW", "pdf_source": "SDTMIG_v3.4", "pdf_page": 451, "pdf_parent_section": "§10.D Appendix D: CDISC Variable-naming Fragments", "pdf_verbatim": "SUBJECT | SUBJ", "figure_ref": null, "candidates": [{"md_atom_id": "md_ch10_a117", "md_file": "knowledge_base/chapters/ch10_appendices.md", "md_atom_type": "TABLE_ROW", "md_parent_section": "§10.D [CDISC Variable-naming Fragments]", "md_verbatim": "| IDENTIFIER | ID | | SUBJECT | SUBJ |", "score": 0.5308, "match_basis": "verbatim_token+chapter_route:ch10"}, {"md_atom_id": "md_ch10_a087", "md_file": "knowledge_base/chapters/ch10_appendices.md", "md_atom_type": "TABLE_ROW", "md_parent_section": "§10.D [CDISC Variable-naming Fragments]", "md_verbatim": "| CODE | CD | | OBJECT | OBJ |", "score": 0.525, "match_basis": "verbatim_token+chapter_route:ch10"}, {"md_atom_id": "md_ch10_a014", "md_file": "knowledge_base/chapters/ch10_appendices.md", "md_atom_type": "TABLE_ROW", "md_parent_section": "§10.B [Glossary and Abbreviations]", "md_verbatim": "| ADSL | (ADaM) Subject-level Analysis Dataset |", "score": 0.4304, "match_basis": "verbatim_token+chapter_route:ch10"}, {"md_atom_id": "md_ch10_a191", "md_file": "knowledge_base/chapters/ch10_appendices.md", "md_atom_type": "TABLE_ROW", "md_parent_section": "§10.E [Revision History]", "md_verbatim": "| 5.3 | Subject Elements (SE) | Added SESTDY and SEENDY |", "score": 0.4304, "match_basis": "verbatim_token+chapter_route:ch10"}, {"md_atom_id": "md_ch10_a192", "md_file": "knowledge_base/chapters/ch10_appendices.md", "md_atom_type": "TABLE_ROW", "md_parent_section": "§10.E [Revision History]", "md_verbatim": "| 5.4 | Subject Disease Milestones (SM) | Updated CDISC notes for USUBJID for consistency |", "score": 0.3732, "match_basis": "verbatim_token+chapter_route:ch10"}, {"md_atom_id": "md_ch10_a178", "md_file": "knowledge_base/chapters/ch10_appendices.md", "md_atom_type": "TABLE_ROW", "md_parent_section": "§10.E [Revision History]", "md_verbatim": "| **Section 3. Submitting Data in a Standard Format** | | |", "score": 0.3429, "match_basis": "verbatim_token+chapter_route:ch10"}, {"md_atom_id": "md_ch10_a171", "md_file": "knowledge_base/chapters/ch10_appendices.md", "md_atom_type": "TABLE_ROW", "md_parent_section": "§10.E [Revision History]", "md_verbatim": "| **Section 1. Introduction** | | |", "score": 0.3375, "match_basis": "verbatim_token+chapter_route:ch10"}, {"md_atom_id": "md_ch10_a193", "md_file": "knowledge_base/chapters/ch10_appendices.md", "md_atom_type": "TABLE_ROW", "md_parent_section": "§10.E [Revision History]", "md_verbatim": "| 5.5 | Subject Visits (SV) | Domain considered for moving to Events but kept as Subject Visits; now contains visits that did not occur; new variables added: SVPRESP, SVOCCUR, SVREASOC, SVCNTMOD, SVEPCHGI |", "score": 0.337, "match_basis": "verbatim_token+chapter_route:ch10"}, {"md_atom_id": "md_ch10_a238", "md_file": "knowledge_base/chapters/ch10_appendices.md", "md_atom_type": "TABLE_ROW", "md_parent_section": "§10.E [Revision History]", "md_verbatim": "| **Section 9. Study References** | | |", "score": 0.33, "match_basis": "verbatim_token+chapter_route:ch10"}, {"md_atom_id": "md_ch10_a024", "md_file": "knowledge_base/chapters/ch10_appendices.md", "md_atom_type": "TABLE_ROW", "md_parent_section": "§10.B [Glossary and Abbreviations]", "md_verbatim": "| eDT | Electronic data transfer |", "score": 0.3286, "match_basis": "verbatim_token+chapter_route:ch10"}], "candidate_count": 10, "zero_candidate": false}
{"pdf_atom_id": "ig34_p0451_a011", "pdf_atom_type": "TABLE_ROW", "pdf_source": "SDTMIG_v3.4", "pdf_page": 451, "pdf_parent_section": "§10.D Appendix D: CDISC Variable-naming Fragments", "pdf_verbatim": "SUPPLEMENTAL | SUPP", "figure_ref": null, "candidates": [{"md_atom_id": "md_ch10_a119", "md_file": "knowledge_base/chapters/ch10_appendices.md", "md_atom_type": "TABLE_ROW", "md_parent_section": "§10.D [CDISC Variable-naming Fragments]", "md_verbatim": "| MEDICALLY-IMPORTANT EVENT | MIE | | SUPPLEMENTAL | SUPP |", "score": 0.5222, "match_basis": "verbatim_token+chapter_route:ch10"}, {"md_atom_id": "md_ch10_a102", "md_file": "knowledge_base/chapters/ch10_appendices.md", "md_atom_type": "TABLE_ROW", "md_parent_section": "§10.D [CDISC Variable-naming Fragments]", "md_verbatim": "| ELEMENT | ET | | REGIMEN | RGM |", "score": 0.45, "match_basis": "verbatim_token+chapter_route:ch10"}, {"md_atom_id": "md_ch10_a173", "md_file": "knowledge_base/chapters/ch10_appendices.md", "md_atom_type": "TABLE_ROW", "md_parent_section": "§10.E [Revision History]", "md_verbatim": "| **Section 2. Fundamentals of the SDTM** | | |", "score": 0.4, "match_basis": "verbatim_token+chapter_route:ch10"}, {"md_atom_id": "md_ch10_a191", "md_file": "knowledge_base/chapters/ch10_appendices.md", "md_atom_type": "TABLE_ROW", "md_parent_section": "§10.E [Revision History]", "md_verbatim": "| 5.3 | Subject Elements (SE) | Added SESTDY and SEENDY |", "score": 0.3828, "match_basis": "verbatim_token+chapter_route:ch10"}, {"md_atom_id": "md_ch10_a234", "md_file": "knowledge_base/chapters/ch10_appendices.md", "md_atom_type": "TABLE_ROW", "md_parent_section": "§10.E [Revision History]", "md_verbatim": "| 8.4.1 | Supplemental Qualifiers (SUPP--) | Updated CDISC Notes for USUBJID to include description of the variable used in other domains; updated Appendix C2 reference to Appendix C1 |", "score": 0.3769, "match_basis": "verbatim_token+chapter_route:ch10"}], "candidate_count": 5, "zero_candidate": false}
{"pdf_atom_id": "ig34_p0451_a012", "pdf_atom_type": "TABLE_ROW", "pdf_source": "SDTMIG_v3.4", "pdf_page": 451, "pdf_parent_section": "§10.D Appendix D: CDISC Variable-naming Fragments", "pdf_verbatim": "SYSTEM | SYS", "figure_ref": null, "candidates": [{"md_atom_id": "md_ch10_a121", "md_file": "knowledge_base/chapters/ch10_appendices.md", "md_atom_type": "TABLE_ROW", "md_parent_section": "§10.D [CDISC Variable-naming Fragments]", "md_verbatim": "| | | | SYSTEM | SYS |", "score": 0.9, "match_basis": "verbatim_token+chapter_route:ch10"}, {"md_atom_id": "md_ch10_a049", "md_file": "knowledge_base/chapters/ch10_appendices.md", "md_atom_type": "TABLE_ROW", "md_parent_section": "§10.B [Glossary and Abbreviations]", "md_verbatim": "| SOC | System organ class |", "score": 0.5182, "match_basis": "verbatim_token+chapter_route:ch10"}, {"md_atom_id": "md_ch10_a048", "md_file": "knowledge_base/chapters/ch10_appendices.md", "md_atom_type": "TABLE_ROW", "md_parent_section": "§10.B [Glossary and Abbreviations]", "md_verbatim": "| SNOMED | Systematized Nomenclature of Medicine (a dictionary) |", "score": 0.3706, "match_basis": "verbatim_token+chapter_route:ch10"}, {"md_atom_id": "md_ch10_a065", "md_file": "knowledge_base/chapters/ch10_appendices.md", "md_atom_type": "TABLE_ROW", "md_parent_section": "§10.C [Controlled Terminology]", "md_verbatim": "| AETRTEM | Treatment Emergent Flag | AE |", "score": 0.3273, "match_basis": "verbatim_token+chapter_route:ch10"}, {"md_atom_id": "md_ch10_a192", "md_file": "knowledge_base/chapters/ch10_appendices.md", "md_atom_type": "TABLE_ROW", "md_parent_section": "§10.E [Revision History]", "md_verbatim": "| 5.4 | Subject Disease Milestones (SM) | Updated CDISC notes for USUBJID for consistency |", "score": 0.3136, "match_basis": "verbatim_token+chapter_route:ch10"}, {"md_atom_id": "md_ch10_a195", "md_file": "knowledge_base/chapters/ch10_appendices.md", "md_atom_type": "TABLE_ROW", "md_parent_section": "§10.E [Revision History]", "md_verbatim": "| 6.1 | Models for Interventions Domains | Roles of --DOSFRQ and --DOSRGM changed where used in the Interventions Domains to Record Qualifier for consistency with the change for the role of --DOSFRQ and --DOSRGM in the SDTM |", "score": 0.3087, "match_basis": "verbatim_token+chapter_route:ch10"}, {"md_atom_id": "md_ch10_a227", "md_file": "knowledge_base/chapters/ch10_appendices.md", "md_atom_type": "TABLE_ROW", "md_parent_section": "§10.E [Revision History]", "md_verbatim": "| 7.3.3 | Trial Disease Milestones (TM) | Role of TMDEF changed from \"Rule\" to \"Variable Qualifier\" for consistency with clarification of the Rule role in SDTM |", "score": 0.3087, "match_basis": "verbatim_token+chapter_route:ch10"}, {"md_atom_id": "md_ch10_a013", "md_file": "knowledge_base/chapters/ch10_appendices.md", "md_atom_type": "TABLE_ROW", "md_parent_section": "§10.B [Glossary and Abbreviations]", "md_verbatim": "| ADaM | CDISC Analysis Dataset Model |", "score": 0.3, "match_basis": "verbatim_token+chapter_route:ch10"}, {"md_atom_id": "md_ch10_a014", "md_file": "knowledge_base/chapters/ch10_appendices.md", "md_atom_type": "TABLE_ROW", "md_parent_section": "§10.B [Glossary and Abbreviations]", "md_verbatim": "| ADSL | (ADaM) Subject-level Analysis Dataset |", "score": 0.3, "match_basis": "verbatim_token+chapter_route:ch10"}, {"md_atom_id": "md_ch10_a015", "md_file": "knowledge_base/chapters/ch10_appendices.md", "md_atom_type": "TABLE_ROW", "md_parent_section": "§10.B [Glossary and Abbreviations]", "md_verbatim": "| ATC | Anatomic Therapeutic Chemical (code; WHO) |", "score": 0.3, "match_basis": "verbatim_token+chapter_route:ch10"}], "candidate_count": 10, "zero_candidate": false}
{"pdf_atom_id": "ig34_p0451_a013", "pdf_atom_type": "TABLE_ROW", "pdf_source": "SDTMIG_v3.4", "pdf_page": 451, "pdf_parent_section": "§10.D Appendix D: CDISC Variable-naming Fragments", "pdf_verbatim": "TEXT | TXT", "figure_ref": null, "candidates": [{"md_atom_id": "md_ch10_a122", "md_file": "knowledge_base/chapters/ch10_appendices.md", "md_atom_type": "TABLE_ROW", "md_parent_section": "§10.D [CDISC Variable-naming Fragments]", "md_verbatim": "| | | | TEXT | TXT |", "score": 0.9, "match_basis": "verbatim_token+chapter_route:ch10"}, {"md_atom_id": "md_ch10_a108", "md_file": "knowledge_base/chapters/ch10_appendices.md", "md_atom_type": "TABLE_ROW", "md_parent_section": "§10.D [CDISC Variable-naming Fragments]", "md_verbatim": "| EXTERNAL | X | | SERIOUS | S, SER |", "score": 0.3462, "match_basis": "verbatim_token+chapter_route:ch10"}, {"md_atom_id": "md_ch10_a052", "md_file": "knowledge_base/chapters/ch10_appendices.md", "md_atom_type": "TABLE_ROW", "md_parent_section": "§10.B [Glossary and Abbreviations]", "md_verbatim": "| XML | eXtensible Markup Language |", "score": 0.3286, "match_basis": "verbatim_token+chapter_route:ch10"}, {"md_atom_id": "md_ch10_a233", "md_file": "knowledge_base/chapters/ch10_appendices.md", "md_atom_type": "TABLE_ROW", "md_parent_section": "§10.E [Revision History]", "md_verbatim": "| 8.2.2 | RELREC Dataset Examples | Introductory text updated to more clearly describe how relationships are represented in RELREC |", "score": 0.3185, "match_basis": "verbatim_token+chapter_route:ch10"}, {"md_atom_id": "md_ch10_a033", "md_file": "knowledge_base/chapters/ch10_appendices.md", "md_atom_type": "TABLE_ROW", "md_parent_section": "§10.B [Glossary and Abbreviations]", "md_verbatim": "| ISO 8601 | ISO character representation of dates, date/times, intervals, and durations of time. The SDTM uses the extended format |", "score": 0.3107, "match_basis": "verbatim_token+chapter_route:ch10"}, {"md_atom_id": "md_ch10_a186", "md_file": "knowledge_base/chapters/ch10_appendices.md", "md_atom_type": "TABLE_ROW", "md_parent_section": "§10.E [Revision History]", "md_verbatim": "| 4.5 | Original and Standardized Results | Clarified description of --DRVFL; two QRS exceptions added to 4.5.1.2; corrected IDVARVAL in supppr.xpt Example 3; promoted --CLSIG to SDTM variable; clarified --REASPF, --REAS, and --REASOC usage; added text for pre-specified groups of interventions or events in --TRT or --TERM |", "score": 0.3099, "match_basis": "verbatim_token+chapter_route:ch10"}, {"md_atom_id": "md_ch10_a224", "md_file": "knowledge_base/chapters/ch10_appendices.md", "md_atom_type": "TABLE_ROW", "md_parent_section": "§10.E [Revision History]", "md_verbatim": "| 7.2 | Experimental Design (TA and TE) | Text about executable code in Section 7.2.1.1 replaced to note that a mechanism to provide machine-readable rules will become available in the future; aligned wording for Rule variables on CDISC Notes between TA and TE; dataset name in Section 7.2.2.1 example changed from \"ta.xpt\" to \"special.xpt\" |", "score": 0.3091, "match_basis": "verbatim_token+chapter_route:ch10"}, {"md_atom_id": "md_ch10_a190", "md_file": "knowledge_base/chapters/ch10_appendices.md", "md_atom_type": "TABLE_ROW", "md_parent_section": "§10.E [Revision History]", "md_verbatim": "| 5.2 | Demographics (DM) | Revised DM.COUNTRY CDISC Notes; Assumption 6 updated for race self-identification; updated assumption 6a to reference Racec-Ethnicc Codetable; extensive DM example updates |", "score": 0.3068, "match_basis": "verbatim_token+chapter_route:ch10"}, {"md_atom_id": "md_ch10_a236", "md_file": "knowledge_base/chapters/ch10_appendices.md", "md_atom_type": "TABLE_ROW", "md_parent_section": "§10.E [Revision History]", "md_verbatim": "| 8.6.3 | Guidelines for Differentiating Between Interventions, Events, Findings, and Findings About Events or Interventions | \"Interventions\" added to section title; some changes to text to correct typos and clarify wording; second column of second row of table revised to explain what a log form is and to clarify how the data collection format may help understand the general observation class of data collected; added a row to the table to help in deciding between QS and FA for data about symptoms; reordered sentences in paragraph after the table and reiterated reference to AE structure assumption |", "score": 0.3065, "match_basis": "verbatim_token+chapter_route:ch10"}, {"md_atom_id": "md_ch10_a221", "md_file": "knowledge_base/chapters/ch10_appendices.md", "md_atom_type": "TABLE_ROW", "md_parent_section": "§10.E [Revision History]", "md_verbatim": "| 6.4.4 | Findings About Events or Interventions (FA) | Core value for FADTC changed from \"Perm\" to \"Exp\"; updated FATEST and FATESTCD CDISC Notes to reference general codelists; added assumption 4a referencing CV Code table; extensive updates to examples for clarity |", "score": 0.3055, "match_basis": "verbatim_token+chapter_route:ch10"}], "candidate_count": 10, "zero_candidate": false}
{"pdf_atom_id": "ig34_p0451_a014", "pdf_atom_type": "TABLE_ROW", "pdf_source": "SDTMIG_v3.4", "pdf_page": 451, "pdf_parent_section": "§10.D Appendix D: CDISC Variable-naming Fragments", "pdf_verbatim": "TIME | TM", "figure_ref": null, "candidates": [{"md_atom_id": "md_ch10_a123", "md_file": "knowledge_base/chapters/ch10_appendices.md", "md_atom_type": "TABLE_ROW", "md_parent_section": "§10.D [CDISC Variable-naming Fragments]", "md_verbatim": "| | | | TIME | TM |", "score": 0.9, "match_basis": "verbatim_token+chapter_route:ch10"}, {"md_atom_id": "md_ch10_a124", "md_file": "knowledge_base/chapters/ch10_appendices.md", "md_atom_type": "TABLE_ROW", "md_parent_section": "§10.D [CDISC Variable-naming Fragments]", "md_verbatim": "| | | | TIME POINT | TPT |", "score": 0.5, "match_basis": "verbatim_token+chapter_route:ch10"}, {"md_atom_id": "md_ch10_a092", "md_file": "knowledge_base/chapters/ch10_appendices.md", "md_atom_type": "TABLE_ROW", "md_parent_section": "§10.D [CDISC Variable-naming Fragments]", "md_verbatim": "| DATE TIME - CHARACTER | DTC | | OTHER | OTH, O |", "score": 0.38, "match_basis": "verbatim_token+chapter_route:ch10"}, {"md_atom_id": "md_ch10_a018", "md_file": "knowledge_base/chapters/ch10_appendices.md", "md_atom_type": "TABLE_ROW", "md_parent_section": "§10.B [Glossary and Abbreviations]", "md_verbatim": "| CRF | Case report form (sometimes case record form) |", "score": 0.36, "match_basis": "verbatim_token+chapter_route:ch10"}, {"md_atom_id": "md_ch10_a111", "md_file": "knowledge_base/chapters/ch10_appendices.md", "md_atom_type": "TABLE_ROW", "md_parent_section": "§10.D [CDISC Variable-naming Fragments]", "md_verbatim": "| FLAG | FL | | SPECIMEN | SPEC, SPC |", "score": 0.36, "match_basis": "verbatim_token+chapter_route:ch10"}, {"md_atom_id": "md_ch10_a102", "md_file": "knowledge_base/chapters/ch10_appendices.md", "md_atom_type": "TABLE_ROW", "md_parent_section": "§10.D [CDISC Variable-naming Fragments]", "md_verbatim": "| ELEMENT | ET | | REGIMEN | RGM |", "score": 0.3545, "match_basis": "verbatim_token+chapter_route:ch10"}, {"md_atom_id": "md_ch10_a154", "md_file": "knowledge_base/chapters/ch10_appendices.md", "md_atom_type": "TABLE_ROW", "md_parent_section": "§10.E [Revision History]", "md_verbatim": "| BE | Biospecimen Events |", "score": 0.3429, "match_basis": "verbatim_token+chapter_route:ch10"}, {"md_atom_id": "md_ch10_a158", "md_file": "knowledge_base/chapters/ch10_appendices.md", "md_atom_type": "TABLE_ROW", "md_parent_section": "§10.E [Revision History]", "md_verbatim": "| RELSPEC | Related Specimens |", "score": 0.34, "match_basis": "verbatim_token+chapter_route:ch10"}, {"md_atom_id": "md_ch10_a155", "md_file": "knowledge_base/chapters/ch10_appendices.md", "md_atom_type": "TABLE_ROW", "md_parent_section": "§10.E [Revision History]", "md_verbatim": "| BS | Biospecimen Findings |", "score": 0.3375, "match_basis": "verbatim_token+chapter_route:ch10"}, {"md_atom_id": "md_ch10_a033", "md_file": "knowledge_base/chapters/ch10_appendices.md", "md_atom_type": "TABLE_ROW", "md_parent_section": "§10.B [Glossary and Abbreviations]", "md_verbatim": "| ISO 8601 | ISO character representation of dates, date/times, intervals, and durations of time. The SDTM uses the extended format |", "score": 0.3222, "match_basis": "verbatim_token+chapter_route:ch10"}], "candidate_count": 10, "zero_candidate": false}
{"pdf_atom_id": "ig34_p0451_a015", "pdf_atom_type": "TABLE_ROW", "pdf_source": "SDTMIG_v3.4", "pdf_page": 451, "pdf_parent_section": "§10.D Appendix D: CDISC Variable-naming Fragments", "pdf_verbatim": "TIME POINT | TPT", "figure_ref": null, "candidates": [{"md_atom_id": "md_ch10_a124", "md_file": "knowledge_base/chapters/ch10_appendices.md", "md_atom_type": "TABLE_ROW", "md_parent_section": "§10.D [CDISC Variable-naming Fragments]", "md_verbatim": "| | | | TIME POINT | TPT |", "score": 0.9, "match_basis": "verbatim_token+chapter_route:ch10"}, {"md_atom_id": "md_ch10_a123", "md_file": "knowledge_base/chapters/ch10_appendices.md", "md_atom_type": "TABLE_ROW", "md_parent_section": "§10.D [CDISC Variable-naming Fragments]", "md_verbatim": "| | | | TIME | TM |", "score": 0.5, "match_basis": "verbatim_token+chapter_route:ch10"}, {"md_atom_id": "md_ch10_a092", "md_file": "knowledge_base/chapters/ch10_appendices.md", "md_atom_type": "TABLE_ROW", "md_parent_section": "§10.D [CDISC Variable-naming Fragments]", "md_verbatim": "| DATE TIME - CHARACTER | DTC | | OTHER | OTH, O |", "score": 0.3632, "match_basis": "verbatim_token+chapter_route:ch10"}, {"md_atom_id": "md_ch10_a018", "md_file": "knowledge_base/chapters/ch10_appendices.md", "md_atom_type": "TABLE_ROW", "md_parent_section": "§10.B [Glossary and Abbreviations]", "md_verbatim": "| CRF | Case report form (sometimes case record form) |", "score": 0.35, "match_basis": "verbatim_token+chapter_route:ch10"}, {"md_atom_id": "md_ch10_a081", "md_file": "knowledge_base/chapters/ch10_appendices.md", "md_atom_type": "TABLE_ROW", "md_parent_section": "§10.D [CDISC Variable-naming Fragments]", "md_verbatim": "| BODY | BOD | | LOINC CODE | LOINC |", "score": 0.35, "match_basis": "verbatim_token+chapter_route:ch10"}], "candidate_count": 5, "zero_candidate": false}
{"pdf_atom_id": "ig34_p0451_a016", "pdf_atom_type": "TABLE_ROW", "pdf_source": "SDTMIG_v3.4", "pdf_page": 451, "pdf_parent_section": "§10.D Appendix D: CDISC Variable-naming Fragments", "pdf_verbatim": "TOTAL | TOT", "figure_ref": null, "candidates": [{"md_atom_id": "md_ch10_a125", "md_file": "knowledge_base/chapters/ch10_appendices.md", "md_atom_type": "TABLE_ROW", "md_parent_section": "§10.D [CDISC Variable-naming Fragments]", "md_verbatim": "| | | | TOTAL | TOT |", "score": 0.9, "match_basis": "verbatim_token+chapter_route:ch10"}, {"md_atom_id": "md_ch10_a091", "md_file": "knowledge_base/chapters/ch10_appendices.md", "md_atom_type": "TABLE_ROW", "md_parent_section": "§10.D [CDISC Variable-naming Fragments]", "md_verbatim": "| CONGENITAL | CONG | | ORIGINAL | OR |", "score": 0.3375, "match_basis": "verbatim_token+chapter_route:ch10"}, {"md_atom_id": "md_ch10_a173", "md_file": "knowledge_base/chapters/ch10_appendices.md", "md_atom_type": "TABLE_ROW", "md_parent_section": "§10.E [Revision History]", "md_verbatim": "| **Section 2. Fundamentals of the SDTM** | | |", "score": 0.33, "match_basis": "verbatim_token+chapter_route:ch10"}, {"md_atom_id": "md_ch10_a116", "md_file": "knowledge_base/chapters/ch10_appendices.md", "md_atom_type": "TABLE_ROW", "md_parent_section": "§10.D [CDISC Variable-naming Fragments]", "md_verbatim": "| HOSPITALIZATION | HOSP | | NORMAL RANGE | NR |", "score": 0.3273, "match_basis": "verbatim_token+chapter_route:ch10"}, {"md_atom_id": "md_ch10_a119", "md_file": "knowledge_base/chapters/ch10_appendices.md", "md_atom_type": "TABLE_ROW", "md_parent_section": "§10.D [CDISC Variable-naming Fragments]", "md_verbatim": "| MEDICALLY-IMPORTANT EVENT | MIE | | SUPPLEMENTAL | SUPP |", "score": 0.3207, "match_basis": "verbatim_token+chapter_route:ch10"}, {"md_atom_id": "md_ch10_a234", "md_file": "knowledge_base/chapters/ch10_appendices.md", "md_atom_type": "TABLE_ROW", "md_parent_section": "§10.E [Revision History]", "md_verbatim": "| 8.4.1 | Supplemental Qualifiers (SUPP--) | Updated CDISC Notes for USUBJID to include description of the variable used in other domains; updated Appendix C2 reference to Appendix C1 |", "score": 0.3075, "match_basis": "verbatim_token+chapter_route:ch10"}, {"md_atom_id": "md_ch10_a197", "md_file": "knowledge_base/chapters/ch10_appendices.md", "md_atom_type": "TABLE_ROW", "md_parent_section": "§10.E [Revision History]", "md_verbatim": "| 6.1.3 | Exposure Domains | EX assumptions updated to note that since EX includes only treatments received, --MOOD would generally not be used in EX; ECREASOC added (promoted from supplemental qualifier to standard variable); examples updated |", "score": 0.3053, "match_basis": "verbatim_token+chapter_route:ch10"}, {"md_atom_id": "md_ch10_a224", "md_file": "knowledge_base/chapters/ch10_appendices.md", "md_atom_type": "TABLE_ROW", "md_parent_section": "§10.E [Revision History]", "md_verbatim": "| 7.2 | Experimental Design (TA and TE) | Text about executable code in Section 7.2.1.1 replaced to note that a mechanism to provide machine-readable rules will become available in the future; aligned wording for Rule variables on CDISC Notes between TA and TE; dataset name in Section 7.2.2.1 example changed from \"ta.xpt\" to \"special.xpt\" |", "score": 0.3045, "match_basis": "verbatim_token+chapter_route:ch10"}, {"md_atom_id": "md_ch10_a013", "md_file": "knowledge_base/chapters/ch10_appendices.md", "md_atom_type": "TABLE_ROW", "md_parent_section": "§10.B [Glossary and Abbreviations]", "md_verbatim": "| ADaM | CDISC Analysis Dataset Model |", "score": 0.3, "match_basis": "verbatim_token+chapter_route:ch10"}, {"md_atom_id": "md_ch10_a014", "md_file": "knowledge_base/chapters/ch10_appendices.md", "md_atom_type": "TABLE_ROW", "md_parent_section": "§10.B [Glossary and Abbreviations]", "md_verbatim": "| ADSL | (ADaM) Subject-level Analysis Dataset |", "score": 0.3, "match_basis": "verbatim_token+chapter_route:ch10"}], "candidate_count": 10, "zero_candidate": false}
{"pdf_atom_id": "ig34_p0451_a017", "pdf_atom_type": "TABLE_ROW", "pdf_source": "SDTMIG_v3.4", "pdf_page": 451, "pdf_parent_section": "§10.D Appendix D: CDISC Variable-naming Fragments", "pdf_verbatim": "TOXICITY | TOX", "figure_ref": null, "candidates": [{"md_atom_id": "md_ch10_a126", "md_file": "knowledge_base/chapters/ch10_appendices.md", "md_atom_type": "TABLE_ROW", "md_parent_section": "§10.D [CDISC Variable-naming Fragments]", "md_verbatim": "| | | | TOXICITY | TOX |", "score": 0.9, "match_basis": "verbatim_token+chapter_route:ch10"}, {"md_atom_id": "md_ch10_a105", "md_file": "knowledge_base/chapters/ch10_appendices.md", "md_atom_type": "TABLE_ROW", "md_parent_section": "§10.D [CDISC Variable-naming Fragments]", "md_verbatim": "| ETHNICITY | ETHNIC | | RESULT | RES |", "score": 0.4286, "match_basis": "verbatim_token+chapter_route:ch10"}, {"md_atom_id": "md_ch10_a109", "md_file": "knowledge_base/chapters/ch10_appendices.md", "md_atom_type": "TABLE_ROW", "md_parent_section": "§10.D [CDISC Variable-naming Fragments]", "md_verbatim": "| FASTING | FAST | | SEVERITY | SEV |", "score": 0.3375, "match_basis": "verbatim_token+chapter_route:ch10"}, {"md_atom_id": "md_ch10_a098", "md_file": "knowledge_base/chapters/ch10_appendices.md", "md_atom_type": "TABLE_ROW", "md_parent_section": "§10.D [CDISC Variable-naming Fragments]", "md_verbatim": "| DISABILITY | DISAB | | POSITION | POS |", "score": 0.3316, "match_basis": "verbatim_token+chapter_route:ch10"}, {"md_atom_id": "md_ch10_a202", "md_file": "knowledge_base/chapters/ch10_appendices.md", "md_atom_type": "TABLE_ROW", "md_parent_section": "§10.E [Revision History]", "md_verbatim": "| 6.2.3 | Clinical Events (CE) | Added permissible variable CETOXGR; added fracture events example; Examples 1 and 2 revised for clarity |", "score": 0.3203, "match_basis": "verbatim_token+chapter_route:ch10"}], "candidate_count": 5, "zero_candidate": false}
{"pdf_atom_id": "ig34_p0451_a018", "pdf_atom_type": "TABLE_ROW", "pdf_source": "SDTMIG_v3.4", "pdf_page": 451, "pdf_parent_section": "§10.D Appendix D: CDISC Variable-naming Fragments", "pdf_verbatim": "TRANSITION | TRANS", "figure_ref": null, "candidates": [{"md_atom_id": "md_ch10_a127", "md_file": "knowledge_base/chapters/ch10_appendices.md", "md_atom_type": "TABLE_ROW", "md_parent_section": "§10.D [CDISC Variable-naming Fragments]", "md_verbatim": "| | | | TRANSITION | TRANS |", "score": 0.9, "match_basis": "verbatim_token+chapter_route:ch10"}, {"md_atom_id": "md_ch10_a098", "md_file": "knowledge_base/chapters/ch10_appendices.md", "md_atom_type": "TABLE_ROW", "md_parent_section": "§10.D [CDISC Variable-naming Fragments]", "md_verbatim": "| DISABILITY | DISAB | | POSITION | POS |", "score": 0.4333, "match_basis": "verbatim_token+chapter_route:ch10"}, {"md_atom_id": "md_ch10_a090", "md_file": "knowledge_base/chapters/ch10_appendices.md", "md_atom_type": "TABLE_ROW", "md_parent_section": "§10.D [CDISC Variable-naming Fragments]", "md_verbatim": "| CONDITION | CND | | ORIGIN | ORIG |", "score": 0.4059, "match_basis": "verbatim_token+chapter_route:ch10"}, {"md_atom_id": "md_ch10_a024", "md_file": "knowledge_base/chapters/ch10_appendices.md", "md_atom_type": "TABLE_ROW", "md_parent_section": "§10.B [Glossary and Abbreviations]", "md_verbatim": "| eDT | Electronic data transfer |", "score": 0.3818, "match_basis": "verbatim_token+chapter_route:ch10"}, {"md_atom_id": "md_ch10_a025", "md_file": "knowledge_base/chapters/ch10_appendices.md", "md_atom_type": "TABLE_ROW", "md_parent_section": "§10.B [Glossary and Abbreviations]", "md_verbatim": "| FDA | (US) Food and Drug Administration |", "score": 0.3783, "match_basis": "verbatim_token+chapter_route:ch10"}], "candidate_count": 5, "zero_candidate": false}
{"pdf_atom_id": "ig34_p0451_a019", "pdf_atom_type": "TABLE_ROW", "pdf_source": "SDTMIG_v3.4", "pdf_page": 451, "pdf_parent_section": "§10.D Appendix D: CDISC Variable-naming Fragments", "pdf_verbatim": "TREATMENT | TRT", "figure_ref": null, "candidates": [{"md_atom_id": "md_ch10_a128", "md_file": "knowledge_base/chapters/ch10_appendices.md", "md_atom_type": "TABLE_ROW", "md_parent_section": "§10.D [CDISC Variable-naming Fragments]", "md_verbatim": "| | | | TREATMENT | TRT |", "score": 0.9, "match_basis": "verbatim_token+chapter_route:ch10"}, {"md_atom_id": "md_ch10_a065", "md_file": "knowledge_base/chapters/ch10_appendices.md", "md_atom_type": "TABLE_ROW", "md_parent_section": "§10.C [Controlled Terminology]", "md_verbatim": "| AETRTEM | Treatment Emergent Flag | AE |", "score": 0.5526, "match_basis": "verbatim_token+chapter_route:ch10"}, {"md_atom_id": "md_ch10_a088", "md_file": "knowledge_base/chapters/ch10_appendices.md", "md_atom_type": "TABLE_ROW", "md_parent_section": "§10.D [CDISC Variable-naming Fragments]", "md_verbatim": "| COMMENT | COM | | ONGOING | ONGO |", "score": 0.375, "match_basis": "verbatim_token+chapter_route:ch10"}, {"md_atom_id": "md_ch10_a102", "md_file": "knowledge_base/chapters/ch10_appendices.md", "md_atom_type": "TABLE_ROW", "md_parent_section": "§10.D [CDISC Variable-naming Fragments]", "md_verbatim": "| ELEMENT | ET | | REGIMEN | RGM |", "score": 0.375, "match_basis": "verbatim_token+chapter_route:ch10"}, {"md_atom_id": "md_ch10_a076", "md_file": "knowledge_base/chapters/ch10_appendices.md", "md_atom_type": "TABLE_ROW", "md_parent_section": "§10.D [CDISC Variable-naming Fragments]", "md_verbatim": "| ADJUSTMENT | ADJ | | INTERPRETATION | INTP |", "score": 0.3692, "match_basis": "verbatim_token+chapter_route:ch10"}], "candidate_count": 5, "zero_candidate": false}
{"pdf_atom_id": "ig34_p0451_a020", "pdf_atom_type": "TABLE_ROW", "pdf_source": "SDTMIG_v3.4", "pdf_page": 451, "pdf_parent_section": "§10.D Appendix D: CDISC Variable-naming Fragments", "pdf_verbatim": "UNIQUE | U", "figure_ref": null, "candidates": [{"md_atom_id": "md_ch10_a129", "md_file": "knowledge_base/chapters/ch10_appendices.md", "md_atom_type": "TABLE_ROW", "md_parent_section": "§10.D [CDISC Variable-naming Fragments]", "md_verbatim": "| | | | UNIQUE | U |", "score": 0.9, "match_basis": "verbatim_token+chapter_route:ch10"}, {"md_atom_id": "md_ch10_a130", "md_file": "knowledge_base/chapters/ch10_appendices.md", "md_atom_type": "TABLE_ROW", "md_parent_section": "§10.D [CDISC Variable-naming Fragments]", "md_verbatim": "| | | | UNIT | U |", "score": 0.42, "match_basis": "verbatim_token+chapter_route:ch10"}, {"md_atom_id": "md_ch10_a220", "md_file": "knowledge_base/chapters/ch10_appendices.md", "md_atom_type": "TABLE_ROW", "md_parent_section": "§10.E [Revision History]", "md_verbatim": "| 6.4.3 | Variables Unique to Findings About | Added sentence clarifying that an FA record will not necessarily have a parent record |", "score": 0.3421, "match_basis": "verbatim_token+chapter_route:ch10"}, {"md_atom_id": "md_ch10_a107", "md_file": "knowledge_base/chapters/ch10_appendices.md", "md_atom_type": "TABLE_ROW", "md_parent_section": "§10.D [CDISC Variable-naming Fragments]", "md_verbatim": "| EVALUATOR | EVAL | | SEQUENCE | SEQ |", "score": 0.3375, "match_basis": "verbatim_token+chapter_route:ch10"}, {"md_atom_id": "md_ch10_a113", "md_file": "knowledge_base/chapters/ch10_appendices.md", "md_atom_type": "TABLE_ROW", "md_parent_section": "§10.D [CDISC Variable-naming Fragments]", "md_verbatim": "| FREQUENCY | FRQ | | STANDARD | ST, STD |", "score": 0.3333, "match_basis": "verbatim_token+chapter_route:ch10"}, {"md_atom_id": "md_ch10_a198", "md_file": "knowledge_base/chapters/ch10_appendices.md", "md_atom_type": "TABLE_ROW", "md_parent_section": "§10.E [Revision History]", "md_verbatim": "| 6.1.5 | Procedures (PR) | PRSEQ's CDISC Notes updated to reflect that Sequence Number is given to ensure uniqueness of subject records within a domain; added CT reference for PRDECOD variable; more explanations provided in examples for why values in PRTRT are in mixed case |", "score": 0.3198, "match_basis": "verbatim_token+chapter_route:ch10"}, {"md_atom_id": "md_ch10_a230", "md_file": "knowledge_base/chapters/ch10_appendices.md", "md_atom_type": "TABLE_ROW", "md_parent_section": "§10.E [Revision History]", "md_verbatim": "| 7.4.2 | Trial Summary (TS) | Changed the CDISC Notes for TSSEQ to reflect that the sequence number is to ensure uniqueness within a parameter; revisions to most TS assumptions to remove references to Appendix C1 Trial Summary Codes (as this appendix was removed); TS assumptions replaced with ones that note recipients may specify requirements and terminology; reference added for the TS Codetable on the CDISC website; revised TS Assumption 17 to clarify value expectations for TSPARMCD = \"INDIC\"; additional assumptions revised for clarity; information added about exploratory outcome measures; Examples 1-3 revised; new Example 4 added to show use of TSGRPID for study parts and treatments |", "score": 0.3108, "match_basis": "verbatim_token+chapter_route:ch10"}, {"md_atom_id": "md_ch10_a183", "md_file": "knowledge_base/chapters/ch10_appendices.md", "md_atom_type": "TABLE_ROW", "md_parent_section": "§10.E [Revision History]", "md_verbatim": "| 4.1 | General Domain Assumptions | QRS Examples for splitting questionnaires updated; Origin Metadata traceability clarified |", "score": 0.3079, "match_basis": "verbatim_token+chapter_route:ch10"}, {"md_atom_id": "md_ch10_a013", "md_file": "knowledge_base/chapters/ch10_appendices.md", "md_atom_type": "TABLE_ROW", "md_parent_section": "§10.B [Glossary and Abbreviations]", "md_verbatim": "| ADaM | CDISC Analysis Dataset Model |", "score": 0.3, "match_basis": "verbatim_token+chapter_route:ch10"}, {"md_atom_id": "md_ch10_a014", "md_file": "knowledge_base/chapters/ch10_appendices.md", "md_atom_type": "TABLE_ROW", "md_parent_section": "§10.B [Glossary and Abbreviations]", "md_verbatim": "| ADSL | (ADaM) Subject-level Analysis Dataset |", "score": 0.3, "match_basis": "verbatim_token+chapter_route:ch10"}], "candidate_count": 10, "zero_candidate": false}
{"pdf_atom_id": "ig34_p0451_a021", "pdf_atom_type": "TABLE_ROW", "pdf_source": "SDTMIG_v3.4", "pdf_page": 451, "pdf_parent_section": "§10.D Appendix D: CDISC Variable-naming Fragments", "pdf_verbatim": "UNIT | U", "figure_ref": null, "candidates": [{"md_atom_id": "md_ch10_a130", "md_file": "knowledge_base/chapters/ch10_appendices.md", "md_atom_type": "TABLE_ROW", "md_parent_section": "§10.D [CDISC Variable-naming Fragments]", "md_verbatim": "| | | | UNIT | U |", "score": 0.9, "match_basis": "verbatim_token+chapter_route:ch10"}, {"md_atom_id": "md_ch10_a129", "md_file": "knowledge_base/chapters/ch10_appendices.md", "md_atom_type": "TABLE_ROW", "md_parent_section": "§10.D [CDISC Variable-naming Fragments]", "md_verbatim": "| | | | UNIQUE | U |", "score": 0.42, "match_basis": "verbatim_token+chapter_route:ch10"}, {"md_atom_id": "md_ch10_a091", "md_file": "knowledge_base/chapters/ch10_appendices.md", "md_atom_type": "TABLE_ROW", "md_parent_section": "§10.D [CDISC Variable-naming Fragments]", "md_verbatim": "| CONGENITAL | CONG | | ORIGINAL | OR |", "score": 0.34, "match_basis": "verbatim_token+chapter_route:ch10"}, {"md_atom_id": "md_ch10_a174", "md_file": "knowledge_base/chapters/ch10_appendices.md", "md_atom_type": "TABLE_ROW", "md_parent_section": "§10.E [Revision History]", "md_verbatim": "| 2.1 | Observations and Variables | Revised definition for Rule Variables |", "score": 0.3182, "match_basis": "verbatim_token+chapter_route:ch10"}, {"md_atom_id": "md_ch10_a220", "md_file": "knowledge_base/chapters/ch10_appendices.md", "md_atom_type": "TABLE_ROW", "md_parent_section": "§10.E [Revision History]", "md_verbatim": "| 6.4.3 | Variables Unique to Findings About | Added sentence clarifying that an FA record will not necessarily have a parent record |", "score": 0.3103, "match_basis": "verbatim_token+chapter_route:ch10"}, {"md_atom_id": "md_ch10_a028", "md_file": "knowledge_base/chapters/ch10_appendices.md", "md_atom_type": "TABLE_ROW", "md_parent_section": "§10.B [Glossary and Abbreviations]", "md_verbatim": "| ICH E2A | ICH guidelines on Clinical Safety Data Management: Definitions and Standards for Expedited Reporting |", "score": 0.31, "match_basis": "verbatim_token+chapter_route:ch10"}, {"md_atom_id": "md_ch10_a216", "md_file": "knowledge_base/chapters/ch10_appendices.md", "md_atom_type": "TABLE_ROW", "md_parent_section": "§10.E [Revision History]", "md_verbatim": "| 6.3.5.5 | Immunogenicity Specimen Assessments (IS) | Domain definition updated; 6 new variables added: ISBDAGNT, ISMSCBCE, ISTSTOPO, ISTSTCND, ISNCNDAGT, and NHOID; replaced assumptions from SDTMIG v3.3; Examples 1 and 2 replaced; Examples 3-11 added |", "score": 0.3056, "match_basis": "verbatim_token+chapter_route:ch10"}, {"md_atom_id": "md_ch10_a198", "md_file": "knowledge_base/chapters/ch10_appendices.md", "md_atom_type": "TABLE_ROW", "md_parent_section": "§10.E [Revision History]", "md_verbatim": "| 6.1.5 | Procedures (PR) | PRSEQ's CDISC Notes updated to reflect that Sequence Number is given to ensure uniqueness of subject records within a domain; added CT reference for PRDECOD variable; more explanations provided in examples for why values in PRTRT are in mixed case |", "score": 0.3049, "match_basis": "verbatim_token+chapter_route:ch10"}, {"md_atom_id": "md_ch10_a230", "md_file": "knowledge_base/chapters/ch10_appendices.md", "md_atom_type": "TABLE_ROW", "md_parent_section": "§10.E [Revision History]", "md_verbatim": "| 7.4.2 | Trial Summary (TS) | Changed the CDISC Notes for TSSEQ to reflect that the sequence number is to ensure uniqueness within a parameter; revisions to most TS assumptions to remove references to Appendix C1 Trial Summary Codes (as this appendix was removed); TS assumptions replaced with ones that note recipients may specify requirements and terminology; reference added for the TS Codetable on the CDISC website; revised TS Assumption 17 to clarify value expectations for TSPARMCD = \"INDIC\"; additional assumptions revised for clarity; information added about exploratory outcome measures; Examples 1-3 revised; new Example 4 added to show use of TSGRPID for study parts and treatments |", "score": 0.3027, "match_basis": "verbatim_token+chapter_route:ch10"}, {"md_atom_id": "md_ch10_a013", "md_file": "knowledge_base/chapters/ch10_appendices.md", "md_atom_type": "TABLE_ROW", "md_parent_section": "§10.B [Glossary and Abbreviations]", "md_verbatim": "| ADaM | CDISC Analysis Dataset Model |", "score": 0.3, "match_basis": "verbatim_token+chapter_route:ch10"}], "candidate_count": 10, "zero_candidate": false}
{"pdf_atom_id": "ig34_p0451_a022", "pdf_atom_type": "TABLE_ROW", "pdf_source": "SDTMIG_v3.4", "pdf_page": 451, "pdf_parent_section": "§10.D Appendix D: CDISC Variable-naming Fragments", "pdf_verbatim": "UNPLANNED | UP", "figure_ref": null, "candidates": [{"md_atom_id": "md_ch10_a131", "md_file": "knowledge_base/chapters/ch10_appendices.md", "md_atom_type": "TABLE_ROW", "md_parent_section": "§10.D [CDISC Variable-naming Fragments]", "md_verbatim": "| | | | UNPLANNED | UP |", "score": 0.9, "match_basis": "verbatim_token+chapter_route:ch10"}, {"md_atom_id": "md_ch10_a040", "md_file": "knowledge_base/chapters/ch10_appendices.md", "md_atom_type": "TABLE_ROW", "md_parent_section": "§10.B [Glossary and Abbreviations]", "md_verbatim": "| SAP | Statistical analysis plan |", "score": 0.3522, "match_basis": "verbatim_token+chapter_route:ch10"}, {"md_atom_id": "md_ch10_a052", "md_file": "knowledge_base/chapters/ch10_appendices.md", "md_atom_type": "TABLE_ROW", "md_parent_section": "§10.B [Glossary and Abbreviations]", "md_verbatim": "| XML | eXtensible Markup Language |", "score": 0.324, "match_basis": "verbatim_token+chapter_route:ch10"}, {"md_atom_id": "md_ch10_a219", "md_file": "knowledge_base/chapters/ch10_appendices.md", "md_atom_type": "TABLE_ROW", "md_parent_section": "§10.E [Revision History]", "md_verbatim": "| 6.4.1 | When to Use Findings About Events or Interventions | Additional explanation and examples added for each criterion; new criterion added in version that underwent first public review was removed; new \"Points to Consider\" section added; third and fourth bullets dropped as criterion for representing data in FA |", "score": 0.3096, "match_basis": "verbatim_token+chapter_route:ch10"}, {"md_atom_id": "md_ch10_a198", "md_file": "knowledge_base/chapters/ch10_appendices.md", "md_atom_type": "TABLE_ROW", "md_parent_section": "§10.E [Revision History]", "md_verbatim": "| 6.1.5 | Procedures (PR) | PRSEQ's CDISC Notes updated to reflect that Sequence Number is given to ensure uniqueness of subject records within a domain; added CT reference for PRDECOD variable; more explanations provided in examples for why values in PRTRT are in mixed case |", "score": 0.3095, "match_basis": "verbatim_token+chapter_route:ch10"}], "candidate_count": 5, "zero_candidate": false}
{"pdf_atom_id": "ig34_p0451_a023", "pdf_atom_type": "TABLE_ROW", "pdf_source": "SDTMIG_v3.4", "pdf_page": 451, "pdf_parent_section": "§10.D Appendix D: CDISC Variable-naming Fragments", "pdf_verbatim": "UPPER LIMIT | HI", "figure_ref": null, "candidates": [{"md_atom_id": "md_ch10_a132", "md_file": "knowledge_base/chapters/ch10_appendices.md", "md_atom_type": "TABLE_ROW", "md_parent_section": "§10.D [CDISC Variable-naming Fragments]", "md_verbatim": "| | | | UPPER LIMIT | HI |", "score": 0.9, "match_basis": "verbatim_token+chapter_route:ch10"}, {"md_atom_id": "md_ch10_a082", "md_file": "knowledge_base/chapters/ch10_appendices.md", "md_atom_type": "TABLE_ROW", "md_parent_section": "§10.D [CDISC Variable-naming Fragments]", "md_verbatim": "| CANCER | CAN | | LOWER LIMIT | LO |", "score": 0.4385, "match_basis": "verbatim_token+chapter_route:ch10"}, {"md_atom_id": "md_ch10_a240", "md_file": "knowledge_base/chapters/ch10_appendices.md", "md_atom_type": "TABLE_ROW", "md_parent_section": "§10.E [Revision History]", "md_verbatim": "| **Appendices** | | |", "score": 0.3462, "match_basis": "verbatim_token+chapter_route:ch10"}, {"md_atom_id": "md_ch10_a089", "md_file": "knowledge_base/chapters/ch10_appendices.md", "md_atom_type": "TABLE_ROW", "md_parent_section": "§10.D [CDISC Variable-naming Fragments]", "md_verbatim": "| CONCOMITANT | CON | | ORDER | ORD |", "score": 0.3353, "match_basis": "verbatim_token+chapter_route:ch10"}, {"md_atom_id": "md_ch10_a241", "md_file": "knowledge_base/chapters/ch10_appendices.md", "md_atom_type": "TABLE_ROW", "md_parent_section": "§10.E [Revision History]", "md_verbatim": "| Appendix A | CDISC SDS Team | The team list has been updated |", "score": 0.3214, "match_basis": "verbatim_token+chapter_route:ch10"}], "candidate_count": 5, "zero_candidate": false}
{"pdf_atom_id": "ig34_p0451_a024", "pdf_atom_type": "TABLE_ROW", "pdf_source": "SDTMIG_v3.4", "pdf_page": 451, "pdf_parent_section": "§10.D Appendix D: CDISC Variable-naming Fragments", "pdf_verbatim": "VALUE | VAL", "figure_ref": null, "candidates": [{"md_atom_id": "md_ch10_a133", "md_file": "knowledge_base/chapters/ch10_appendices.md", "md_atom_type": "TABLE_ROW", "md_parent_section": "§10.D [CDISC Variable-naming Fragments]", "md_verbatim": "| | | | VALUE | VAL |", "score": 0.9, "match_basis": "verbatim_token+chapter_route:ch10"}, {"md_atom_id": "md_ch10_a106", "md_file": "knowledge_base/chapters/ch10_appendices.md", "md_atom_type": "TABLE_ROW", "md_parent_section": "§10.D [CDISC Variable-naming Fragments]", "md_verbatim": "| EVALUATION | EVL | | RULE | RL |", "score": 0.4, "match_basis": "verbatim_token+chapter_route:ch10"}, {"md_atom_id": "md_ch10_a107", "md_file": "knowledge_base/chapters/ch10_appendices.md", "md_atom_type": "TABLE_ROW", "md_parent_section": "§10.D [CDISC Variable-naming Fragments]", "md_verbatim": "| EVALUATOR | EVAL | | SEQUENCE | SEQ |", "score": 0.3857, "match_basis": "verbatim_token+chapter_route:ch10"}, {"md_atom_id": "md_ch10_a181", "md_file": "knowledge_base/chapters/ch10_appendices.md", "md_atom_type": "TABLE_ROW", "md_parent_section": "§10.E [Revision History]", "md_verbatim": "| 3.2.1.2 | CDISC Submission Value-level Metadata | The phrase \"the SDTMIG V3.x\" removed from the first sentence |", "score": 0.3375, "match_basis": "verbatim_token+chapter_route:ch10"}, {"md_atom_id": "md_ch10_a203", "md_file": "knowledge_base/chapters/ch10_appendices.md", "md_atom_type": "TABLE_ROW", "md_parent_section": "§10.E [Revision History]", "md_verbatim": "| 6.2.4 | Disposition (DS) | DSDY's Core value updated to Perm (from Exp); DSSTDY's Core value updated to Exp (from Perm); added reference to DS Codetable; updated Example 9 |", "score": 0.3346, "match_basis": "verbatim_token+chapter_route:ch10"}, {"md_atom_id": "md_ch10_a077", "md_file": "knowledge_base/chapters/ch10_appendices.md", "md_atom_type": "TABLE_ROW", "md_parent_section": "§10.D [CDISC Variable-naming Fragments]", "md_verbatim": "| ANALYSIS DATASET | AD | | INTERVAL | INT |", "score": 0.3316, "match_basis": "verbatim_token+chapter_route:ch10"}, {"md_atom_id": "md_ch10_a185", "md_file": "knowledge_base/chapters/ch10_appendices.md", "md_atom_type": "TABLE_ROW", "md_parent_section": "§10.E [Revision History]", "md_verbatim": "| 4.4 | Actual and Relative Time Assumptions | Updated unknown values from U to UNKNOWN; clarified reference time point; added note that --STDTC is not used in Findings class domains; clarified use of --DRVFL |", "score": 0.322, "match_basis": "verbatim_token+chapter_route:ch10"}, {"md_atom_id": "md_ch10_a184", "md_file": "knowledge_base/chapters/ch10_appendices.md", "md_atom_type": "TABLE_ROW", "md_parent_section": "§10.E [Revision History]", "md_verbatim": "| 4.2 | General Variable Assumptions | Added CDISC note on acceptable USUBJID formats; 4.2.6 numbering reworked; new subsection 4.2.7.4 \"Specify\" Values for --OBJ added; added information about ASCII characters to Section 4.2.9 |", "score": 0.32, "match_basis": "verbatim_token+chapter_route:ch10"}, {"md_atom_id": "md_ch10_a226", "md_file": "knowledge_base/chapters/ch10_appendices.md", "md_atom_type": "TABLE_ROW", "md_parent_section": "§10.E [Revision History]", "md_verbatim": "| 7.3.2 | Trial Disease Assessments (TD) | Assumption 4 inserted to clarify that start of a schedule is the start of the interval preceding the first assessment; Examples 1 and 3 diagrams updated; values of TDSTOFF corrected |", "score": 0.3194, "match_basis": "verbatim_token+chapter_route:ch10"}, {"md_atom_id": "md_ch10_a221", "md_file": "knowledge_base/chapters/ch10_appendices.md", "md_atom_type": "TABLE_ROW", "md_parent_section": "§10.E [Revision History]", "md_verbatim": "| 6.4.4 | Findings About Events or Interventions (FA) | Core value for FADTC changed from \"Perm\" to \"Exp\"; updated FATEST and FATESTCD CDISC Notes to reference general codelists; added assumption 4a referencing CV Code table; extensive updates to examples for clarity |", "score": 0.3167, "match_basis": "verbatim_token+chapter_route:ch10"}], "candidate_count": 10, "zero_candidate": false}
{"pdf_atom_id": "ig34_p0451_a025", "pdf_atom_type": "TABLE_ROW", "pdf_source": "SDTMIG_v3.4", "pdf_page": 451, "pdf_parent_section": "§10.D Appendix D: CDISC Variable-naming Fragments", "pdf_verbatim": "VARIABLE | VAR", "figure_ref": null, "candidates": [{"md_atom_id": "md_ch10_a134", "md_file": "knowledge_base/chapters/ch10_appendices.md", "md_atom_type": "TABLE_ROW", "md_parent_section": "§10.D [CDISC Variable-naming Fragments]", "md_verbatim": "| | | | VARIABLE | VAR |", "score": 0.9, "match_basis": "verbatim_token+chapter_route:ch10"}, {"md_atom_id": "md_ch10_a038", "md_file": "knowledge_base/chapters/ch10_appendices.md", "md_atom_type": "TABLE_ROW", "md_parent_section": "§10.B [Glossary and Abbreviations]", "md_verbatim": "| NSV | Non-standard variable |", "score": 0.5571, "match_basis": "verbatim_token+chapter_route:ch10"}, {"md_atom_id": "md_ch10_a174", "md_file": "knowledge_base/chapters/ch10_appendices.md", "md_atom_type": "TABLE_ROW", "md_parent_section": "§10.E [Revision History]", "md_verbatim": "| 2.1 | Observations and Variables | Revised definition for Rule Variables |", "score": 0.4125, "match_basis": "verbatim_token+chapter_route:ch10"}, {"md_atom_id": "md_ch10_a202", "md_file": "knowledge_base/chapters/ch10_appendices.md", "md_atom_type": "TABLE_ROW", "md_parent_section": "§10.E [Revision History]", "md_verbatim": "| 6.2.3 | Clinical Events (CE) | Added permissible variable CETOXGR; added fracture events example; Examples 1 and 2 revised for clarity |", "score": 0.3655, "match_basis": "verbatim_token+chapter_route:ch10"}, {"md_atom_id": "md_ch10_a220", "md_file": "knowledge_base/chapters/ch10_appendices.md", "md_atom_type": "TABLE_ROW", "md_parent_section": "§10.E [Revision History]", "md_verbatim": "| 6.4.3 | Variables Unique to Findings About | Added sentence clarifying that an FA record will not necessarily have a parent record |", "score": 0.3632, "match_basis": "verbatim_token+chapter_route:ch10"}], "candidate_count": 5, "zero_candidate": false}
{"pdf_atom_id": "ig34_p0451_a026", "pdf_atom_type": "TABLE_ROW", "pdf_source": "SDTMIG_v3.4", "pdf_page": 451, "pdf_parent_section": "§10.D Appendix D: CDISC Variable-naming Fragments", "pdf_verbatim": "VEHICLE | V", "figure_ref": null, "candidates": [{"md_atom_id": "md_ch10_a135", "md_file": "knowledge_base/chapters/ch10_appendices.md", "md_atom_type": "TABLE_ROW", "md_parent_section": "§10.D [CDISC Variable-naming Fragments]", "md_verbatim": "| | | | VEHICLE | V |", "score": 0.9, "match_basis": "verbatim_token+chapter_route:ch10"}, {"md_atom_id": "md_ch10_a233", "md_file": "knowledge_base/chapters/ch10_appendices.md", "md_atom_type": "TABLE_ROW", "md_parent_section": "§10.E [Revision History]", "md_verbatim": "| 8.2.2 | RELREC Dataset Examples | Introductory text updated to more clearly describe how relationships are represented in RELREC |", "score": 0.3088, "match_basis": "verbatim_token+chapter_route:ch10"}, {"md_atom_id": "md_ch10_a190", "md_file": "knowledge_base/chapters/ch10_appendices.md", "md_atom_type": "TABLE_ROW", "md_parent_section": "§10.E [Revision History]", "md_verbatim": "| 5.2 | Demographics (DM) | Revised DM.COUNTRY CDISC Notes; Assumption 6 updated for race self-identification; updated assumption 6a to reference Racec-Ethnicc Codetable; extensive DM example updates |", "score": 0.3067, "match_basis": "verbatim_token+chapter_route:ch10"}, {"md_atom_id": "md_ch10_a217", "md_file": "knowledge_base/chapters/ch10_appendices.md", "md_atom_type": "TABLE_ROW", "md_parent_section": "§10.E [Revision History]", "md_verbatim": "| 6.3.5.6 | Laboratory Test Results (LB) | Revised LBTESTCD variable label to Lab Test or Examination Short Name; revised Core value for LBSTREFC to Perm (from Exp); added new variables: LBTSTCND, LBDAGNT, LBTSTOPO, LBRSLSCL, LBRESTYP, LBCOLSRT, LBLLOD, LBTMTHSN, LBCLSIG, LBPTFL, and LBPDUR; added permissible variables: LBSPCUFL, LBANMETH, LBORREF, LBSTREFN; LBORREF, LBSTREFC, and LBSTREFN removed because there is no clear use case; updated several assumptions; added Assumption 8; revised Examples 1-3; added Examples 4 and 5 |", "score": 0.3034, "match_basis": "verbatim_token+chapter_route:ch10"}, {"md_atom_id": "md_ch10_a013", "md_file": "knowledge_base/chapters/ch10_appendices.md", "md_atom_type": "TABLE_ROW", "md_parent_section": "§10.B [Glossary and Abbreviations]", "md_verbatim": "| ADaM | CDISC Analysis Dataset Model |", "score": 0.3, "match_basis": "verbatim_token+chapter_route:ch10"}, {"md_atom_id": "md_ch10_a014", "md_file": "knowledge_base/chapters/ch10_appendices.md", "md_atom_type": "TABLE_ROW", "md_parent_section": "§10.B [Glossary and Abbreviations]", "md_verbatim": "| ADSL | (ADaM) Subject-level Analysis Dataset |", "score": 0.3, "match_basis": "verbatim_token+chapter_route:ch10"}, {"md_atom_id": "md_ch10_a015", "md_file": "knowledge_base/chapters/ch10_appendices.md", "md_atom_type": "TABLE_ROW", "md_parent_section": "§10.B [Glossary and Abbreviations]", "md_verbatim": "| ATC | Anatomic Therapeutic Chemical (code; WHO) |", "score": 0.3, "match_basis": "verbatim_token+chapter_route:ch10"}, {"md_atom_id": "md_ch10_a016", "md_file": "knowledge_base/chapters/ch10_appendices.md", "md_atom_type": "TABLE_ROW", "md_parent_section": "§10.B [Glossary and Abbreviations]", "md_verbatim": "| CDASH | Clinical Data Acquisition Standards Harmonization |", "score": 0.3, "match_basis": "verbatim_token+chapter_route:ch10"}, {"md_atom_id": "md_ch10_a017", "md_file": "knowledge_base/chapters/ch10_appendices.md", "md_atom_type": "TABLE_ROW", "md_parent_section": "§10.B [Glossary and Abbreviations]", "md_verbatim": "| CDISC | Clinical Data Interchange Standards Consortium |", "score": 0.3, "match_basis": "verbatim_token+chapter_route:ch10"}, {"md_atom_id": "md_ch10_a018", "md_file": "knowledge_base/chapters/ch10_appendices.md", "md_atom_type": "TABLE_ROW", "md_parent_section": "§10.B [Glossary and Abbreviations]", "md_verbatim": "| CRF | Case report form (sometimes case record form) |", "score": 0.3, "match_basis": "verbatim_token+chapter_route:ch10"}], "candidate_count": 10, "zero_candidate": false}
{"pdf_atom_id": "ig34_p0452_a001", "pdf_atom_type": "HEADING", "pdf_source": "SDTMIG_v3.4", "pdf_page": 452, "pdf_parent_section": "§10 [APPENDICES]", "pdf_verbatim": "Appendix E: Revision History", "figure_ref": null, "candidates": [{"md_atom_id": "md_ch10_a136", "md_file": "knowledge_base/chapters/ch10_appendices.md", "md_atom_type": "HEADING", "md_parent_section": "§10 [Appendices]", "md_verbatim": "## Appendix E: Revision History", "score": 0.9, "match_basis": "verbatim_token+chapter_route:ch10"}, {"md_atom_id": "md_ch10_a009", "md_file": "knowledge_base/chapters/ch10_appendices.md", "md_atom_type": "HEADING", "md_parent_section": "§10 [Appendices]", "md_verbatim": "## Appendix B: Glossary and Abbreviations", "score": 0.4688, "match_basis": "verbatim_token+chapter_route:ch10"}, {"md_atom_id": "md_ch10_a003", "md_file": "knowledge_base/chapters/ch10_appendices.md", "md_atom_type": "HEADING", "md_parent_section": "§10 [Appendices]", "md_verbatim": "## Appendix A: CDISC SDS Team", "score": 0.4565, "match_basis": "verbatim_token+chapter_route:ch10"}, {"md_atom_id": "md_ch10_a053", "md_file": "knowledge_base/chapters/ch10_appendices.md", "md_atom_type": "HEADING", "md_parent_section": "§10 [Appendices]", "md_verbatim": "## Appendix C: Controlled Terminology", "score": 0.4059, "match_basis": "verbatim_token+chapter_route:ch10"}, {"md_atom_id": "md_ch10_a001", "md_file": "knowledge_base/chapters/ch10_appendices.md", "md_atom_type": "HEADING", "md_parent_section": "§10 [Appendices]", "md_verbatim": "# SDTMIG v3.4 — Chapter 10: Appendices", "score": 0.4034, "match_basis": "verbatim_token+chapter_route:ch10"}], "candidate_count": 5, "zero_candidate": false}
{"pdf_atom_id": "ig34_p0452_a002", "pdf_atom_type": "SENTENCE", "pdf_source": "SDTMIG_v3.4", "pdf_page": 452, "pdf_parent_section": "§10.E Appendix E: Revision History", "pdf_verbatim": "This appendix provides an overview only of revisions since the last production version, SDTMIG v3.3; not all revisions are included.", "figure_ref": null, "candidates": [{"md_atom_id": "md_ch10_a137", "md_file": "knowledge_base/chapters/ch10_appendices.md", "md_atom_type": "SENTENCE", "md_parent_section": "§10.E [Revision History]", "md_verbatim": "This appendix provides an overview only of revisions since the last production version, SDTMIG v3.3; not all revisions are included.", "score": 0.9, "match_basis": "verbatim_token+chapter_route:ch10"}, {"md_atom_id": "md_ch10_a167", "md_file": "knowledge_base/chapters/ch10_appendices.md", "md_atom_type": "SENTENCE", "md_parent_section": "§10.E [Revision History]", "md_verbatim": "Custom body system-based domains may be used if the appropriate body system-based domain is not included in the SDTMIG version being used.", "score": 0.4341, "match_basis": "verbatim_token+chapter_route:ch10"}, {"md_atom_id": "md_ch10_a169", "md_file": "knowledge_base/chapters/ch10_appendices.md", "md_atom_type": "SENTENCE", "md_parent_section": "§10.E [Revision History]", "md_verbatim": "In addition to the general changes described above, the following table provides an overview of changes by section.", "score": 0.4079, "match_basis": "verbatim_token+chapter_route:ch10"}, {"md_atom_id": "md_ch10_a166", "md_file": "knowledge_base/chapters/ch10_appendices.md", "md_atom_type": "SENTENCE", "md_parent_section": "§10.E [Revision History]", "md_verbatim": "For data prepared using a version of the SDTMIG that includes both the MO domain and body system-based physiology/morphology domains, morphology findings may be represented in either the MO domain or in a body-system based physiology/morphology domain.", "score": 0.4027, "match_basis": "verbatim_token+chapter_route:ch10"}, {"md_atom_id": "md_ch10_a002", "md_file": "knowledge_base/chapters/ch10_appendices.md", "md_atom_type": "SENTENCE", "md_parent_section": "§10 [Appendices]", "md_verbatim": "Source: SDTMIG v3.4, Appendices A-F (Pages 444-461)", "score": 0.3806, "match_basis": "verbatim_token+chapter_route:ch10"}], "candidate_count": 5, "zero_candidate": false}
{"pdf_atom_id": "ig34_p0452_a003", "pdf_atom_type": "LIST_ITEM", "pdf_source": "SDTMIG_v3.4", "pdf_page": 452, "pdf_parent_section": "§10.E Appendix E: Revision History", "pdf_verbatim": "A Diff file with details of changes to domain specification tables is available as a member benefit on the CDISC Library Archives page in the Members Only Area of the CDISC website (https://www.cdisc.org/members-only/cdisc-library-archives), and those changes are not repeated here.", "figure_ref": null, "candidates": [{"md_atom_id": "md_ch10_a138", "md_file": "knowledge_base/chapters/ch10_appendices.md", "md_atom_type": "LIST_ITEM", "md_parent_section": "§10.E [Revision History]", "md_verbatim": "- A Diff file with details of changes to domain specification tables is available as a member benefit on the CDISC Library Archives page in the Members Only Area of the CDISC website (https://www.cdisc.org/members-only/cdisc-library-archives), and those changes are not repeated here.", "score": 0.9, "match_basis": "verbatim_token+chapter_route:ch10"}, {"md_atom_id": "md_ch10_a139", "md_file": "knowledge_base/chapters/ch10_appendices.md", "md_atom_type": "LIST_ITEM", "md_parent_section": "§10.E [Revision History]", "md_verbatim": "- Public review comments and their dispositions will be available upon publication of the SDTMIG.", "score": 0.378, "match_basis": "verbatim_token+chapter_route:ch10"}, {"md_atom_id": "md_ch10_a146", "md_file": "knowledge_base/chapters/ch10_appendices.md", "md_atom_type": "LIST_ITEM", "md_parent_section": "§10.E [Revision History]", "md_verbatim": "- Domain tables replaced with sectional table of contents", "score": 0.3716, "match_basis": "verbatim_token+chapter_route:ch10"}, {"md_atom_id": "md_ch10_a058", "md_file": "knowledge_base/chapters/ch10_appendices.md", "md_atom_type": "LIST_ITEM", "md_parent_section": "§10.C [Controlled Terminology]", "md_verbatim": "- The NCI Enterprise Vocabulary Services CDISC Terminology website (https://www.cancer.gov/research/resources/terminology/cdisc) provides access to the full list of CDISC terminology", "score": 0.364, "match_basis": "verbatim_token+chapter_route:ch10"}, {"md_atom_id": "md_ch10_a057", "md_file": "knowledge_base/chapters/ch10_appendices.md", "md_atom_type": "LIST_ITEM", "md_parent_section": "§10.C [Controlled Terminology]", "md_verbatim": "- Visit the CDISC Controlled Terminology page (https://www.cdisc.org/standards/terminology/controlled-terminology) for the most recently published terminology packages (final or under review)", "score": 0.3568, "match_basis": "verbatim_token+chapter_route:ch10"}], "candidate_count": 5, "zero_candidate": false}
{"pdf_atom_id": "ig34_p0452_a004", "pdf_atom_type": "LIST_ITEM", "pdf_source": "SDTMIG_v3.4", "pdf_page": 452, "pdf_parent_section": "§10.E Appendix E: Revision History", "pdf_verbatim": "Public review comments and their dispositions will be available upon publication of the SDTMIG.", "figure_ref": null, "candidates": [{"md_atom_id": "md_ch10_a139", "md_file": "knowledge_base/chapters/ch10_appendices.md", "md_atom_type": "LIST_ITEM", "md_parent_section": "§10.E [Revision History]", "md_verbatim": "- Public review comments and their dispositions will be available upon publication of the SDTMIG.", "score": 0.9, "match_basis": "verbatim_token+chapter_route:ch10"}, {"md_atom_id": "md_ch10_a056", "md_file": "knowledge_base/chapters/ch10_appendices.md", "md_atom_type": "LIST_ITEM", "md_parent_section": "§10.C [Controlled Terminology]", "md_verbatim": "- New/modified terms have a 3-month development period with quarterly public-review comment period followed by publication release", "score": 0.4187, "match_basis": "verbatim_token+chapter_route:ch10"}, {"md_atom_id": "md_ch10_a059", "md_file": "knowledge_base/chapters/ch10_appendices.md", "md_atom_type": "LIST_ITEM", "md_parent_section": "§10.C [Controlled Terminology]", "md_verbatim": "- SDTM terminology was previously provided separately for questionnaires and other domains; as of the 2015-12-18 release, these were merged into a single publication", "score": 0.3783, "match_basis": "verbatim_token+chapter_route:ch10"}, {"md_atom_id": "md_ch10_a138", "md_file": "knowledge_base/chapters/ch10_appendices.md", "md_atom_type": "LIST_ITEM", "md_parent_section": "§10.E [Revision History]", "md_verbatim": "- A Diff file with details of changes to domain specification tables is available as a member benefit on the CDISC Library Archives page in the Members Only Area of the CDISC website (https://www.cdisc.org/members-only/cdisc-library-archives), and those changes are not repeated here.", "score": 0.378, "match_basis": "verbatim_token+chapter_route:ch10"}, {"md_atom_id": "md_ch10_a057", "md_file": "knowledge_base/chapters/ch10_appendices.md", "md_atom_type": "LIST_ITEM", "md_parent_section": "§10.C [Controlled Terminology]", "md_verbatim": "- Visit the CDISC Controlled Terminology page (https://www.cdisc.org/standards/terminology/controlled-terminology) for the most recently published terminology packages (final or under review)", "score": 0.3699, "match_basis": "verbatim_token+chapter_route:ch10"}], "candidate_count": 5, "zero_candidate": false}
{"pdf_atom_id": "ig34_p0452_a005", "pdf_atom_type": "SENTENCE", "pdf_source": "SDTMIG_v3.4", "pdf_page": 452, "pdf_parent_section": "§10.E Appendix E: Revision History", "pdf_verbatim": "The following changes have been made throughout:", "figure_ref": null, "candidates": [{"md_atom_id": "md_ch10_a160", "md_file": "knowledge_base/chapters/ch10_appendices.md", "md_atom_type": "SENTENCE", "md_parent_section": "§10.E [Revision History]", "md_verbatim": "The following domain was removed:", "score": 0.4297, "match_basis": "verbatim_token+chapter_route:ch10"}, {"md_atom_id": "md_ch10_a169", "md_file": "knowledge_base/chapters/ch10_appendices.md", "md_atom_type": "SENTENCE", "md_parent_section": "§10.E [Revision History]", "md_verbatim": "In addition to the general changes described above, the following table provides an overview of changes by section.", "score": 0.4219, "match_basis": "verbatim_token+chapter_route:ch10"}, {"md_atom_id": "md_ch10_a010", "md_file": "knowledge_base/chapters/ch10_appendices.md", "md_atom_type": "SENTENCE", "md_parent_section": "§10.B [Glossary and Abbreviations]", "md_verbatim": "The following table lists some of the abbreviations and terms are used in this document.", "score": 0.3787, "match_basis": "verbatim_token+chapter_route:ch10"}, {"md_atom_id": "md_ch10_a005", "md_file": "knowledge_base/chapters/ch10_appendices.md", "md_atom_type": "SENTENCE", "md_parent_section": "§10.A [CDISC SDS Team]", "md_verbatim": "Additionally, this publication would not have been possible without the support of the Foundational Team Leads, Global Governance Group, Regulatory Liaisons, and CDISC.", "score": 0.3453, "match_basis": "verbatim_token+chapter_route:ch10"}, {"md_atom_id": "md_ch10_a249", "md_file": "knowledge_base/chapters/ch10_appendices.md", "md_atom_type": "SENTENCE", "md_parent_section": "§10.F [Representations and Warranties, Limitations of Liability, and Disclaimers]", "md_verbatim": "CDISC, including the CDISC Board of Directors, shall not be responsible for identifying patents for which a license may be required in order to implement this standard or for conducting inquiries into the legal validity or scope of those patents or patent claims that are brought to its attention.", "score": 0.3207, "match_basis": "verbatim_token+chapter_route:ch10"}], "candidate_count": 5, "zero_candidate": false}
{"pdf_atom_id": "ig34_p0452_a006", "pdf_atom_type": "LIST_ITEM", "pdf_source": "SDTMIG_v3.4", "pdf_page": 452, "pdf_parent_section": "§10.E Appendix E: Revision History", "pdf_verbatim": "Text and examples have been clarified as needed.", "figure_ref": null, "candidates": [{"md_atom_id": "md_ch10_a141", "md_file": "knowledge_base/chapters/ch10_appendices.md", "md_atom_type": "LIST_ITEM", "md_parent_section": "§10.E [Revision History]", "md_verbatim": "- Text and examples clarified as needed", "score": 0.8, "match_basis": "verbatim_token+chapter_route:ch10"}, {"md_atom_id": "md_ch10_a150", "md_file": "knowledge_base/chapters/ch10_appendices.md", "md_atom_type": "LIST_ITEM", "md_parent_section": "§10.E [Revision History]", "md_verbatim": "- Links were updated as needed", "score": 0.3706, "match_basis": "verbatim_token+chapter_route:ch10"}, {"md_atom_id": "md_ch10_a145", "md_file": "knowledge_base/chapters/ch10_appendices.md", "md_atom_type": "LIST_ITEM", "md_parent_section": "§10.E [Revision History]", "md_verbatim": "- New variables from SDTM v2.0 added", "score": 0.35, "match_basis": "verbatim_token+chapter_route:ch10"}, {"md_atom_id": "md_ch10_a056", "md_file": "knowledge_base/chapters/ch10_appendices.md", "md_atom_type": "LIST_ITEM", "md_parent_section": "§10.C [Controlled Terminology]", "md_verbatim": "- New/modified terms have a 3-month development period with quarterly public-review comment period followed by publication release", "score": 0.3366, "match_basis": "verbatim_token+chapter_route:ch10"}, {"md_atom_id": "md_ch10_a060", "md_file": "knowledge_base/chapters/ch10_appendices.md", "md_atom_type": "LIST_ITEM", "md_parent_section": "§10.C [Controlled Terminology]", "md_verbatim": "- Earlier versions of the SDTMIG included several appendices regarding controlled terminology. Starting with SDTMIG 3.2, Appendix C was simplified. Appendix C1 will be considered for expansion in the next version, to contain a complete list of supplemental qualifiers used in the SDTMIG", "score": 0.3323, "match_basis": "verbatim_token+chapter_route:ch10"}], "candidate_count": 5, "zero_candidate": false}
{"pdf_atom_id": "ig34_p0452_a007", "pdf_atom_type": "LIST_ITEM", "pdf_source": "SDTMIG_v3.4", "pdf_page": 452, "pdf_parent_section": "§10.E Appendix E: Revision History", "pdf_verbatim": "Text was updated to reflect new table names in SDTM v2.0.", "figure_ref": null, "candidates": [{"md_atom_id": "md_ch10_a142", "md_file": "knowledge_base/chapters/ch10_appendices.md", "md_atom_type": "LIST_ITEM", "md_parent_section": "§10.E [Revision History]", "md_verbatim": "- Text updated to reflect new table names in SDTM v2.0", "score": 0.8727, "match_basis": "verbatim_token+chapter_route:ch10"}, {"md_atom_id": "md_ch10_a150", "md_file": "knowledge_base/chapters/ch10_appendices.md", "md_atom_type": "LIST_ITEM", "md_parent_section": "§10.E [Revision History]", "md_verbatim": "- Links were updated as needed", "score": 0.3968, "match_basis": "verbatim_token+chapter_route:ch10"}, {"md_atom_id": "md_ch10_a145", "md_file": "knowledge_base/chapters/ch10_appendices.md", "md_atom_type": "LIST_ITEM", "md_parent_section": "§10.E [Revision History]", "md_verbatim": "- New variables from SDTM v2.0 added", "score": 0.3937, "match_basis": "verbatim_token+chapter_route:ch10"}, {"md_atom_id": "md_ch10_a147", "md_file": "knowledge_base/chapters/ch10_appendices.md", "md_atom_type": "LIST_ITEM", "md_parent_section": "§10.E [Revision History]", "md_verbatim": "- Supplemental qualifier variable names updated to include 2-character domain abbreviations", "score": 0.3857, "match_basis": "verbatim_token+chapter_route:ch10"}, {"md_atom_id": "md_ch10_a143", "md_file": "knowledge_base/chapters/ch10_appendices.md", "md_atom_type": "LIST_ITEM", "md_parent_section": "§10.E [Revision History]", "md_verbatim": "- Values updated to current CDISC Controlled Terminology", "score": 0.3588, "match_basis": "verbatim_token+chapter_route:ch10"}], "candidate_count": 5, "zero_candidate": false}
{"pdf_atom_id": "ig34_p0452_a008", "pdf_atom_type": "LIST_ITEM", "pdf_source": "SDTMIG_v3.4", "pdf_page": 452, "pdf_parent_section": "§10.E Appendix E: Revision History", "pdf_verbatim": "Values were updated to current CDISC Controlled Terminology.", "figure_ref": null, "candidates": [{"md_atom_id": "md_ch10_a143", "md_file": "knowledge_base/chapters/ch10_appendices.md", "md_atom_type": "LIST_ITEM", "md_parent_section": "§10.E [Revision History]", "md_verbatim": "- Values updated to current CDISC Controlled Terminology", "score": 0.8667, "match_basis": "verbatim_token+chapter_route:ch10"}, {"md_atom_id": "md_ch10_a057", "md_file": "knowledge_base/chapters/ch10_appendices.md", "md_atom_type": "LIST_ITEM", "md_parent_section": "§10.C [Controlled Terminology]", "md_verbatim": "- Visit the CDISC Controlled Terminology page (https://www.cdisc.org/standards/terminology/controlled-terminology) for the most recently published terminology packages (final or under review)", "score": 0.45, "match_basis": "verbatim_token+chapter_route:ch10"}, {"md_atom_id": "md_ch10_a150", "md_file": "knowledge_base/chapters/ch10_appendices.md", "md_atom_type": "LIST_ITEM", "md_parent_section": "§10.E [Revision History]", "md_verbatim": "- Links were updated as needed", "score": 0.3977, "match_basis": "verbatim_token+chapter_route:ch10"}, {"md_atom_id": "md_ch10_a060", "md_file": "knowledge_base/chapters/ch10_appendices.md", "md_atom_type": "LIST_ITEM", "md_parent_section": "§10.C [Controlled Terminology]", "md_verbatim": "- Earlier versions of the SDTMIG included several appendices regarding controlled terminology. Starting with SDTMIG 3.2, Appendix C was simplified. Appendix C1 will be considered for expansion in the next version, to contain a complete list of supplemental qualifiers used in the SDTMIG", "score": 0.3877, "match_basis": "verbatim_token+chapter_route:ch10"}, {"md_atom_id": "md_ch10_a058", "md_file": "knowledge_base/chapters/ch10_appendices.md", "md_atom_type": "LIST_ITEM", "md_parent_section": "§10.C [Controlled Terminology]", "md_verbatim": "- The NCI Enterprise Vocabulary Services CDISC Terminology website (https://www.cancer.gov/research/resources/terminology/cdisc) provides access to the full list of CDISC terminology", "score": 0.3812, "match_basis": "verbatim_token+chapter_route:ch10"}], "candidate_count": 5, "zero_candidate": false}
{"pdf_atom_id": "ig34_p0452_a009", "pdf_atom_type": "LIST_ITEM", "pdf_source": "SDTMIG_v3.4", "pdf_page": 452, "pdf_parent_section": "§10.E Appendix E: Revision History", "pdf_verbatim": "ISO formats were made more granular.", "figure_ref": null, "candidates": [{"md_atom_id": "md_ch10_a144", "md_file": "knowledge_base/chapters/ch10_appendices.md", "md_atom_type": "LIST_ITEM", "md_parent_section": "§10.E [Revision History]", "md_verbatim": "- ISO formats made more granular", "score": 0.8333, "match_basis": "verbatim_token+chapter_route:ch10"}, {"md_atom_id": "md_ch10_a151", "md_file": "knowledge_base/chapters/ch10_appendices.md", "md_atom_type": "LIST_ITEM", "md_parent_section": "§10.E [Revision History]", "md_verbatim": "- Typographical errors were corrected", "score": 0.3462, "match_basis": "verbatim_token+chapter_route:ch10"}, {"md_atom_id": "md_ch10_a150", "md_file": "knowledge_base/chapters/ch10_appendices.md", "md_atom_type": "LIST_ITEM", "md_parent_section": "§10.E [Revision History]", "md_verbatim": "- Links were updated as needed", "score": 0.34, "match_basis": "verbatim_token+chapter_route:ch10"}, {"md_atom_id": "md_ch10_a149", "md_file": "knowledge_base/chapters/ch10_appendices.md", "md_atom_type": "LIST_ITEM", "md_parent_section": "§10.E [Revision History]", "md_verbatim": "- Numbered lists in CDISC Notes converted to text for consistency", "score": 0.325, "match_basis": "verbatim_token+chapter_route:ch10"}, {"md_atom_id": "md_ch10_a161", "md_file": "knowledge_base/chapters/ch10_appendices.md", "md_atom_type": "LIST_ITEM", "md_parent_section": "§10.E [Revision History]", "md_verbatim": "- Morphology (MO)", "score": 0.324, "match_basis": "verbatim_token+chapter_route:ch10"}], "candidate_count": 5, "zero_candidate": false}
{"pdf_atom_id": "ig34_p0452_a010", "pdf_atom_type": "LIST_ITEM", "pdf_source": "SDTMIG_v3.4", "pdf_page": 452, "pdf_parent_section": "§10.E Appendix E: Revision History", "pdf_verbatim": "New variables from SDTM v2.0 have been added.", "figure_ref": null, "candidates": [{"md_atom_id": "md_ch10_a145", "md_file": "knowledge_base/chapters/ch10_appendices.md", "md_atom_type": "LIST_ITEM", "md_parent_section": "§10.E [Revision History]", "md_verbatim": "- New variables from SDTM v2.0 added", "score": 0.7737, "match_basis": "verbatim_token+chapter_route:ch10"}, {"md_atom_id": "md_ch10_a142", "md_file": "knowledge_base/chapters/ch10_appendices.md", "md_atom_type": "LIST_ITEM", "md_parent_section": "§10.E [Revision History]", "md_verbatim": "- Text updated to reflect new table names in SDTM v2.0", "score": 0.3857, "match_basis": "verbatim_token+chapter_route:ch10"}, {"md_atom_id": "md_ch10_a147", "md_file": "knowledge_base/chapters/ch10_appendices.md", "md_atom_type": "LIST_ITEM", "md_parent_section": "§10.E [Revision History]", "md_verbatim": "- Supplemental qualifier variable names updated to include 2-character domain abbreviations", "score": 0.3507, "match_basis": "verbatim_token+chapter_route:ch10"}, {"md_atom_id": "md_ch10_a141", "md_file": "knowledge_base/chapters/ch10_appendices.md", "md_atom_type": "LIST_ITEM", "md_parent_section": "§10.E [Revision History]", "md_verbatim": "- Text and examples clarified as needed", "score": 0.35, "match_basis": "verbatim_token+chapter_route:ch10"}, {"md_atom_id": "md_ch10_a146", "md_file": "knowledge_base/chapters/ch10_appendices.md", "md_atom_type": "LIST_ITEM", "md_parent_section": "§10.E [Revision History]", "md_verbatim": "- Domain tables replaced with sectional table of contents", "score": 0.34, "match_basis": "verbatim_token+chapter_route:ch10"}], "candidate_count": 5, "zero_candidate": false}
{"pdf_atom_id": "ig34_p0452_a011", "pdf_atom_type": "LIST_ITEM", "pdf_source": "SDTMIG_v3.4", "pdf_page": 452, "pdf_parent_section": "§10.E Appendix E: Revision History", "pdf_verbatim": "Tables with domain codes and descriptions at the start of a section have been replaced with a sectional table of contents since each domain section already contains all of the information previously in the tables.", "figure_ref": null, "candidates": [{"md_atom_id": "md_ch10_a146", "md_file": "knowledge_base/chapters/ch10_appendices.md", "md_atom_type": "LIST_ITEM", "md_parent_section": "§10.E [Revision History]", "md_verbatim": "- Domain tables replaced with sectional table of contents", "score": 0.526, "match_basis": "verbatim_token+chapter_route:ch10"}, {"md_atom_id": "md_ch10_a059", "md_file": "knowledge_base/chapters/ch10_appendices.md", "md_atom_type": "LIST_ITEM", "md_parent_section": "§10.C [Controlled Terminology]", "md_verbatim": "- SDTM terminology was previously provided separately for questionnaires and other domains; as of the 2015-12-18 release, these were merged into a single publication", "score": 0.3851, "match_basis": "verbatim_token+chapter_route:ch10"}, {"md_atom_id": "md_ch10_a148", "md_file": "knowledge_base/chapters/ch10_appendices.md", "md_atom_type": "LIST_ITEM", "md_parent_section": "§10.E [Revision History]", "md_verbatim": "- Assumptions providing domain definitions removed (now in Description/Overview)", "score": 0.3792, "match_basis": "verbatim_token+chapter_route:ch10"}, {"md_atom_id": "md_ch10_a147", "md_file": "knowledge_base/chapters/ch10_appendices.md", "md_atom_type": "LIST_ITEM", "md_parent_section": "§10.E [Revision History]", "md_verbatim": "- Supplemental qualifier variable names updated to include 2-character domain abbreviations", "score": 0.375, "match_basis": "verbatim_token+chapter_route:ch10"}, {"md_atom_id": "md_ch10_a138", "md_file": "knowledge_base/chapters/ch10_appendices.md", "md_atom_type": "LIST_ITEM", "md_parent_section": "§10.E [Revision History]", "md_verbatim": "- A Diff file with details of changes to domain specification tables is available as a member benefit on the CDISC Library Archives page in the Members Only Area of the CDISC website (https://www.cdisc.org/members-only/cdisc-library-archives), and those changes are not repeated here.", "score": 0.3711, "match_basis": "verbatim_token+chapter_route:ch10"}], "candidate_count": 5, "zero_candidate": false}
{"pdf_atom_id": "ig34_p0452_a012", "pdf_atom_type": "LIST_ITEM", "pdf_source": "SDTMIG_v3.4", "pdf_page": 452, "pdf_parent_section": "§10.E Appendix E: Revision History", "pdf_verbatim": "With few exceptions (e.g., the DM domain), the names of supplemental qualifier variables have been updated to include 2-character domain abbreviations at the start of the variable name.", "figure_ref": null, "candidates": [{"md_atom_id": "md_ch10_a147", "md_file": "knowledge_base/chapters/ch10_appendices.md", "md_atom_type": "LIST_ITEM", "md_parent_section": "§10.E [Revision History]", "md_verbatim": "- Supplemental qualifier variable names updated to include 2-character domain abbreviations", "score": 0.764, "match_basis": "verbatim_token+chapter_route:ch10"}, {"md_atom_id": "md_ch10_a060", "md_file": "knowledge_base/chapters/ch10_appendices.md", "md_atom_type": "LIST_ITEM", "md_parent_section": "§10.C [Controlled Terminology]", "md_verbatim": "- Earlier versions of the SDTMIG included several appendices regarding controlled terminology. Starting with SDTMIG 3.2, Appendix C was simplified. Appendix C1 will be considered for expansion in the next version, to contain a complete list of supplemental qualifiers used in the SDTMIG", "score": 0.4231, "match_basis": "verbatim_token+chapter_route:ch10"}, {"md_atom_id": "md_ch10_a072", "md_file": "knowledge_base/chapters/ch10_appendices.md", "md_atom_type": "LIST_ITEM", "md_parent_section": "§10.D [CDISC Variable-naming Fragments]", "md_verbatim": "- If the combination still exceeds 8 characters, drop characters where most appropriate (avoiding naming conflicts)", "score": 0.3887, "match_basis": "verbatim_token+chapter_route:ch10"}, {"md_atom_id": "md_ch10_a056", "md_file": "knowledge_base/chapters/ch10_appendices.md", "md_atom_type": "LIST_ITEM", "md_parent_section": "§10.C [Controlled Terminology]", "md_verbatim": "- New/modified terms have a 3-month development period with quarterly public-review comment period followed by publication release", "score": 0.3787, "match_basis": "verbatim_token+chapter_route:ch10"}, {"md_atom_id": "md_ch10_a146", "md_file": "knowledge_base/chapters/ch10_appendices.md", "md_atom_type": "LIST_ITEM", "md_parent_section": "§10.E [Revision History]", "md_verbatim": "- Domain tables replaced with sectional table of contents", "score": 0.3783, "match_basis": "verbatim_token+chapter_route:ch10"}], "candidate_count": 5, "zero_candidate": false}
{"pdf_atom_id": "ig34_p0452_a013", "pdf_atom_type": "LIST_ITEM", "pdf_source": "SDTMIG_v3.4", "pdf_page": 452, "pdf_parent_section": "§10.E Appendix E: Revision History", "pdf_verbatim": "Assumptions which provided domain definitions were removed as these are provided under the Description/Overview for each domain.", "figure_ref": null, "candidates": [{"md_atom_id": "md_ch10_a148", "md_file": "knowledge_base/chapters/ch10_appendices.md", "md_atom_type": "LIST_ITEM", "md_parent_section": "§10.E [Revision History]", "md_verbatim": "- Assumptions providing domain definitions removed (now in Description/Overview)", "score": 0.69, "match_basis": "verbatim_token+chapter_route:ch10"}, {"md_atom_id": "md_ch10_a059", "md_file": "knowledge_base/chapters/ch10_appendices.md", "md_atom_type": "LIST_ITEM", "md_parent_section": "§10.C [Controlled Terminology]", "md_verbatim": "- SDTM terminology was previously provided separately for questionnaires and other domains; as of the 2015-12-18 release, these were merged into a single publication", "score": 0.3885, "match_basis": "verbatim_token+chapter_route:ch10"}, {"md_atom_id": "md_ch10_a058", "md_file": "knowledge_base/chapters/ch10_appendices.md", "md_atom_type": "LIST_ITEM", "md_parent_section": "§10.C [Controlled Terminology]", "md_verbatim": "- The NCI Enterprise Vocabulary Services CDISC Terminology website (https://www.cancer.gov/research/resources/terminology/cdisc) provides access to the full list of CDISC terminology", "score": 0.3504, "match_basis": "verbatim_token+chapter_route:ch10"}, {"md_atom_id": "md_ch10_a146", "md_file": "knowledge_base/chapters/ch10_appendices.md", "md_atom_type": "LIST_ITEM", "md_parent_section": "§10.E [Revision History]", "md_verbatim": "- Domain tables replaced with sectional table of contents", "score": 0.3456, "match_basis": "verbatim_token+chapter_route:ch10"}, {"md_atom_id": "md_ch10_a139", "md_file": "knowledge_base/chapters/ch10_appendices.md", "md_atom_type": "LIST_ITEM", "md_parent_section": "§10.E [Revision History]", "md_verbatim": "- Public review comments and their dispositions will be available upon publication of the SDTMIG.", "score": 0.3442, "match_basis": "verbatim_token+chapter_route:ch10"}], "candidate_count": 5, "zero_candidate": false}
{"pdf_atom_id": "ig34_p0452_a014", "pdf_atom_type": "LIST_ITEM", "pdf_source": "SDTMIG_v3.4", "pdf_page": 452, "pdf_parent_section": "§10.E Appendix E: Revision History", "pdf_verbatim": "Where numbered lists occurred in CDISC Notes, these have been converted to text for consistency with the rest of the document.", "figure_ref": null, "candidates": [{"md_atom_id": "md_ch10_a149", "md_file": "knowledge_base/chapters/ch10_appendices.md", "md_atom_type": "LIST_ITEM", "md_parent_section": "§10.E [Revision History]", "md_verbatim": "- Numbered lists in CDISC Notes converted to text for consistency", "score": 0.6429, "match_basis": "verbatim_token+chapter_route:ch10"}, {"md_atom_id": "md_ch10_a143", "md_file": "knowledge_base/chapters/ch10_appendices.md", "md_atom_type": "LIST_ITEM", "md_parent_section": "§10.E [Revision History]", "md_verbatim": "- Values updated to current CDISC Controlled Terminology", "score": 0.3667, "match_basis": "verbatim_token+chapter_route:ch10"}, {"md_atom_id": "md_ch10_a070", "md_file": "knowledge_base/chapters/ch10_appendices.md", "md_atom_type": "LIST_ITEM", "md_parent_section": "§10.D [CDISC Variable-naming Fragments]", "md_verbatim": "- The general rule is to use the fragment(s) that best conveys the meaning within the 8-character limit", "score": 0.36, "match_basis": "verbatim_token+chapter_route:ch10"}, {"md_atom_id": "md_ch10_a060", "md_file": "knowledge_base/chapters/ch10_appendices.md", "md_atom_type": "LIST_ITEM", "md_parent_section": "§10.C [Controlled Terminology]", "md_verbatim": "- Earlier versions of the SDTMIG included several appendices regarding controlled terminology. Starting with SDTMIG 3.2, Appendix C was simplified. Appendix C1 will be considered for expansion in the next version, to contain a complete list of supplemental qualifiers used in the SDTMIG", "score": 0.3584, "match_basis": "verbatim_token+chapter_route:ch10"}, {"md_atom_id": "md_ch10_a138", "md_file": "knowledge_base/chapters/ch10_appendices.md", "md_atom_type": "LIST_ITEM", "md_parent_section": "§10.E [Revision History]", "md_verbatim": "- A Diff file with details of changes to domain specification tables is available as a member benefit on the CDISC Library Archives page in the Members Only Area of the CDISC website (https://www.cdisc.org/members-only/cdisc-library-archives), and those changes are not repeated here.", "score": 0.3526, "match_basis": "verbatim_token+chapter_route:ch10"}], "candidate_count": 5, "zero_candidate": false}
{"pdf_atom_id": "ig34_p0452_a015", "pdf_atom_type": "LIST_ITEM", "pdf_source": "SDTMIG_v3.4", "pdf_page": 452, "pdf_parent_section": "§10.E Appendix E: Revision History", "pdf_verbatim": "Links were updated as needed.", "figure_ref": null, "candidates": [{"md_atom_id": "md_ch10_a150", "md_file": "knowledge_base/chapters/ch10_appendices.md", "md_atom_type": "LIST_ITEM", "md_parent_section": "§10.E [Revision History]", "md_verbatim": "- Links were updated as needed", "score": 0.9, "match_basis": "verbatim_token+chapter_route:ch10"}, {"md_atom_id": "md_ch10_a142", "md_file": "knowledge_base/chapters/ch10_appendices.md", "md_atom_type": "LIST_ITEM", "md_parent_section": "§10.E [Revision History]", "md_verbatim": "- Text updated to reflect new table names in SDTM v2.0", "score": 0.4, "match_basis": "verbatim_token+chapter_route:ch10"}, {"md_atom_id": "md_ch10_a141", "md_file": "knowledge_base/chapters/ch10_appendices.md", "md_atom_type": "LIST_ITEM", "md_parent_section": "§10.E [Revision History]", "md_verbatim": "- Text and examples clarified as needed", "score": 0.38, "match_basis": "verbatim_token+chapter_route:ch10"}, {"md_atom_id": "md_ch10_a143", "md_file": "knowledge_base/chapters/ch10_appendices.md", "md_atom_type": "LIST_ITEM", "md_parent_section": "§10.E [Revision History]", "md_verbatim": "- Values updated to current CDISC Controlled Terminology", "score": 0.3698, "match_basis": "verbatim_token+chapter_route:ch10"}, {"md_atom_id": "md_ch10_a151", "md_file": "knowledge_base/chapters/ch10_appendices.md", "md_atom_type": "LIST_ITEM", "md_parent_section": "§10.E [Revision History]", "md_verbatim": "- Typographical errors were corrected", "score": 0.3514, "match_basis": "verbatim_token+chapter_route:ch10"}], "candidate_count": 5, "zero_candidate": false}
{"pdf_atom_id": "ig34_p0452_a016", "pdf_atom_type": "LIST_ITEM", "pdf_source": "SDTMIG_v3.4", "pdf_page": 452, "pdf_parent_section": "§10.E Appendix E: Revision History", "pdf_verbatim": "Typographical errors were corrected.", "figure_ref": null, "candidates": [{"md_atom_id": "md_ch10_a151", "md_file": "knowledge_base/chapters/ch10_appendices.md", "md_atom_type": "LIST_ITEM", "md_parent_section": "§10.E [Revision History]", "md_verbatim": "- Typographical errors were corrected", "score": 0.9, "match_basis": "verbatim_token+chapter_route:ch10"}, {"md_atom_id": "md_ch10_a150", "md_file": "knowledge_base/chapters/ch10_appendices.md", "md_atom_type": "LIST_ITEM", "md_parent_section": "§10.E [Revision History]", "md_verbatim": "- Links were updated as needed", "score": 0.3514, "match_basis": "verbatim_token+chapter_route:ch10"}, {"md_atom_id": "md_ch10_a142", "md_file": "knowledge_base/chapters/ch10_appendices.md", "md_atom_type": "LIST_ITEM", "md_parent_section": "§10.E [Revision History]", "md_verbatim": "- Text updated to reflect new table names in SDTM v2.0", "score": 0.3279, "match_basis": "verbatim_token+chapter_route:ch10"}, {"md_atom_id": "md_ch10_a149", "md_file": "knowledge_base/chapters/ch10_appendices.md", "md_atom_type": "LIST_ITEM", "md_parent_section": "§10.E [Revision History]", "md_verbatim": "- Numbered lists in CDISC Notes converted to text for consistency", "score": 0.3222, "match_basis": "verbatim_token+chapter_route:ch10"}, {"md_atom_id": "md_ch10_a143", "md_file": "knowledge_base/chapters/ch10_appendices.md", "md_atom_type": "LIST_ITEM", "md_parent_section": "§10.E [Revision History]", "md_verbatim": "- Values updated to current CDISC Controlled Terminology", "score": 0.3214, "match_basis": "verbatim_token+chapter_route:ch10"}], "candidate_count": 5, "zero_candidate": false}
{"pdf_atom_id": "ig34_p0452_a017", "pdf_atom_type": "HEADING", "pdf_source": "SDTMIG_v3.4", "pdf_page": 452, "pdf_parent_section": "§10.E Appendix E: Revision History", "pdf_verbatim": "A note on the decommissioning of MO", "figure_ref": null, "candidates": [{"md_atom_id": "md_ch10_a159", "md_file": "knowledge_base/chapters/ch10_appendices.md", "md_atom_type": "HEADING", "md_parent_section": "§10.E [Revision History]", "md_verbatim": "### Decommissioning of MO (Morphology)", "score": 0.625, "match_basis": "verbatim_token+chapter_route:ch10"}, {"md_atom_id": "md_ch10_a136", "md_file": "knowledge_base/chapters/ch10_appendices.md", "md_atom_type": "HEADING", "md_parent_section": "§10 [Appendices]", "md_verbatim": "## Appendix E: Revision History", "score": 0.3387, "match_basis": "verbatim_token+chapter_route:ch10"}, {"md_atom_id": "md_ch10_a168", "md_file": "knowledge_base/chapters/ch10_appendices.md", "md_atom_type": "HEADING", "md_parent_section": "§10.E [Revision History]", "md_verbatim": "### Key Section-by-Section Changes", "score": 0.3231, "match_basis": "verbatim_token+chapter_route:ch10"}, {"md_atom_id": "md_ch10_a069", "md_file": "knowledge_base/chapters/ch10_appendices.md", "md_atom_type": "HEADING", "md_parent_section": "§10.D [CDISC Variable-naming Fragments]", "md_verbatim": "### Rules for Using Fragments", "score": 0.3207, "match_basis": "verbatim_token+chapter_route:ch10"}, {"md_atom_id": "md_ch10_a256", "md_file": "knowledge_base/chapters/ch10_appendices.md", "md_atom_type": "HEADING", "md_parent_section": "§10.F [Representations and Warranties, Limitations of Liability, and Disclaimers]", "md_verbatim": "### Limitation of Liability", "score": 0.32, "match_basis": "verbatim_token+chapter_route:ch10"}], "candidate_count": 5, "zero_candidate": false}
{"pdf_atom_id": "ig34_p0452_a018", "pdf_atom_type": "SENTENCE", "pdf_source": "SDTMIG_v3.4", "pdf_page": 452, "pdf_parent_section": "§10.E Appendix E: Revision History", "pdf_verbatim": "The following domain was removed:", "figure_ref": null, "candidates": [{"md_atom_id": "md_ch10_a160", "md_file": "knowledge_base/chapters/ch10_appendices.md", "md_atom_type": "SENTENCE", "md_parent_section": "§10.E [Revision History]", "md_verbatim": "The following domain was removed:", "score": 0.9, "match_basis": "verbatim_token+chapter_route:ch10"}, {"md_atom_id": "md_ch10_a010", "md_file": "knowledge_base/chapters/ch10_appendices.md", "md_atom_type": "SENTENCE", "md_parent_section": "§10.B [Glossary and Abbreviations]", "md_verbatim": "The following table lists some of the abbreviations and terms are used in this document.", "score": 0.3923, "match_basis": "verbatim_token+chapter_route:ch10"}, {"md_atom_id": "md_ch10_a169", "md_file": "knowledge_base/chapters/ch10_appendices.md", "md_atom_type": "SENTENCE", "md_parent_section": "§10.E [Revision History]", "md_verbatim": "In addition to the general changes described above, the following table provides an overview of changes by section.", "score": 0.3915, "match_basis": "verbatim_token+chapter_route:ch10"}, {"md_atom_id": "md_ch10_a167", "md_file": "knowledge_base/chapters/ch10_appendices.md", "md_atom_type": "SENTENCE", "md_parent_section": "§10.E [Revision History]", "md_verbatim": "Custom body system-based domains may be used if the appropriate body system-based domain is not included in the SDTMIG version being used.", "score": 0.359, "match_basis": "verbatim_token+chapter_route:ch10"}, {"md_atom_id": "md_ch10_a164", "md_file": "knowledge_base/chapters/ch10_appendices.md", "md_atom_type": "SENTENCE", "md_parent_section": "§10.E [Revision History]", "md_verbatim": "This led to the decision to expand the body system-based domains to cover both morphology and physiology findings and to deprecate MO in SDTMIG v3.4.", "score": 0.3575, "match_basis": "verbatim_token+chapter_route:ch10"}], "candidate_count": 5, "zero_candidate": false}
{"pdf_atom_id": "ig34_p0452_a019", "pdf_atom_type": "LIST_ITEM", "pdf_source": "SDTMIG_v3.4", "pdf_page": 452, "pdf_parent_section": "§10.E Appendix E: Revision History", "pdf_verbatim": "Morphology (MO)", "figure_ref": null, "candidates": [{"md_atom_id": "md_ch10_a161", "md_file": "knowledge_base/chapters/ch10_appendices.md", "md_atom_type": "LIST_ITEM", "md_parent_section": "§10.E [Revision History]", "md_verbatim": "- Morphology (MO)", "score": 0.9, "match_basis": "verbatim_token+chapter_route:ch10"}, {"md_atom_id": "md_ch10_a143", "md_file": "knowledge_base/chapters/ch10_appendices.md", "md_atom_type": "LIST_ITEM", "md_parent_section": "§10.E [Revision History]", "md_verbatim": "- Values updated to current CDISC Controlled Terminology", "score": 0.3462, "match_basis": "verbatim_token+chapter_route:ch10"}, {"md_atom_id": "md_ch10_a144", "md_file": "knowledge_base/chapters/ch10_appendices.md", "md_atom_type": "LIST_ITEM", "md_parent_section": "§10.E [Revision History]", "md_verbatim": "- ISO formats made more granular", "score": 0.3261, "match_basis": "verbatim_token+chapter_route:ch10"}, {"md_atom_id": "md_ch10_a057", "md_file": "knowledge_base/chapters/ch10_appendices.md", "md_atom_type": "LIST_ITEM", "md_parent_section": "§10.C [Controlled Terminology]", "md_verbatim": "- Visit the CDISC Controlled Terminology page (https://www.cdisc.org/standards/terminology/controlled-terminology) for the most recently published terminology packages (final or under review)", "score": 0.3243, "match_basis": "verbatim_token+chapter_route:ch10"}, {"md_atom_id": "md_ch10_a058", "md_file": "knowledge_base/chapters/ch10_appendices.md", "md_atom_type": "LIST_ITEM", "md_parent_section": "§10.C [Controlled Terminology]", "md_verbatim": "- The NCI Enterprise Vocabulary Services CDISC Terminology website (https://www.cancer.gov/research/resources/terminology/cdisc) provides access to the full list of CDISC terminology", "score": 0.3231, "match_basis": "verbatim_token+chapter_route:ch10"}], "candidate_count": 5, "zero_candidate": false}
{"pdf_atom_id": "ig34_p0452_a020", "pdf_atom_type": "SENTENCE", "pdf_source": "SDTMIG_v3.4", "pdf_page": 452, "pdf_parent_section": "§10.E Appendix E: Revision History", "pdf_verbatim": "When the Morphology domain was introduced in SDTMIG v3.2, the SDS Team planned to represent morphology and physiology findings in separate domains: morphology findings in the MO domain and physiology findings in separate domains by body systems.", "figure_ref": null, "candidates": [{"md_atom_id": "md_ch10_a162", "md_file": "knowledge_base/chapters/ch10_appendices.md", "md_atom_type": "SENTENCE", "md_parent_section": "§10.E [Revision History]", "md_verbatim": "When the Morphology domain was introduced in SDTMIG v3.2, the SDS Team planned to represent morphology and physiology findings in separate domains: morphology findings in the MO domain and physiology findings in separate domains by body systems.", "score": 0.9, "match_basis": "verbatim_token+chapter_route:ch10"}, {"md_atom_id": "md_ch10_a166", "md_file": "knowledge_base/chapters/ch10_appendices.md", "md_atom_type": "SENTENCE", "md_parent_section": "§10.E [Revision History]", "md_verbatim": "For data prepared using a version of the SDTMIG that includes both the MO domain and body system-based physiology/morphology domains, morphology findings may be represented in either the MO domain or in a body-system based physiology/morphology domain.", "score": 0.5727, "match_basis": "verbatim_token+chapter_route:ch10"}, {"md_atom_id": "md_ch10_a164", "md_file": "knowledge_base/chapters/ch10_appendices.md", "md_atom_type": "SENTENCE", "md_parent_section": "§10.E [Revision History]", "md_verbatim": "This led to the decision to expand the body system-based domains to cover both morphology and physiology findings and to deprecate MO in SDTMIG v3.4.", "score": 0.5543, "match_basis": "verbatim_token+chapter_route:ch10"}, {"md_atom_id": "md_ch10_a165", "md_file": "knowledge_base/chapters/ch10_appendices.md", "md_atom_type": "SENTENCE", "md_parent_section": "§10.E [Revision History]", "md_verbatim": "Submissions using that later SDTMIG version would represent morphology results in the appropriate body system-based physiology/morphology domain.", "score": 0.5135, "match_basis": "verbatim_token+chapter_route:ch10"}, {"md_atom_id": "md_ch10_a163", "md_file": "knowledge_base/chapters/ch10_appendices.md", "md_atom_type": "SENTENCE", "md_parent_section": "§10.E [Revision History]", "md_verbatim": "Since then, the team found that separating morphology and physiology findings was more difficult than anticipated and provided little added value.", "score": 0.4676, "match_basis": "verbatim_token+chapter_route:ch10"}], "candidate_count": 5, "zero_candidate": false}
{"pdf_atom_id": "ig34_p0452_a021", "pdf_atom_type": "SENTENCE", "pdf_source": "SDTMIG_v3.4", "pdf_page": 452, "pdf_parent_section": "§10.E Appendix E: Revision History", "pdf_verbatim": "Since then, the team found that separating morphology and physiology findings was more difficult than anticipated and provided little added value.", "figure_ref": null, "candidates": [{"md_atom_id": "md_ch10_a163", "md_file": "knowledge_base/chapters/ch10_appendices.md", "md_atom_type": "SENTENCE", "md_parent_section": "§10.E [Revision History]", "md_verbatim": "Since then, the team found that separating morphology and physiology findings was more difficult than anticipated and provided little added value.", "score": 0.9, "match_basis": "verbatim_token+chapter_route:ch10"}, {"md_atom_id": "md_ch10_a162", "md_file": "knowledge_base/chapters/ch10_appendices.md", "md_atom_type": "SENTENCE", "md_parent_section": "§10.E [Revision History]", "md_verbatim": "When the Morphology domain was introduced in SDTMIG v3.2, the SDS Team planned to represent morphology and physiology findings in separate domains: morphology findings in the MO domain and physiology findings in separate domains by body systems.", "score": 0.4676, "match_basis": "verbatim_token+chapter_route:ch10"}, {"md_atom_id": "md_ch10_a166", "md_file": "knowledge_base/chapters/ch10_appendices.md", "md_atom_type": "SENTENCE", "md_parent_section": "§10.E [Revision History]", "md_verbatim": "For data prepared using a version of the SDTMIG that includes both the MO domain and body system-based physiology/morphology domains, morphology findings may be represented in either the MO domain or in a body-system based physiology/morphology domain.", "score": 0.44, "match_basis": "verbatim_token+chapter_route:ch10"}, {"md_atom_id": "md_ch10_a164", "md_file": "knowledge_base/chapters/ch10_appendices.md", "md_atom_type": "SENTENCE", "md_parent_section": "§10.E [Revision History]", "md_verbatim": "This led to the decision to expand the body system-based domains to cover both morphology and physiology findings and to deprecate MO in SDTMIG v3.4.", "score": 0.4168, "match_basis": "verbatim_token+chapter_route:ch10"}, {"md_atom_id": "md_ch10_a165", "md_file": "knowledge_base/chapters/ch10_appendices.md", "md_atom_type": "SENTENCE", "md_parent_section": "§10.E [Revision History]", "md_verbatim": "Submissions using that later SDTMIG version would represent morphology results in the appropriate body system-based physiology/morphology domain.", "score": 0.4016, "match_basis": "verbatim_token+chapter_route:ch10"}], "candidate_count": 5, "zero_candidate": false}
{"pdf_atom_id": "ig34_p0452_a022", "pdf_atom_type": "SENTENCE", "pdf_source": "SDTMIG_v3.4", "pdf_page": 452, "pdf_parent_section": "§10.E Appendix E: Revision History", "pdf_verbatim": "This led to the decision to expand the body system-based domains to cover both morphology and physiology findings and to deprecate MO in SDTMIG v3.4.", "figure_ref": null, "candidates": [{"md_atom_id": "md_ch10_a164", "md_file": "knowledge_base/chapters/ch10_appendices.md", "md_atom_type": "SENTENCE", "md_parent_section": "§10.E [Revision History]", "md_verbatim": "This led to the decision to expand the body system-based domains to cover both morphology and physiology findings and to deprecate MO in SDTMIG v3.4.", "score": 0.9, "match_basis": "verbatim_token+chapter_route:ch10"}, {"md_atom_id": "md_ch10_a166", "md_file": "knowledge_base/chapters/ch10_appendices.md", "md_atom_type": "SENTENCE", "md_parent_section": "§10.E [Revision History]", "md_verbatim": "For data prepared using a version of the SDTMIG that includes both the MO domain and body system-based physiology/morphology domains, morphology findings may be represented in either the MO domain or in a body-system based physiology/morphology domain.", "score": 0.5935, "match_basis": "verbatim_token+chapter_route:ch10"}, {"md_atom_id": "md_ch10_a162", "md_file": "knowledge_base/chapters/ch10_appendices.md", "md_atom_type": "SENTENCE", "md_parent_section": "§10.E [Revision History]", "md_verbatim": "When the Morphology domain was introduced in SDTMIG v3.2, the SDS Team planned to represent morphology and physiology findings in separate domains: morphology findings in the MO domain and physiology findings in separate domains by body systems.", "score": 0.5543, "match_basis": "verbatim_token+chapter_route:ch10"}, {"md_atom_id": "md_ch10_a165", "md_file": "knowledge_base/chapters/ch10_appendices.md", "md_atom_type": "SENTENCE", "md_parent_section": "§10.E [Revision History]", "md_verbatim": "Submissions using that later SDTMIG version would represent morphology results in the appropriate body system-based physiology/morphology domain.", "score": 0.5289, "match_basis": "verbatim_token+chapter_route:ch10"}, {"md_atom_id": "md_ch10_a167", "md_file": "knowledge_base/chapters/ch10_appendices.md", "md_atom_type": "SENTENCE", "md_parent_section": "§10.E [Revision History]", "md_verbatim": "Custom body system-based domains may be used if the appropriate body system-based domain is not included in the SDTMIG version being used.", "score": 0.4655, "match_basis": "verbatim_token+chapter_route:ch10"}], "candidate_count": 5, "zero_candidate": false}
{"pdf_atom_id": "ig34_p0452_a023", "pdf_atom_type": "SENTENCE", "pdf_source": "SDTMIG_v3.4", "pdf_page": 452, "pdf_parent_section": "§10.E Appendix E: Revision History", "pdf_verbatim": "Submissions using that later SDTMIG version would represent morphology results in the appropriate body system-based physiology/morphology domain.", "figure_ref": null, "candidates": [{"md_atom_id": "md_ch10_a165", "md_file": "knowledge_base/chapters/ch10_appendices.md", "md_atom_type": "SENTENCE", "md_parent_section": "§10.E [Revision History]", "md_verbatim": "Submissions using that later SDTMIG version would represent morphology results in the appropriate body system-based physiology/morphology domain.", "score": 0.9, "match_basis": "verbatim_token+chapter_route:ch10"}, {"md_atom_id": "md_ch10_a166", "md_file": "knowledge_base/chapters/ch10_appendices.md", "md_atom_type": "SENTENCE", "md_parent_section": "§10.E [Revision History]", "md_verbatim": "For data prepared using a version of the SDTMIG that includes both the MO domain and body system-based physiology/morphology domains, morphology findings may be represented in either the MO domain or in a body-system based physiology/morphology domain.", "score": 0.582, "match_basis": "verbatim_token+chapter_route:ch10"}, {"md_atom_id": "md_ch10_a164", "md_file": "knowledge_base/chapters/ch10_appendices.md", "md_atom_type": "SENTENCE", "md_parent_section": "§10.E [Revision History]", "md_verbatim": "This led to the decision to expand the body system-based domains to cover both morphology and physiology findings and to deprecate MO in SDTMIG v3.4.", "score": 0.5289, "match_basis": "verbatim_token+chapter_route:ch10"}, {"md_atom_id": "md_ch10_a167", "md_file": "knowledge_base/chapters/ch10_appendices.md", "md_atom_type": "SENTENCE", "md_parent_section": "§10.E [Revision History]", "md_verbatim": "Custom body system-based domains may be used if the appropriate body system-based domain is not included in the SDTMIG version being used.", "score": 0.525, "match_basis": "verbatim_token+chapter_route:ch10"}, {"md_atom_id": "md_ch10_a162", "md_file": "knowledge_base/chapters/ch10_appendices.md", "md_atom_type": "SENTENCE", "md_parent_section": "§10.E [Revision History]", "md_verbatim": "When the Morphology domain was introduced in SDTMIG v3.2, the SDS Team planned to represent morphology and physiology findings in separate domains: morphology findings in the MO domain and physiology findings in separate domains by body systems.", "score": 0.5135, "match_basis": "verbatim_token+chapter_route:ch10"}], "candidate_count": 5, "zero_candidate": false}
{"pdf_atom_id": "ig34_p0452_a024", "pdf_atom_type": "SENTENCE", "pdf_source": "SDTMIG_v3.4", "pdf_page": 452, "pdf_parent_section": "§10.E Appendix E: Revision History", "pdf_verbatim": "For data prepared using a version of the SDTMIG that includes both the MO domain and body system-based physiology/morphology domains, morphology findings may be represented in either the MO domain or in a body-system based physiology/morphology domain.", "figure_ref": null, "candidates": [{"md_atom_id": "md_ch10_a166", "md_file": "knowledge_base/chapters/ch10_appendices.md", "md_atom_type": "SENTENCE", "md_parent_section": "§10.E [Revision History]", "md_verbatim": "For data prepared using a version of the SDTMIG that includes both the MO domain and body system-based physiology/morphology domains, morphology findings may be represented in either the MO domain or in a body-system based physiology/morphology domain.", "score": 0.9, "match_basis": "verbatim_token+chapter_route:ch10"}, {"md_atom_id": "md_ch10_a164", "md_file": "knowledge_base/chapters/ch10_appendices.md", "md_atom_type": "SENTENCE", "md_parent_section": "§10.E [Revision History]", "md_verbatim": "This led to the decision to expand the body system-based domains to cover both morphology and physiology findings and to deprecate MO in SDTMIG v3.4.", "score": 0.5935, "match_basis": "verbatim_token+chapter_route:ch10"}, {"md_atom_id": "md_ch10_a165", "md_file": "knowledge_base/chapters/ch10_appendices.md", "md_atom_type": "SENTENCE", "md_parent_section": "§10.E [Revision History]", "md_verbatim": "Submissions using that later SDTMIG version would represent morphology results in the appropriate body system-based physiology/morphology domain.", "score": 0.582, "match_basis": "verbatim_token+chapter_route:ch10"}, {"md_atom_id": "md_ch10_a162", "md_file": "knowledge_base/chapters/ch10_appendices.md", "md_atom_type": "SENTENCE", "md_parent_section": "§10.E [Revision History]", "md_verbatim": "When the Morphology domain was introduced in SDTMIG v3.2, the SDS Team planned to represent morphology and physiology findings in separate domains: morphology findings in the MO domain and physiology findings in separate domains by body systems.", "score": 0.5727, "match_basis": "verbatim_token+chapter_route:ch10"}, {"md_atom_id": "md_ch10_a167", "md_file": "knowledge_base/chapters/ch10_appendices.md", "md_atom_type": "SENTENCE", "md_parent_section": "§10.E [Revision History]", "md_verbatim": "Custom body system-based domains may be used if the appropriate body system-based domain is not included in the SDTMIG version being used.", "score": 0.5, "match_basis": "verbatim_token+chapter_route:ch10"}], "candidate_count": 5, "zero_candidate": false}
{"pdf_atom_id": "ig34_p0452_a025", "pdf_atom_type": "SENTENCE", "pdf_source": "SDTMIG_v3.4", "pdf_page": 452, "pdf_parent_section": "§10.E Appendix E: Revision History", "pdf_verbatim": "Custom body system-based domains may be used if the appropriate body system-based domain is not included in the SDTMIG version being used.", "figure_ref": null, "candidates": [{"md_atom_id": "md_ch10_a167", "md_file": "knowledge_base/chapters/ch10_appendices.md", "md_atom_type": "SENTENCE", "md_parent_section": "§10.E [Revision History]", "md_verbatim": "Custom body system-based domains may be used if the appropriate body system-based domain is not included in the SDTMIG version being used.", "score": 0.9, "match_basis": "verbatim_token+chapter_route:ch10"}, {"md_atom_id": "md_ch10_a165", "md_file": "knowledge_base/chapters/ch10_appendices.md", "md_atom_type": "SENTENCE", "md_parent_section": "§10.E [Revision History]", "md_verbatim": "Submissions using that later SDTMIG version would represent morphology results in the appropriate body system-based physiology/morphology domain.", "score": 0.525, "match_basis": "verbatim_token+chapter_route:ch10"}, {"md_atom_id": "md_ch10_a166", "md_file": "knowledge_base/chapters/ch10_appendices.md", "md_atom_type": "SENTENCE", "md_parent_section": "§10.E [Revision History]", "md_verbatim": "For data prepared using a version of the SDTMIG that includes both the MO domain and body system-based physiology/morphology domains, morphology findings may be represented in either the MO domain or in a body-system based physiology/morphology domain.", "score": 0.5, "match_basis": "verbatim_token+chapter_route:ch10"}, {"md_atom_id": "md_ch10_a164", "md_file": "knowledge_base/chapters/ch10_appendices.md", "md_atom_type": "SENTENCE", "md_parent_section": "§10.E [Revision History]", "md_verbatim": "This led to the decision to expand the body system-based domains to cover both morphology and physiology findings and to deprecate MO in SDTMIG v3.4.", "score": 0.4655, "match_basis": "verbatim_token+chapter_route:ch10"}, {"md_atom_id": "md_ch10_a137", "md_file": "knowledge_base/chapters/ch10_appendices.md", "md_atom_type": "SENTENCE", "md_parent_section": "§10.E [Revision History]", "md_verbatim": "This appendix provides an overview only of revisions since the last production version, SDTMIG v3.3; not all revisions are included.", "score": 0.4341, "match_basis": "verbatim_token+chapter_route:ch10"}], "candidate_count": 5, "zero_candidate": false}
{"pdf_atom_id": "ig34_p0453_a001", "pdf_atom_type": "HEADING", "pdf_source": "SDTMIG_v3.4", "pdf_page": 453, "pdf_parent_section": "§10.E Appendix E: Revision History", "pdf_verbatim": "New Domains for SDTMIG v3.4", "figure_ref": null, "candidates": [{"md_atom_id": "md_ch10_a152", "md_file": "knowledge_base/chapters/ch10_appendices.md", "md_atom_type": "HEADING", "md_parent_section": "§10.E [Revision History]", "md_verbatim": "### New Domains for SDTMIG v3.4", "score": 0.9, "match_basis": "verbatim_token+chapter_route:ch10"}, {"md_atom_id": "md_ch10_a001", "md_file": "knowledge_base/chapters/ch10_appendices.md", "md_atom_type": "HEADING", "md_parent_section": "§10 [Appendices]", "md_verbatim": "# SDTMIG v3.4 — Chapter 10: Appendices", "score": 0.4, "match_basis": "verbatim_token+chapter_route:ch10"}, {"md_atom_id": "md_ch10_a069", "md_file": "knowledge_base/chapters/ch10_appendices.md", "md_atom_type": "HEADING", "md_parent_section": "§10.D [CDISC Variable-naming Fragments]", "md_verbatim": "### Rules for Using Fragments", "score": 0.325, "match_basis": "verbatim_token+chapter_route:ch10"}, {"md_atom_id": "md_ch10_a003", "md_file": "knowledge_base/chapters/ch10_appendices.md", "md_atom_type": "HEADING", "md_parent_section": "§10 [Appendices]", "md_verbatim": "## Appendix A: CDISC SDS Team", "score": 0.3, "match_basis": "verbatim_token+chapter_route:ch10"}, {"md_atom_id": "md_ch10_a009", "md_file": "knowledge_base/chapters/ch10_appendices.md", "md_atom_type": "HEADING", "md_parent_section": "§10 [Appendices]", "md_verbatim": "## Appendix B: Glossary and Abbreviations", "score": 0.3, "match_basis": "verbatim_token+chapter_route:ch10"}], "candidate_count": 5, "zero_candidate": false}
{"pdf_atom_id": "ig34_p0453_a002", "pdf_atom_type": "TABLE_HEADER", "pdf_source": "SDTMIG_v3.4", "pdf_page": 453, "pdf_parent_section": "§10.E Appendix E: Revision History", "pdf_verbatim": "Domain | Domain Abbreviation", "figure_ref": null, "candidates": [{"md_atom_id": "md_ch10_a012", "md_file": "knowledge_base/chapters/ch10_appendices.md", "md_atom_type": "TABLE_HEADER", "md_parent_section": "§10.B [Glossary and Abbreviations]", "md_verbatim": "| Abbreviation | Full Term |\n|-------------|-----------|", "score": 0.6333, "match_basis": "verbatim_token+chapter_route:ch10"}, {"md_atom_id": "md_ch10_a153", "md_file": "knowledge_base/chapters/ch10_appendices.md", "md_atom_type": "TABLE_HEADER", "md_parent_section": "§10.E [Revision History]", "md_verbatim": "| Domain | Description |\n|--------|-------------|", "score": 0.4714, "match_basis": "verbatim_token+chapter_route:ch10"}, {"md_atom_id": "md_ch10_a063", "md_file": "knowledge_base/chapters/ch10_appendices.md", "md_atom_type": "TABLE_HEADER", "md_parent_section": "§10.C [Controlled Terminology]", "md_verbatim": "| QNAM | QLABEL | Applicable Domains |\n|------|--------|--------------------|", "score": 0.3828, "match_basis": "verbatim_token+chapter_route:ch10"}, {"md_atom_id": "md_ch10_a182", "md_file": "knowledge_base/chapters/ch10_appendices.md", "md_atom_type": "TABLE_ROW", "md_parent_section": "§10.E [Revision History]", "md_verbatim": "| **Section 4. Assumptions for Domain Models** | | |", "score": 0.3641, "match_basis": "verbatim_token+chapter_route:ch10"}, {"md_atom_id": "md_ch10_a187", "md_file": "knowledge_base/chapters/ch10_appendices.md", "md_atom_type": "TABLE_ROW", "md_parent_section": "§10.E [Revision History]", "md_verbatim": "| **Section 5. Models for Special-purpose Domains** | | |", "score": 0.3491, "match_basis": "verbatim_token+chapter_route:ch10"}], "candidate_count": 5, "zero_candidate": false}
{"pdf_atom_id": "ig34_p0453_a003", "pdf_atom_type": "TABLE_ROW", "pdf_source": "SDTMIG_v3.4", "pdf_page": 453, "pdf_parent_section": "§10.E Appendix E: Revision History", "pdf_verbatim": "Biospecimen Events | BE", "figure_ref": null, "candidates": [{"md_atom_id": "md_ch10_a154", "md_file": "knowledge_base/chapters/ch10_appendices.md", "md_atom_type": "TABLE_ROW", "md_parent_section": "§10.E [Revision History]", "md_verbatim": "| BE | Biospecimen Events |", "score": 0.9, "match_basis": "verbatim_token+chapter_route:ch10"}, {"md_atom_id": "md_ch10_a155", "md_file": "knowledge_base/chapters/ch10_appendices.md", "md_atom_type": "TABLE_ROW", "md_parent_section": "§10.E [Revision History]", "md_verbatim": "| BS | Biospecimen Findings |", "score": 0.5842, "match_basis": "verbatim_token+chapter_route:ch10"}, {"md_atom_id": "md_ch10_a111", "md_file": "knowledge_base/chapters/ch10_appendices.md", "md_atom_type": "TABLE_ROW", "md_parent_section": "§10.D [CDISC Variable-naming Fragments]", "md_verbatim": "| FLAG | FL | | SPECIMEN | SPEC, SPC |", "score": 0.525, "match_basis": "verbatim_token+chapter_route:ch10"}, {"md_atom_id": "md_ch10_a158", "md_file": "knowledge_base/chapters/ch10_appendices.md", "md_atom_type": "TABLE_ROW", "md_parent_section": "§10.E [Revision History]", "md_verbatim": "| RELSPEC | Related Specimens |", "score": 0.4714, "match_basis": "verbatim_token+chapter_route:ch10"}, {"md_atom_id": "md_ch10_a201", "md_file": "knowledge_base/chapters/ch10_appendices.md", "md_atom_type": "TABLE_ROW", "md_parent_section": "§10.E [Revision History]", "md_verbatim": "| 6.2.2 | Biospecimen Events (BE) | Specification, assumptions, and examples copied from SDTMIG-PGx (published 2015-05-26); BETERM and BEDECOD updated; PF updated to GF; to be deprecated with publication of SDTMIG v3.4 |", "score": 0.4013, "match_basis": "verbatim_token+chapter_route:ch10"}], "candidate_count": 5, "zero_candidate": false}
{"pdf_atom_id": "ig34_p0453_a004", "pdf_atom_type": "TABLE_ROW", "pdf_source": "SDTMIG_v3.4", "pdf_page": 453, "pdf_parent_section": "§10.E Appendix E: Revision History", "pdf_verbatim": "Biospecimen Findings | BS", "figure_ref": null, "candidates": [{"md_atom_id": "md_ch10_a155", "md_file": "knowledge_base/chapters/ch10_appendices.md", "md_atom_type": "TABLE_ROW", "md_parent_section": "§10.E [Revision History]", "md_verbatim": "| BS | Biospecimen Findings |", "score": 0.9, "match_basis": "verbatim_token+chapter_route:ch10"}, {"md_atom_id": "md_ch10_a154", "md_file": "knowledge_base/chapters/ch10_appendices.md", "md_atom_type": "TABLE_ROW", "md_parent_section": "§10.E [Revision History]", "md_verbatim": "| BE | Biospecimen Events |", "score": 0.5842, "match_basis": "verbatim_token+chapter_route:ch10"}, {"md_atom_id": "md_ch10_a111", "md_file": "knowledge_base/chapters/ch10_appendices.md", "md_atom_type": "TABLE_ROW", "md_parent_section": "§10.D [CDISC Variable-naming Fragments]", "md_verbatim": "| FLAG | FL | | SPECIMEN | SPEC, SPC |", "score": 0.5, "match_basis": "verbatim_token+chapter_route:ch10"}, {"md_atom_id": "md_ch10_a157", "md_file": "knowledge_base/chapters/ch10_appendices.md", "md_atom_type": "TABLE_ROW", "md_parent_section": "§10.E [Revision History]", "md_verbatim": "| GF | Genomics Findings |", "score": 0.4714, "match_basis": "verbatim_token+chapter_route:ch10"}, {"md_atom_id": "md_ch10_a158", "md_file": "knowledge_base/chapters/ch10_appendices.md", "md_atom_type": "TABLE_ROW", "md_parent_section": "§10.E [Revision History]", "md_verbatim": "| RELSPEC | Related Specimens |", "score": 0.4565, "match_basis": "verbatim_token+chapter_route:ch10"}], "candidate_count": 5, "zero_candidate": false}
{"pdf_atom_id": "ig34_p0453_a005", "pdf_atom_type": "TABLE_ROW", "pdf_source": "SDTMIG_v3.4", "pdf_page": 453, "pdf_parent_section": "§10.E Appendix E: Revision History", "pdf_verbatim": "Cell Phenotyping Findings | CP", "figure_ref": null, "candidates": [{"md_atom_id": "md_ch10_a156", "md_file": "knowledge_base/chapters/ch10_appendices.md", "md_atom_type": "TABLE_ROW", "md_parent_section": "§10.E [Revision History]", "md_verbatim": "| CP | Cell Phenotyping Findings |", "score": 0.9, "match_basis": "verbatim_token+chapter_route:ch10"}, {"md_atom_id": "md_ch10_a214", "md_file": "knowledge_base/chapters/ch10_appendices.md", "md_atom_type": "TABLE_ROW", "md_parent_section": "§10.E [Revision History]", "md_verbatim": "| 6.3.5.3 | Cell Phenotype Findings (CP) | This is a new domain |", "score": 0.65, "match_basis": "verbatim_token+chapter_route:ch10"}, {"md_atom_id": "md_ch10_a157", "md_file": "knowledge_base/chapters/ch10_appendices.md", "md_atom_type": "TABLE_ROW", "md_parent_section": "§10.E [Revision History]", "md_verbatim": "| GF | Genomics Findings |", "score": 0.5, "match_basis": "verbatim_token+chapter_route:ch10"}, {"md_atom_id": "md_ch10_a155", "md_file": "knowledge_base/chapters/ch10_appendices.md", "md_atom_type": "TABLE_ROW", "md_parent_section": "§10.E [Revision History]", "md_verbatim": "| BS | Biospecimen Findings |", "score": 0.444, "match_basis": "verbatim_token+chapter_route:ch10"}, {"md_atom_id": "md_ch10_a215", "md_file": "knowledge_base/chapters/ch10_appendices.md", "md_atom_type": "TABLE_ROW", "md_parent_section": "§10.E [Revision History]", "md_verbatim": "| 6.3.5.4 | Genomics Findings (GF) | New domain replacing the PF domain from the provisional SDTMIG-PGx; to be deprecated with publication of SDTMIG v3.4 |", "score": 0.3636, "match_basis": "verbatim_token+chapter_route:ch10"}], "candidate_count": 5, "zero_candidate": false}
{"pdf_atom_id": "ig34_p0453_a006", "pdf_atom_type": "TABLE_ROW", "pdf_source": "SDTMIG_v3.4", "pdf_page": 453, "pdf_parent_section": "§10.E Appendix E: Revision History", "pdf_verbatim": "Genomics Findings | GF", "figure_ref": null, "candidates": [{"md_atom_id": "md_ch10_a157", "md_file": "knowledge_base/chapters/ch10_appendices.md", "md_atom_type": "TABLE_ROW", "md_parent_section": "§10.E [Revision History]", "md_verbatim": "| GF | Genomics Findings |", "score": 0.9, "match_basis": "verbatim_token+chapter_route:ch10"}, {"md_atom_id": "md_ch10_a156", "md_file": "knowledge_base/chapters/ch10_appendices.md", "md_atom_type": "TABLE_ROW", "md_parent_section": "§10.E [Revision History]", "md_verbatim": "| CP | Cell Phenotyping Findings |", "score": 0.5, "match_basis": "verbatim_token+chapter_route:ch10"}, {"md_atom_id": "md_ch10_a155", "md_file": "knowledge_base/chapters/ch10_appendices.md", "md_atom_type": "TABLE_ROW", "md_parent_section": "§10.E [Revision History]", "md_verbatim": "| BS | Biospecimen Findings |", "score": 0.4714, "match_basis": "verbatim_token+chapter_route:ch10"}, {"md_atom_id": "md_ch10_a214", "md_file": "knowledge_base/chapters/ch10_appendices.md", "md_atom_type": "TABLE_ROW", "md_parent_section": "§10.E [Revision History]", "md_verbatim": "| 6.3.5.3 | Cell Phenotype Findings (CP) | This is a new domain |", "score": 0.4556, "match_basis": "verbatim_token+chapter_route:ch10"}, {"md_atom_id": "md_ch10_a215", "md_file": "knowledge_base/chapters/ch10_appendices.md", "md_atom_type": "TABLE_ROW", "md_parent_section": "§10.E [Revision History]", "md_verbatim": "| 6.3.5.4 | Genomics Findings (GF) | New domain replacing the PF domain from the provisional SDTMIG-PGx; to be deprecated with publication of SDTMIG v3.4 |", "score": 0.4263, "match_basis": "verbatim_token+chapter_route:ch10"}], "candidate_count": 5, "zero_candidate": false}
{"pdf_atom_id": "ig34_p0453_a007", "pdf_atom_type": "TABLE_ROW", "pdf_source": "SDTMIG_v3.4", "pdf_page": 453, "pdf_parent_section": "§10.E Appendix E: Revision History", "pdf_verbatim": "Related Specimens | RELSPEC", "figure_ref": null, "candidates": [{"md_atom_id": "md_ch10_a158", "md_file": "knowledge_base/chapters/ch10_appendices.md", "md_atom_type": "TABLE_ROW", "md_parent_section": "§10.E [Revision History]", "md_verbatim": "| RELSPEC | Related Specimens |", "score": 0.9, "match_basis": "verbatim_token+chapter_route:ch10"}, {"md_atom_id": "md_ch10_a111", "md_file": "knowledge_base/chapters/ch10_appendices.md", "md_atom_type": "TABLE_ROW", "md_parent_section": "§10.D [CDISC Variable-naming Fragments]", "md_verbatim": "| FLAG | FL | | SPECIMEN | SPEC, SPC |", "score": 0.5118, "match_basis": "verbatim_token+chapter_route:ch10"}, {"md_atom_id": "md_ch10_a154", "md_file": "knowledge_base/chapters/ch10_appendices.md", "md_atom_type": "TABLE_ROW", "md_parent_section": "§10.E [Revision History]", "md_verbatim": "| BE | Biospecimen Events |", "score": 0.4714, "match_basis": "verbatim_token+chapter_route:ch10"}, {"md_atom_id": "md_ch10_a155", "md_file": "knowledge_base/chapters/ch10_appendices.md", "md_atom_type": "TABLE_ROW", "md_parent_section": "§10.E [Revision History]", "md_verbatim": "| BS | Biospecimen Findings |", "score": 0.4565, "match_basis": "verbatim_token+chapter_route:ch10"}, {"md_atom_id": "md_ch10_a103", "md_file": "knowledge_base/chapters/ch10_appendices.md", "md_atom_type": "TABLE_ROW", "md_parent_section": "§10.D [CDISC Variable-naming Fragments]", "md_verbatim": "| EMERGENT | EM | | RELATED | REL, R |", "score": 0.45, "match_basis": "verbatim_token+chapter_route:ch10"}], "candidate_count": 5, "zero_candidate": false}
{"pdf_atom_id": "ig34_p0453_a008", "pdf_atom_type": "SENTENCE", "pdf_source": "SDTMIG_v3.4", "pdf_page": 453, "pdf_parent_section": "§10.E Appendix E: Revision History", "pdf_verbatim": "In addition to the general changes described above, the following table provides an overview of changes by section.", "figure_ref": null, "candidates": [{"md_atom_id": "md_ch10_a169", "md_file": "knowledge_base/chapters/ch10_appendices.md", "md_atom_type": "SENTENCE", "md_parent_section": "§10.E [Revision History]", "md_verbatim": "In addition to the general changes described above, the following table provides an overview of changes by section.", "score": 0.9, "match_basis": "verbatim_token+chapter_route:ch10"}, {"md_atom_id": "md_ch10_a137", "md_file": "knowledge_base/chapters/ch10_appendices.md", "md_atom_type": "SENTENCE", "md_parent_section": "§10.E [Revision History]", "md_verbatim": "This appendix provides an overview only of revisions since the last production version, SDTMIG v3.3; not all revisions are included.", "score": 0.4079, "match_basis": "verbatim_token+chapter_route:ch10"}, {"md_atom_id": "md_ch10_a010", "md_file": "knowledge_base/chapters/ch10_appendices.md", "md_atom_type": "SENTENCE", "md_parent_section": "§10.B [Glossary and Abbreviations]", "md_verbatim": "The following table lists some of the abbreviations and terms are used in this document.", "score": 0.3987, "match_basis": "verbatim_token+chapter_route:ch10"}, {"md_atom_id": "md_ch10_a160", "md_file": "knowledge_base/chapters/ch10_appendices.md", "md_atom_type": "SENTENCE", "md_parent_section": "§10.E [Revision History]", "md_verbatim": "The following domain was removed:", "score": 0.3915, "match_basis": "verbatim_token+chapter_route:ch10"}, {"md_atom_id": "md_ch10_a011", "md_file": "knowledge_base/chapters/ch10_appendices.md", "md_atom_type": "SENTENCE", "md_parent_section": "§10.B [Glossary and Abbreviations]", "md_verbatim": "Additional definitions can be found in the individual sections of this document (see esp. Section 7.1.2, Definitions of Trial Design Concepts) and in the CDISC Glossary (available at https://www.cdisc.org/standards/glossary).", "score": 0.3718, "match_basis": "verbatim_token+chapter_route:ch10"}], "candidate_count": 5, "zero_candidate": false}
{"pdf_atom_id": "ig34_p0453_a009", "pdf_atom_type": "TABLE_HEADER", "pdf_source": "SDTMIG_v3.4", "pdf_page": 453, "pdf_parent_section": "§10.E Appendix E: Revision History", "pdf_verbatim": "Section Number | Section Name | Change(s)", "figure_ref": null, "candidates": [{"md_atom_id": "md_ch10_a170", "md_file": "knowledge_base/chapters/ch10_appendices.md", "md_atom_type": "TABLE_HEADER", "md_parent_section": "§10.E [Revision History]", "md_verbatim": "| Section Number | Section Name | Change(s) |\n|---------------|--------------|-----------|", "score": 0.9, "match_basis": "verbatim_token+chapter_route:ch10"}, {"md_atom_id": "md_ch10_a168", "md_file": "knowledge_base/chapters/ch10_appendices.md", "md_atom_type": "HEADING", "md_parent_section": "§10.E [Revision History]", "md_verbatim": "### Key Section-by-Section Changes", "score": 0.4376, "match_basis": "verbatim_token+chapter_route:ch10"}, {"md_atom_id": "md_ch10_a171", "md_file": "knowledge_base/chapters/ch10_appendices.md", "md_atom_type": "TABLE_ROW", "md_parent_section": "§10.E [Revision History]", "md_verbatim": "| **Section 1. Introduction** | | |", "score": 0.3764, "match_basis": "verbatim_token+chapter_route:ch10"}, {"md_atom_id": "md_ch10_a085", "md_file": "knowledge_base/chapters/ch10_appendices.md", "md_atom_type": "TABLE_ROW", "md_parent_section": "§10.D [CDISC Variable-naming Fragments]", "md_verbatim": "| CLASS | CLAS | | NUMBER | NUM |", "score": 0.3733, "match_basis": "verbatim_token+chapter_route:ch10"}, {"md_atom_id": "md_ch10_a173", "md_file": "knowledge_base/chapters/ch10_appendices.md", "md_atom_type": "TABLE_ROW", "md_parent_section": "§10.E [Revision History]", "md_verbatim": "| **Section 2. Fundamentals of the SDTM** | | |", "score": 0.3733, "match_basis": "verbatim_token+chapter_route:ch10"}], "candidate_count": 5, "zero_candidate": false}
{"pdf_atom_id": "ig34_p0453_a010", "pdf_atom_type": "TABLE_ROW", "pdf_source": "SDTMIG_v3.4", "pdf_page": 453, "pdf_parent_section": "§10.E Appendix E: Revision History", "pdf_verbatim": "Section 1. Introduction | |", "figure_ref": null, "candidates": [{"md_atom_id": "md_ch10_a171", "md_file": "knowledge_base/chapters/ch10_appendices.md", "md_atom_type": "TABLE_ROW", "md_parent_section": "§10.E [Revision History]", "md_verbatim": "| **Section 1. Introduction** | | |", "score": 0.9, "match_basis": "verbatim_token+chapter_route:ch10"}, {"md_atom_id": "md_ch10_a238", "md_file": "knowledge_base/chapters/ch10_appendices.md", "md_atom_type": "TABLE_ROW", "md_parent_section": "§10.E [Revision History]", "md_verbatim": "| **Section 9. Study References** | | |", "score": 0.4304, "match_basis": "verbatim_token+chapter_route:ch10"}, {"md_atom_id": "md_ch10_a173", "md_file": "knowledge_base/chapters/ch10_appendices.md", "md_atom_type": "TABLE_ROW", "md_parent_section": "§10.E [Revision History]", "md_verbatim": "| **Section 2. Fundamentals of the SDTM** | | |", "score": 0.42, "match_basis": "verbatim_token+chapter_route:ch10"}, {"md_atom_id": "md_ch10_a182", "md_file": "knowledge_base/chapters/ch10_appendices.md", "md_atom_type": "TABLE_ROW", "md_parent_section": "§10.E [Revision History]", "md_verbatim": "| **Section 4. Assumptions for Domain Models** | | |", "score": 0.4071, "match_basis": "verbatim_token+chapter_route:ch10"}, {"md_atom_id": "md_ch10_a223", "md_file": "knowledge_base/chapters/ch10_appendices.md", "md_atom_type": "TABLE_ROW", "md_parent_section": "§10.E [Revision History]", "md_verbatim": "| **Section 7. Trial Design Model Datasets** | | |", "score": 0.4071, "match_basis": "verbatim_token+chapter_route:ch10"}], "candidate_count": 5, "zero_candidate": false}
{"pdf_atom_id": "ig34_p0453_a011", "pdf_atom_type": "TABLE_ROW", "pdf_source": "SDTMIG_v3.4", "pdf_page": 453, "pdf_parent_section": "§10.E Appendix E: Revision History", "pdf_verbatim": "1.3 | Relationship to Prior CDISC Documents | Rather than referring to all of the sections with significant changes, some of the more significant changes since SDTMIG v3.3 are highlighted in a bulleted list.", "figure_ref": null, "candidates": [{"md_atom_id": "md_ch10_a172", "md_file": "knowledge_base/chapters/ch10_appendices.md", "md_atom_type": "TABLE_ROW", "md_parent_section": "§10.E [Revision History]", "md_verbatim": "| 1.3 | Relationship to Prior CDISC Documents | Rather than referring to all sections with significant changes, some of the more significant changes since SDTMIG v3.3 are highlighted in a bulleted list |", "score": 0.9, "match_basis": "verbatim_token+chapter_route:ch10"}, {"md_atom_id": "md_ch10_a232", "md_file": "knowledge_base/chapters/ch10_appendices.md", "md_atom_type": "TABLE_ROW", "md_parent_section": "§10.E [Revision History]", "md_verbatim": "| 8 | Representing Relationships and Data | Section 8.8 (Related Specimens) added due to BE, BS, and RELSPEC being copied in from SDTMIG-PGx, originally published 2015-05-26, to be deprecated with the publication of SDTMIG v3.4 |", "score": 0.4191, "match_basis": "verbatim_token+chapter_route:ch10"}, {"md_atom_id": "md_ch10_a237", "md_file": "knowledge_base/chapters/ch10_appendices.md", "md_atom_type": "TABLE_ROW", "md_parent_section": "§10.E [Revision History]", "md_verbatim": "| 8.8 | Related Specimens (RELSPEC) | This section was added to SDTMIG v3.4 in preparation for the eventual retirement of the SDTMIG-PGx, originally published 2015-05-26, to be deprecated with the publication of SDTMIG v3.4 |", "score": 0.4015, "match_basis": "verbatim_token+chapter_route:ch10"}, {"md_atom_id": "md_ch10_a239", "md_file": "knowledge_base/chapters/ch10_appendices.md", "md_atom_type": "TABLE_ROW", "md_parent_section": "§10.E [Revision History]", "md_verbatim": "| 9 | Study References | Removed \"Identifiers for pharmacogenomic/genetic biomarkers\" from the list; deleted Section 9.3 PB as it was part of SDTMIG-PGx (originally published 2015-05-26, to be deprecated with the publication of SDTMIG v3.4) |", "score": 0.3994, "match_basis": "verbatim_token+chapter_route:ch10"}, {"md_atom_id": "md_ch10_a231", "md_file": "knowledge_base/chapters/ch10_appendices.md", "md_atom_type": "TABLE_ROW", "md_parent_section": "§10.E [Revision History]", "md_verbatim": "| **Section 8. Representing Relationships and Data** | | |", "score": 0.3957, "match_basis": "verbatim_token+chapter_route:ch10"}], "candidate_count": 5, "zero_candidate": false}
{"pdf_atom_id": "ig34_p0453_a012", "pdf_atom_type": "TABLE_ROW", "pdf_source": "SDTMIG_v3.4", "pdf_page": 453, "pdf_parent_section": "§10.E Appendix E: Revision History", "pdf_verbatim": "Section 2. Fundamentals of the SDTM | |", "figure_ref": null, "candidates": [{"md_atom_id": "md_ch10_a173", "md_file": "knowledge_base/chapters/ch10_appendices.md", "md_atom_type": "TABLE_ROW", "md_parent_section": "§10.E [Revision History]", "md_verbatim": "| **Section 2. Fundamentals of the SDTM** | | |", "score": 0.9, "match_basis": "verbatim_token+chapter_route:ch10"}, {"md_atom_id": "md_ch10_a171", "md_file": "knowledge_base/chapters/ch10_appendices.md", "md_atom_type": "TABLE_ROW", "md_parent_section": "§10.E [Revision History]", "md_verbatim": "| **Section 1. Introduction** | | |", "score": 0.42, "match_basis": "verbatim_token+chapter_route:ch10"}, {"md_atom_id": "md_ch10_a238", "md_file": "knowledge_base/chapters/ch10_appendices.md", "md_atom_type": "TABLE_ROW", "md_parent_section": "§10.E [Revision History]", "md_verbatim": "| **Section 9. Study References** | | |", "score": 0.4034, "match_basis": "verbatim_token+chapter_route:ch10"}, {"md_atom_id": "md_ch10_a178", "md_file": "knowledge_base/chapters/ch10_appendices.md", "md_atom_type": "TABLE_ROW", "md_parent_section": "§10.E [Revision History]", "md_verbatim": "| **Section 3. Submitting Data in a Standard Format** | | |", "score": 0.3973, "match_basis": "verbatim_token+chapter_route:ch10"}, {"md_atom_id": "md_ch10_a231", "md_file": "knowledge_base/chapters/ch10_appendices.md", "md_atom_type": "TABLE_ROW", "md_parent_section": "§10.E [Revision History]", "md_verbatim": "| **Section 8. Representing Relationships and Data** | | |", "score": 0.3923, "match_basis": "verbatim_token+chapter_route:ch10"}], "candidate_count": 5, "zero_candidate": false}
{"pdf_atom_id": "ig34_p0453_a013", "pdf_atom_type": "TABLE_ROW", "pdf_source": "SDTMIG_v3.4", "pdf_page": 453, "pdf_parent_section": "§10.E Appendix E: Revision History", "pdf_verbatim": "2.1 | Observations and Variables | Revised definition for Rule Variables.", "figure_ref": null, "candidates": [{"md_atom_id": "md_ch10_a174", "md_file": "knowledge_base/chapters/ch10_appendices.md", "md_atom_type": "TABLE_ROW", "md_parent_section": "§10.E [Revision History]", "md_verbatim": "| 2.1 | Observations and Variables | Revised definition for Rule Variables |", "score": 0.9, "match_basis": "verbatim_token+chapter_route:ch10"}, {"md_atom_id": "md_ch10_a202", "md_file": "knowledge_base/chapters/ch10_appendices.md", "md_atom_type": "TABLE_ROW", "md_parent_section": "§10.E [Revision History]", "md_verbatim": "| 6.2.3 | Clinical Events (CE) | Added permissible variable CETOXGR; added fracture events example; Examples 1 and 2 revised for clarity |", "score": 0.425, "match_basis": "verbatim_token+chapter_route:ch10"}, {"md_atom_id": "md_ch10_a227", "md_file": "knowledge_base/chapters/ch10_appendices.md", "md_atom_type": "TABLE_ROW", "md_parent_section": "§10.E [Revision History]", "md_verbatim": "| 7.3.3 | Trial Disease Milestones (TM) | Role of TMDEF changed from \"Rule\" to \"Variable Qualifier\" for consistency with clarification of the Rule role in SDTM |", "score": 0.4171, "match_basis": "verbatim_token+chapter_route:ch10"}, {"md_atom_id": "md_ch10_a134", "md_file": "knowledge_base/chapters/ch10_appendices.md", "md_atom_type": "TABLE_ROW", "md_parent_section": "§10.D [CDISC Variable-naming Fragments]", "md_verbatim": "| | | | VARIABLE | VAR |", "score": 0.4125, "match_basis": "verbatim_token+chapter_route:ch10"}, {"md_atom_id": "md_ch10_a035", "md_file": "knowledge_base/chapters/ch10_appendices.md", "md_atom_type": "TABLE_ROW", "md_parent_section": "§10.B [Glossary and Abbreviations]", "md_verbatim": "| LOINC | Logical Observation, Identifiers, Names, and Codes |", "score": 0.4091, "match_basis": "verbatim_token+chapter_route:ch10"}], "candidate_count": 5, "zero_candidate": false}
{"pdf_atom_id": "ig34_p0453_a014", "pdf_atom_type": "TABLE_ROW", "pdf_source": "SDTMIG_v3.4", "pdf_page": 453, "pdf_parent_section": "§10.E Appendix E: Revision History", "pdf_verbatim": "2.5 | The SDTM Standard Domain Models | Domain-specific versioning, introduced in SDTMIG v3.3, was removed. The text in this section describing domain versions was removed. Domain version numbers were also removed for each domain. Removed sentence that referred to the FDA repository. Added reference to the Define-XML standard for details on no data availability.", "figure_ref": null, "candidates": [{"md_atom_id": "md_ch10_a175", "md_file": "knowledge_base/chapters/ch10_appendices.md", "md_atom_type": "TABLE_ROW", "md_parent_section": "§10.E [Revision History]", "md_verbatim": "| 2.5 | The SDTM Standard Domain Models | Domain-specific versioning (introduced in SDTMIG v3.3) removed; domain version numbers removed for each domain; removed sentence referring to FDA repository; added reference to Define-XML standard for details on no data availability |", "score": 0.7742, "match_basis": "verbatim_token+chapter_route:ch10"}, {"md_atom_id": "md_ch10_a179", "md_file": "knowledge_base/chapters/ch10_appendices.md", "md_atom_type": "TABLE_ROW", "md_parent_section": "§10.E [Revision History]", "md_verbatim": "| 3.2 | Using the CDISC Domain Models in Regulatory Submissions — Dataset Metadata | Removed paragraph about empty datasets for small PK studies per MSG v2.0 and Define-XML v2.1 standard |", "score": 0.4243, "match_basis": "verbatim_token+chapter_route:ch10"}, {"md_atom_id": "md_ch10_a188", "md_file": "knowledge_base/chapters/ch10_appendices.md", "md_atom_type": "TABLE_ROW", "md_parent_section": "§10.E [Revision History]", "md_verbatim": "| 5 | Models for Special-purpose Domains | All SDTMIG v3.4 metadata specifications updated to reflect ISO 8601 granularity |", "score": 0.413, "match_basis": "verbatim_token+chapter_route:ch10"}, {"md_atom_id": "md_ch10_a180", "md_file": "knowledge_base/chapters/ch10_appendices.md", "md_atom_type": "TABLE_ROW", "md_parent_section": "§10.E [Revision History]", "md_verbatim": "| 3.2.1 | Dataset-level Metadata | Changes to SDTMIG Content Control appear in this table; new domains added and MO removed |", "score": 0.4095, "match_basis": "verbatim_token+chapter_route:ch10"}, {"md_atom_id": "md_ch10_a242", "md_file": "knowledge_base/chapters/ch10_appendices.md", "md_atom_type": "TABLE_ROW", "md_parent_section": "§10.E [Revision History]", "md_verbatim": "| Appendix C | Controlled Terminology | Appendix C1 Trial Summary Codes has been removed from SDTMIG v3.4; TS Assumptions were updated to reference CDISC controlled terminology, CDISC TS codetable, and recipient (regulatory agency) implementation expectations; removed --CLSIG due to promotion as a Findings variable; added --REASOC; all references to Appendix C2 in the SDTMIG were changed to Appendix C1 |", "score": 0.4076, "match_basis": "verbatim_token+chapter_route:ch10"}], "candidate_count": 5, "zero_candidate": false}
{"pdf_atom_id": "ig34_p0453_a015", "pdf_atom_type": "TABLE_ROW", "pdf_source": "SDTMIG_v3.4", "pdf_page": 453, "pdf_parent_section": "§10.E Appendix E: Revision History", "pdf_verbatim": "2.6 | Creating a New Domain | SA was added to bullet 3e to reserve the domain code for CDASH. SQ was also added as it occurs in the SDTMIG-AP.", "figure_ref": null, "candidates": [{"md_atom_id": "md_ch10_a176", "md_file": "knowledge_base/chapters/ch10_appendices.md", "md_atom_type": "TABLE_ROW", "md_parent_section": "§10.E [Revision History]", "md_verbatim": "| 2.6 | Creating a New Domain | SA added to bullet 3e to reserve the domain code for CDASH; SQ also added as it occurs in the SDTMIG-AP |", "score": 0.8854, "match_basis": "verbatim_token+chapter_route:ch10"}, {"md_atom_id": "md_ch10_a209", "md_file": "knowledge_base/chapters/ch10_appendices.md", "md_atom_type": "TABLE_ROW", "md_parent_section": "§10.E [Revision History]", "md_verbatim": "| 6.3.2 | Death Details (DD) | Added assumption 4 referencing the domain codetable |", "score": 0.4075, "match_basis": "verbatim_token+chapter_route:ch10"}, {"md_atom_id": "md_ch10_a218", "md_file": "knowledge_base/chapters/ch10_appendices.md", "md_atom_type": "TABLE_ROW", "md_parent_section": "§10.E [Revision History]", "md_verbatim": "| 6.4 | Findings About Events or Interventions | Added \"Events or Interventions\" to the FA domain name; added assumption 4a referencing the CV codetable |", "score": 0.3963, "match_basis": "verbatim_token+chapter_route:ch10"}, {"md_atom_id": "md_ch10_a041", "md_file": "knowledge_base/chapters/ch10_appendices.md", "md_atom_type": "TABLE_ROW", "md_parent_section": "§10.B [Glossary and Abbreviations]", "md_verbatim": "| SDS | Submission Data Standards. Also the name of the team that created the SDTM and SDTMIG |", "score": 0.3896, "match_basis": "verbatim_token+chapter_route:ch10"}, {"md_atom_id": "md_ch10_a180", "md_file": "knowledge_base/chapters/ch10_appendices.md", "md_atom_type": "TABLE_ROW", "md_parent_section": "§10.E [Revision History]", "md_verbatim": "| 3.2.1 | Dataset-level Metadata | Changes to SDTMIG Content Control appear in this table; new domains added and MO removed |", "score": 0.3878, "match_basis": "verbatim_token+chapter_route:ch10"}], "candidate_count": 5, "zero_candidate": false}
{"pdf_atom_id": "ig34_p0453_a016", "pdf_atom_type": "TABLE_ROW", "pdf_source": "SDTMIG_v3.4", "pdf_page": 453, "pdf_parent_section": "§10.E Appendix E: Revision History", "pdf_verbatim": "2.7 | SDTM Variables Not Allowed in the SDTMIG | Updated based on the Usage Restrictions column of Study Data Tabulation Model 2.0. Review Section 2.7 for the complete list of variables not to be used in SDTM-based data for human clinical trials. Moved --METHOD (Interventions) from the not-evaluated list to the list of variables not to be used. Updated order of list to match order within the model.", "figure_ref": null, "candidates": [{"md_atom_id": "md_ch10_a177", "md_file": "knowledge_base/chapters/ch10_appendices.md", "md_atom_type": "TABLE_ROW", "md_parent_section": "§10.E [Revision History]", "md_verbatim": "| 2.7 | SDTM Variables Not Allowed in the SDTMIG | Updated based on Usage Restrictions column of Study Data Tabulation Model 2.0; Moved --METHOD (Interventions) from not-evaluated list to list of variables not to be used; updated order of list to match order within the model |", "score": 0.7748, "match_basis": "verbatim_token+chapter_route:ch10"}, {"md_atom_id": "md_ch10_a043", "md_file": "knowledge_base/chapters/ch10_appendices.md", "md_atom_type": "TABLE_ROW", "md_parent_section": "§10.B [Glossary and Abbreviations]", "md_verbatim": "| SDTMIG | Study Data Tabulation Model Implementation Guide: Human Clinical Trials |", "score": 0.4742, "match_basis": "verbatim_token+chapter_route:ch10"}, {"md_atom_id": "md_ch10_a045", "md_file": "knowledge_base/chapters/ch10_appendices.md", "md_atom_type": "TABLE_ROW", "md_parent_section": "§10.B [Glossary and Abbreviations]", "md_verbatim": "| SDTMIG-MD | Study Data Tabulation Model Implementation Guide for Medical Devices |", "score": 0.4237, "match_basis": "verbatim_token+chapter_route:ch10"}, {"md_atom_id": "md_ch10_a044", "md_file": "knowledge_base/chapters/ch10_appendices.md", "md_atom_type": "TABLE_ROW", "md_parent_section": "§10.B [Glossary and Abbreviations]", "md_verbatim": "| SDTMIG-AP | Study Data Tabulation Model Implementation Guide: Associated Persons |", "score": 0.4164, "match_basis": "verbatim_token+chapter_route:ch10"}, {"md_atom_id": "md_ch10_a239", "md_file": "knowledge_base/chapters/ch10_appendices.md", "md_atom_type": "TABLE_ROW", "md_parent_section": "§10.E [Revision History]", "md_verbatim": "| 9 | Study References | Removed \"Identifiers for pharmacogenomic/genetic biomarkers\" from the list; deleted Section 9.3 PB as it was part of SDTMIG-PGx (originally published 2015-05-26, to be deprecated with the publication of SDTMIG v3.4) |", "score": 0.4082, "match_basis": "verbatim_token+chapter_route:ch10"}], "candidate_count": 5, "zero_candidate": false}
{"pdf_atom_id": "ig34_p0453_a017", "pdf_atom_type": "TABLE_ROW", "pdf_source": "SDTMIG_v3.4", "pdf_page": 453, "pdf_parent_section": "§10.E Appendix E: Revision History", "pdf_verbatim": "Section 3. Submitting Data in a Standard Format | |", "figure_ref": null, "candidates": [{"md_atom_id": "md_ch10_a178", "md_file": "knowledge_base/chapters/ch10_appendices.md", "md_atom_type": "TABLE_ROW", "md_parent_section": "§10.E [Revision History]", "md_verbatim": "| **Section 3. Submitting Data in a Standard Format** | | |", "score": 0.9, "match_basis": "verbatim_token+chapter_route:ch10"}, {"md_atom_id": "md_ch10_a041", "md_file": "knowledge_base/chapters/ch10_appendices.md", "md_atom_type": "TABLE_ROW", "md_parent_section": "§10.B [Glossary and Abbreviations]", "md_verbatim": "| SDS | Submission Data Standards. Also the name of the team that created the SDTM and SDTMIG |", "score": 0.4469, "match_basis": "verbatim_token+chapter_route:ch10"}, {"md_atom_id": "md_ch10_a231", "md_file": "knowledge_base/chapters/ch10_appendices.md", "md_atom_type": "TABLE_ROW", "md_parent_section": "§10.E [Revision History]", "md_verbatim": "| **Section 8. Representing Relationships and Data** | | |", "score": 0.4429, "match_basis": "verbatim_token+chapter_route:ch10"}, {"md_atom_id": "md_ch10_a047", "md_file": "knowledge_base/chapters/ch10_appendices.md", "md_atom_type": "TABLE_ROW", "md_parent_section": "§10.B [Glossary and Abbreviations]", "md_verbatim": "| SEND | Standard for Exchange of Non-Clinical Data |", "score": 0.435, "match_basis": "verbatim_token+chapter_route:ch10"}, {"md_atom_id": "md_ch10_a022", "md_file": "knowledge_base/chapters/ch10_appendices.md", "md_atom_type": "TABLE_ROW", "md_parent_section": "§10.B [Glossary and Abbreviations]", "md_verbatim": "| Define-XML | CDISC standard for transmitting metadata that describes any tabular dataset structure |", "score": 0.4254, "match_basis": "verbatim_token+chapter_route:ch10"}], "candidate_count": 5, "zero_candidate": false}
{"pdf_atom_id": "ig34_p0453_a018", "pdf_atom_type": "TABLE_ROW", "pdf_source": "SDTMIG_v3.4", "pdf_page": 453, "pdf_parent_section": "§10.E Appendix E: Revision History", "pdf_verbatim": "3.2 | Using the CDISC Domain Models in Regulatory Submissions – Dataset Metadata | Removed the following paragraph as there are now guidelines in the MSG v2.0 and the Define-XML v2.1 standard: \"In the event that no records are present in a dataset (e.g., a small PK study where no subjects took concomitant medications), the empty dataset should not be submitted and should not be described in the Define-XML document. The annotated CRF will show the data that would have been submitted had data been received; it need not be re-annotated to indicate that no records exist.\"", "figure_ref": null, "candidates": [{"md_atom_id": "md_ch10_a179", "md_file": "knowledge_base/chapters/ch10_appendices.md", "md_atom_type": "TABLE_ROW", "md_parent_section": "§10.E [Revision History]", "md_verbatim": "| 3.2 | Using the CDISC Domain Models in Regulatory Submissions — Dataset Metadata | Removed paragraph about empty datasets for small PK studies per MSG v2.0 and Define-XML v2.1 standard |", "score": 0.5407, "match_basis": "verbatim_token+chapter_route:ch10"}, {"md_atom_id": "md_ch10_a022", "md_file": "knowledge_base/chapters/ch10_appendices.md", "md_atom_type": "TABLE_ROW", "md_parent_section": "§10.B [Glossary and Abbreviations]", "md_verbatim": "| Define-XML | CDISC standard for transmitting metadata that describes any tabular dataset structure |", "score": 0.4082, "match_basis": "verbatim_token+chapter_route:ch10"}, {"md_atom_id": "md_ch10_a242", "md_file": "knowledge_base/chapters/ch10_appendices.md", "md_atom_type": "TABLE_ROW", "md_parent_section": "§10.E [Revision History]", "md_verbatim": "| Appendix C | Controlled Terminology | Appendix C1 Trial Summary Codes has been removed from SDTMIG v3.4; TS Assumptions were updated to reference CDISC controlled terminology, CDISC TS codetable, and recipient (regulatory agency) implementation expectations; removed --CLSIG due to promotion as a Findings variable; added --REASOC; all references to Appendix C2 in the SDTMIG were changed to Appendix C1 |", "score": 0.3978, "match_basis": "verbatim_token+chapter_route:ch10"}, {"md_atom_id": "md_ch10_a236", "md_file": "knowledge_base/chapters/ch10_appendices.md", "md_atom_type": "TABLE_ROW", "md_parent_section": "§10.E [Revision History]", "md_verbatim": "| 8.6.3 | Guidelines for Differentiating Between Interventions, Events, Findings, and Findings About Events or Interventions | \"Interventions\" added to section title; some changes to text to correct typos and clarify wording; second column of second row of table revised to explain what a log form is and to clarify how the data collection format may help understand the general observation class of data collected; added a row to the table to help in deciding between QS and FA for data about symptoms; reordered sentences in paragraph after the table and reiterated reference to AE structure assumption |", "score": 0.3932, "match_basis": "verbatim_token+chapter_route:ch10"}, {"md_atom_id": "md_ch10_a175", "md_file": "knowledge_base/chapters/ch10_appendices.md", "md_atom_type": "TABLE_ROW", "md_parent_section": "§10.E [Revision History]", "md_verbatim": "| 2.5 | The SDTM Standard Domain Models | Domain-specific versioning (introduced in SDTMIG v3.3) removed; domain version numbers removed for each domain; removed sentence referring to FDA repository; added reference to Define-XML standard for details on no data availability |", "score": 0.3911, "match_basis": "verbatim_token+chapter_route:ch10"}], "candidate_count": 5, "zero_candidate": false}
{"pdf_atom_id": "ig34_p0453_a019", "pdf_atom_type": "TABLE_ROW", "pdf_source": "SDTMIG_v3.4", "pdf_page": 453, "pdf_parent_section": "§10.E Appendix E: Revision History", "pdf_verbatim": "3.2.1 | Dataset-level Metadata | Changes to SDTMIG Content Control appear in this table. New domains were added and MO was removed. Keys were updated in a couple of cases, as noted in those domains.", "figure_ref": null, "candidates": [{"md_atom_id": "md_ch10_a180", "md_file": "knowledge_base/chapters/ch10_appendices.md", "md_atom_type": "TABLE_ROW", "md_parent_section": "§10.E [Revision History]", "md_verbatim": "| 3.2.1 | Dataset-level Metadata | Changes to SDTMIG Content Control appear in this table; new domains added and MO removed |", "score": 0.7356, "match_basis": "verbatim_token+chapter_route:ch10"}, {"md_atom_id": "md_ch10_a244", "md_file": "knowledge_base/chapters/ch10_appendices.md", "md_atom_type": "TABLE_ROW", "md_parent_section": "§10.E [Revision History]", "md_verbatim": "| Appendix E | This appendix | This appendix was updated to reflect an overview of changes from SDTMIG v3.3 to SDTMIG v3.4 |", "score": 0.4348, "match_basis": "verbatim_token+chapter_route:ch10"}, {"md_atom_id": "md_ch10_a181", "md_file": "knowledge_base/chapters/ch10_appendices.md", "md_atom_type": "TABLE_ROW", "md_parent_section": "§10.E [Revision History]", "md_verbatim": "| 3.2.1.2 | CDISC Submission Value-level Metadata | The phrase \"the SDTMIG V3.x\" removed from the first sentence |", "score": 0.4333, "match_basis": "verbatim_token+chapter_route:ch10"}, {"md_atom_id": "md_ch10_a242", "md_file": "knowledge_base/chapters/ch10_appendices.md", "md_atom_type": "TABLE_ROW", "md_parent_section": "§10.E [Revision History]", "md_verbatim": "| Appendix C | Controlled Terminology | Appendix C1 Trial Summary Codes has been removed from SDTMIG v3.4; TS Assumptions were updated to reference CDISC controlled terminology, CDISC TS codetable, and recipient (regulatory agency) implementation expectations; removed --CLSIG due to promotion as a Findings variable; added --REASOC; all references to Appendix C2 in the SDTMIG were changed to Appendix C1 |", "score": 0.4254, "match_basis": "verbatim_token+chapter_route:ch10"}, {"md_atom_id": "md_ch10_a175", "md_file": "knowledge_base/chapters/ch10_appendices.md", "md_atom_type": "TABLE_ROW", "md_parent_section": "§10.E [Revision History]", "md_verbatim": "| 2.5 | The SDTM Standard Domain Models | Domain-specific versioning (introduced in SDTMIG v3.3) removed; domain version numbers removed for each domain; removed sentence referring to FDA repository; added reference to Define-XML standard for details on no data availability |", "score": 0.4061, "match_basis": "verbatim_token+chapter_route:ch10"}], "candidate_count": 5, "zero_candidate": false}
{"pdf_atom_id": "ig34_p0453_a020", "pdf_atom_type": "TABLE_ROW", "pdf_source": "SDTMIG_v3.4", "pdf_page": 453, "pdf_parent_section": "§10.E Appendix E: Revision History", "pdf_verbatim": "3.2.1.2 | CDISC Submission Value-level Metadata | The phrase \"the SDTMIG V3.x\" was removed from the first sentence, as this terminology was somewhat confusing and is being phased out.", "figure_ref": null, "candidates": [{"md_atom_id": "md_ch10_a181", "md_file": "knowledge_base/chapters/ch10_appendices.md", "md_atom_type": "TABLE_ROW", "md_parent_section": "§10.E [Revision History]", "md_verbatim": "| 3.2.1.2 | CDISC Submission Value-level Metadata | The phrase \"the SDTMIG V3.x\" removed from the first sentence |", "score": 0.66, "match_basis": "verbatim_token+chapter_route:ch10"}, {"md_atom_id": "md_ch10_a243", "md_file": "knowledge_base/chapters/ch10_appendices.md", "md_atom_type": "TABLE_ROW", "md_parent_section": "§10.E [Revision History]", "md_verbatim": "| Appendix D | CDISC Variable-naming Fragments | \"V3.x dataset\" was replaced with \"Findings dataset\" because the V3.x terminology was somewhat confusing and is being phased out |", "score": 0.4916, "match_basis": "verbatim_token+chapter_route:ch10"}, {"md_atom_id": "md_ch10_a180", "md_file": "knowledge_base/chapters/ch10_appendices.md", "md_atom_type": "TABLE_ROW", "md_parent_section": "§10.E [Revision History]", "md_verbatim": "| 3.2.1 | Dataset-level Metadata | Changes to SDTMIG Content Control appear in this table; new domains added and MO removed |", "score": 0.4458, "match_basis": "verbatim_token+chapter_route:ch10"}, {"md_atom_id": "md_ch10_a179", "md_file": "knowledge_base/chapters/ch10_appendices.md", "md_atom_type": "TABLE_ROW", "md_parent_section": "§10.E [Revision History]", "md_verbatim": "| 3.2 | Using the CDISC Domain Models in Regulatory Submissions — Dataset Metadata | Removed paragraph about empty datasets for small PK studies per MSG v2.0 and Define-XML v2.1 standard |", "score": 0.4308, "match_basis": "verbatim_token+chapter_route:ch10"}, {"md_atom_id": "md_ch10_a242", "md_file": "knowledge_base/chapters/ch10_appendices.md", "md_atom_type": "TABLE_ROW", "md_parent_section": "§10.E [Revision History]", "md_verbatim": "| Appendix C | Controlled Terminology | Appendix C1 Trial Summary Codes has been removed from SDTMIG v3.4; TS Assumptions were updated to reference CDISC controlled terminology, CDISC TS codetable, and recipient (regulatory agency) implementation expectations; removed --CLSIG due to promotion as a Findings variable; added --REASOC; all references to Appendix C2 in the SDTMIG were changed to Appendix C1 |", "score": 0.4091, "match_basis": "verbatim_token+chapter_route:ch10"}], "candidate_count": 5, "zero_candidate": false}
{"pdf_atom_id": "ig34_p0453_a021", "pdf_atom_type": "TABLE_ROW", "pdf_source": "SDTMIG_v3.4", "pdf_page": 453, "pdf_parent_section": "§10.E Appendix E: Revision History", "pdf_verbatim": "Section 4. Assumptions for Domain Models | |", "figure_ref": null, "candidates": [{"md_atom_id": "md_ch10_a182", "md_file": "knowledge_base/chapters/ch10_appendices.md", "md_atom_type": "TABLE_ROW", "md_parent_section": "§10.E [Revision History]", "md_verbatim": "| **Section 4. Assumptions for Domain Models** | | |", "score": 0.9, "match_basis": "verbatim_token+chapter_route:ch10"}, {"md_atom_id": "md_ch10_a187", "md_file": "knowledge_base/chapters/ch10_appendices.md", "md_atom_type": "TABLE_ROW", "md_parent_section": "§10.E [Revision History]", "md_verbatim": "| **Section 5. Models for Special-purpose Domains** | | |", "score": 0.5625, "match_basis": "verbatim_token+chapter_route:ch10"}, {"md_atom_id": "md_ch10_a194", "md_file": "knowledge_base/chapters/ch10_appendices.md", "md_atom_type": "TABLE_ROW", "md_parent_section": "§10.E [Revision History]", "md_verbatim": "| **Section 6. Domain Models Based on the General Observation Classes** | | |", "score": 0.5049, "match_basis": "verbatim_token+chapter_route:ch10"}, {"md_atom_id": "md_ch10_a209", "md_file": "knowledge_base/chapters/ch10_appendices.md", "md_atom_type": "TABLE_ROW", "md_parent_section": "§10.E [Revision History]", "md_verbatim": "| 6.3.2 | Death Details (DD) | Added assumption 4 referencing the domain codetable |", "score": 0.4696, "match_basis": "verbatim_token+chapter_route:ch10"}, {"md_atom_id": "md_ch10_a223", "md_file": "knowledge_base/chapters/ch10_appendices.md", "md_atom_type": "TABLE_ROW", "md_parent_section": "§10.E [Revision History]", "md_verbatim": "| **Section 7. Trial Design Model Datasets** | | |", "score": 0.4412, "match_basis": "verbatim_token+chapter_route:ch10"}], "candidate_count": 5, "zero_candidate": false}
{"pdf_atom_id": "ig34_p0453_a022", "pdf_atom_type": "TABLE_ROW", "pdf_source": "SDTMIG_v3.4", "pdf_page": 453, "pdf_parent_section": "§10.E Appendix E: Revision History", "pdf_verbatim": "4.1 | General Domain Assumptions | QRS Examples for splitting questionnaires were updated. Origin Metadata traceability was clarified.", "figure_ref": null, "candidates": [{"md_atom_id": "md_ch10_a183", "md_file": "knowledge_base/chapters/ch10_appendices.md", "md_atom_type": "TABLE_ROW", "md_parent_section": "§10.E [Revision History]", "md_verbatim": "| 4.1 | General Domain Assumptions | QRS Examples for splitting questionnaires updated; Origin Metadata traceability clarified |", "score": 0.8763, "match_basis": "verbatim_token+chapter_route:ch10"}, {"md_atom_id": "md_ch10_a207", "md_file": "knowledge_base/chapters/ch10_appendices.md", "md_atom_type": "TABLE_ROW", "md_parent_section": "§10.E [Revision History]", "md_verbatim": "| 6.3 | Models for Findings Domains | BS Domain specification and examples copied from SDTMIG-PGx (originally published 2015-05-26), to be deprecated; assumptions and examples updated where --CLSIG is promoted to standard variable |", "score": 0.4437, "match_basis": "verbatim_token+chapter_route:ch10"}, {"md_atom_id": "md_ch10_a221", "md_file": "knowledge_base/chapters/ch10_appendices.md", "md_atom_type": "TABLE_ROW", "md_parent_section": "§10.E [Revision History]", "md_verbatim": "| 6.4.4 | Findings About Events or Interventions (FA) | Core value for FADTC changed from \"Perm\" to \"Exp\"; updated FATEST and FATESTCD CDISC Notes to reference general codelists; added assumption 4a referencing CV Code table; extensive updates to examples for clarity |", "score": 0.4311, "match_basis": "verbatim_token+chapter_route:ch10"}, {"md_atom_id": "md_ch10_a185", "md_file": "knowledge_base/chapters/ch10_appendices.md", "md_atom_type": "TABLE_ROW", "md_parent_section": "§10.E [Revision History]", "md_verbatim": "| 4.4 | Actual and Relative Time Assumptions | Updated unknown values from U to UNKNOWN; clarified reference time point; added note that --STDTC is not used in Findings class domains; clarified use of --DRVFL |", "score": 0.4292, "match_basis": "verbatim_token+chapter_route:ch10"}, {"md_atom_id": "md_ch10_a197", "md_file": "knowledge_base/chapters/ch10_appendices.md", "md_atom_type": "TABLE_ROW", "md_parent_section": "§10.E [Revision History]", "md_verbatim": "| 6.1.3 | Exposure Domains | EX assumptions updated to note that since EX includes only treatments received, --MOOD would generally not be used in EX; ECREASOC added (promoted from supplemental qualifier to standard variable); examples updated |", "score": 0.4231, "match_basis": "verbatim_token+chapter_route:ch10"}], "candidate_count": 5, "zero_candidate": false}
{"pdf_atom_id": "ig34_p0453_a023", "pdf_atom_type": "TABLE_ROW", "pdf_source": "SDTMIG_v3.4", "pdf_page": 453, "pdf_parent_section": "§10.E Appendix E: Revision History", "pdf_verbatim": "4.2 | General Variable Assumptions | Added, \"CDISC does not recommend any specific format for the values of USUBJID, only that the values need to be unique for all subjects in the submission, and across multiple submissions for the same compound. Many sponsors concatenate values for the Study, Site and Subject into USUBJID, but this is not a requirement. It is", "figure_ref": null, "candidates": [{"md_atom_id": "md_ch10_a184", "md_file": "knowledge_base/chapters/ch10_appendices.md", "md_atom_type": "TABLE_ROW", "md_parent_section": "§10.E [Revision History]", "md_verbatim": "| 4.2 | General Variable Assumptions | Added CDISC note on acceptable USUBJID formats; 4.2.6 numbering reworked; new subsection 4.2.7.4 \"Specify\" Values for --OBJ added; added information about ASCII characters to Section 4.2.9 |", "score": 0.4561, "match_basis": "verbatim_token+chapter_route:ch10"}, {"md_atom_id": "md_ch10_a230", "md_file": "knowledge_base/chapters/ch10_appendices.md", "md_atom_type": "TABLE_ROW", "md_parent_section": "§10.E [Revision History]", "md_verbatim": "| 7.4.2 | Trial Summary (TS) | Changed the CDISC Notes for TSSEQ to reflect that the sequence number is to ensure uniqueness within a parameter; revisions to most TS assumptions to remove references to Appendix C1 Trial Summary Codes (as this appendix was removed); TS assumptions replaced with ones that note recipients may specify requirements and terminology; reference added for the TS Codetable on the CDISC website; revised TS Assumption 17 to clarify value expectations for TSPARMCD = \"INDIC\"; additional assumptions revised for clarity; information added about exploratory outcome measures; Examples 1-3 revised; new Example 4 added to show use of TSGRPID for study parts and treatments |", "score": 0.4317, "match_basis": "verbatim_token+chapter_route:ch10"}, {"md_atom_id": "md_ch10_a198", "md_file": "knowledge_base/chapters/ch10_appendices.md", "md_atom_type": "TABLE_ROW", "md_parent_section": "§10.E [Revision History]", "md_verbatim": "| 6.1.5 | Procedures (PR) | PRSEQ's CDISC Notes updated to reflect that Sequence Number is given to ensure uniqueness of subject records within a domain; added CT reference for PRDECOD variable; more explanations provided in examples for why values in PRTRT are in mixed case |", "score": 0.4148, "match_basis": "verbatim_token+chapter_route:ch10"}, {"md_atom_id": "md_ch10_a189", "md_file": "knowledge_base/chapters/ch10_appendices.md", "md_atom_type": "TABLE_ROW", "md_parent_section": "§10.E [Revision History]", "md_verbatim": "| 5.1 | Comments (CO) | Assumption 2 added; VISIT, VISITNUM, and VISITDY removed from list of generally not used variables; clarity added to Assumption 1 regarding adverse events and clinical events |", "score": 0.4116, "match_basis": "verbatim_token+chapter_route:ch10"}, {"md_atom_id": "md_ch10_a197", "md_file": "knowledge_base/chapters/ch10_appendices.md", "md_atom_type": "TABLE_ROW", "md_parent_section": "§10.E [Revision History]", "md_verbatim": "| 6.1.3 | Exposure Domains | EX assumptions updated to note that since EX includes only treatments received, --MOOD would generally not be used in EX; ECREASOC added (promoted from supplemental qualifier to standard variable); examples updated |", "score": 0.4094, "match_basis": "verbatim_token+chapter_route:ch10"}], "candidate_count": 5, "zero_candidate": false}
{"pdf_atom_id": "ig34_p0454_a001", "pdf_atom_type": "TABLE_ROW", "pdf_source": "SDTMIG_v3.4", "pdf_page": 454, "pdf_parent_section": "§10.E Appendix E: Revision History", "pdf_verbatim": "4.2 (continued) | General Variable Assumptions (continued) | acceptable to use any format for USUBJID, as long as the values are unique across all subjects.\" 4.2.6 numbering reworked to be consistent with the format in this document and others. New subsection, Section 4.2.7.4, \"Specify\" Values for --OBJ, was added. Added information about ASCII characters to Section 4.2.9.", "figure_ref": null, "candidates": [{"md_atom_id": "md_ch10_a184", "md_file": "knowledge_base/chapters/ch10_appendices.md", "md_atom_type": "TABLE_ROW", "md_parent_section": "§10.E [Revision History]", "md_verbatim": "| 4.2 | General Variable Assumptions | Added CDISC note on acceptable USUBJID formats; 4.2.6 numbering reworked; new subsection 4.2.7.4 \"Specify\" Values for --OBJ added; added information about ASCII characters to Section 4.2.9 |", "score": 0.6761, "match_basis": "verbatim_token+chapter_route:ch10"}, {"md_atom_id": "md_ch10_a230", "md_file": "knowledge_base/chapters/ch10_appendices.md", "md_atom_type": "TABLE_ROW", "md_parent_section": "§10.E [Revision History]", "md_verbatim": "| 7.4.2 | Trial Summary (TS) | Changed the CDISC Notes for TSSEQ to reflect that the sequence number is to ensure uniqueness within a parameter; revisions to most TS assumptions to remove references to Appendix C1 Trial Summary Codes (as this appendix was removed); TS assumptions replaced with ones that note recipients may specify requirements and terminology; reference added for the TS Codetable on the CDISC website; revised TS Assumption 17 to clarify value expectations for TSPARMCD = \"INDIC\"; additional assumptions revised for clarity; information added about exploratory outcome measures; Examples 1-3 revised; new Example 4 added to show use of TSGRPID for study parts and treatments |", "score": 0.4216, "match_basis": "verbatim_token+chapter_route:ch10"}, {"md_atom_id": "md_ch10_a236", "md_file": "knowledge_base/chapters/ch10_appendices.md", "md_atom_type": "TABLE_ROW", "md_parent_section": "§10.E [Revision History]", "md_verbatim": "| 8.6.3 | Guidelines for Differentiating Between Interventions, Events, Findings, and Findings About Events or Interventions | \"Interventions\" added to section title; some changes to text to correct typos and clarify wording; second column of second row of table revised to explain what a log form is and to clarify how the data collection format may help understand the general observation class of data collected; added a row to the table to help in deciding between QS and FA for data about symptoms; reordered sentences in paragraph after the table and reiterated reference to AE structure assumption |", "score": 0.4118, "match_basis": "verbatim_token+chapter_route:ch10"}, {"md_atom_id": "md_ch10_a221", "md_file": "knowledge_base/chapters/ch10_appendices.md", "md_atom_type": "TABLE_ROW", "md_parent_section": "§10.E [Revision History]", "md_verbatim": "| 6.4.4 | Findings About Events or Interventions (FA) | Core value for FADTC changed from \"Perm\" to \"Exp\"; updated FATEST and FATESTCD CDISC Notes to reference general codelists; added assumption 4a referencing CV Code table; extensive updates to examples for clarity |", "score": 0.4116, "match_basis": "verbatim_token+chapter_route:ch10"}, {"md_atom_id": "md_ch10_a189", "md_file": "knowledge_base/chapters/ch10_appendices.md", "md_atom_type": "TABLE_ROW", "md_parent_section": "§10.E [Revision History]", "md_verbatim": "| 5.1 | Comments (CO) | Assumption 2 added; VISIT, VISITNUM, and VISITDY removed from list of generally not used variables; clarity added to Assumption 1 regarding adverse events and clinical events |", "score": 0.4075, "match_basis": "verbatim_token+chapter_route:ch10"}], "candidate_count": 5, "zero_candidate": false}
{"pdf_atom_id": "ig34_p0454_a002", "pdf_atom_type": "TABLE_ROW", "pdf_source": "SDTMIG_v3.4", "pdf_page": 454, "pdf_parent_section": "§10.E Appendix E: Revision History", "pdf_verbatim": "4.4 | Actual and Relative Time Assumptions | Updated values for unknown from U to UNKNOWN to reflect changes in controlled terminology. Clarified that if the reference time point corresponds to or is prior to the date of collection or assessment that it can be unknown by adding \"can be\". Text was clarified to note that --STDTC is not used in Findings class domains. the use of --DRVFL was clarified.", "figure_ref": null, "candidates": [{"md_atom_id": "md_ch10_a185", "md_file": "knowledge_base/chapters/ch10_appendices.md", "md_atom_type": "TABLE_ROW", "md_parent_section": "§10.E [Revision History]", "md_verbatim": "| 4.4 | Actual and Relative Time Assumptions | Updated unknown values from U to UNKNOWN; clarified reference time point; added note that --STDTC is not used in Findings class domains; clarified use of --DRVFL |", "score": 0.6529, "match_basis": "verbatim_token+chapter_route:ch10"}, {"md_atom_id": "md_ch10_a221", "md_file": "knowledge_base/chapters/ch10_appendices.md", "md_atom_type": "TABLE_ROW", "md_parent_section": "§10.E [Revision History]", "md_verbatim": "| 6.4.4 | Findings About Events or Interventions (FA) | Core value for FADTC changed from \"Perm\" to \"Exp\"; updated FATEST and FATESTCD CDISC Notes to reference general codelists; added assumption 4a referencing CV Code table; extensive updates to examples for clarity |", "score": 0.4642, "match_basis": "verbatim_token+chapter_route:ch10"}, {"md_atom_id": "md_ch10_a242", "md_file": "knowledge_base/chapters/ch10_appendices.md", "md_atom_type": "TABLE_ROW", "md_parent_section": "§10.E [Revision History]", "md_verbatim": "| Appendix C | Controlled Terminology | Appendix C1 Trial Summary Codes has been removed from SDTMIG v3.4; TS Assumptions were updated to reference CDISC controlled terminology, CDISC TS codetable, and recipient (regulatory agency) implementation expectations; removed --CLSIG due to promotion as a Findings variable; added --REASOC; all references to Appendix C2 in the SDTMIG were changed to Appendix C1 |", "score": 0.4639, "match_basis": "verbatim_token+chapter_route:ch10"}, {"md_atom_id": "md_ch10_a236", "md_file": "knowledge_base/chapters/ch10_appendices.md", "md_atom_type": "TABLE_ROW", "md_parent_section": "§10.E [Revision History]", "md_verbatim": "| 8.6.3 | Guidelines for Differentiating Between Interventions, Events, Findings, and Findings About Events or Interventions | \"Interventions\" added to section title; some changes to text to correct typos and clarify wording; second column of second row of table revised to explain what a log form is and to clarify how the data collection format may help understand the general observation class of data collected; added a row to the table to help in deciding between QS and FA for data about symptoms; reordered sentences in paragraph after the table and reiterated reference to AE structure assumption |", "score": 0.4424, "match_basis": "verbatim_token+chapter_route:ch10"}, {"md_atom_id": "md_ch10_a226", "md_file": "knowledge_base/chapters/ch10_appendices.md", "md_atom_type": "TABLE_ROW", "md_parent_section": "§10.E [Revision History]", "md_verbatim": "| 7.3.2 | Trial Disease Assessments (TD) | Assumption 4 inserted to clarify that start of a schedule is the start of the interval preceding the first assessment; Examples 1 and 3 diagrams updated; values of TDSTOFF corrected |", "score": 0.4323, "match_basis": "verbatim_token+chapter_route:ch10"}], "candidate_count": 5, "zero_candidate": false}
{"pdf_atom_id": "ig34_p0454_a003", "pdf_atom_type": "TABLE_ROW", "pdf_source": "SDTMIG_v3.4", "pdf_page": 454, "pdf_parent_section": "§10.E Appendix E: Revision History", "pdf_verbatim": "4.5 | Original and Standardized Results | Clarified description of when to use the derived flag (–DRVFL). Two QRS exceptions were added to Section 4.5.1.2 noting that regulatory agencies may require a record for all items on the CRF and that --REASND will be populated for QRS logically skipped items. Example 3 in Section 4.5.3.2, the value of IDVARVAL was corrected in supppr.xpt. Promoted the concept --CLSIG to an SDTM variable. Clarified the use of --REASPF in Findings domains, --REAS in Interventions/Events, and --REASOC for pre-specified Events/Interventions. Changed the description of --REASOC to reflect its promotion to a standard variable. Added text describing representation of pre-specified groups of interventions or events in --TRT or --TERM, respectively.", "figure_ref": null, "candidates": [{"md_atom_id": "md_ch10_a186", "md_file": "knowledge_base/chapters/ch10_appendices.md", "md_atom_type": "TABLE_ROW", "md_parent_section": "§10.E [Revision History]", "md_verbatim": "| 4.5 | Original and Standardized Results | Clarified description of --DRVFL; two QRS exceptions added to 4.5.1.2; corrected IDVARVAL in supppr.xpt Example 3; promoted --CLSIG to SDTM variable; clarified --REASPF, --REAS, and --REASOC usage; added text for pre-specified groups of interventions or events in --TRT or --TERM |", "score": 0.6133, "match_basis": "verbatim_token+chapter_route:ch10"}, {"md_atom_id": "md_ch10_a242", "md_file": "knowledge_base/chapters/ch10_appendices.md", "md_atom_type": "TABLE_ROW", "md_parent_section": "§10.E [Revision History]", "md_verbatim": "| Appendix C | Controlled Terminology | Appendix C1 Trial Summary Codes has been removed from SDTMIG v3.4; TS Assumptions were updated to reference CDISC controlled terminology, CDISC TS codetable, and recipient (regulatory agency) implementation expectations; removed --CLSIG due to promotion as a Findings variable; added --REASOC; all references to Appendix C2 in the SDTMIG were changed to Appendix C1 |", "score": 0.4552, "match_basis": "verbatim_token+chapter_route:ch10"}, {"md_atom_id": "md_ch10_a207", "md_file": "knowledge_base/chapters/ch10_appendices.md", "md_atom_type": "TABLE_ROW", "md_parent_section": "§10.E [Revision History]", "md_verbatim": "| 6.3 | Models for Findings Domains | BS Domain specification and examples copied from SDTMIG-PGx (originally published 2015-05-26), to be deprecated; assumptions and examples updated where --CLSIG is promoted to standard variable |", "score": 0.4535, "match_basis": "verbatim_token+chapter_route:ch10"}, {"md_atom_id": "md_ch10_a197", "md_file": "knowledge_base/chapters/ch10_appendices.md", "md_atom_type": "TABLE_ROW", "md_parent_section": "§10.E [Revision History]", "md_verbatim": "| 6.1.3 | Exposure Domains | EX assumptions updated to note that since EX includes only treatments received, --MOOD would generally not be used in EX; ECREASOC added (promoted from supplemental qualifier to standard variable); examples updated |", "score": 0.4278, "match_basis": "verbatim_token+chapter_route:ch10"}, {"md_atom_id": "md_ch10_a221", "md_file": "knowledge_base/chapters/ch10_appendices.md", "md_atom_type": "TABLE_ROW", "md_parent_section": "§10.E [Revision History]", "md_verbatim": "| 6.4.4 | Findings About Events or Interventions (FA) | Core value for FADTC changed from \"Perm\" to \"Exp\"; updated FATEST and FATESTCD CDISC Notes to reference general codelists; added assumption 4a referencing CV Code table; extensive updates to examples for clarity |", "score": 0.427, "match_basis": "verbatim_token+chapter_route:ch10"}], "candidate_count": 5, "zero_candidate": false}
{"pdf_atom_id": "ig34_p0454_a004", "pdf_atom_type": "TABLE_ROW", "pdf_source": "SDTMIG_v3.4", "pdf_page": 454, "pdf_parent_section": "§10.E Appendix E: Revision History", "pdf_verbatim": "4.1 | General Domain Assumptions | QRS Examples for splitting questionnaires were updated. Origin Metadata traceability was clarified.", "figure_ref": null, "candidates": [{"md_atom_id": "md_ch10_a183", "md_file": "knowledge_base/chapters/ch10_appendices.md", "md_atom_type": "TABLE_ROW", "md_parent_section": "§10.E [Revision History]", "md_verbatim": "| 4.1 | General Domain Assumptions | QRS Examples for splitting questionnaires updated; Origin Metadata traceability clarified |", "score": 0.8763, "match_basis": "verbatim_token+chapter_route:ch10"}, {"md_atom_id": "md_ch10_a207", "md_file": "knowledge_base/chapters/ch10_appendices.md", "md_atom_type": "TABLE_ROW", "md_parent_section": "§10.E [Revision History]", "md_verbatim": "| 6.3 | Models for Findings Domains | BS Domain specification and examples copied from SDTMIG-PGx (originally published 2015-05-26), to be deprecated; assumptions and examples updated where --CLSIG is promoted to standard variable |", "score": 0.4437, "match_basis": "verbatim_token+chapter_route:ch10"}, {"md_atom_id": "md_ch10_a221", "md_file": "knowledge_base/chapters/ch10_appendices.md", "md_atom_type": "TABLE_ROW", "md_parent_section": "§10.E [Revision History]", "md_verbatim": "| 6.4.4 | Findings About Events or Interventions (FA) | Core value for FADTC changed from \"Perm\" to \"Exp\"; updated FATEST and FATESTCD CDISC Notes to reference general codelists; added assumption 4a referencing CV Code table; extensive updates to examples for clarity |", "score": 0.4311, "match_basis": "verbatim_token+chapter_route:ch10"}, {"md_atom_id": "md_ch10_a185", "md_file": "knowledge_base/chapters/ch10_appendices.md", "md_atom_type": "TABLE_ROW", "md_parent_section": "§10.E [Revision History]", "md_verbatim": "| 4.4 | Actual and Relative Time Assumptions | Updated unknown values from U to UNKNOWN; clarified reference time point; added note that --STDTC is not used in Findings class domains; clarified use of --DRVFL |", "score": 0.4292, "match_basis": "verbatim_token+chapter_route:ch10"}, {"md_atom_id": "md_ch10_a197", "md_file": "knowledge_base/chapters/ch10_appendices.md", "md_atom_type": "TABLE_ROW", "md_parent_section": "§10.E [Revision History]", "md_verbatim": "| 6.1.3 | Exposure Domains | EX assumptions updated to note that since EX includes only treatments received, --MOOD would generally not be used in EX; ECREASOC added (promoted from supplemental qualifier to standard variable); examples updated |", "score": 0.4231, "match_basis": "verbatim_token+chapter_route:ch10"}], "candidate_count": 5, "zero_candidate": false}
{"pdf_atom_id": "ig34_p0454_a005", "pdf_atom_type": "TABLE_ROW", "pdf_source": "SDTMIG_v3.4", "pdf_page": 454, "pdf_parent_section": "§10.E Appendix E: Revision History", "pdf_verbatim": "Section 5. Models for Special-purpose Domains | |", "figure_ref": null, "candidates": [{"md_atom_id": "md_ch10_a187", "md_file": "knowledge_base/chapters/ch10_appendices.md", "md_atom_type": "TABLE_ROW", "md_parent_section": "§10.E [Revision History]", "md_verbatim": "| **Section 5. Models for Special-purpose Domains** | | |", "score": 0.9, "match_basis": "verbatim_token+chapter_route:ch10"}, {"md_atom_id": "md_ch10_a182", "md_file": "knowledge_base/chapters/ch10_appendices.md", "md_atom_type": "TABLE_ROW", "md_parent_section": "§10.E [Revision History]", "md_verbatim": "| **Section 4. Assumptions for Domain Models** | | |", "score": 0.5625, "match_basis": "verbatim_token+chapter_route:ch10"}, {"md_atom_id": "md_ch10_a188", "md_file": "knowledge_base/chapters/ch10_appendices.md", "md_atom_type": "TABLE_ROW", "md_parent_section": "§10.E [Revision History]", "md_verbatim": "| 5 | Models for Special-purpose Domains | All SDTMIG v3.4 metadata specifications updated to reflect ISO 8601 granularity |", "score": 0.519, "match_basis": "verbatim_token+chapter_route:ch10"}, {"md_atom_id": "md_ch10_a194", "md_file": "knowledge_base/chapters/ch10_appendices.md", "md_atom_type": "TABLE_ROW", "md_parent_section": "§10.E [Revision History]", "md_verbatim": "| **Section 6. Domain Models Based on the General Observation Classes** | | |", "score": 0.4696, "match_basis": "verbatim_token+chapter_route:ch10"}, {"md_atom_id": "md_ch10_a223", "md_file": "knowledge_base/chapters/ch10_appendices.md", "md_atom_type": "TABLE_ROW", "md_parent_section": "§10.E [Revision History]", "md_verbatim": "| **Section 7. Trial Design Model Datasets** | | |", "score": 0.4459, "match_basis": "verbatim_token+chapter_route:ch10"}], "candidate_count": 5, "zero_candidate": false}
{"pdf_atom_id": "ig34_p0454_a006", "pdf_atom_type": "TABLE_ROW", "pdf_source": "SDTMIG_v3.4", "pdf_page": 454, "pdf_parent_section": "§10.E Appendix E: Revision History", "pdf_verbatim": "5 | Models for Special-purpose Domains | All SDTMIG v3.4 metadata specifications (under Controlled Terms, Codelist or Format column) have been updated to reflect ISO 8601 granularity (e.g., \"ISO 8601 datetime or interval\" or \"ISO 8601 duration\"), where applicable. This also aligns to the updates made in SDTM v2.0.", "figure_ref": null, "candidates": [{"md_atom_id": "md_ch10_a188", "md_file": "knowledge_base/chapters/ch10_appendices.md", "md_atom_type": "TABLE_ROW", "md_parent_section": "§10.E [Revision History]", "md_verbatim": "| 5 | Models for Special-purpose Domains | All SDTMIG v3.4 metadata specifications updated to reflect ISO 8601 granularity |", "score": 0.5952, "match_basis": "verbatim_token+chapter_route:ch10"}, {"md_atom_id": "md_ch10_a177", "md_file": "knowledge_base/chapters/ch10_appendices.md", "md_atom_type": "TABLE_ROW", "md_parent_section": "§10.E [Revision History]", "md_verbatim": "| 2.7 | SDTM Variables Not Allowed in the SDTMIG | Updated based on Usage Restrictions column of Study Data Tabulation Model 2.0; Moved --METHOD (Interventions) from not-evaluated list to list of variables not to be used; updated order of list to match order within the model |", "score": 0.4288, "match_basis": "verbatim_token+chapter_route:ch10"}, {"md_atom_id": "md_ch10_a207", "md_file": "knowledge_base/chapters/ch10_appendices.md", "md_atom_type": "TABLE_ROW", "md_parent_section": "§10.E [Revision History]", "md_verbatim": "| 6.3 | Models for Findings Domains | BS Domain specification and examples copied from SDTMIG-PGx (originally published 2015-05-26), to be deprecated; assumptions and examples updated where --CLSIG is promoted to standard variable |", "score": 0.4265, "match_basis": "verbatim_token+chapter_route:ch10"}, {"md_atom_id": "md_ch10_a033", "md_file": "knowledge_base/chapters/ch10_appendices.md", "md_atom_type": "TABLE_ROW", "md_parent_section": "§10.B [Glossary and Abbreviations]", "md_verbatim": "| ISO 8601 | ISO character representation of dates, date/times, intervals, and durations of time. The SDTM uses the extended format |", "score": 0.4216, "match_basis": "verbatim_token+chapter_route:ch10"}, {"md_atom_id": "md_ch10_a242", "md_file": "knowledge_base/chapters/ch10_appendices.md", "md_atom_type": "TABLE_ROW", "md_parent_section": "§10.E [Revision History]", "md_verbatim": "| Appendix C | Controlled Terminology | Appendix C1 Trial Summary Codes has been removed from SDTMIG v3.4; TS Assumptions were updated to reference CDISC controlled terminology, CDISC TS codetable, and recipient (regulatory agency) implementation expectations; removed --CLSIG due to promotion as a Findings variable; added --REASOC; all references to Appendix C2 in the SDTMIG were changed to Appendix C1 |", "score": 0.4098, "match_basis": "verbatim_token+chapter_route:ch10"}], "candidate_count": 5, "zero_candidate": false}
{"pdf_atom_id": "ig34_p0454_a007", "pdf_atom_type": "TABLE_ROW", "pdf_source": "SDTMIG_v3.4", "pdf_page": 454, "pdf_parent_section": "§10.E Appendix E: Revision History", "pdf_verbatim": "5.1 | Comments (CO) | Assumption 2 was added to explain the difference between the structure of the Comments domain in the SDTM and the SDTMIG. VISIT, VISITNUM, and VISITDY have been removed from the list of generally not used variables in CO Assumptions #5. Clarity was added to Assumption 1 regarding adverse events and clinical events.", "figure_ref": null, "candidates": [{"md_atom_id": "md_ch10_a189", "md_file": "knowledge_base/chapters/ch10_appendices.md", "md_atom_type": "TABLE_ROW", "md_parent_section": "§10.E [Revision History]", "md_verbatim": "| 5.1 | Comments (CO) | Assumption 2 added; VISIT, VISITNUM, and VISITDY removed from list of generally not used variables; clarity added to Assumption 1 regarding adverse events and clinical events |", "score": 0.7, "match_basis": "verbatim_token+chapter_route:ch10"}, {"md_atom_id": "md_ch10_a236", "md_file": "knowledge_base/chapters/ch10_appendices.md", "md_atom_type": "TABLE_ROW", "md_parent_section": "§10.E [Revision History]", "md_verbatim": "| 8.6.3 | Guidelines for Differentiating Between Interventions, Events, Findings, and Findings About Events or Interventions | \"Interventions\" added to section title; some changes to text to correct typos and clarify wording; second column of second row of table revised to explain what a log form is and to clarify how the data collection format may help understand the general observation class of data collected; added a row to the table to help in deciding between QS and FA for data about symptoms; reordered sentences in paragraph after the table and reiterated reference to AE structure assumption |", "score": 0.4513, "match_basis": "verbatim_token+chapter_route:ch10"}, {"md_atom_id": "md_ch10_a197", "md_file": "knowledge_base/chapters/ch10_appendices.md", "md_atom_type": "TABLE_ROW", "md_parent_section": "§10.E [Revision History]", "md_verbatim": "| 6.1.3 | Exposure Domains | EX assumptions updated to note that since EX includes only treatments received, --MOOD would generally not be used in EX; ECREASOC added (promoted from supplemental qualifier to standard variable); examples updated |", "score": 0.4451, "match_basis": "verbatim_token+chapter_route:ch10"}, {"md_atom_id": "md_ch10_a221", "md_file": "knowledge_base/chapters/ch10_appendices.md", "md_atom_type": "TABLE_ROW", "md_parent_section": "§10.E [Revision History]", "md_verbatim": "| 6.4.4 | Findings About Events or Interventions (FA) | Core value for FADTC changed from \"Perm\" to \"Exp\"; updated FATEST and FATESTCD CDISC Notes to reference general codelists; added assumption 4a referencing CV Code table; extensive updates to examples for clarity |", "score": 0.4441, "match_basis": "verbatim_token+chapter_route:ch10"}, {"md_atom_id": "md_ch10_a242", "md_file": "knowledge_base/chapters/ch10_appendices.md", "md_atom_type": "TABLE_ROW", "md_parent_section": "§10.E [Revision History]", "md_verbatim": "| Appendix C | Controlled Terminology | Appendix C1 Trial Summary Codes has been removed from SDTMIG v3.4; TS Assumptions were updated to reference CDISC controlled terminology, CDISC TS codetable, and recipient (regulatory agency) implementation expectations; removed --CLSIG due to promotion as a Findings variable; added --REASOC; all references to Appendix C2 in the SDTMIG were changed to Appendix C1 |", "score": 0.4321, "match_basis": "verbatim_token+chapter_route:ch10"}], "candidate_count": 5, "zero_candidate": false}
{"pdf_atom_id": "ig34_p0454_a008", "pdf_atom_type": "TABLE_ROW", "pdf_source": "SDTMIG_v3.4", "pdf_page": 454, "pdf_parent_section": "§10.E Appendix E: Revision History", "pdf_verbatim": "5.2 | Demographics (DM) | Revised DM.COUNTRY CDISC Notes to include \"Generally represented using ISO 3166-1 Alpha-3. However, please be advised that regulatory agency specific requirements may differ (e.g., U.S. FDA), in which, those need to be followed.\" We removed the ISO 3166-1 Alpha-3 format from the Controlled Terms column as we became aware of the varied national requirements for this terminology. Assumption 6 was updated to include cases where race self-identification can also correspond to \"Unknown\" (e.g., a refugee, was adopted, or cases where this information was not available). Updated assumption 6a to reference the Racec-Ethnicc Codetable available at https://www.cdisc.org/standards/terminology/controlled-terminology. Extensive updates occurred with DM examples. Previous DM Examples 2, 3, 4, 5, 8 and 10 were removed; Current Examples 4 thru", "figure_ref": null, "candidates": [{"md_atom_id": "md_ch10_a190", "md_file": "knowledge_base/chapters/ch10_appendices.md", "md_atom_type": "TABLE_ROW", "md_parent_section": "§10.E [Revision History]", "md_verbatim": "| 5.2 | Demographics (DM) | Revised DM.COUNTRY CDISC Notes; Assumption 6 updated for race self-identification; updated assumption 6a to reference Racec-Ethnicc Codetable; extensive DM example updates |", "score": 0.4897, "match_basis": "verbatim_token+chapter_route:ch10"}, {"md_atom_id": "md_ch10_a230", "md_file": "knowledge_base/chapters/ch10_appendices.md", "md_atom_type": "TABLE_ROW", "md_parent_section": "§10.E [Revision History]", "md_verbatim": "| 7.4.2 | Trial Summary (TS) | Changed the CDISC Notes for TSSEQ to reflect that the sequence number is to ensure uniqueness within a parameter; revisions to most TS assumptions to remove references to Appendix C1 Trial Summary Codes (as this appendix was removed); TS assumptions replaced with ones that note recipients may specify requirements and terminology; reference added for the TS Codetable on the CDISC website; revised TS Assumption 17 to clarify value expectations for TSPARMCD = \"INDIC\"; additional assumptions revised for clarity; information added about exploratory outcome measures; Examples 1-3 revised; new Example 4 added to show use of TSGRPID for study parts and treatments |", "score": 0.4466, "match_basis": "verbatim_token+chapter_route:ch10"}, {"md_atom_id": "md_ch10_a242", "md_file": "knowledge_base/chapters/ch10_appendices.md", "md_atom_type": "TABLE_ROW", "md_parent_section": "§10.E [Revision History]", "md_verbatim": "| Appendix C | Controlled Terminology | Appendix C1 Trial Summary Codes has been removed from SDTMIG v3.4; TS Assumptions were updated to reference CDISC controlled terminology, CDISC TS codetable, and recipient (regulatory agency) implementation expectations; removed --CLSIG due to promotion as a Findings variable; added --REASOC; all references to Appendix C2 in the SDTMIG were changed to Appendix C1 |", "score": 0.4464, "match_basis": "verbatim_token+chapter_route:ch10"}, {"md_atom_id": "md_ch10_a221", "md_file": "knowledge_base/chapters/ch10_appendices.md", "md_atom_type": "TABLE_ROW", "md_parent_section": "§10.E [Revision History]", "md_verbatim": "| 6.4.4 | Findings About Events or Interventions (FA) | Core value for FADTC changed from \"Perm\" to \"Exp\"; updated FATEST and FATESTCD CDISC Notes to reference general codelists; added assumption 4a referencing CV Code table; extensive updates to examples for clarity |", "score": 0.4192, "match_basis": "verbatim_token+chapter_route:ch10"}, {"md_atom_id": "md_ch10_a236", "md_file": "knowledge_base/chapters/ch10_appendices.md", "md_atom_type": "TABLE_ROW", "md_parent_section": "§10.E [Revision History]", "md_verbatim": "| 8.6.3 | Guidelines for Differentiating Between Interventions, Events, Findings, and Findings About Events or Interventions | \"Interventions\" added to section title; some changes to text to correct typos and clarify wording; second column of second row of table revised to explain what a log form is and to clarify how the data collection format may help understand the general observation class of data collected; added a row to the table to help in deciding between QS and FA for data about symptoms; reordered sentences in paragraph after the table and reiterated reference to AE structure assumption |", "score": 0.4181, "match_basis": "verbatim_token+chapter_route:ch10"}], "candidate_count": 5, "zero_candidate": false}
