{"pdf_atom_id": "ig34_p0162_a0001", "pdf_atom_type": "LIST_ITEM", "pdf_source": "SDTMIG_v3.4", "pdf_page": 162, "pdf_parent_section": "§6.2.4 Disposition (DS)", "pdf_verbatim": "Row 3:\tRepresents the final study completion within the trial, which is indicated by DSSCAT = \"STUDY PARTICIPATION\".", "figure_ref": null, "candidates": [{"md_atom_id": "md_dmDS_ex_a088", "md_file": "knowledge_base/domains/DS/examples.md", "md_atom_type": "SENTENCE", "md_parent_section": "§DS.6 [Example 6]", "md_verbatim": "**Row 3:** Represents the final study completion within the trial, which is indicated by DSSCAT = \"STUDY PARTICIPATION\".", "score": 0.91, "match_basis": "verbatim_token+domain_route:DS"}, {"md_atom_id": "md_dmDS_ex_a087", "md_file": "knowledge_base/domains/DS/examples.md", "md_atom_type": "SENTENCE", "md_parent_section": "§DS.6 [Example 6]", "md_verbatim": "**Row 2:** Represents the final treatment completion of isoniazid within the trial, which is indicated by DSSCAT = \"ISONIAZID\".", "score": 0.6827, "match_basis": "verbatim_token+domain_route:DS"}, {"md_atom_id": "md_dmDS_assn_a006", "md_file": "knowledge_base/domains/DS/assumptions.md", "md_atom_type": "LIST_ITEM", "md_parent_section": "§DS [DS — Assumptions]", "md_verbatim": "      i. DSSCAT = \"STUDY PARTICIPATION\" is used to represent disposition of study participation.", "score": 0.6419, "match_basis": "verbatim_token+domain_route:DS"}, {"md_atom_id": "md_dmDS_ex_a192", "md_file": "knowledge_base/domains/DS/examples.md", "md_atom_type": "SENTENCE", "md_parent_section": "§DS.10 [Example 10]", "md_verbatim": "**Rows 7, 14:** Represent the completion of study participation follow-up epoch, where DSSCAT has the name of \"STUDY PARTICIPATION\". The DSSTDTC is the end date of study participation for the epoch.", "score": 0.5857, "match_basis": "verbatim_token+domain_route:DS"}, {"md_atom_id": "md_dmDS_ex_a076", "md_file": "knowledge_base/domains/DS/examples.md", "md_atom_type": "SENTENCE", "md_parent_section": "§DS.5 [Example 5]", "md_verbatim": "**Rows 3, 5:** Represent the study disposition for each treatment epoch, as indicated by DSSCAT = \"STUDY PARTICIPATION\".", "score": 0.5812, "match_basis": "verbatim_token+domain_route:DS"}], "candidate_count": 5, "zero_candidate": false}
{"pdf_atom_id": "ig34_p0162_a0002", "pdf_atom_type": "CODE_LITERAL", "pdf_source": "SDTMIG_v3.4", "pdf_page": 162, "pdf_parent_section": "§6.2.4 Disposition (DS)", "pdf_verbatim": "ds.xpt", "figure_ref": null, "candidates": [{"md_atom_id": "md_dmDS_ex_a011", "md_file": "knowledge_base/domains/DS/examples.md", "md_atom_type": "SENTENCE", "md_parent_section": "§DS.1 [Example 1]", "md_verbatim": "**ds.xpt**", "score": 0.79, "match_basis": "verbatim_token+domain_route:DS"}, {"md_atom_id": "md_dmDS_ex_a038", "md_file": "knowledge_base/domains/DS/examples.md", "md_atom_type": "SENTENCE", "md_parent_section": "§DS.2 [Example 2]", "md_verbatim": "**ds.xpt**", "score": 0.79, "match_basis": "verbatim_token+domain_route:DS"}, {"md_atom_id": "md_dmDS_ex_a049", "md_file": "knowledge_base/domains/DS/examples.md", "md_atom_type": "SENTENCE", "md_parent_section": "§DS.3 [Example 3]", "md_verbatim": "**ds.xpt**", "score": 0.79, "match_basis": "verbatim_token+domain_route:DS"}, {"md_atom_id": "md_dmDS_ex_a059", "md_file": "knowledge_base/domains/DS/examples.md", "md_atom_type": "SENTENCE", "md_parent_section": "§DS.4 [Example 4]", "md_verbatim": "**ds.xpt**", "score": 0.79, "match_basis": "verbatim_token+domain_route:DS"}, {"md_atom_id": "md_dmDS_ex_a063", "md_file": "knowledge_base/domains/DS/examples.md", "md_atom_type": "SENTENCE", "md_parent_section": "§DS.4 [Example 4]", "md_verbatim": "**ae.xpt**", "score": 0.79, "match_basis": "verbatim_token+domain_route:DS"}, {"md_atom_id": "md_dmDS_ex_a077", "md_file": "knowledge_base/domains/DS/examples.md", "md_atom_type": "SENTENCE", "md_parent_section": "§DS.5 [Example 5]", "md_verbatim": "**ds.xpt**", "score": 0.79, "match_basis": "verbatim_token+domain_route:DS"}, {"md_atom_id": "md_dmDS_ex_a089", "md_file": "knowledge_base/domains/DS/examples.md", "md_atom_type": "SENTENCE", "md_parent_section": "§DS.6 [Example 6]", "md_verbatim": "**ds.xpt**", "score": 0.79, "match_basis": "verbatim_token+domain_route:DS"}, {"md_atom_id": "md_dmDS_ex_a098", "md_file": "knowledge_base/domains/DS/examples.md", "md_atom_type": "SENTENCE", "md_parent_section": "§DS.7 [Example 7]", "md_verbatim": "**ds.xpt**", "score": 0.79, "match_basis": "verbatim_token+domain_route:DS"}, {"md_atom_id": "md_dmDS_ex_a108", "md_file": "knowledge_base/domains/DS/examples.md", "md_atom_type": "SENTENCE", "md_parent_section": "§DS.8 [Example 8]", "md_verbatim": "**ds.xpt**", "score": 0.79, "match_basis": "verbatim_token+domain_route:DS"}, {"md_atom_id": "md_dmDS_ex_a121", "md_file": "knowledge_base/domains/DS/examples.md", "md_atom_type": "SENTENCE", "md_parent_section": "§DS.9 [Example 9]", "md_verbatim": "**ds.xpt**", "score": 0.79, "match_basis": "verbatim_token+domain_route:DS"}], "candidate_count": 10, "zero_candidate": false}
{"pdf_atom_id": "ig34_p0162_a0003", "pdf_atom_type": "TABLE_HEADER", "pdf_source": "SDTMIG_v3.4", "pdf_page": 162, "pdf_parent_section": "§6.2.4 Disposition (DS)", "pdf_verbatim": "| Row | STUDYID | DOMAIN | USUBJID | DSSEQ | DSTERM | DSDECOD | DSCAT | DSSCAT | EPOCH | DSSTDTC |", "figure_ref": null, "candidates": [{"md_atom_id": "md_dmDS_ex_a078", "md_file": "knowledge_base/domains/DS/examples.md", "md_atom_type": "TABLE_HEADER", "md_parent_section": "§DS.5 [Example 5]", "md_verbatim": "| Row | STUDYID | DOMAIN | USUBJID | DSSEQ | DSTERM | DSDECOD | DSCAT | DSSCAT | EPOCH | DSSTDTC |\n|-----|---------|--------|---------|-------|--------|---------|-------|--------|-------|---------|", "score": 1.0, "match_basis": "verbatim_token+domain_route:DS"}, {"md_atom_id": "md_dmDS_ex_a090", "md_file": "knowledge_base/domains/DS/examples.md", "md_atom_type": "TABLE_HEADER", "md_parent_section": "§DS.6 [Example 6]", "md_verbatim": "| Row | STUDYID | DOMAIN | USUBJID | DSSEQ | DSTERM | DSDECOD | DSCAT | DSSCAT | EPOCH | DSSTDTC |\n|-----|---------|--------|---------|-------|--------|---------|-------|--------|-------|---------|", "score": 1.0, "match_basis": "verbatim_token+domain_route:DS"}, {"md_atom_id": "md_dmDS_ex_a099", "md_file": "knowledge_base/domains/DS/examples.md", "md_atom_type": "TABLE_HEADER", "md_parent_section": "§DS.7 [Example 7]", "md_verbatim": "| Row | STUDYID | DOMAIN | USUBJID | DSSEQ | DSTERM | DSDECOD | DSCAT | DSSCAT | EPOCH | DSSTDTC |\n|-----|---------|--------|---------|-------|--------|---------|-------|--------|-------|---------|", "score": 1.0, "match_basis": "verbatim_token+domain_route:DS"}, {"md_atom_id": "md_dmDS_ex_a109", "md_file": "knowledge_base/domains/DS/examples.md", "md_atom_type": "TABLE_HEADER", "md_parent_section": "§DS.8 [Example 8]", "md_verbatim": "| Row | STUDYID | DOMAIN | USUBJID | DSSEQ | DSTERM | DSDECOD | DSCAT | DSSCAT | EPOCH | DSSTDTC |\n|-----|---------|--------|---------|-------|--------|---------|-------|--------|-------|---------|", "score": 1.0, "match_basis": "verbatim_token+domain_route:DS"}, {"md_atom_id": "md_dmDS_ex_a194", "md_file": "knowledge_base/domains/DS/examples.md", "md_atom_type": "TABLE_HEADER", "md_parent_section": "§DS.10 [Example 10]", "md_verbatim": "| Row | STUDYID | DOMAIN | USUBJID | DSSEQ | DSTERM | DSDECOD | DSCAT | DSSCAT | EPOCH | DSSTDTC |\n|-----|---------|--------|---------|-------|--------|---------|-------|--------|-------|---------|", "score": 1.0, "match_basis": "verbatim_token+domain_route:DS"}], "candidate_count": 5, "zero_candidate": false}
{"pdf_atom_id": "ig34_p0162_a0004", "pdf_atom_type": "TABLE_ROW", "pdf_source": "SDTMIG_v3.4", "pdf_page": 162, "pdf_parent_section": "§6.2.4 Disposition (DS)", "pdf_verbatim": "| 1 | XXX | DS | XXX-767-001 | 1 | PERSISTENT HIGH-LEVEL POSITIVE CULTURES, PER PROTOCOL, LEVOFLOXACIN REMOVAL RECOMMENDED | PHYSICIAN DECISION | DISPOSITION EVENT | LEVOFLOXACIN | TREATMENT 1 | 2016-02-15 |", "figure_ref": null, "candidates": [{"md_atom_id": "md_dmDS_ex_a079", "md_file": "knowledge_base/domains/DS/examples.md", "md_atom_type": "TABLE_ROW", "md_parent_section": "§DS.5 [Example 5]", "md_verbatim": "| 1 | XXX | DS | XXX-767-001 | 1 | PERSISTENT HIGH-LEVEL POSITIVE CULTURES. PER PROTOCOL, LEVOFLOXACIN REMOVAL RECOMMENDED | PHYSICIAN DECISION | DISPOSITION EVENT | LEVOFLOXACIN | TREATMENT 1 | 2016-02-15 |", "score": 1.0, "match_basis": "verbatim_token+domain_route:DS"}, {"md_atom_id": "md_dmDS_ex_a091", "md_file": "knowledge_base/domains/DS/examples.md", "md_atom_type": "TABLE_ROW", "md_parent_section": "§DS.6 [Example 6]", "md_verbatim": "| 1 | XXX | DS | XXX-767-001 | 1 | PERSISTENT HIGH-LEVEL POSITIVE CULTURES. PER PROTOCOL, LEVOFLOXACIN REMOVAL RECOMMENDED | PHYSICIAN DECISION | DISPOSITION EVENT | LEVOFLOXACIN | TREATMENT 1 | 2016-02-15 |", "score": 1.0, "match_basis": "verbatim_token+domain_route:DS"}, {"md_atom_id": "md_dmDS_ex_a110", "md_file": "knowledge_base/domains/DS/examples.md", "md_atom_type": "TABLE_ROW", "md_parent_section": "§DS.8 [Example 8]", "md_verbatim": "| 1 | XXX | DS | XXX-767-001 | 1 | COMPLETED | COMPLETED | DISPOSITION EVENT | BLINDED DRUG A | TREATMENT 1 | 2016-02-15 |", "score": 0.5677, "match_basis": "verbatim_token+domain_route:DS"}, {"md_atom_id": "md_dmDS_ex_a111", "md_file": "knowledge_base/domains/DS/examples.md", "md_atom_type": "TABLE_ROW", "md_parent_section": "§DS.8 [Example 8]", "md_verbatim": "| 2 | XXX | DS | XXX-767-001 | 2 | COMPLETED | COMPLETED | DISPOSITION EVENT | BLINDED DRUG B | TREATMENT 1 | 2016-02-15 |", "score": 0.5677, "match_basis": "verbatim_token+domain_route:DS"}, {"md_atom_id": "md_dmDS_ex_a113", "md_file": "knowledge_base/domains/DS/examples.md", "md_atom_type": "TABLE_ROW", "md_parent_section": "§DS.8 [Example 8]", "md_verbatim": "| 4 | XXX | DS | XXX-767-001 | 4 | COMPLETED | COMPLETED | DISPOSITION EVENT | BLINDED DRUG A | TREATMENT 2 | 2016-03-14 |", "score": 0.5677, "match_basis": "verbatim_token+domain_route:DS"}], "candidate_count": 5, "zero_candidate": false}
{"pdf_atom_id": "ig34_p0162_a0005", "pdf_atom_type": "TABLE_ROW", "pdf_source": "SDTMIG_v3.4", "pdf_page": 162, "pdf_parent_section": "§6.2.4 Disposition (DS)", "pdf_verbatim": "| 2 | XXX | DS | XXX-767-001 | 2 | COMPLETED | COMPLETED | DISPOSITION EVENT | ISONIAZID | TREATMENT 2 | 2016-03-14 |", "figure_ref": null, "candidates": [{"md_atom_id": "md_dmDS_ex_a080", "md_file": "knowledge_base/domains/DS/examples.md", "md_atom_type": "TABLE_ROW", "md_parent_section": "§DS.5 [Example 5]", "md_verbatim": "| 2 | XXX | DS | XXX-767-001 | 2 | COMPLETED | COMPLETED | DISPOSITION EVENT | ISONIAZID | TREATMENT 1 | 2016-02-15 |", "score": 1.0, "match_basis": "verbatim_token+domain_route:DS"}, {"md_atom_id": "md_dmDS_ex_a082", "md_file": "knowledge_base/domains/DS/examples.md", "md_atom_type": "TABLE_ROW", "md_parent_section": "§DS.5 [Example 5]", "md_verbatim": "| 4 | XXX | DS | XXX-767-001 | 4 | COMPLETED | COMPLETED | DISPOSITION EVENT | ISONIAZID | TREATMENT 2 | 2016-03-14 |", "score": 1.0, "match_basis": "verbatim_token+domain_route:DS"}, {"md_atom_id": "md_dmDS_ex_a092", "md_file": "knowledge_base/domains/DS/examples.md", "md_atom_type": "TABLE_ROW", "md_parent_section": "§DS.6 [Example 6]", "md_verbatim": "| 2 | XXX | DS | XXX-767-001 | 2 | COMPLETED | COMPLETED | DISPOSITION EVENT | ISONIAZID | TREATMENT 2 | 2016-03-14 |", "score": 1.0, "match_basis": "verbatim_token+domain_route:DS"}, {"md_atom_id": "md_dmDS_ex_a100", "md_file": "knowledge_base/domains/DS/examples.md", "md_atom_type": "TABLE_ROW", "md_parent_section": "§DS.7 [Example 7]", "md_verbatim": "| 1 | XXX | DS | XXX-767-001 | 1 | COMPLETED | COMPLETED | DISPOSITION EVENT | STUDY TREATMENT | TREATMENT 1 | 2016-02-15 |", "score": 0.85, "match_basis": "verbatim_token+domain_route:DS"}, {"md_atom_id": "md_dmDS_ex_a197", "md_file": "knowledge_base/domains/DS/examples.md", "md_atom_type": "TABLE_ROW", "md_parent_section": "§DS.10 [Example 10]", "md_verbatim": "| 3 | XYZ | DS | XYZ-767-001 | 3 | COMPLETED | COMPLETED | DISPOSITION EVENT | DRUG1 | TREATMENT 1 | 2016-03-14 |", "score": 0.8244, "match_basis": "verbatim_token+domain_route:DS"}], "candidate_count": 5, "zero_candidate": false}
{"pdf_atom_id": "ig34_p0162_a0006", "pdf_atom_type": "TABLE_ROW", "pdf_source": "SDTMIG_v3.4", "pdf_page": 162, "pdf_parent_section": "§6.2.4 Disposition (DS)", "pdf_verbatim": "| 3 | XXX | DS | XXX-767-001 | 3 | COMPLETED | COMPLETED | DISPOSITION EVENT | STUDY PARTICIPATION | TREATMENT 2 | 2016-03-24 |", "figure_ref": null, "candidates": [{"md_atom_id": "md_dmDS_ex_a081", "md_file": "knowledge_base/domains/DS/examples.md", "md_atom_type": "TABLE_ROW", "md_parent_section": "§DS.5 [Example 5]", "md_verbatim": "| 3 | XXX | DS | XXX-767-001 | 3 | COMPLETED | COMPLETED | DISPOSITION EVENT | STUDY PARTICIPATION | TREATMENT 1 | 2016-02-25 |", "score": 1.0, "match_basis": "verbatim_token+domain_route:DS"}, {"md_atom_id": "md_dmDS_ex_a083", "md_file": "knowledge_base/domains/DS/examples.md", "md_atom_type": "TABLE_ROW", "md_parent_section": "§DS.5 [Example 5]", "md_verbatim": "| 5 | XXX | DS | XXX-767-001 | 5 | COMPLETED | COMPLETED | DISPOSITION EVENT | STUDY PARTICIPATION | TREATMENT 2 | 2016-03-24 |", "score": 1.0, "match_basis": "verbatim_token+domain_route:DS"}, {"md_atom_id": "md_dmDS_ex_a093", "md_file": "knowledge_base/domains/DS/examples.md", "md_atom_type": "TABLE_ROW", "md_parent_section": "§DS.6 [Example 6]", "md_verbatim": "| 3 | XXX | DS | XXX-767-001 | 3 | COMPLETED | COMPLETED | DISPOSITION EVENT | STUDY PARTICIPATION | TREATMENT 2 | 2016-03-24 |", "score": 1.0, "match_basis": "verbatim_token+domain_route:DS"}, {"md_atom_id": "md_dmDS_ex_a101", "md_file": "knowledge_base/domains/DS/examples.md", "md_atom_type": "TABLE_ROW", "md_parent_section": "§DS.7 [Example 7]", "md_verbatim": "| 2 | XXX | DS | XXX-767-001 | 2 | COMPLETED | COMPLETED | DISPOSITION EVENT | STUDY PARTICIPATION | TREATMENT 1 | 2016-02-15 |", "score": 1.0, "match_basis": "verbatim_token+domain_route:DS"}, {"md_atom_id": "md_dmDS_ex_a112", "md_file": "knowledge_base/domains/DS/examples.md", "md_atom_type": "TABLE_ROW", "md_parent_section": "§DS.8 [Example 8]", "md_verbatim": "| 3 | XXX | DS | XXX-767-001 | 3 | COMPLETED | COMPLETED | DISPOSITION EVENT | STUDY PARTICIPATION | TREATMENT 1 | 2016-02-25 |", "score": 1.0, "match_basis": "verbatim_token+domain_route:DS"}], "candidate_count": 5, "zero_candidate": false}
{"pdf_atom_id": "ig34_p0162_a0007", "pdf_atom_type": "HEADING", "pdf_source": "SDTMIG_v3.4", "pdf_page": 162, "pdf_parent_section": "§6.2.4 Disposition (DS)", "pdf_verbatim": "Example 7", "figure_ref": null, "candidates": [{"md_atom_id": "md_dmDS_ex_a002", "md_file": "knowledge_base/domains/DS/examples.md", "md_atom_type": "HEADING", "md_parent_section": "§DS [DS — Examples]", "md_verbatim": "## Example 1", "score": 1.0, "match_basis": "verbatim_token+domain_route:DS"}, {"md_atom_id": "md_dmDS_ex_a034", "md_file": "knowledge_base/domains/DS/examples.md", "md_atom_type": "HEADING", "md_parent_section": "§DS [DS — Examples]", "md_verbatim": "## Example 2", "score": 1.0, "match_basis": "verbatim_token+domain_route:DS"}, {"md_atom_id": "md_dmDS_ex_a043", "md_file": "knowledge_base/domains/DS/examples.md", "md_atom_type": "HEADING", "md_parent_section": "§DS [DS — Examples]", "md_verbatim": "## Example 3", "score": 1.0, "match_basis": "verbatim_token+domain_route:DS"}, {"md_atom_id": "md_dmDS_ex_a056", "md_file": "knowledge_base/domains/DS/examples.md", "md_atom_type": "HEADING", "md_parent_section": "§DS [DS — Examples]", "md_verbatim": "## Example 4", "score": 1.0, "match_basis": "verbatim_token+domain_route:DS"}, {"md_atom_id": "md_dmDS_ex_a072", "md_file": "knowledge_base/domains/DS/examples.md", "md_atom_type": "HEADING", "md_parent_section": "§DS [DS — Examples]", "md_verbatim": "## Example 5", "score": 1.0, "match_basis": "verbatim_token+domain_route:DS"}, {"md_atom_id": "md_dmDS_ex_a084", "md_file": "knowledge_base/domains/DS/examples.md", "md_atom_type": "HEADING", "md_parent_section": "§DS [DS — Examples]", "md_verbatim": "## Example 6", "score": 1.0, "match_basis": "verbatim_token+domain_route:DS"}, {"md_atom_id": "md_dmDS_ex_a094", "md_file": "knowledge_base/domains/DS/examples.md", "md_atom_type": "HEADING", "md_parent_section": "§DS [DS — Examples]", "md_verbatim": "## Example 7", "score": 1.0, "match_basis": "verbatim_token+domain_route:DS"}, {"md_atom_id": "md_dmDS_ex_a104", "md_file": "knowledge_base/domains/DS/examples.md", "md_atom_type": "HEADING", "md_parent_section": "§DS [DS — Examples]", "md_verbatim": "## Example 8", "score": 1.0, "match_basis": "verbatim_token+domain_route:DS"}, {"md_atom_id": "md_dmDS_ex_a116", "md_file": "knowledge_base/domains/DS/examples.md", "md_atom_type": "HEADING", "md_parent_section": "§DS [DS — Examples]", "md_verbatim": "## Example 9", "score": 1.0, "match_basis": "verbatim_token+domain_route:DS"}, {"md_atom_id": "md_dmDS_ex_a128", "md_file": "knowledge_base/domains/DS/examples.md", "md_atom_type": "HEADING", "md_parent_section": "§DS [DS — Examples]", "md_verbatim": "## Example 10", "score": 1.0, "match_basis": "verbatim_token+domain_route:DS"}], "candidate_count": 10, "zero_candidate": false}
{"pdf_atom_id": "ig34_p0162_a0008", "pdf_atom_type": "SENTENCE", "pdf_source": "SDTMIG_v3.4", "pdf_page": 162, "pdf_parent_section": "§6.2.4 Disposition (DS)", "pdf_verbatim": "This is an example of a trial with a single investigative treatment. The sponsor used the generic DSSCAT value \"STUDY TREATMENT\" rather than the name of the treatment. This subject discontinued both treatment and study participation due to an adverse event.", "figure_ref": null, "candidates": [{"md_atom_id": "md_dmDS_ex_a095", "md_file": "knowledge_base/domains/DS/examples.md", "md_atom_type": "SENTENCE", "md_parent_section": "§DS.7 [Example 7]", "md_verbatim": "This is an example of a trial with a single investigative treatment. The sponsor used the generic DSSCAT value \"STUDY TREATMENT\" rather than the name of the treatment. This subject discontinued both treatment and study participation due to an adverse event.", "score": 1.0, "match_basis": "verbatim_token+domain_route:DS"}, {"md_atom_id": "md_dmDS_ex_a085", "md_file": "knowledge_base/domains/DS/examples.md", "md_atom_type": "SENTENCE", "md_parent_section": "§DS.6 [Example 6]", "md_verbatim": "This example is for a study of a multidrug (isoniazid and levofloxacin) investigational treatment for MDR-TB. The protocol allowed a subject to discontinue levofloxacin and continue single treatment of isoniazid throughout the remainder of the study. Disposition of study participation and of each study treatment was collected. For records of disposition of the subject's participation in the study DSSCAT = \"STUDY PARTICIPATION\", whereas for records of disposition of a study treatment DSSCAT is the name of the treatment.", "score": 0.6194, "match_basis": "verbatim_token+domain_route:DS"}, {"md_atom_id": "md_dmDS_ex_a073", "md_file": "knowledge_base/domains/DS/examples.md", "md_atom_type": "SENTENCE", "md_parent_section": "§DS.5 [Example 5]", "md_verbatim": "This below represents a multidrug (isoniazid and levofloxacin) investigational treatment trial for multidrug-resistant tuberculosis (MDR-TB). The protocol allows for a subject to discontinue levofloxacin and continue single treatment of isoniazid throughout the remainder of the study. Disposition of study participation and disposition of each drug was collected. Whether a record with DSCAT = \"DISPOSITION EVENT\" represents disposition of the subject's participation in the study or disposition of a study treatment is represented in DSSCAT. In this example, disposition of the study and of each drug a subject received for each of the study's 2 treatment epochs.", "score": 0.6039, "match_basis": "verbatim_token+domain_route:DS"}, {"md_atom_id": "md_dmDS_ex_a037", "md_file": "knowledge_base/domains/DS/examples.md", "md_atom_type": "SENTENCE", "md_parent_section": "§DS.2 [Example 2]", "md_verbatim": "**Rows 2-3:** Subjects 456102 and 456103 discontinued. Both discontinued participation during the treatment epoch.", "score": 0.6, "match_basis": "verbatim_token+domain_route:DS"}, {"md_atom_id": "md_dmDS_ex_a010", "md_file": "knowledge_base/domains/DS/examples.md", "md_atom_type": "SENTENCE", "md_parent_section": "§DS.1 [Example 1]", "md_verbatim": "**Rows 19-21:** Show disposition of a subject who discontinued the treatment epoch due to an adverse event, but who went on to complete the follow-up phase of the trial.", "score": 0.5857, "match_basis": "verbatim_token+domain_route:DS"}], "candidate_count": 5, "zero_candidate": false}
{"pdf_atom_id": "ig34_p0162_a0009", "pdf_atom_type": "LIST_ITEM", "pdf_source": "SDTMIG_v3.4", "pdf_page": 162, "pdf_parent_section": "§6.2.4 Disposition (DS)", "pdf_verbatim": "Rows 1, 3:\tRepresent the disposition of treatment for each treatment epoch, as indicated by DSSCAT = \"STUDY TREATMENT\".", "figure_ref": null, "candidates": [{"md_atom_id": "md_dmDS_ex_a096", "md_file": "knowledge_base/domains/DS/examples.md", "md_atom_type": "SENTENCE", "md_parent_section": "§DS.7 [Example 7]", "md_verbatim": "**Rows 1, 3:** Represent the disposition of treatment for each treatment epoch, as indicated by DSSCAT = \"STUDY TREATMENT\".", "score": 0.91, "match_basis": "verbatim_token+domain_route:DS"}, {"md_atom_id": "md_dmDS_ex_a076", "md_file": "knowledge_base/domains/DS/examples.md", "md_atom_type": "SENTENCE", "md_parent_section": "§DS.5 [Example 5]", "md_verbatim": "**Rows 3, 5:** Represent the study disposition for each treatment epoch, as indicated by DSSCAT = \"STUDY PARTICIPATION\".", "score": 0.8081, "match_basis": "verbatim_token+domain_route:DS"}, {"md_atom_id": "md_dmDS_ex_a107", "md_file": "knowledge_base/domains/DS/examples.md", "md_atom_type": "SENTENCE", "md_parent_section": "§DS.8 [Example 8]", "md_verbatim": "**Rows 3, 6:** Represent the disposition of study participation for each of the 2 treatment epochs, as indicated by DSSCAT = \"STUDY PARTICIPATION\".", "score": 0.7989, "match_basis": "verbatim_token+domain_route:DS"}, {"md_atom_id": "md_dmDS_ex_a106", "md_file": "knowledge_base/domains/DS/examples.md", "md_atom_type": "SENTENCE", "md_parent_section": "§DS.8 [Example 8]", "md_verbatim": "**Rows 1, 2, 4, 5:** Represent the disposition of the blinded treatments for each of the 2 treatment epochs, indicated by DSSCAT = \"BLINDED DRUG A\" and DSSCAT = \"BLINDED DRUG B\".", "score": 0.7742, "match_basis": "verbatim_token+domain_route:DS"}, {"md_atom_id": "md_dmDS_ex_a097", "md_file": "knowledge_base/domains/DS/examples.md", "md_atom_type": "SENTENCE", "md_parent_section": "§DS.7 [Example 7]", "md_verbatim": "**Rows 2, 4:** Represent the disposition of study participation continuation for each treatment epoch, as indicated by DSSCAT = \"STUDY PARTICIPATION\".", "score": 0.75, "match_basis": "verbatim_token+domain_route:DS"}], "candidate_count": 5, "zero_candidate": false}
{"pdf_atom_id": "ig34_p0162_a0010", "pdf_atom_type": "LIST_ITEM", "pdf_source": "SDTMIG_v3.4", "pdf_page": 162, "pdf_parent_section": "§6.2.4 Disposition (DS)", "pdf_verbatim": "Rows 2, 4:\tRepresent the disposition of study participation continuation for each treatment epoch, as indicated by DSSCAT = \"STUDY PARTICIPATION\".", "figure_ref": null, "candidates": [{"md_atom_id": "md_dmDS_ex_a097", "md_file": "knowledge_base/domains/DS/examples.md", "md_atom_type": "SENTENCE", "md_parent_section": "§DS.7 [Example 7]", "md_verbatim": "**Rows 2, 4:** Represent the disposition of study participation continuation for each treatment epoch, as indicated by DSSCAT = \"STUDY PARTICIPATION\".", "score": 0.91, "match_basis": "verbatim_token+domain_route:DS"}, {"md_atom_id": "md_dmDS_ex_a076", "md_file": "knowledge_base/domains/DS/examples.md", "md_atom_type": "SENTENCE", "md_parent_section": "§DS.5 [Example 5]", "md_verbatim": "**Rows 3, 5:** Represent the study disposition for each treatment epoch, as indicated by DSSCAT = \"STUDY PARTICIPATION\".", "score": 0.84, "match_basis": "verbatim_token+domain_route:DS"}, {"md_atom_id": "md_dmDS_ex_a107", "md_file": "knowledge_base/domains/DS/examples.md", "md_atom_type": "SENTENCE", "md_parent_section": "§DS.8 [Example 8]", "md_verbatim": "**Rows 3, 6:** Represent the disposition of study participation for each of the 2 treatment epochs, as indicated by DSSCAT = \"STUDY PARTICIPATION\".", "score": 0.8313, "match_basis": "verbatim_token+domain_route:DS"}, {"md_atom_id": "md_dmDS_ex_a096", "md_file": "knowledge_base/domains/DS/examples.md", "md_atom_type": "SENTENCE", "md_parent_section": "§DS.7 [Example 7]", "md_verbatim": "**Rows 1, 3:** Represent the disposition of treatment for each treatment epoch, as indicated by DSSCAT = \"STUDY TREATMENT\".", "score": 0.75, "match_basis": "verbatim_token+domain_route:DS"}, {"md_atom_id": "md_dmDS_assn_a006", "md_file": "knowledge_base/domains/DS/assumptions.md", "md_atom_type": "LIST_ITEM", "md_parent_section": "§DS [DS — Assumptions]", "md_verbatim": "      i. DSSCAT = \"STUDY PARTICIPATION\" is used to represent disposition of study participation.", "score": 0.7097, "match_basis": "verbatim_token+domain_route:DS"}], "candidate_count": 5, "zero_candidate": false}
{"pdf_atom_id": "ig34_p0162_a0011", "pdf_atom_type": "CODE_LITERAL", "pdf_source": "SDTMIG_v3.4", "pdf_page": 162, "pdf_parent_section": "§6.2.4 Disposition (DS)", "pdf_verbatim": "ds.xpt", "figure_ref": null, "candidates": [{"md_atom_id": "md_dmDS_ex_a011", "md_file": "knowledge_base/domains/DS/examples.md", "md_atom_type": "SENTENCE", "md_parent_section": "§DS.1 [Example 1]", "md_verbatim": "**ds.xpt**", "score": 0.79, "match_basis": "verbatim_token+domain_route:DS"}, {"md_atom_id": "md_dmDS_ex_a038", "md_file": "knowledge_base/domains/DS/examples.md", "md_atom_type": "SENTENCE", "md_parent_section": "§DS.2 [Example 2]", "md_verbatim": "**ds.xpt**", "score": 0.79, "match_basis": "verbatim_token+domain_route:DS"}, {"md_atom_id": "md_dmDS_ex_a049", "md_file": "knowledge_base/domains/DS/examples.md", "md_atom_type": "SENTENCE", "md_parent_section": "§DS.3 [Example 3]", "md_verbatim": "**ds.xpt**", "score": 0.79, "match_basis": "verbatim_token+domain_route:DS"}, {"md_atom_id": "md_dmDS_ex_a059", "md_file": "knowledge_base/domains/DS/examples.md", "md_atom_type": "SENTENCE", "md_parent_section": "§DS.4 [Example 4]", "md_verbatim": "**ds.xpt**", "score": 0.79, "match_basis": "verbatim_token+domain_route:DS"}, {"md_atom_id": "md_dmDS_ex_a063", "md_file": "knowledge_base/domains/DS/examples.md", "md_atom_type": "SENTENCE", "md_parent_section": "§DS.4 [Example 4]", "md_verbatim": "**ae.xpt**", "score": 0.79, "match_basis": "verbatim_token+domain_route:DS"}, {"md_atom_id": "md_dmDS_ex_a077", "md_file": "knowledge_base/domains/DS/examples.md", "md_atom_type": "SENTENCE", "md_parent_section": "§DS.5 [Example 5]", "md_verbatim": "**ds.xpt**", "score": 0.79, "match_basis": "verbatim_token+domain_route:DS"}, {"md_atom_id": "md_dmDS_ex_a089", "md_file": "knowledge_base/domains/DS/examples.md", "md_atom_type": "SENTENCE", "md_parent_section": "§DS.6 [Example 6]", "md_verbatim": "**ds.xpt**", "score": 0.79, "match_basis": "verbatim_token+domain_route:DS"}, {"md_atom_id": "md_dmDS_ex_a098", "md_file": "knowledge_base/domains/DS/examples.md", "md_atom_type": "SENTENCE", "md_parent_section": "§DS.7 [Example 7]", "md_verbatim": "**ds.xpt**", "score": 0.79, "match_basis": "verbatim_token+domain_route:DS"}, {"md_atom_id": "md_dmDS_ex_a108", "md_file": "knowledge_base/domains/DS/examples.md", "md_atom_type": "SENTENCE", "md_parent_section": "§DS.8 [Example 8]", "md_verbatim": "**ds.xpt**", "score": 0.79, "match_basis": "verbatim_token+domain_route:DS"}, {"md_atom_id": "md_dmDS_ex_a121", "md_file": "knowledge_base/domains/DS/examples.md", "md_atom_type": "SENTENCE", "md_parent_section": "§DS.9 [Example 9]", "md_verbatim": "**ds.xpt**", "score": 0.79, "match_basis": "verbatim_token+domain_route:DS"}], "candidate_count": 10, "zero_candidate": false}
{"pdf_atom_id": "ig34_p0162_a0012", "pdf_atom_type": "TABLE_HEADER", "pdf_source": "SDTMIG_v3.4", "pdf_page": 162, "pdf_parent_section": "§6.2.4 Disposition (DS)", "pdf_verbatim": "| Row | STUDYID | DOMAIN | USUBJID | DSSEQ | DSTERM | DSDECOD | DSCAT | DSSCAT | EPOCH | DSSTDTC |", "figure_ref": null, "candidates": [{"md_atom_id": "md_dmDS_ex_a078", "md_file": "knowledge_base/domains/DS/examples.md", "md_atom_type": "TABLE_HEADER", "md_parent_section": "§DS.5 [Example 5]", "md_verbatim": "| Row | STUDYID | DOMAIN | USUBJID | DSSEQ | DSTERM | DSDECOD | DSCAT | DSSCAT | EPOCH | DSSTDTC |\n|-----|---------|--------|---------|-------|--------|---------|-------|--------|-------|---------|", "score": 1.0, "match_basis": "verbatim_token+domain_route:DS"}, {"md_atom_id": "md_dmDS_ex_a090", "md_file": "knowledge_base/domains/DS/examples.md", "md_atom_type": "TABLE_HEADER", "md_parent_section": "§DS.6 [Example 6]", "md_verbatim": "| Row | STUDYID | DOMAIN | USUBJID | DSSEQ | DSTERM | DSDECOD | DSCAT | DSSCAT | EPOCH | DSSTDTC |\n|-----|---------|--------|---------|-------|--------|---------|-------|--------|-------|---------|", "score": 1.0, "match_basis": "verbatim_token+domain_route:DS"}, {"md_atom_id": "md_dmDS_ex_a099", "md_file": "knowledge_base/domains/DS/examples.md", "md_atom_type": "TABLE_HEADER", "md_parent_section": "§DS.7 [Example 7]", "md_verbatim": "| Row | STUDYID | DOMAIN | USUBJID | DSSEQ | DSTERM | DSDECOD | DSCAT | DSSCAT | EPOCH | DSSTDTC |\n|-----|---------|--------|---------|-------|--------|---------|-------|--------|-------|---------|", "score": 1.0, "match_basis": "verbatim_token+domain_route:DS"}, {"md_atom_id": "md_dmDS_ex_a109", "md_file": "knowledge_base/domains/DS/examples.md", "md_atom_type": "TABLE_HEADER", "md_parent_section": "§DS.8 [Example 8]", "md_verbatim": "| Row | STUDYID | DOMAIN | USUBJID | DSSEQ | DSTERM | DSDECOD | DSCAT | DSSCAT | EPOCH | DSSTDTC |\n|-----|---------|--------|---------|-------|--------|---------|-------|--------|-------|---------|", "score": 1.0, "match_basis": "verbatim_token+domain_route:DS"}, {"md_atom_id": "md_dmDS_ex_a194", "md_file": "knowledge_base/domains/DS/examples.md", "md_atom_type": "TABLE_HEADER", "md_parent_section": "§DS.10 [Example 10]", "md_verbatim": "| Row | STUDYID | DOMAIN | USUBJID | DSSEQ | DSTERM | DSDECOD | DSCAT | DSSCAT | EPOCH | DSSTDTC |\n|-----|---------|--------|---------|-------|--------|---------|-------|--------|-------|---------|", "score": 1.0, "match_basis": "verbatim_token+domain_route:DS"}], "candidate_count": 5, "zero_candidate": false}
{"pdf_atom_id": "ig34_p0162_a0013", "pdf_atom_type": "TABLE_ROW", "pdf_source": "SDTMIG_v3.4", "pdf_page": 162, "pdf_parent_section": "§6.2.4 Disposition (DS)", "pdf_verbatim": "| 1 | XXX | DS | XXX-767-001 | 1 | COMPLETED | COMPLETED | DISPOSITION EVENT | STUDY TREATMENT | TREATMENT 1 | 2016-02-15 |", "figure_ref": null, "candidates": [{"md_atom_id": "md_dmDS_ex_a100", "md_file": "knowledge_base/domains/DS/examples.md", "md_atom_type": "TABLE_ROW", "md_parent_section": "§DS.7 [Example 7]", "md_verbatim": "| 1 | XXX | DS | XXX-767-001 | 1 | COMPLETED | COMPLETED | DISPOSITION EVENT | STUDY TREATMENT | TREATMENT 1 | 2016-02-15 |", "score": 1.0, "match_basis": "verbatim_token+domain_route:DS"}, {"md_atom_id": "md_dmDS_ex_a081", "md_file": "knowledge_base/domains/DS/examples.md", "md_atom_type": "TABLE_ROW", "md_parent_section": "§DS.5 [Example 5]", "md_verbatim": "| 3 | XXX | DS | XXX-767-001 | 3 | COMPLETED | COMPLETED | DISPOSITION EVENT | STUDY PARTICIPATION | TREATMENT 1 | 2016-02-25 |", "score": 0.8714, "match_basis": "verbatim_token+domain_route:DS"}, {"md_atom_id": "md_dmDS_ex_a083", "md_file": "knowledge_base/domains/DS/examples.md", "md_atom_type": "TABLE_ROW", "md_parent_section": "§DS.5 [Example 5]", "md_verbatim": "| 5 | XXX | DS | XXX-767-001 | 5 | COMPLETED | COMPLETED | DISPOSITION EVENT | STUDY PARTICIPATION | TREATMENT 2 | 2016-03-24 |", "score": 0.8714, "match_basis": "verbatim_token+domain_route:DS"}, {"md_atom_id": "md_dmDS_ex_a093", "md_file": "knowledge_base/domains/DS/examples.md", "md_atom_type": "TABLE_ROW", "md_parent_section": "§DS.6 [Example 6]", "md_verbatim": "| 3 | XXX | DS | XXX-767-001 | 3 | COMPLETED | COMPLETED | DISPOSITION EVENT | STUDY PARTICIPATION | TREATMENT 2 | 2016-03-24 |", "score": 0.8714, "match_basis": "verbatim_token+domain_route:DS"}, {"md_atom_id": "md_dmDS_ex_a101", "md_file": "knowledge_base/domains/DS/examples.md", "md_atom_type": "TABLE_ROW", "md_parent_section": "§DS.7 [Example 7]", "md_verbatim": "| 2 | XXX | DS | XXX-767-001 | 2 | COMPLETED | COMPLETED | DISPOSITION EVENT | STUDY PARTICIPATION | TREATMENT 1 | 2016-02-15 |", "score": 0.8714, "match_basis": "verbatim_token+domain_route:DS"}], "candidate_count": 5, "zero_candidate": false}
{"pdf_atom_id": "ig34_p0162_a0014", "pdf_atom_type": "TABLE_ROW", "pdf_source": "SDTMIG_v3.4", "pdf_page": 162, "pdf_parent_section": "§6.2.4 Disposition (DS)", "pdf_verbatim": "| 2 | XXX | DS | XXX-767-001 | 2 | COMPLETED | COMPLETED | DISPOSITION EVENT | STUDY PARTICIPATION | TREATMENT 1 | 2016-02-15 |", "figure_ref": null, "candidates": [{"md_atom_id": "md_dmDS_ex_a081", "md_file": "knowledge_base/domains/DS/examples.md", "md_atom_type": "TABLE_ROW", "md_parent_section": "§DS.5 [Example 5]", "md_verbatim": "| 3 | XXX | DS | XXX-767-001 | 3 | COMPLETED | COMPLETED | DISPOSITION EVENT | STUDY PARTICIPATION | TREATMENT 1 | 2016-02-25 |", "score": 1.0, "match_basis": "verbatim_token+domain_route:DS"}, {"md_atom_id": "md_dmDS_ex_a083", "md_file": "knowledge_base/domains/DS/examples.md", "md_atom_type": "TABLE_ROW", "md_parent_section": "§DS.5 [Example 5]", "md_verbatim": "| 5 | XXX | DS | XXX-767-001 | 5 | COMPLETED | COMPLETED | DISPOSITION EVENT | STUDY PARTICIPATION | TREATMENT 2 | 2016-03-24 |", "score": 1.0, "match_basis": "verbatim_token+domain_route:DS"}, {"md_atom_id": "md_dmDS_ex_a093", "md_file": "knowledge_base/domains/DS/examples.md", "md_atom_type": "TABLE_ROW", "md_parent_section": "§DS.6 [Example 6]", "md_verbatim": "| 3 | XXX | DS | XXX-767-001 | 3 | COMPLETED | COMPLETED | DISPOSITION EVENT | STUDY PARTICIPATION | TREATMENT 2 | 2016-03-24 |", "score": 1.0, "match_basis": "verbatim_token+domain_route:DS"}, {"md_atom_id": "md_dmDS_ex_a101", "md_file": "knowledge_base/domains/DS/examples.md", "md_atom_type": "TABLE_ROW", "md_parent_section": "§DS.7 [Example 7]", "md_verbatim": "| 2 | XXX | DS | XXX-767-001 | 2 | COMPLETED | COMPLETED | DISPOSITION EVENT | STUDY PARTICIPATION | TREATMENT 1 | 2016-02-15 |", "score": 1.0, "match_basis": "verbatim_token+domain_route:DS"}, {"md_atom_id": "md_dmDS_ex_a112", "md_file": "knowledge_base/domains/DS/examples.md", "md_atom_type": "TABLE_ROW", "md_parent_section": "§DS.8 [Example 8]", "md_verbatim": "| 3 | XXX | DS | XXX-767-001 | 3 | COMPLETED | COMPLETED | DISPOSITION EVENT | STUDY PARTICIPATION | TREATMENT 1 | 2016-02-25 |", "score": 1.0, "match_basis": "verbatim_token+domain_route:DS"}], "candidate_count": 5, "zero_candidate": false}
{"pdf_atom_id": "ig34_p0162_a0015", "pdf_atom_type": "TABLE_ROW", "pdf_source": "SDTMIG_v3.4", "pdf_page": 162, "pdf_parent_section": "§6.2.4 Disposition (DS)", "pdf_verbatim": "| 3 | XXX | DS | XXX-767-001 | 3 | SKIN RASH | ADVERSE EVENT | DISPOSITION EVENT | STUDY TREATMENT | TREATMENT 2 | 2016-03-14 |", "figure_ref": null, "candidates": [{"md_atom_id": "md_dmDS_ex_a102", "md_file": "knowledge_base/domains/DS/examples.md", "md_atom_type": "TABLE_ROW", "md_parent_section": "§DS.7 [Example 7]", "md_verbatim": "| 3 | XXX | DS | XXX-767-001 | 3 | SKIN RASH | ADVERSE EVENT | DISPOSITION EVENT | STUDY TREATMENT | TREATMENT 2 | 2016-03-14 |", "score": 1.0, "match_basis": "verbatim_token+domain_route:DS"}, {"md_atom_id": "md_dmDS_ex_a103", "md_file": "knowledge_base/domains/DS/examples.md", "md_atom_type": "TABLE_ROW", "md_parent_section": "§DS.7 [Example 7]", "md_verbatim": "| 4 | XXX | DS | XXX-767-001 | 4 | SKIN RASH | ADVERSE EVENT | DISPOSITION EVENT | STUDY PARTICIPATION | TREATMENT 2 | 2016-03-14 |", "score": 0.8773, "match_basis": "verbatim_token+domain_route:DS"}, {"md_atom_id": "md_dmDS_ex_a100", "md_file": "knowledge_base/domains/DS/examples.md", "md_atom_type": "TABLE_ROW", "md_parent_section": "§DS.7 [Example 7]", "md_verbatim": "| 1 | XXX | DS | XXX-767-001 | 1 | COMPLETED | COMPLETED | DISPOSITION EVENT | STUDY TREATMENT | TREATMENT 1 | 2016-02-15 |", "score": 0.7714, "match_basis": "verbatim_token+domain_route:DS"}, {"md_atom_id": "md_dmDS_ex_a053", "md_file": "knowledge_base/domains/DS/examples.md", "md_atom_type": "TABLE_ROW", "md_parent_section": "§DS.3 [Example 3]", "md_verbatim": "| 3 | ABC789 | DS | 789102 | 1 | SKIN RASH | ADVERSE EVENT | DISPOSITION EVENT | TREATMENT | 2004-09-30 |", "score": 0.7682, "match_basis": "verbatim_token+domain_route:DS"}, {"md_atom_id": "md_dmDS_ex_a259", "md_file": "knowledge_base/domains/DS/examples.md", "md_atom_type": "TABLE_ROW", "md_parent_section": "§DS.11 [Example 11]", "md_verbatim": "| 4 | DS10 | DS | 101 | 4 | Toxicity | ADVERSE EVENT | DISPOSITION EVENT | DRUG C | 2 | TREATMENT | 2015-03-06 |", "score": 0.7064, "match_basis": "verbatim_token+domain_route:DS"}], "candidate_count": 5, "zero_candidate": false}
{"pdf_atom_id": "ig34_p0162_a0016", "pdf_atom_type": "TABLE_ROW", "pdf_source": "SDTMIG_v3.4", "pdf_page": 162, "pdf_parent_section": "§6.2.4 Disposition (DS)", "pdf_verbatim": "| 4 | XXX | DS | XXX-767-001 | 4 | SKIN RASH | ADVERSE EVENT | DISPOSITION EVENT | STUDY PARTICIPATION | TREATMENT 2 | 2016-03-14 |", "figure_ref": null, "candidates": [{"md_atom_id": "md_dmDS_ex_a103", "md_file": "knowledge_base/domains/DS/examples.md", "md_atom_type": "TABLE_ROW", "md_parent_section": "§DS.7 [Example 7]", "md_verbatim": "| 4 | XXX | DS | XXX-767-001 | 4 | SKIN RASH | ADVERSE EVENT | DISPOSITION EVENT | STUDY PARTICIPATION | TREATMENT 2 | 2016-03-14 |", "score": 1.0, "match_basis": "verbatim_token+domain_route:DS"}, {"md_atom_id": "md_dmDS_ex_a102", "md_file": "knowledge_base/domains/DS/examples.md", "md_atom_type": "TABLE_ROW", "md_parent_section": "§DS.7 [Example 7]", "md_verbatim": "| 3 | XXX | DS | XXX-767-001 | 3 | SKIN RASH | ADVERSE EVENT | DISPOSITION EVENT | STUDY TREATMENT | TREATMENT 2 | 2016-03-14 |", "score": 0.8773, "match_basis": "verbatim_token+domain_route:DS"}, {"md_atom_id": "md_dmDS_ex_a081", "md_file": "knowledge_base/domains/DS/examples.md", "md_atom_type": "TABLE_ROW", "md_parent_section": "§DS.5 [Example 5]", "md_verbatim": "| 3 | XXX | DS | XXX-767-001 | 3 | COMPLETED | COMPLETED | DISPOSITION EVENT | STUDY PARTICIPATION | TREATMENT 1 | 2016-02-25 |", "score": 0.8118, "match_basis": "verbatim_token+domain_route:DS"}, {"md_atom_id": "md_dmDS_ex_a083", "md_file": "knowledge_base/domains/DS/examples.md", "md_atom_type": "TABLE_ROW", "md_parent_section": "§DS.5 [Example 5]", "md_verbatim": "| 5 | XXX | DS | XXX-767-001 | 5 | COMPLETED | COMPLETED | DISPOSITION EVENT | STUDY PARTICIPATION | TREATMENT 2 | 2016-03-24 |", "score": 0.8118, "match_basis": "verbatim_token+domain_route:DS"}, {"md_atom_id": "md_dmDS_ex_a093", "md_file": "knowledge_base/domains/DS/examples.md", "md_atom_type": "TABLE_ROW", "md_parent_section": "§DS.6 [Example 6]", "md_verbatim": "| 3 | XXX | DS | XXX-767-001 | 3 | COMPLETED | COMPLETED | DISPOSITION EVENT | STUDY PARTICIPATION | TREATMENT 2 | 2016-03-24 |", "score": 0.8118, "match_basis": "verbatim_token+domain_route:DS"}], "candidate_count": 5, "zero_candidate": false}
{"pdf_atom_id": "ig34_p0162_a0017", "pdf_atom_type": "HEADING", "pdf_source": "SDTMIG_v3.4", "pdf_page": 162, "pdf_parent_section": "§6.2.4 Disposition (DS)", "pdf_verbatim": "Example 8", "figure_ref": null, "candidates": [{"md_atom_id": "md_dmDS_ex_a002", "md_file": "knowledge_base/domains/DS/examples.md", "md_atom_type": "HEADING", "md_parent_section": "§DS [DS — Examples]", "md_verbatim": "## Example 1", "score": 1.0, "match_basis": "verbatim_token+domain_route:DS"}, {"md_atom_id": "md_dmDS_ex_a034", "md_file": "knowledge_base/domains/DS/examples.md", "md_atom_type": "HEADING", "md_parent_section": "§DS [DS — Examples]", "md_verbatim": "## Example 2", "score": 1.0, "match_basis": "verbatim_token+domain_route:DS"}, {"md_atom_id": "md_dmDS_ex_a043", "md_file": "knowledge_base/domains/DS/examples.md", "md_atom_type": "HEADING", "md_parent_section": "§DS [DS — Examples]", "md_verbatim": "## Example 3", "score": 1.0, "match_basis": "verbatim_token+domain_route:DS"}, {"md_atom_id": "md_dmDS_ex_a056", "md_file": "knowledge_base/domains/DS/examples.md", "md_atom_type": "HEADING", "md_parent_section": "§DS [DS — Examples]", "md_verbatim": "## Example 4", "score": 1.0, "match_basis": "verbatim_token+domain_route:DS"}, {"md_atom_id": "md_dmDS_ex_a072", "md_file": "knowledge_base/domains/DS/examples.md", "md_atom_type": "HEADING", "md_parent_section": "§DS [DS — Examples]", "md_verbatim": "## Example 5", "score": 1.0, "match_basis": "verbatim_token+domain_route:DS"}, {"md_atom_id": "md_dmDS_ex_a084", "md_file": "knowledge_base/domains/DS/examples.md", "md_atom_type": "HEADING", "md_parent_section": "§DS [DS — Examples]", "md_verbatim": "## Example 6", "score": 1.0, "match_basis": "verbatim_token+domain_route:DS"}, {"md_atom_id": "md_dmDS_ex_a094", "md_file": "knowledge_base/domains/DS/examples.md", "md_atom_type": "HEADING", "md_parent_section": "§DS [DS — Examples]", "md_verbatim": "## Example 7", "score": 1.0, "match_basis": "verbatim_token+domain_route:DS"}, {"md_atom_id": "md_dmDS_ex_a104", "md_file": "knowledge_base/domains/DS/examples.md", "md_atom_type": "HEADING", "md_parent_section": "§DS [DS — Examples]", "md_verbatim": "## Example 8", "score": 1.0, "match_basis": "verbatim_token+domain_route:DS"}, {"md_atom_id": "md_dmDS_ex_a116", "md_file": "knowledge_base/domains/DS/examples.md", "md_atom_type": "HEADING", "md_parent_section": "§DS [DS — Examples]", "md_verbatim": "## Example 9", "score": 1.0, "match_basis": "verbatim_token+domain_route:DS"}, {"md_atom_id": "md_dmDS_ex_a128", "md_file": "knowledge_base/domains/DS/examples.md", "md_atom_type": "HEADING", "md_parent_section": "§DS [DS — Examples]", "md_verbatim": "## Example 10", "score": 1.0, "match_basis": "verbatim_token+domain_route:DS"}], "candidate_count": 10, "zero_candidate": false}
{"pdf_atom_id": "ig34_p0162_a0018", "pdf_atom_type": "SENTENCE", "pdf_source": "SDTMIG_v3.4", "pdf_page": 162, "pdf_parent_section": "§6.2.4 Disposition (DS)", "pdf_verbatim": "This example represents data for an ongoing blinded study in which each subject received 2 treatments, identified by the sponsor as \"BLINDED DRUG A\" and \"BLINDED DRUG B\". Disposition of study participation and of each of the 2 blinded treatments was collected for each of the 2 treatment epochs in the study. The subject in this example completed study participation and both treatments for both treatment epochs.", "figure_ref": null, "candidates": [{"md_atom_id": "md_dmDS_ex_a105", "md_file": "knowledge_base/domains/DS/examples.md", "md_atom_type": "SENTENCE", "md_parent_section": "§DS.8 [Example 8]", "md_verbatim": "This example represents data for an ongoing blinded study in which each subject received 2 treatments, identified by the sponsor as \"BLINDED DRUG A\" and \"BLINDED DRUG B\". Disposition of study participation and of each of the 2 blinded treatments was collected for each of the 2 treatment epochs in the study. The subject in this example completed study participation and both treatments for both treatment epochs.", "score": 1.0, "match_basis": "verbatim_token+domain_route:DS"}, {"md_atom_id": "md_dmDS_ex_a003", "md_file": "knowledge_base/domains/DS/examples.md", "md_atom_type": "SENTENCE", "md_parent_section": "§DS.1 [Example 1]", "md_verbatim": "In this example, disposition of study participation was collected for each epoch of a trial. Disposition of study participation is indicated by DSCAT = \"DISPOSITION EVENT\". EPOCH was taken from the CRF, which asked about completion of each epoch of the study. Data about disposition of study treatment was not collected, but the sponsor populated DSSCAT with \"STUDY PARTICIPATION\" to emphasize that these represent disposition of study participation.", "score": 0.6779, "match_basis": "verbatim_token+domain_route:DS"}, {"md_atom_id": "md_dmDS_ex_a044", "md_file": "knowledge_base/domains/DS/examples.md", "md_atom_type": "SENTENCE", "md_parent_section": "§DS.3 [Example 3]", "md_verbatim": "In this study, disposition of study participation was collected for the treatment and follow-up epochs. For these records, the value in EPOCH was taken from the CRF. Data on screen failures were not submitted for this study, so all submitted subjects completed screening; the sponsor chose not to collect data on disposition of the screening epoch.", "score": 0.6708, "match_basis": "verbatim_token+domain_route:DS"}, {"md_atom_id": "md_dmDS_ex_a247", "md_file": "knowledge_base/domains/DS/examples.md", "md_atom_type": "SENTENCE", "md_parent_section": "§DS.11 [Example 11]", "md_verbatim": "In this study, disposition of each treatment was collected, and disposition of study participation was collected for each epoch of the trial. The date of disposition for study treatment was defined as the date of the last dose of that treatment.", "score": 0.639, "match_basis": "verbatim_token+domain_route:DS"}, {"md_atom_id": "md_dmDS_ex_a107", "md_file": "knowledge_base/domains/DS/examples.md", "md_atom_type": "SENTENCE", "md_parent_section": "§DS.8 [Example 8]", "md_verbatim": "**Rows 3, 6:** Represent the disposition of study participation for each of the 2 treatment epochs, as indicated by DSSCAT = \"STUDY PARTICIPATION\".", "score": 0.6336, "match_basis": "verbatim_token+domain_route:DS"}], "candidate_count": 5, "zero_candidate": false}
{"pdf_atom_id": "ig34_p0162_a0019", "pdf_atom_type": "LIST_ITEM", "pdf_source": "SDTMIG_v3.4", "pdf_page": 162, "pdf_parent_section": "§6.2.4 Disposition (DS)", "pdf_verbatim": "Rows 1, 2, 4, 5:\tRepresent the disposition of the blinded treatments for each of the 2 treatment epochs for each of the 2 treatments, indicated by DSSCAT = \"BLINDED DRUG A\" and DSSCAT = \"BLINDED DRUG B\".", "figure_ref": null, "candidates": [{"md_atom_id": "md_dmDS_ex_a106", "md_file": "knowledge_base/domains/DS/examples.md", "md_atom_type": "SENTENCE", "md_parent_section": "§DS.8 [Example 8]", "md_verbatim": "**Rows 1, 2, 4, 5:** Represent the disposition of the blinded treatments for each of the 2 treatment epochs, indicated by DSSCAT = \"BLINDED DRUG A\" and DSSCAT = \"BLINDED DRUG B\".", "score": 0.91, "match_basis": "verbatim_token+domain_route:DS"}, {"md_atom_id": "md_dmDS_ex_a096", "md_file": "knowledge_base/domains/DS/examples.md", "md_atom_type": "SENTENCE", "md_parent_section": "§DS.7 [Example 7]", "md_verbatim": "**Rows 1, 3:** Represent the disposition of treatment for each treatment epoch, as indicated by DSSCAT = \"STUDY TREATMENT\".", "score": 0.7742, "match_basis": "verbatim_token+domain_route:DS"}, {"md_atom_id": "md_dmDS_ex_a107", "md_file": "knowledge_base/domains/DS/examples.md", "md_atom_type": "SENTENCE", "md_parent_section": "§DS.8 [Example 8]", "md_verbatim": "**Rows 3, 6:** Represent the disposition of study participation for each of the 2 treatment epochs, as indicated by DSSCAT = \"STUDY PARTICIPATION\".", "score": 0.7165, "match_basis": "verbatim_token+domain_route:DS"}, {"md_atom_id": "md_dmDS_ex_a076", "md_file": "knowledge_base/domains/DS/examples.md", "md_atom_type": "SENTENCE", "md_parent_section": "§DS.5 [Example 5]", "md_verbatim": "**Rows 3, 5:** Represent the study disposition for each treatment epoch, as indicated by DSSCAT = \"STUDY PARTICIPATION\".", "score": 0.7068, "match_basis": "verbatim_token+domain_route:DS"}, {"md_atom_id": "md_dmDS_ex_a097", "md_file": "knowledge_base/domains/DS/examples.md", "md_atom_type": "SENTENCE", "md_parent_section": "§DS.7 [Example 7]", "md_verbatim": "**Rows 2, 4:** Represent the disposition of study participation continuation for each treatment epoch, as indicated by DSSCAT = \"STUDY PARTICIPATION\".", "score": 0.6665, "match_basis": "verbatim_token+domain_route:DS"}], "candidate_count": 5, "zero_candidate": false}
{"pdf_atom_id": "ig34_p0162_a0020", "pdf_atom_type": "LIST_ITEM", "pdf_source": "SDTMIG_v3.4", "pdf_page": 162, "pdf_parent_section": "§6.2.4 Disposition (DS)", "pdf_verbatim": "Rows 3, 6:\tRepresent the disposition of study participation for each of the 2 treatment epochs, as indicated by DSSCAT = \"STUDY PARTICIPATION\".", "figure_ref": null, "candidates": [{"md_atom_id": "md_dmDS_ex_a107", "md_file": "knowledge_base/domains/DS/examples.md", "md_atom_type": "SENTENCE", "md_parent_section": "§DS.8 [Example 8]", "md_verbatim": "**Rows 3, 6:** Represent the disposition of study participation for each of the 2 treatment epochs, as indicated by DSSCAT = \"STUDY PARTICIPATION\".", "score": 0.91, "match_basis": "verbatim_token+domain_route:DS"}, {"md_atom_id": "md_dmDS_ex_a076", "md_file": "knowledge_base/domains/DS/examples.md", "md_atom_type": "SENTENCE", "md_parent_section": "§DS.5 [Example 5]", "md_verbatim": "**Rows 3, 5:** Represent the study disposition for each treatment epoch, as indicated by DSSCAT = \"STUDY PARTICIPATION\".", "score": 0.8989, "match_basis": "verbatim_token+domain_route:DS"}, {"md_atom_id": "md_dmDS_ex_a097", "md_file": "knowledge_base/domains/DS/examples.md", "md_atom_type": "SENTENCE", "md_parent_section": "§DS.7 [Example 7]", "md_verbatim": "**Rows 2, 4:** Represent the disposition of study participation continuation for each treatment epoch, as indicated by DSSCAT = \"STUDY PARTICIPATION\".", "score": 0.8313, "match_basis": "verbatim_token+domain_route:DS"}, {"md_atom_id": "md_dmDS_ex_a096", "md_file": "knowledge_base/domains/DS/examples.md", "md_atom_type": "SENTENCE", "md_parent_section": "§DS.7 [Example 7]", "md_verbatim": "**Rows 1, 3:** Represent the disposition of treatment for each treatment epoch, as indicated by DSSCAT = \"STUDY TREATMENT\".", "score": 0.7989, "match_basis": "verbatim_token+domain_route:DS"}, {"md_atom_id": "md_dmDS_assn_a006", "md_file": "knowledge_base/domains/DS/assumptions.md", "md_atom_type": "LIST_ITEM", "md_parent_section": "§DS [DS — Assumptions]", "md_verbatim": "      i. DSSCAT = \"STUDY PARTICIPATION\" is used to represent disposition of study participation.", "score": 0.7429, "match_basis": "verbatim_token+domain_route:DS"}], "candidate_count": 5, "zero_candidate": false}
{"pdf_atom_id": "ig34_p0162_a0021", "pdf_atom_type": "CODE_LITERAL", "pdf_source": "SDTMIG_v3.4", "pdf_page": 162, "pdf_parent_section": "§6.2.4 Disposition (DS)", "pdf_verbatim": "ds.xpt", "figure_ref": null, "candidates": [{"md_atom_id": "md_dmDS_ex_a011", "md_file": "knowledge_base/domains/DS/examples.md", "md_atom_type": "SENTENCE", "md_parent_section": "§DS.1 [Example 1]", "md_verbatim": "**ds.xpt**", "score": 0.79, "match_basis": "verbatim_token+domain_route:DS"}, {"md_atom_id": "md_dmDS_ex_a038", "md_file": "knowledge_base/domains/DS/examples.md", "md_atom_type": "SENTENCE", "md_parent_section": "§DS.2 [Example 2]", "md_verbatim": "**ds.xpt**", "score": 0.79, "match_basis": "verbatim_token+domain_route:DS"}, {"md_atom_id": "md_dmDS_ex_a049", "md_file": "knowledge_base/domains/DS/examples.md", "md_atom_type": "SENTENCE", "md_parent_section": "§DS.3 [Example 3]", "md_verbatim": "**ds.xpt**", "score": 0.79, "match_basis": "verbatim_token+domain_route:DS"}, {"md_atom_id": "md_dmDS_ex_a059", "md_file": "knowledge_base/domains/DS/examples.md", "md_atom_type": "SENTENCE", "md_parent_section": "§DS.4 [Example 4]", "md_verbatim": "**ds.xpt**", "score": 0.79, "match_basis": "verbatim_token+domain_route:DS"}, {"md_atom_id": "md_dmDS_ex_a063", "md_file": "knowledge_base/domains/DS/examples.md", "md_atom_type": "SENTENCE", "md_parent_section": "§DS.4 [Example 4]", "md_verbatim": "**ae.xpt**", "score": 0.79, "match_basis": "verbatim_token+domain_route:DS"}, {"md_atom_id": "md_dmDS_ex_a077", "md_file": "knowledge_base/domains/DS/examples.md", "md_atom_type": "SENTENCE", "md_parent_section": "§DS.5 [Example 5]", "md_verbatim": "**ds.xpt**", "score": 0.79, "match_basis": "verbatim_token+domain_route:DS"}, {"md_atom_id": "md_dmDS_ex_a089", "md_file": "knowledge_base/domains/DS/examples.md", "md_atom_type": "SENTENCE", "md_parent_section": "§DS.6 [Example 6]", "md_verbatim": "**ds.xpt**", "score": 0.79, "match_basis": "verbatim_token+domain_route:DS"}, {"md_atom_id": "md_dmDS_ex_a098", "md_file": "knowledge_base/domains/DS/examples.md", "md_atom_type": "SENTENCE", "md_parent_section": "§DS.7 [Example 7]", "md_verbatim": "**ds.xpt**", "score": 0.79, "match_basis": "verbatim_token+domain_route:DS"}, {"md_atom_id": "md_dmDS_ex_a108", "md_file": "knowledge_base/domains/DS/examples.md", "md_atom_type": "SENTENCE", "md_parent_section": "§DS.8 [Example 8]", "md_verbatim": "**ds.xpt**", "score": 0.79, "match_basis": "verbatim_token+domain_route:DS"}, {"md_atom_id": "md_dmDS_ex_a121", "md_file": "knowledge_base/domains/DS/examples.md", "md_atom_type": "SENTENCE", "md_parent_section": "§DS.9 [Example 9]", "md_verbatim": "**ds.xpt**", "score": 0.79, "match_basis": "verbatim_token+domain_route:DS"}], "candidate_count": 10, "zero_candidate": false}
{"pdf_atom_id": "ig34_p0162_a0022", "pdf_atom_type": "TABLE_HEADER", "pdf_source": "SDTMIG_v3.4", "pdf_page": 162, "pdf_parent_section": "§6.2.4 Disposition (DS)", "pdf_verbatim": "| Row | STUDYID | DOMAIN | USUBJID | DSSEQ | DSTERM | DSDECOD | DSCAT | DSSCAT | EPOCH | DSSTDTC |", "figure_ref": null, "candidates": [{"md_atom_id": "md_dmDS_ex_a078", "md_file": "knowledge_base/domains/DS/examples.md", "md_atom_type": "TABLE_HEADER", "md_parent_section": "§DS.5 [Example 5]", "md_verbatim": "| Row | STUDYID | DOMAIN | USUBJID | DSSEQ | DSTERM | DSDECOD | DSCAT | DSSCAT | EPOCH | DSSTDTC |\n|-----|---------|--------|---------|-------|--------|---------|-------|--------|-------|---------|", "score": 1.0, "match_basis": "verbatim_token+domain_route:DS"}, {"md_atom_id": "md_dmDS_ex_a090", "md_file": "knowledge_base/domains/DS/examples.md", "md_atom_type": "TABLE_HEADER", "md_parent_section": "§DS.6 [Example 6]", "md_verbatim": "| Row | STUDYID | DOMAIN | USUBJID | DSSEQ | DSTERM | DSDECOD | DSCAT | DSSCAT | EPOCH | DSSTDTC |\n|-----|---------|--------|---------|-------|--------|---------|-------|--------|-------|---------|", "score": 1.0, "match_basis": "verbatim_token+domain_route:DS"}, {"md_atom_id": "md_dmDS_ex_a099", "md_file": "knowledge_base/domains/DS/examples.md", "md_atom_type": "TABLE_HEADER", "md_parent_section": "§DS.7 [Example 7]", "md_verbatim": "| Row | STUDYID | DOMAIN | USUBJID | DSSEQ | DSTERM | DSDECOD | DSCAT | DSSCAT | EPOCH | DSSTDTC |\n|-----|---------|--------|---------|-------|--------|---------|-------|--------|-------|---------|", "score": 1.0, "match_basis": "verbatim_token+domain_route:DS"}, {"md_atom_id": "md_dmDS_ex_a109", "md_file": "knowledge_base/domains/DS/examples.md", "md_atom_type": "TABLE_HEADER", "md_parent_section": "§DS.8 [Example 8]", "md_verbatim": "| Row | STUDYID | DOMAIN | USUBJID | DSSEQ | DSTERM | DSDECOD | DSCAT | DSSCAT | EPOCH | DSSTDTC |\n|-----|---------|--------|---------|-------|--------|---------|-------|--------|-------|---------|", "score": 1.0, "match_basis": "verbatim_token+domain_route:DS"}, {"md_atom_id": "md_dmDS_ex_a194", "md_file": "knowledge_base/domains/DS/examples.md", "md_atom_type": "TABLE_HEADER", "md_parent_section": "§DS.10 [Example 10]", "md_verbatim": "| Row | STUDYID | DOMAIN | USUBJID | DSSEQ | DSTERM | DSDECOD | DSCAT | DSSCAT | EPOCH | DSSTDTC |\n|-----|---------|--------|---------|-------|--------|---------|-------|--------|-------|---------|", "score": 1.0, "match_basis": "verbatim_token+domain_route:DS"}], "candidate_count": 5, "zero_candidate": false}
{"pdf_atom_id": "ig34_p0162_a0023", "pdf_atom_type": "TABLE_ROW", "pdf_source": "SDTMIG_v3.4", "pdf_page": 162, "pdf_parent_section": "§6.2.4 Disposition (DS)", "pdf_verbatim": "| 1 | XXX | DS | XXX-767-001 | 1 | COMPLETED | COMPLETED | DISPOSITION EVENT | BLINDED DRUG A | TREATMENT 1 | 2016-02-15 |", "figure_ref": null, "candidates": [{"md_atom_id": "md_dmDS_ex_a110", "md_file": "knowledge_base/domains/DS/examples.md", "md_atom_type": "TABLE_ROW", "md_parent_section": "§DS.8 [Example 8]", "md_verbatim": "| 1 | XXX | DS | XXX-767-001 | 1 | COMPLETED | COMPLETED | DISPOSITION EVENT | BLINDED DRUG A | TREATMENT 1 | 2016-02-15 |", "score": 1.0, "match_basis": "verbatim_token+domain_route:DS"}, {"md_atom_id": "md_dmDS_ex_a111", "md_file": "knowledge_base/domains/DS/examples.md", "md_atom_type": "TABLE_ROW", "md_parent_section": "§DS.8 [Example 8]", "md_verbatim": "| 2 | XXX | DS | XXX-767-001 | 2 | COMPLETED | COMPLETED | DISPOSITION EVENT | BLINDED DRUG B | TREATMENT 1 | 2016-02-15 |", "score": 1.0, "match_basis": "verbatim_token+domain_route:DS"}, {"md_atom_id": "md_dmDS_ex_a113", "md_file": "knowledge_base/domains/DS/examples.md", "md_atom_type": "TABLE_ROW", "md_parent_section": "§DS.8 [Example 8]", "md_verbatim": "| 4 | XXX | DS | XXX-767-001 | 4 | COMPLETED | COMPLETED | DISPOSITION EVENT | BLINDED DRUG A | TREATMENT 2 | 2016-03-14 |", "score": 1.0, "match_basis": "verbatim_token+domain_route:DS"}, {"md_atom_id": "md_dmDS_ex_a114", "md_file": "knowledge_base/domains/DS/examples.md", "md_atom_type": "TABLE_ROW", "md_parent_section": "§DS.8 [Example 8]", "md_verbatim": "| 5 | XXX | DS | XXX-767-001 | 5 | COMPLETED | COMPLETED | DISPOSITION EVENT | BLINDED DRUG B | TREATMENT 2 | 2016-03-14 |", "score": 1.0, "match_basis": "verbatim_token+domain_route:DS"}, {"md_atom_id": "md_dmDS_ex_a197", "md_file": "knowledge_base/domains/DS/examples.md", "md_atom_type": "TABLE_ROW", "md_parent_section": "§DS.10 [Example 10]", "md_verbatim": "| 3 | XYZ | DS | XYZ-767-001 | 3 | COMPLETED | COMPLETED | DISPOSITION EVENT | DRUG1 | TREATMENT 1 | 2016-03-14 |", "score": 0.8769, "match_basis": "verbatim_token+domain_route:DS"}], "candidate_count": 5, "zero_candidate": false}
{"pdf_atom_id": "ig34_p0162_a0024", "pdf_atom_type": "TABLE_ROW", "pdf_source": "SDTMIG_v3.4", "pdf_page": 162, "pdf_parent_section": "§6.2.4 Disposition (DS)", "pdf_verbatim": "| 2 | XXX | DS | XXX-767-001 | 2 | COMPLETED | COMPLETED | DISPOSITION EVENT | BLINDED DRUG B | TREATMENT 1 | 2016-02-15 |", "figure_ref": null, "candidates": [{"md_atom_id": "md_dmDS_ex_a110", "md_file": "knowledge_base/domains/DS/examples.md", "md_atom_type": "TABLE_ROW", "md_parent_section": "§DS.8 [Example 8]", "md_verbatim": "| 1 | XXX | DS | XXX-767-001 | 1 | COMPLETED | COMPLETED | DISPOSITION EVENT | BLINDED DRUG A | TREATMENT 1 | 2016-02-15 |", "score": 1.0, "match_basis": "verbatim_token+domain_route:DS"}, {"md_atom_id": "md_dmDS_ex_a111", "md_file": "knowledge_base/domains/DS/examples.md", "md_atom_type": "TABLE_ROW", "md_parent_section": "§DS.8 [Example 8]", "md_verbatim": "| 2 | XXX | DS | XXX-767-001 | 2 | COMPLETED | COMPLETED | DISPOSITION EVENT | BLINDED DRUG B | TREATMENT 1 | 2016-02-15 |", "score": 1.0, "match_basis": "verbatim_token+domain_route:DS"}, {"md_atom_id": "md_dmDS_ex_a113", "md_file": "knowledge_base/domains/DS/examples.md", "md_atom_type": "TABLE_ROW", "md_parent_section": "§DS.8 [Example 8]", "md_verbatim": "| 4 | XXX | DS | XXX-767-001 | 4 | COMPLETED | COMPLETED | DISPOSITION EVENT | BLINDED DRUG A | TREATMENT 2 | 2016-03-14 |", "score": 1.0, "match_basis": "verbatim_token+domain_route:DS"}, {"md_atom_id": "md_dmDS_ex_a114", "md_file": "knowledge_base/domains/DS/examples.md", "md_atom_type": "TABLE_ROW", "md_parent_section": "§DS.8 [Example 8]", "md_verbatim": "| 5 | XXX | DS | XXX-767-001 | 5 | COMPLETED | COMPLETED | DISPOSITION EVENT | BLINDED DRUG B | TREATMENT 2 | 2016-03-14 |", "score": 1.0, "match_basis": "verbatim_token+domain_route:DS"}, {"md_atom_id": "md_dmDS_ex_a197", "md_file": "knowledge_base/domains/DS/examples.md", "md_atom_type": "TABLE_ROW", "md_parent_section": "§DS.10 [Example 10]", "md_verbatim": "| 3 | XYZ | DS | XYZ-767-001 | 3 | COMPLETED | COMPLETED | DISPOSITION EVENT | DRUG1 | TREATMENT 1 | 2016-03-14 |", "score": 0.8769, "match_basis": "verbatim_token+domain_route:DS"}], "candidate_count": 5, "zero_candidate": false}
{"pdf_atom_id": "ig34_p0162_a0025", "pdf_atom_type": "TABLE_ROW", "pdf_source": "SDTMIG_v3.4", "pdf_page": 162, "pdf_parent_section": "§6.2.4 Disposition (DS)", "pdf_verbatim": "| 3 | XXX | DS | XXX-767-001 | 3 | COMPLETED | COMPLETED | DISPOSITION EVENT | STUDY PARTICIPATION | TREATMENT 1 | 2016-02-25 |", "figure_ref": null, "candidates": [{"md_atom_id": "md_dmDS_ex_a081", "md_file": "knowledge_base/domains/DS/examples.md", "md_atom_type": "TABLE_ROW", "md_parent_section": "§DS.5 [Example 5]", "md_verbatim": "| 3 | XXX | DS | XXX-767-001 | 3 | COMPLETED | COMPLETED | DISPOSITION EVENT | STUDY PARTICIPATION | TREATMENT 1 | 2016-02-25 |", "score": 1.0, "match_basis": "verbatim_token+domain_route:DS"}, {"md_atom_id": "md_dmDS_ex_a083", "md_file": "knowledge_base/domains/DS/examples.md", "md_atom_type": "TABLE_ROW", "md_parent_section": "§DS.5 [Example 5]", "md_verbatim": "| 5 | XXX | DS | XXX-767-001 | 5 | COMPLETED | COMPLETED | DISPOSITION EVENT | STUDY PARTICIPATION | TREATMENT 2 | 2016-03-24 |", "score": 1.0, "match_basis": "verbatim_token+domain_route:DS"}, {"md_atom_id": "md_dmDS_ex_a093", "md_file": "knowledge_base/domains/DS/examples.md", "md_atom_type": "TABLE_ROW", "md_parent_section": "§DS.6 [Example 6]", "md_verbatim": "| 3 | XXX | DS | XXX-767-001 | 3 | COMPLETED | COMPLETED | DISPOSITION EVENT | STUDY PARTICIPATION | TREATMENT 2 | 2016-03-24 |", "score": 1.0, "match_basis": "verbatim_token+domain_route:DS"}, {"md_atom_id": "md_dmDS_ex_a101", "md_file": "knowledge_base/domains/DS/examples.md", "md_atom_type": "TABLE_ROW", "md_parent_section": "§DS.7 [Example 7]", "md_verbatim": "| 2 | XXX | DS | XXX-767-001 | 2 | COMPLETED | COMPLETED | DISPOSITION EVENT | STUDY PARTICIPATION | TREATMENT 1 | 2016-02-15 |", "score": 1.0, "match_basis": "verbatim_token+domain_route:DS"}, {"md_atom_id": "md_dmDS_ex_a112", "md_file": "knowledge_base/domains/DS/examples.md", "md_atom_type": "TABLE_ROW", "md_parent_section": "§DS.8 [Example 8]", "md_verbatim": "| 3 | XXX | DS | XXX-767-001 | 3 | COMPLETED | COMPLETED | DISPOSITION EVENT | STUDY PARTICIPATION | TREATMENT 1 | 2016-02-25 |", "score": 1.0, "match_basis": "verbatim_token+domain_route:DS"}], "candidate_count": 5, "zero_candidate": false}
{"pdf_atom_id": "ig34_p0162_a0026", "pdf_atom_type": "TABLE_ROW", "pdf_source": "SDTMIG_v3.4", "pdf_page": 162, "pdf_parent_section": "§6.2.4 Disposition (DS)", "pdf_verbatim": "| 4 | XXX | DS | XXX-767-001 | 4 | COMPLETED | COMPLETED | DISPOSITION EVENT | BLINDED DRUG A | TREATMENT 2 | 2016-03-14 |", "figure_ref": null, "candidates": [{"md_atom_id": "md_dmDS_ex_a110", "md_file": "knowledge_base/domains/DS/examples.md", "md_atom_type": "TABLE_ROW", "md_parent_section": "§DS.8 [Example 8]", "md_verbatim": "| 1 | XXX | DS | XXX-767-001 | 1 | COMPLETED | COMPLETED | DISPOSITION EVENT | BLINDED DRUG A | TREATMENT 1 | 2016-02-15 |", "score": 1.0, "match_basis": "verbatim_token+domain_route:DS"}, {"md_atom_id": "md_dmDS_ex_a111", "md_file": "knowledge_base/domains/DS/examples.md", "md_atom_type": "TABLE_ROW", "md_parent_section": "§DS.8 [Example 8]", "md_verbatim": "| 2 | XXX | DS | XXX-767-001 | 2 | COMPLETED | COMPLETED | DISPOSITION EVENT | BLINDED DRUG B | TREATMENT 1 | 2016-02-15 |", "score": 1.0, "match_basis": "verbatim_token+domain_route:DS"}, {"md_atom_id": "md_dmDS_ex_a113", "md_file": "knowledge_base/domains/DS/examples.md", "md_atom_type": "TABLE_ROW", "md_parent_section": "§DS.8 [Example 8]", "md_verbatim": "| 4 | XXX | DS | XXX-767-001 | 4 | COMPLETED | COMPLETED | DISPOSITION EVENT | BLINDED DRUG A | TREATMENT 2 | 2016-03-14 |", "score": 1.0, "match_basis": "verbatim_token+domain_route:DS"}, {"md_atom_id": "md_dmDS_ex_a114", "md_file": "knowledge_base/domains/DS/examples.md", "md_atom_type": "TABLE_ROW", "md_parent_section": "§DS.8 [Example 8]", "md_verbatim": "| 5 | XXX | DS | XXX-767-001 | 5 | COMPLETED | COMPLETED | DISPOSITION EVENT | BLINDED DRUG B | TREATMENT 2 | 2016-03-14 |", "score": 1.0, "match_basis": "verbatim_token+domain_route:DS"}, {"md_atom_id": "md_dmDS_ex_a197", "md_file": "knowledge_base/domains/DS/examples.md", "md_atom_type": "TABLE_ROW", "md_parent_section": "§DS.10 [Example 10]", "md_verbatim": "| 3 | XYZ | DS | XYZ-767-001 | 3 | COMPLETED | COMPLETED | DISPOSITION EVENT | DRUG1 | TREATMENT 1 | 2016-03-14 |", "score": 0.8769, "match_basis": "verbatim_token+domain_route:DS"}], "candidate_count": 5, "zero_candidate": false}
{"pdf_atom_id": "ig34_p0162_a0027", "pdf_atom_type": "TABLE_ROW", "pdf_source": "SDTMIG_v3.4", "pdf_page": 162, "pdf_parent_section": "§6.2.4 Disposition (DS)", "pdf_verbatim": "| 5 | XXX | DS | XXX-767-001 | 5 | COMPLETED | COMPLETED | DISPOSITION EVENT | BLINDED DRUG B | TREATMENT 2 | 2016-03-14 |", "figure_ref": null, "candidates": [{"md_atom_id": "md_dmDS_ex_a110", "md_file": "knowledge_base/domains/DS/examples.md", "md_atom_type": "TABLE_ROW", "md_parent_section": "§DS.8 [Example 8]", "md_verbatim": "| 1 | XXX | DS | XXX-767-001 | 1 | COMPLETED | COMPLETED | DISPOSITION EVENT | BLINDED DRUG A | TREATMENT 1 | 2016-02-15 |", "score": 1.0, "match_basis": "verbatim_token+domain_route:DS"}, {"md_atom_id": "md_dmDS_ex_a111", "md_file": "knowledge_base/domains/DS/examples.md", "md_atom_type": "TABLE_ROW", "md_parent_section": "§DS.8 [Example 8]", "md_verbatim": "| 2 | XXX | DS | XXX-767-001 | 2 | COMPLETED | COMPLETED | DISPOSITION EVENT | BLINDED DRUG B | TREATMENT 1 | 2016-02-15 |", "score": 1.0, "match_basis": "verbatim_token+domain_route:DS"}, {"md_atom_id": "md_dmDS_ex_a113", "md_file": "knowledge_base/domains/DS/examples.md", "md_atom_type": "TABLE_ROW", "md_parent_section": "§DS.8 [Example 8]", "md_verbatim": "| 4 | XXX | DS | XXX-767-001 | 4 | COMPLETED | COMPLETED | DISPOSITION EVENT | BLINDED DRUG A | TREATMENT 2 | 2016-03-14 |", "score": 1.0, "match_basis": "verbatim_token+domain_route:DS"}, {"md_atom_id": "md_dmDS_ex_a114", "md_file": "knowledge_base/domains/DS/examples.md", "md_atom_type": "TABLE_ROW", "md_parent_section": "§DS.8 [Example 8]", "md_verbatim": "| 5 | XXX | DS | XXX-767-001 | 5 | COMPLETED | COMPLETED | DISPOSITION EVENT | BLINDED DRUG B | TREATMENT 2 | 2016-03-14 |", "score": 1.0, "match_basis": "verbatim_token+domain_route:DS"}, {"md_atom_id": "md_dmDS_ex_a197", "md_file": "knowledge_base/domains/DS/examples.md", "md_atom_type": "TABLE_ROW", "md_parent_section": "§DS.10 [Example 10]", "md_verbatim": "| 3 | XYZ | DS | XYZ-767-001 | 3 | COMPLETED | COMPLETED | DISPOSITION EVENT | DRUG1 | TREATMENT 1 | 2016-03-14 |", "score": 0.8769, "match_basis": "verbatim_token+domain_route:DS"}], "candidate_count": 5, "zero_candidate": false}
{"pdf_atom_id": "ig34_p0162_a0028", "pdf_atom_type": "TABLE_ROW", "pdf_source": "SDTMIG_v3.4", "pdf_page": 162, "pdf_parent_section": "§6.2.4 Disposition (DS)", "pdf_verbatim": "| 6 | XXX | DS | XXX-767-001 | 6 | COMPLETED | COMPLETED | DISPOSITION EVENT | STUDY PARTICIPATION | TREATMENT 2 | 2016-03-24 |", "figure_ref": null, "candidates": [{"md_atom_id": "md_dmDS_ex_a081", "md_file": "knowledge_base/domains/DS/examples.md", "md_atom_type": "TABLE_ROW", "md_parent_section": "§DS.5 [Example 5]", "md_verbatim": "| 3 | XXX | DS | XXX-767-001 | 3 | COMPLETED | COMPLETED | DISPOSITION EVENT | STUDY PARTICIPATION | TREATMENT 1 | 2016-02-25 |", "score": 1.0, "match_basis": "verbatim_token+domain_route:DS"}, {"md_atom_id": "md_dmDS_ex_a083", "md_file": "knowledge_base/domains/DS/examples.md", "md_atom_type": "TABLE_ROW", "md_parent_section": "§DS.5 [Example 5]", "md_verbatim": "| 5 | XXX | DS | XXX-767-001 | 5 | COMPLETED | COMPLETED | DISPOSITION EVENT | STUDY PARTICIPATION | TREATMENT 2 | 2016-03-24 |", "score": 1.0, "match_basis": "verbatim_token+domain_route:DS"}, {"md_atom_id": "md_dmDS_ex_a093", "md_file": "knowledge_base/domains/DS/examples.md", "md_atom_type": "TABLE_ROW", "md_parent_section": "§DS.6 [Example 6]", "md_verbatim": "| 3 | XXX | DS | XXX-767-001 | 3 | COMPLETED | COMPLETED | DISPOSITION EVENT | STUDY PARTICIPATION | TREATMENT 2 | 2016-03-24 |", "score": 1.0, "match_basis": "verbatim_token+domain_route:DS"}, {"md_atom_id": "md_dmDS_ex_a101", "md_file": "knowledge_base/domains/DS/examples.md", "md_atom_type": "TABLE_ROW", "md_parent_section": "§DS.7 [Example 7]", "md_verbatim": "| 2 | XXX | DS | XXX-767-001 | 2 | COMPLETED | COMPLETED | DISPOSITION EVENT | STUDY PARTICIPATION | TREATMENT 1 | 2016-02-15 |", "score": 1.0, "match_basis": "verbatim_token+domain_route:DS"}, {"md_atom_id": "md_dmDS_ex_a112", "md_file": "knowledge_base/domains/DS/examples.md", "md_atom_type": "TABLE_ROW", "md_parent_section": "§DS.8 [Example 8]", "md_verbatim": "| 3 | XXX | DS | XXX-767-001 | 3 | COMPLETED | COMPLETED | DISPOSITION EVENT | STUDY PARTICIPATION | TREATMENT 1 | 2016-02-25 |", "score": 1.0, "match_basis": "verbatim_token+domain_route:DS"}], "candidate_count": 5, "zero_candidate": false}
{"pdf_atom_id": "ig34_p0163_a0001", "pdf_atom_type": "HEADING", "pdf_source": "SDTMIG_v3.4", "pdf_page": 163, "pdf_parent_section": "§6.2.4 Disposition (DS)", "pdf_verbatim": "Example 9", "figure_ref": null, "candidates": [{"md_atom_id": "md_dmDS_ex_a002", "md_file": "knowledge_base/domains/DS/examples.md", "md_atom_type": "HEADING", "md_parent_section": "§DS [DS — Examples]", "md_verbatim": "## Example 1", "score": 1.0, "match_basis": "verbatim_token+domain_route:DS"}, {"md_atom_id": "md_dmDS_ex_a034", "md_file": "knowledge_base/domains/DS/examples.md", "md_atom_type": "HEADING", "md_parent_section": "§DS [DS — Examples]", "md_verbatim": "## Example 2", "score": 1.0, "match_basis": "verbatim_token+domain_route:DS"}, {"md_atom_id": "md_dmDS_ex_a043", "md_file": "knowledge_base/domains/DS/examples.md", "md_atom_type": "HEADING", "md_parent_section": "§DS [DS — Examples]", "md_verbatim": "## Example 3", "score": 1.0, "match_basis": "verbatim_token+domain_route:DS"}, {"md_atom_id": "md_dmDS_ex_a056", "md_file": "knowledge_base/domains/DS/examples.md", "md_atom_type": "HEADING", "md_parent_section": "§DS [DS — Examples]", "md_verbatim": "## Example 4", "score": 1.0, "match_basis": "verbatim_token+domain_route:DS"}, {"md_atom_id": "md_dmDS_ex_a072", "md_file": "knowledge_base/domains/DS/examples.md", "md_atom_type": "HEADING", "md_parent_section": "§DS [DS — Examples]", "md_verbatim": "## Example 5", "score": 1.0, "match_basis": "verbatim_token+domain_route:DS"}, {"md_atom_id": "md_dmDS_ex_a084", "md_file": "knowledge_base/domains/DS/examples.md", "md_atom_type": "HEADING", "md_parent_section": "§DS [DS — Examples]", "md_verbatim": "## Example 6", "score": 1.0, "match_basis": "verbatim_token+domain_route:DS"}, {"md_atom_id": "md_dmDS_ex_a094", "md_file": "knowledge_base/domains/DS/examples.md", "md_atom_type": "HEADING", "md_parent_section": "§DS [DS — Examples]", "md_verbatim": "## Example 7", "score": 1.0, "match_basis": "verbatim_token+domain_route:DS"}, {"md_atom_id": "md_dmDS_ex_a104", "md_file": "knowledge_base/domains/DS/examples.md", "md_atom_type": "HEADING", "md_parent_section": "§DS [DS — Examples]", "md_verbatim": "## Example 8", "score": 1.0, "match_basis": "verbatim_token+domain_route:DS"}, {"md_atom_id": "md_dmDS_ex_a116", "md_file": "knowledge_base/domains/DS/examples.md", "md_atom_type": "HEADING", "md_parent_section": "§DS [DS — Examples]", "md_verbatim": "## Example 9", "score": 1.0, "match_basis": "verbatim_token+domain_route:DS"}, {"md_atom_id": "md_dmDS_ex_a128", "md_file": "knowledge_base/domains/DS/examples.md", "md_atom_type": "HEADING", "md_parent_section": "§DS [DS — Examples]", "md_verbatim": "## Example 10", "score": 1.0, "match_basis": "verbatim_token+domain_route:DS"}], "candidate_count": 10, "zero_candidate": false}
{"pdf_atom_id": "ig34_p0163_a0002", "pdf_atom_type": "SENTENCE", "pdf_source": "SDTMIG_v3.4", "pdf_page": 163, "pdf_parent_section": "§6.2.4 Disposition (DS)", "pdf_verbatim": "This example is for a study in which multiple informed consents were collected. DSTERM is populated with a full description of the informed consent. DSDECOD is populated with the standardized value \"INFORMED CONSENT OBTAINED\" from the Protocol Milestone (PROTMLST) codelist. For all informed consent records, DSCAT = \"PROTOCOL MILESTONE\". The sponsor chose to include the EPOCH timing variable, to indicate the epoch during which each protocol milestone occurred.", "figure_ref": null, "candidates": [{"md_atom_id": "md_dmDS_ex_a117", "md_file": "knowledge_base/domains/DS/examples.md", "md_atom_type": "SENTENCE", "md_parent_section": "§DS.9 [Example 9]", "md_verbatim": "This example is for a study in which multiple informed consents were collected. DSTERM is populated with a full description of the informed consent. DSDECOD is populated with the standardized value \"INFORMED CONSENT OBTAINED\" from the Protocol Milestone (PROTMLST) codelist. For all informed consent records, DSCAT = \"PROTOCOL MILESTONE\". The sponsor chose to include the EPOCH timing variable, to indicate the epoch during which each protocol milestone occurred.", "score": 1.0, "match_basis": "verbatim_token+domain_route:DS"}, {"md_atom_id": "md_dmDS_ex_a035", "md_file": "knowledge_base/domains/DS/examples.md", "md_atom_type": "SENTENCE", "md_parent_section": "§DS.2 [Example 2]", "md_verbatim": "In this example, the sponsor has chosen to simply submit whether or not subjects completed the study, so there is only 1 record per subject. The sponsor did not collect disposition of treatment and did not include DSSCAT. EPOCH was populated as a timing variable, and represents the epoch during which the subject discontinued.", "score": 0.5962, "match_basis": "verbatim_token+domain_route:DS"}, {"md_atom_id": "md_dmDS_ex_a005", "md_file": "knowledge_base/domains/DS/examples.md", "md_atom_type": "SENTENCE", "md_parent_section": "§DS.1 [Example 1]", "md_verbatim": "**Rows 1, 2, 6, 8, 9, 12, 13, 17, 18:** Show records for protocol milestones. DSTERM and DSDECOD are populated with the same value, the name of the milestone. Note that for randomization events, EPOCH = \"SCREENING\", because randomization occurred before the start of treatment, during the screening epoch.", "score": 0.5782, "match_basis": "verbatim_token+domain_route:DS"}, {"md_atom_id": "md_dmDS_ex_a003", "md_file": "knowledge_base/domains/DS/examples.md", "md_atom_type": "SENTENCE", "md_parent_section": "§DS.1 [Example 1]", "md_verbatim": "In this example, disposition of study participation was collected for each epoch of a trial. Disposition of study participation is indicated by DSCAT = \"DISPOSITION EVENT\". EPOCH was taken from the CRF, which asked about completion of each epoch of the study. Data about disposition of study treatment was not collected, but the sponsor populated DSSCAT with \"STUDY PARTICIPATION\" to emphasize that these represent disposition of study participation.", "score": 0.5514, "match_basis": "verbatim_token+domain_route:DS"}, {"md_atom_id": "md_dmDS_ex_a045", "md_file": "knowledge_base/domains/DS/examples.md", "md_atom_type": "SENTENCE", "md_parent_section": "§DS.3 [Example 3]", "md_verbatim": "Data on protocol milestones were not collected, but data were collected if a subject's treatment was unblinded. For these records, EPOCH represents the epoch during which the blind was broken.", "score": 0.5326, "match_basis": "verbatim_token+domain_route:DS"}], "candidate_count": 5, "zero_candidate": false}
{"pdf_atom_id": "ig34_p0163_a0003", "pdf_atom_type": "LIST_ITEM", "pdf_source": "SDTMIG_v3.4", "pdf_page": 163, "pdf_parent_section": "§6.2.4 Disposition (DS)", "pdf_verbatim": "Row 1:\tShows the obtaining of the initial study informed consent.", "figure_ref": null, "candidates": [{"md_atom_id": "md_dmDS_ex_a118", "md_file": "knowledge_base/domains/DS/examples.md", "md_atom_type": "SENTENCE", "md_parent_section": "§DS.9 [Example 9]", "md_verbatim": "**Row 1:** Shows the obtaining of the initial study informed consent.", "score": 0.91, "match_basis": "verbatim_token+domain_route:DS"}, {"md_atom_id": "md_dmDS_ex_a120", "md_file": "knowledge_base/domains/DS/examples.md", "md_atom_type": "SENTENCE", "md_parent_section": "§DS.9 [Example 9]", "md_verbatim": "**Rows 3-5:** Show 3 additional informed consents obtained during the trial.", "score": 0.6167, "match_basis": "verbatim_token+domain_route:DS"}, {"md_atom_id": "md_dmDS_ex_a248", "md_file": "knowledge_base/domains/DS/examples.md", "md_atom_type": "SENTENCE", "md_parent_section": "§DS.11 [Example 11]", "md_verbatim": "**Rows 1-2:** Show that informed consent was obtained and randomization occurred during the screening epoch.", "score": 0.5195, "match_basis": "verbatim_token+domain_route:DS"}, {"md_atom_id": "md_dmDS_assn_a010", "md_file": "knowledge_base/domains/DS/assumptions.md", "md_atom_type": "LIST_ITEM", "md_parent_section": "§DS [DS — Assumptions]", "md_verbatim": "   d. An event with DSCAT = \"PROTOCOL MILESTONE\" is a protocol-specified, point-in-time event. Common protocol milestones include \"INFORMED CONSENT OBTAINED\" and \"RANDOMIZED.\" DSSCAT may be used for subcategories of protocol milestones.", "score": 0.4928, "match_basis": "verbatim_token+domain_route:DS"}, {"md_atom_id": "md_dmDS_assn_a005", "md_file": "knowledge_base/domains/DS/assumptions.md", "md_atom_type": "LIST_ITEM", "md_parent_section": "§DS [DS — Assumptions]", "md_verbatim": "   b. An event with DSCAT = \"DISPOSITION EVENT\" describes either disposition of study participation or of a study treatment. It describes whether a subject completed study participation or a study treatment and, if not, the reason they did not complete it. Dispositions may be described for each epoch (e.g., screening, initial treatment, washout, cross-over treatment, follow-up) or for the study as a whole. If disposition events for both study participation and study treatment(s) are to be represented, then DSCAT provides this distinction. For records with DSCAT = \"DISPOSITION EVENT\",", "score": 0.4653, "match_basis": "verbatim_token+domain_route:DS"}], "candidate_count": 5, "zero_candidate": false}
{"pdf_atom_id": "ig34_p0163_a0004", "pdf_atom_type": "LIST_ITEM", "pdf_source": "SDTMIG_v3.4", "pdf_page": 163, "pdf_parent_section": "§6.2.4 Disposition (DS)", "pdf_verbatim": "Row 2:\tShows randomization, another event with DSCAT = \"PROTOCOL MILESTONE\".", "figure_ref": null, "candidates": [{"md_atom_id": "md_dmDS_ex_a119", "md_file": "knowledge_base/domains/DS/examples.md", "md_atom_type": "SENTENCE", "md_parent_section": "§DS.9 [Example 9]", "md_verbatim": "**Row 2:** Shows randomization, another event with DSCAT = \"PROTOCOL MILESTONE\".", "score": 0.91, "match_basis": "verbatim_token+domain_route:DS"}, {"md_atom_id": "md_dmDS_assn_a009", "md_file": "knowledge_base/domains/DS/assumptions.md", "md_atom_type": "LIST_ITEM", "md_parent_section": "§DS [DS — Assumptions]", "md_verbatim": "   c. DSSCAT may be used when DSCAT = \"PROTOCOL MILESTONE\" or \"OTHER EVENT\", but would be subject to additional CDISC Controlled Terminology.", "score": 0.5735, "match_basis": "verbatim_token+domain_route:DS"}, {"md_atom_id": "md_dmDS_assn_a004", "md_file": "knowledge_base/domains/DS/assumptions.md", "md_atom_type": "LIST_ITEM", "md_parent_section": "§DS [DS — Assumptions]", "md_verbatim": "   a. DSCAT is used to distinguish between disposition events, protocol milestones, and other events. The controlled terminology for DSCAT consists of \"DISPOSITION EVENT\", \"PROTOCOL MILESTONE\", and \"OTHER EVENT\".", "score": 0.5724, "match_basis": "verbatim_token+domain_route:DS"}, {"md_atom_id": "md_dmDS_assn_a010", "md_file": "knowledge_base/domains/DS/assumptions.md", "md_atom_type": "LIST_ITEM", "md_parent_section": "§DS [DS — Assumptions]", "md_verbatim": "   d. An event with DSCAT = \"PROTOCOL MILESTONE\" is a protocol-specified, point-in-time event. Common protocol milestones include \"INFORMED CONSENT OBTAINED\" and \"RANDOMIZED.\" DSSCAT may be used for subcategories of protocol milestones.", "score": 0.5687, "match_basis": "verbatim_token+domain_route:DS"}, {"md_atom_id": "md_dmDS_ex_a188", "md_file": "knowledge_base/domains/DS/examples.md", "md_atom_type": "SENTENCE", "md_parent_section": "§DS.10 [Example 10]", "md_verbatim": "**Rows 1, 8:** Show randomization to either DRUG 1 or DRUG 2 in the study.", "score": 0.5398, "match_basis": "verbatim_token+domain_route:DS"}], "candidate_count": 5, "zero_candidate": false}
{"pdf_atom_id": "ig34_p0163_a0005", "pdf_atom_type": "LIST_ITEM", "pdf_source": "SDTMIG_v3.4", "pdf_page": 163, "pdf_parent_section": "§6.2.4 Disposition (DS)", "pdf_verbatim": "Rows 3-5:\tShow 3 additional informed consents obtained during the trial.", "figure_ref": null, "candidates": [{"md_atom_id": "md_dmDS_ex_a120", "md_file": "knowledge_base/domains/DS/examples.md", "md_atom_type": "SENTENCE", "md_parent_section": "§DS.9 [Example 9]", "md_verbatim": "**Rows 3-5:** Show 3 additional informed consents obtained during the trial.", "score": 0.91, "match_basis": "verbatim_token+domain_route:DS"}, {"md_atom_id": "md_dmDS_ex_a118", "md_file": "knowledge_base/domains/DS/examples.md", "md_atom_type": "SENTENCE", "md_parent_section": "§DS.9 [Example 9]", "md_verbatim": "**Row 1:** Shows the obtaining of the initial study informed consent.", "score": 0.6167, "match_basis": "verbatim_token+domain_route:DS"}, {"md_atom_id": "md_dmDS_ex_a248", "md_file": "knowledge_base/domains/DS/examples.md", "md_atom_type": "SENTENCE", "md_parent_section": "§DS.11 [Example 11]", "md_verbatim": "**Rows 1-2:** Show that informed consent was obtained and randomization occurred during the screening epoch.", "score": 0.5685, "match_basis": "verbatim_token+domain_route:DS"}, {"md_atom_id": "md_dmDS_assn_a010", "md_file": "knowledge_base/domains/DS/assumptions.md", "md_atom_type": "LIST_ITEM", "md_parent_section": "§DS [DS — Assumptions]", "md_verbatim": "   d. An event with DSCAT = \"PROTOCOL MILESTONE\" is a protocol-specified, point-in-time event. Common protocol milestones include \"INFORMED CONSENT OBTAINED\" and \"RANDOMIZED.\" DSSCAT may be used for subcategories of protocol milestones.", "score": 0.499, "match_basis": "verbatim_token+domain_route:DS"}, {"md_atom_id": "md_dmDS_assn_a015", "md_file": "knowledge_base/domains/DS/assumptions.md", "md_atom_type": "LIST_ITEM", "md_parent_section": "§DS [DS — Assumptions]", "md_verbatim": "   b. When DSCAT = \"DISPOSITION EVENT\" DSTERM contains either \"COMPLETED\" or, if the subject did not complete, specific verbatim information about the reason for non-completion.", "score": 0.4735, "match_basis": "verbatim_token+domain_route:DS"}], "candidate_count": 5, "zero_candidate": false}
{"pdf_atom_id": "ig34_p0163_a0006", "pdf_atom_type": "CODE_LITERAL", "pdf_source": "SDTMIG_v3.4", "pdf_page": 163, "pdf_parent_section": "§6.2.4 Disposition (DS)", "pdf_verbatim": "ds.xpt", "figure_ref": null, "candidates": [{"md_atom_id": "md_dmDS_ex_a011", "md_file": "knowledge_base/domains/DS/examples.md", "md_atom_type": "SENTENCE", "md_parent_section": "§DS.1 [Example 1]", "md_verbatim": "**ds.xpt**", "score": 0.79, "match_basis": "verbatim_token+domain_route:DS"}, {"md_atom_id": "md_dmDS_ex_a038", "md_file": "knowledge_base/domains/DS/examples.md", "md_atom_type": "SENTENCE", "md_parent_section": "§DS.2 [Example 2]", "md_verbatim": "**ds.xpt**", "score": 0.79, "match_basis": "verbatim_token+domain_route:DS"}, {"md_atom_id": "md_dmDS_ex_a049", "md_file": "knowledge_base/domains/DS/examples.md", "md_atom_type": "SENTENCE", "md_parent_section": "§DS.3 [Example 3]", "md_verbatim": "**ds.xpt**", "score": 0.79, "match_basis": "verbatim_token+domain_route:DS"}, {"md_atom_id": "md_dmDS_ex_a059", "md_file": "knowledge_base/domains/DS/examples.md", "md_atom_type": "SENTENCE", "md_parent_section": "§DS.4 [Example 4]", "md_verbatim": "**ds.xpt**", "score": 0.79, "match_basis": "verbatim_token+domain_route:DS"}, {"md_atom_id": "md_dmDS_ex_a063", "md_file": "knowledge_base/domains/DS/examples.md", "md_atom_type": "SENTENCE", "md_parent_section": "§DS.4 [Example 4]", "md_verbatim": "**ae.xpt**", "score": 0.79, "match_basis": "verbatim_token+domain_route:DS"}, {"md_atom_id": "md_dmDS_ex_a077", "md_file": "knowledge_base/domains/DS/examples.md", "md_atom_type": "SENTENCE", "md_parent_section": "§DS.5 [Example 5]", "md_verbatim": "**ds.xpt**", "score": 0.79, "match_basis": "verbatim_token+domain_route:DS"}, {"md_atom_id": "md_dmDS_ex_a089", "md_file": "knowledge_base/domains/DS/examples.md", "md_atom_type": "SENTENCE", "md_parent_section": "§DS.6 [Example 6]", "md_verbatim": "**ds.xpt**", "score": 0.79, "match_basis": "verbatim_token+domain_route:DS"}, {"md_atom_id": "md_dmDS_ex_a098", "md_file": "knowledge_base/domains/DS/examples.md", "md_atom_type": "SENTENCE", "md_parent_section": "§DS.7 [Example 7]", "md_verbatim": "**ds.xpt**", "score": 0.79, "match_basis": "verbatim_token+domain_route:DS"}, {"md_atom_id": "md_dmDS_ex_a108", "md_file": "knowledge_base/domains/DS/examples.md", "md_atom_type": "SENTENCE", "md_parent_section": "§DS.8 [Example 8]", "md_verbatim": "**ds.xpt**", "score": 0.79, "match_basis": "verbatim_token+domain_route:DS"}, {"md_atom_id": "md_dmDS_ex_a121", "md_file": "knowledge_base/domains/DS/examples.md", "md_atom_type": "SENTENCE", "md_parent_section": "§DS.9 [Example 9]", "md_verbatim": "**ds.xpt**", "score": 0.79, "match_basis": "verbatim_token+domain_route:DS"}], "candidate_count": 10, "zero_candidate": false}
{"pdf_atom_id": "ig34_p0163_a0007", "pdf_atom_type": "TABLE_HEADER", "pdf_source": "SDTMIG_v3.4", "pdf_page": 163, "pdf_parent_section": "§6.2.4 Disposition (DS)", "pdf_verbatim": "| Row | STUDYID | DOMAIN | USUBJID | DSSEQ | DSTERM | DSDECOD | DSCAT | EPOCH | DSSTDTC |", "figure_ref": null, "candidates": [{"md_atom_id": "md_dmDS_ex_a039", "md_file": "knowledge_base/domains/DS/examples.md", "md_atom_type": "TABLE_HEADER", "md_parent_section": "§DS.2 [Example 2]", "md_verbatim": "| Row | STUDYID | DOMAIN | USUBJID | DSSEQ | DSTERM | DSDECOD | DSCAT | EPOCH | DSSTDTC |\n|-----|---------|--------|---------|-------|--------|---------|-------|-------|---------|", "score": 1.0, "match_basis": "verbatim_token+domain_route:DS"}, {"md_atom_id": "md_dmDS_ex_a050", "md_file": "knowledge_base/domains/DS/examples.md", "md_atom_type": "TABLE_HEADER", "md_parent_section": "§DS.3 [Example 3]", "md_verbatim": "| Row | STUDYID | DOMAIN | USUBJID | DSSEQ | DSTERM | DSDECOD | DSCAT | EPOCH | DSSTDTC |\n|-----|---------|--------|---------|-------|--------|---------|-------|-------|---------|", "score": 1.0, "match_basis": "verbatim_token+domain_route:DS"}, {"md_atom_id": "md_dmDS_ex_a122", "md_file": "knowledge_base/domains/DS/examples.md", "md_atom_type": "TABLE_HEADER", "md_parent_section": "§DS.9 [Example 9]", "md_verbatim": "| Row | STUDYID | DOMAIN | USUBJID | DSSEQ | DSTERM | DSDECOD | DSCAT | EPOCH | DSSTDTC |\n|-----|---------|--------|---------|-------|--------|---------|-------|-------|---------|", "score": 1.0, "match_basis": "verbatim_token+domain_route:DS"}, {"md_atom_id": "md_dmDS_ex_a060", "md_file": "knowledge_base/domains/DS/examples.md", "md_atom_type": "TABLE_HEADER", "md_parent_section": "§DS.4 [Example 4]", "md_verbatim": "| Row | STUDYID | DOMAIN | USUBJID | DSSEQ | DSTERM | DSDECOD | DSCAT | EPOCH | DSDTC | DSSTDTC |\n|-----|---------|--------|---------|-------|--------|---------|-------|-------|-------|---------|", "score": 0.9842, "match_basis": "verbatim_token+domain_route:DS"}, {"md_atom_id": "md_dmDS_ex_a078", "md_file": "knowledge_base/domains/DS/examples.md", "md_atom_type": "TABLE_HEADER", "md_parent_section": "§DS.5 [Example 5]", "md_verbatim": "| Row | STUDYID | DOMAIN | USUBJID | DSSEQ | DSTERM | DSDECOD | DSCAT | DSSCAT | EPOCH | DSSTDTC |\n|-----|---------|--------|---------|-------|--------|---------|-------|--------|-------|---------|", "score": 0.9842, "match_basis": "verbatim_token+domain_route:DS"}], "candidate_count": 5, "zero_candidate": false}
{"pdf_atom_id": "ig34_p0163_a0008", "pdf_atom_type": "TABLE_ROW", "pdf_source": "SDTMIG_v3.4", "pdf_page": 163, "pdf_parent_section": "§6.2.4 Disposition (DS)", "pdf_verbatim": "| 1 | XXX | DS | XXX-767-001 | 1 | INFORMED CONSENT FOR STUDY ENROLLMENT OBTAINED | INFORMED CONSENT OBTAINED | PROTOCOL MILESTONE | SCREENING | 2016-02-22 |", "figure_ref": null, "candidates": [{"md_atom_id": "md_dmDS_ex_a123", "md_file": "knowledge_base/domains/DS/examples.md", "md_atom_type": "TABLE_ROW", "md_parent_section": "§DS.9 [Example 9]", "md_verbatim": "| 1 | XXX | DS | XXX-767-001 | 1 | INFORMED CONSENT FOR STUDY ENROLLMENT OBTAINED | INFORMED CONSENT OBTAINED | PROTOCOL MILESTONE | SCREENING | 2016-02-22 |", "score": 1.0, "match_basis": "verbatim_token+domain_route:DS"}, {"md_atom_id": "md_dmDS_ex_a256", "md_file": "knowledge_base/domains/DS/examples.md", "md_atom_type": "TABLE_ROW", "md_parent_section": "§DS.11 [Example 11]", "md_verbatim": "| 1 | DS10 | DS | 101 | 1 | INFORMED CONSENT OBTAINED | INFORMED CONSENT OBTAINED | PROTOCOL MILESTONE | | 1 | SCREENING | 2015-01-21 |", "score": 0.8071, "match_basis": "verbatim_token+domain_route:DS"}, {"md_atom_id": "md_dmDS_ex_a127", "md_file": "knowledge_base/domains/DS/examples.md", "md_atom_type": "TABLE_ROW", "md_parent_section": "§DS.9 [Example 9]", "md_verbatim": "| 5 | XXX | DS | XXX-767-001 | 5 | INFORMED CONSENT FOR PK SUB-STUDY OBTAINED | INFORMED CONSENT OBTAINED | PROTOCOL MILESTONE | TREATMENT 2 | 2016-06-23 |", "score": 0.8034, "match_basis": "verbatim_token+domain_route:DS"}, {"md_atom_id": "md_dmDS_ex_a013", "md_file": "knowledge_base/domains/DS/examples.md", "md_atom_type": "TABLE_ROW", "md_parent_section": "§DS.1 [Example 1]", "md_verbatim": "| 1 | ABC123 | DS | 123101 | 1 | INFORMED CONSENT OBTAINED | INFORMED CONSENT OBTAINED | PROTOCOL MILESTONE | | SCREENING | 2003-09-21 | 2003-09-21 |", "score": 0.7639, "match_basis": "verbatim_token+domain_route:DS"}, {"md_atom_id": "md_dmDS_ex_a018", "md_file": "knowledge_base/domains/DS/examples.md", "md_atom_type": "TABLE_ROW", "md_parent_section": "§DS.1 [Example 1]", "md_verbatim": "| 6 | ABC123 | DS | 123102 | 1 | INFORMED CONSENT OBTAINED | INFORMED CONSENT OBTAINED | PROTOCOL MILESTONE | | SCREENING | 2003-11-21 | 2003-11-21 |", "score": 0.7639, "match_basis": "verbatim_token+domain_route:DS"}], "candidate_count": 5, "zero_candidate": false}
{"pdf_atom_id": "ig34_p0163_a0009", "pdf_atom_type": "TABLE_ROW", "pdf_source": "SDTMIG_v3.4", "pdf_page": 163, "pdf_parent_section": "§6.2.4 Disposition (DS)", "pdf_verbatim": "| 2 | XXX | DS | XXX-767-001 | 2 | RANDOMIZED | RANDOMIZED | PROTOCOL MILESTONE | SCREENING | 2016-02-26 |", "figure_ref": null, "candidates": [{"md_atom_id": "md_dmDS_ex_a124", "md_file": "knowledge_base/domains/DS/examples.md", "md_atom_type": "TABLE_ROW", "md_parent_section": "§DS.9 [Example 9]", "md_verbatim": "| 2 | XXX | DS | XXX-767-001 | 2 | RANDOMIZED | RANDOMIZED | PROTOCOL MILESTONE | SCREENING | 2016-02-26 |", "score": 1.0, "match_basis": "verbatim_token+domain_route:DS"}, {"md_atom_id": "md_dmDS_ex_a195", "md_file": "knowledge_base/domains/DS/examples.md", "md_atom_type": "TABLE_ROW", "md_parent_section": "§DS.10 [Example 10]", "md_verbatim": "| 1 | XYZ | DS | XYZ-767-001 | 1 | RANDOMIZED | RANDOMIZED | PROTOCOL MILESTONE | | SCREENING | 2016-02-13 |", "score": 0.9647, "match_basis": "verbatim_token+domain_route:DS"}, {"md_atom_id": "md_dmDS_ex_a202", "md_file": "knowledge_base/domains/DS/examples.md", "md_atom_type": "TABLE_ROW", "md_parent_section": "§DS.10 [Example 10]", "md_verbatim": "| 8 | XYZ | DS | XYZ-767-002 | 1 | RANDOMIZED | RANDOMIZED | PROTOCOL MILESTONE | | SCREENING | 2016-02-20 |", "score": 0.9314, "match_basis": "verbatim_token+domain_route:DS"}, {"md_atom_id": "md_dmDS_ex_a257", "md_file": "knowledge_base/domains/DS/examples.md", "md_atom_type": "TABLE_ROW", "md_parent_section": "§DS.11 [Example 11]", "md_verbatim": "| 2 | DS10 | DS | 101 | 2 | RANDOMIZED | RANDOMIZED | PROTOCOL MILESTONE | | 1 | SCREENING | 2015-02-01 |", "score": 0.8703, "match_basis": "verbatim_token+domain_route:DS"}, {"md_atom_id": "md_dmDS_ex_a014", "md_file": "knowledge_base/domains/DS/examples.md", "md_atom_type": "TABLE_ROW", "md_parent_section": "§DS.1 [Example 1]", "md_verbatim": "| 2 | ABC123 | DS | 123101 | 2 | RANDOMIZED | RANDOMIZED | PROTOCOL MILESTONE | | SCREENING | 2003-09-30 | 2003-09-30 |", "score": 0.8, "match_basis": "verbatim_token+domain_route:DS"}], "candidate_count": 5, "zero_candidate": false}
{"pdf_atom_id": "ig34_p0163_a0010", "pdf_atom_type": "TABLE_ROW", "pdf_source": "SDTMIG_v3.4", "pdf_page": 163, "pdf_parent_section": "§6.2.4 Disposition (DS)", "pdf_verbatim": "| 3 | XXX | DS | XXX-767-001 | 3 | INFORMED CONSENT FOR AMENDMENT ONE OBTAINED | INFORMED CONSENT OBTAINED | PROTOCOL MILESTONE | TREATMENT 1 | 2016-04-12 |", "figure_ref": null, "candidates": [{"md_atom_id": "md_dmDS_ex_a125", "md_file": "knowledge_base/domains/DS/examples.md", "md_atom_type": "TABLE_ROW", "md_parent_section": "§DS.9 [Example 9]", "md_verbatim": "| 3 | XXX | DS | XXX-767-001 | 3 | INFORMED CONSENT FOR AMENDMENT ONE OBTAINED | INFORMED CONSENT OBTAINED | PROTOCOL MILESTONE | TREATMENT 1 | 2016-04-10 |", "score": 1.0, "match_basis": "verbatim_token+domain_route:DS"}, {"md_atom_id": "md_dmDS_ex_a127", "md_file": "knowledge_base/domains/DS/examples.md", "md_atom_type": "TABLE_ROW", "md_parent_section": "§DS.9 [Example 9]", "md_verbatim": "| 5 | XXX | DS | XXX-767-001 | 5 | INFORMED CONSENT FOR PK SUB-STUDY OBTAINED | INFORMED CONSENT OBTAINED | PROTOCOL MILESTONE | TREATMENT 2 | 2016-06-23 |", "score": 0.902, "match_basis": "verbatim_token+domain_route:DS"}, {"md_atom_id": "md_dmDS_ex_a126", "md_file": "knowledge_base/domains/DS/examples.md", "md_atom_type": "TABLE_ROW", "md_parent_section": "§DS.9 [Example 9]", "md_verbatim": "| 4 | XXX | DS | XXX-767-001 | 4 | INFORMED CONSENT FOR PHARMACOGENETIC RESEARCH OBTAINED | INFORMED CONSENT OBTAINED | PROTOCOL MILESTONE | TREATMENT 2 | 2016-06-08 |", "score": 0.7844, "match_basis": "verbatim_token+domain_route:DS"}, {"md_atom_id": "md_dmDS_ex_a123", "md_file": "knowledge_base/domains/DS/examples.md", "md_atom_type": "TABLE_ROW", "md_parent_section": "§DS.9 [Example 9]", "md_verbatim": "| 1 | XXX | DS | XXX-767-001 | 1 | INFORMED CONSENT FOR STUDY ENROLLMENT OBTAINED | INFORMED CONSENT OBTAINED | PROTOCOL MILESTONE | SCREENING | 2016-02-22 |", "score": 0.7541, "match_basis": "verbatim_token+domain_route:DS"}, {"md_atom_id": "md_dmDS_ex_a256", "md_file": "knowledge_base/domains/DS/examples.md", "md_atom_type": "TABLE_ROW", "md_parent_section": "§DS.11 [Example 11]", "md_verbatim": "| 1 | DS10 | DS | 101 | 1 | INFORMED CONSENT OBTAINED | INFORMED CONSENT OBTAINED | PROTOCOL MILESTONE | | 1 | SCREENING | 2015-01-21 |", "score": 0.7321, "match_basis": "verbatim_token+domain_route:DS"}], "candidate_count": 5, "zero_candidate": false}
{"pdf_atom_id": "ig34_p0163_a0011", "pdf_atom_type": "TABLE_ROW", "pdf_source": "SDTMIG_v3.4", "pdf_page": 163, "pdf_parent_section": "§6.2.4 Disposition (DS)", "pdf_verbatim": "| 4 | XXX | DS | XXX-767-001 | 4 | INFORMED CONSENT FOR PHARMACOGENETIC RESEARCH OBTAINED | INFORMED CONSENT OBTAINED | PROTOCOL MILESTONE | TREATMENT 2 | 2016-06-08 |", "figure_ref": null, "candidates": [{"md_atom_id": "md_dmDS_ex_a126", "md_file": "knowledge_base/domains/DS/examples.md", "md_atom_type": "TABLE_ROW", "md_parent_section": "§DS.9 [Example 9]", "md_verbatim": "| 4 | XXX | DS | XXX-767-001 | 4 | INFORMED CONSENT FOR PHARMACOGENETIC RESEARCH OBTAINED | INFORMED CONSENT OBTAINED | PROTOCOL MILESTONE | TREATMENT 2 | 2016-06-08 |", "score": 1.0, "match_basis": "verbatim_token+domain_route:DS"}, {"md_atom_id": "md_dmDS_ex_a125", "md_file": "knowledge_base/domains/DS/examples.md", "md_atom_type": "TABLE_ROW", "md_parent_section": "§DS.9 [Example 9]", "md_verbatim": "| 3 | XXX | DS | XXX-767-001 | 3 | INFORMED CONSENT FOR AMENDMENT ONE OBTAINED | INFORMED CONSENT OBTAINED | PROTOCOL MILESTONE | TREATMENT 1 | 2016-04-10 |", "score": 0.7844, "match_basis": "verbatim_token+domain_route:DS"}, {"md_atom_id": "md_dmDS_ex_a127", "md_file": "knowledge_base/domains/DS/examples.md", "md_atom_type": "TABLE_ROW", "md_parent_section": "§DS.9 [Example 9]", "md_verbatim": "| 5 | XXX | DS | XXX-767-001 | 5 | INFORMED CONSENT FOR PK SUB-STUDY OBTAINED | INFORMED CONSENT OBTAINED | PROTOCOL MILESTONE | TREATMENT 2 | 2016-06-23 |", "score": 0.7844, "match_basis": "verbatim_token+domain_route:DS"}, {"md_atom_id": "md_dmDS_ex_a123", "md_file": "knowledge_base/domains/DS/examples.md", "md_atom_type": "TABLE_ROW", "md_parent_section": "§DS.9 [Example 9]", "md_verbatim": "| 1 | XXX | DS | XXX-767-001 | 1 | INFORMED CONSENT FOR STUDY ENROLLMENT OBTAINED | INFORMED CONSENT OBTAINED | PROTOCOL MILESTONE | SCREENING | 2016-02-22 |", "score": 0.6842, "match_basis": "verbatim_token+domain_route:DS"}, {"md_atom_id": "md_dmDS_ex_a256", "md_file": "knowledge_base/domains/DS/examples.md", "md_atom_type": "TABLE_ROW", "md_parent_section": "§DS.11 [Example 11]", "md_verbatim": "| 1 | DS10 | DS | 101 | 1 | INFORMED CONSENT OBTAINED | INFORMED CONSENT OBTAINED | PROTOCOL MILESTONE | | 1 | SCREENING | 2015-01-21 |", "score": 0.662, "match_basis": "verbatim_token+domain_route:DS"}], "candidate_count": 5, "zero_candidate": false}
{"pdf_atom_id": "ig34_p0163_a0012", "pdf_atom_type": "TABLE_ROW", "pdf_source": "SDTMIG_v3.4", "pdf_page": 163, "pdf_parent_section": "§6.2.4 Disposition (DS)", "pdf_verbatim": "| 5 | XXX | DS | XXX-767-001 | 5 | INFORMED CONSENT FOR PK SUB-STUDY OBTAINED | INFORMED CONSENT OBTAINED | PROTOCOL MILESTONE | TREATMENT 2 | 2016-06-23 |", "figure_ref": null, "candidates": [{"md_atom_id": "md_dmDS_ex_a127", "md_file": "knowledge_base/domains/DS/examples.md", "md_atom_type": "TABLE_ROW", "md_parent_section": "§DS.9 [Example 9]", "md_verbatim": "| 5 | XXX | DS | XXX-767-001 | 5 | INFORMED CONSENT FOR PK SUB-STUDY OBTAINED | INFORMED CONSENT OBTAINED | PROTOCOL MILESTONE | TREATMENT 2 | 2016-06-23 |", "score": 1.0, "match_basis": "verbatim_token+domain_route:DS"}, {"md_atom_id": "md_dmDS_ex_a125", "md_file": "knowledge_base/domains/DS/examples.md", "md_atom_type": "TABLE_ROW", "md_parent_section": "§DS.9 [Example 9]", "md_verbatim": "| 3 | XXX | DS | XXX-767-001 | 3 | INFORMED CONSENT FOR AMENDMENT ONE OBTAINED | INFORMED CONSENT OBTAINED | PROTOCOL MILESTONE | TREATMENT 1 | 2016-04-10 |", "score": 0.902, "match_basis": "verbatim_token+domain_route:DS"}, {"md_atom_id": "md_dmDS_ex_a123", "md_file": "knowledge_base/domains/DS/examples.md", "md_atom_type": "TABLE_ROW", "md_parent_section": "§DS.9 [Example 9]", "md_verbatim": "| 1 | XXX | DS | XXX-767-001 | 1 | INFORMED CONSENT FOR STUDY ENROLLMENT OBTAINED | INFORMED CONSENT OBTAINED | PROTOCOL MILESTONE | SCREENING | 2016-02-22 |", "score": 0.8034, "match_basis": "verbatim_token+domain_route:DS"}, {"md_atom_id": "md_dmDS_ex_a126", "md_file": "knowledge_base/domains/DS/examples.md", "md_atom_type": "TABLE_ROW", "md_parent_section": "§DS.9 [Example 9]", "md_verbatim": "| 4 | XXX | DS | XXX-767-001 | 4 | INFORMED CONSENT FOR PHARMACOGENETIC RESEARCH OBTAINED | INFORMED CONSENT OBTAINED | PROTOCOL MILESTONE | TREATMENT 2 | 2016-06-08 |", "score": 0.7844, "match_basis": "verbatim_token+domain_route:DS"}, {"md_atom_id": "md_dmDS_ex_a256", "md_file": "knowledge_base/domains/DS/examples.md", "md_atom_type": "TABLE_ROW", "md_parent_section": "§DS.11 [Example 11]", "md_verbatim": "| 1 | DS10 | DS | 101 | 1 | INFORMED CONSENT OBTAINED | INFORMED CONSENT OBTAINED | PROTOCOL MILESTONE | | 1 | SCREENING | 2015-01-21 |", "score": 0.7321, "match_basis": "verbatim_token+domain_route:DS"}], "candidate_count": 5, "zero_candidate": false}
{"pdf_atom_id": "ig34_p0163_a0013", "pdf_atom_type": "HEADING", "pdf_source": "SDTMIG_v3.4", "pdf_page": 163, "pdf_parent_section": "§6.2.4 Disposition (DS)", "pdf_verbatim": "Example 10", "figure_ref": null, "candidates": [{"md_atom_id": "md_dmDS_ex_a002", "md_file": "knowledge_base/domains/DS/examples.md", "md_atom_type": "HEADING", "md_parent_section": "§DS [DS — Examples]", "md_verbatim": "## Example 1", "score": 1.0, "match_basis": "verbatim_token+domain_route:DS"}, {"md_atom_id": "md_dmDS_ex_a034", "md_file": "knowledge_base/domains/DS/examples.md", "md_atom_type": "HEADING", "md_parent_section": "§DS [DS — Examples]", "md_verbatim": "## Example 2", "score": 1.0, "match_basis": "verbatim_token+domain_route:DS"}, {"md_atom_id": "md_dmDS_ex_a043", "md_file": "knowledge_base/domains/DS/examples.md", "md_atom_type": "HEADING", "md_parent_section": "§DS [DS — Examples]", "md_verbatim": "## Example 3", "score": 1.0, "match_basis": "verbatim_token+domain_route:DS"}, {"md_atom_id": "md_dmDS_ex_a056", "md_file": "knowledge_base/domains/DS/examples.md", "md_atom_type": "HEADING", "md_parent_section": "§DS [DS — Examples]", "md_verbatim": "## Example 4", "score": 1.0, "match_basis": "verbatim_token+domain_route:DS"}, {"md_atom_id": "md_dmDS_ex_a072", "md_file": "knowledge_base/domains/DS/examples.md", "md_atom_type": "HEADING", "md_parent_section": "§DS [DS — Examples]", "md_verbatim": "## Example 5", "score": 1.0, "match_basis": "verbatim_token+domain_route:DS"}, {"md_atom_id": "md_dmDS_ex_a084", "md_file": "knowledge_base/domains/DS/examples.md", "md_atom_type": "HEADING", "md_parent_section": "§DS [DS — Examples]", "md_verbatim": "## Example 6", "score": 1.0, "match_basis": "verbatim_token+domain_route:DS"}, {"md_atom_id": "md_dmDS_ex_a094", "md_file": "knowledge_base/domains/DS/examples.md", "md_atom_type": "HEADING", "md_parent_section": "§DS [DS — Examples]", "md_verbatim": "## Example 7", "score": 1.0, "match_basis": "verbatim_token+domain_route:DS"}, {"md_atom_id": "md_dmDS_ex_a104", "md_file": "knowledge_base/domains/DS/examples.md", "md_atom_type": "HEADING", "md_parent_section": "§DS [DS — Examples]", "md_verbatim": "## Example 8", "score": 1.0, "match_basis": "verbatim_token+domain_route:DS"}, {"md_atom_id": "md_dmDS_ex_a116", "md_file": "knowledge_base/domains/DS/examples.md", "md_atom_type": "HEADING", "md_parent_section": "§DS [DS — Examples]", "md_verbatim": "## Example 9", "score": 1.0, "match_basis": "verbatim_token+domain_route:DS"}, {"md_atom_id": "md_dmDS_ex_a128", "md_file": "knowledge_base/domains/DS/examples.md", "md_atom_type": "HEADING", "md_parent_section": "§DS [DS — Examples]", "md_verbatim": "## Example 10", "score": 1.0, "match_basis": "verbatim_token+domain_route:DS"}], "candidate_count": 10, "zero_candidate": false}
{"pdf_atom_id": "ig34_p0163_a0014", "pdf_atom_type": "SENTENCE", "pdf_source": "SDTMIG_v3.4", "pdf_page": 163, "pdf_parent_section": "§6.2.4 Disposition (DS)", "pdf_verbatim": "The example represents data for 2 subjects who participated in a study with multiple treatment periods. During the first treatment period, subjects were randomized to drug 1 or drug 2. The second treatment phase added the investigational drug to drug 1 and drug 2. Disposition of study drugs and study participation was collected at the end of each epoch. DSSCAT was used to distinguish between disposition of study drugs vs. study participation. The supporting Demographics (DM), Exposure (EX), Trial Elements (TE), Trial Arms (TA), and Subject Elements (SE) datasets have been provided for additional context. Not all records are shown in the supporting example datasets.", "figure_ref": null, "candidates": [{"md_atom_id": "md_dmDS_ex_a129", "md_file": "knowledge_base/domains/DS/examples.md", "md_atom_type": "SENTENCE", "md_parent_section": "§DS.10 [Example 10]", "md_verbatim": "The example represents data for 2 subjects who participated in a study with multiple treatment periods. During the first treatment period, subjects were randomized to drug 1 or drug 2. The second treatment phase added the investigational drug to drug 1 and drug 2. Disposition of study drugs and study participation was collected at the end of each epoch. DSSCAT was used to distinguish between disposition of study drugs vs. study participation. The supporting Demographics (DM), Exposure (EX), Trial Elements (TE), Trial Arms (TA), and Subject Elements (SE) datasets have been provided for additional context. Not all records are shown in the supporting example datasets.", "score": 1.0, "match_basis": "verbatim_token+domain_route:DS"}, {"md_atom_id": "md_dmDS_ex_a073", "md_file": "knowledge_base/domains/DS/examples.md", "md_atom_type": "SENTENCE", "md_parent_section": "§DS.5 [Example 5]", "md_verbatim": "This below represents a multidrug (isoniazid and levofloxacin) investigational treatment trial for multidrug-resistant tuberculosis (MDR-TB). The protocol allows for a subject to discontinue levofloxacin and continue single treatment of isoniazid throughout the remainder of the study. Disposition of study participation and disposition of each drug was collected. Whether a record with DSCAT = \"DISPOSITION EVENT\" represents disposition of the subject's participation in the study or disposition of a study treatment is represented in DSSCAT. In this example, disposition of the study and of each drug a subject received for each of the study's 2 treatment epochs.", "score": 0.6141, "match_basis": "verbatim_token+domain_route:DS"}, {"md_atom_id": "md_dmDS_ex_a085", "md_file": "knowledge_base/domains/DS/examples.md", "md_atom_type": "SENTENCE", "md_parent_section": "§DS.6 [Example 6]", "md_verbatim": "This example is for a study of a multidrug (isoniazid and levofloxacin) investigational treatment for MDR-TB. The protocol allowed a subject to discontinue levofloxacin and continue single treatment of isoniazid throughout the remainder of the study. Disposition of study participation and of each study treatment was collected. For records of disposition of the subject's participation in the study DSSCAT = \"STUDY PARTICIPATION\", whereas for records of disposition of a study treatment DSSCAT is the name of the treatment.", "score": 0.5968, "match_basis": "verbatim_token+domain_route:DS"}, {"md_atom_id": "md_dmDS_ex_a105", "md_file": "knowledge_base/domains/DS/examples.md", "md_atom_type": "SENTENCE", "md_parent_section": "§DS.8 [Example 8]", "md_verbatim": "This example represents data for an ongoing blinded study in which each subject received 2 treatments, identified by the sponsor as \"BLINDED DRUG A\" and \"BLINDED DRUG B\". Disposition of study participation and of each of the 2 blinded treatments was collected for each of the 2 treatment epochs in the study. The subject in this example completed study participation and both treatments for both treatment epochs.", "score": 0.5857, "match_basis": "verbatim_token+domain_route:DS"}, {"md_atom_id": "md_dmDS_ex_a003", "md_file": "knowledge_base/domains/DS/examples.md", "md_atom_type": "SENTENCE", "md_parent_section": "§DS.1 [Example 1]", "md_verbatim": "In this example, disposition of study participation was collected for each epoch of a trial. Disposition of study participation is indicated by DSCAT = \"DISPOSITION EVENT\". EPOCH was taken from the CRF, which asked about completion of each epoch of the study. Data about disposition of study treatment was not collected, but the sponsor populated DSSCAT with \"STUDY PARTICIPATION\" to emphasize that these represent disposition of study participation.", "score": 0.5828, "match_basis": "verbatim_token+domain_route:DS"}], "candidate_count": 5, "zero_candidate": false}
{"pdf_atom_id": "ig34_p0163_a0015", "pdf_atom_type": "SENTENCE", "pdf_source": "SDTMIG_v3.4", "pdf_page": 163, "pdf_parent_section": "§6.2.4 Disposition (DS)", "pdf_verbatim": "The elements used in the TA dataset are defined in the TE dataset.", "figure_ref": null, "candidates": [{"md_atom_id": "md_dmDS_ex_a130", "md_file": "knowledge_base/domains/DS/examples.md", "md_atom_type": "SENTENCE", "md_parent_section": "§DS.10 [Example 10]", "md_verbatim": "The elements used in the TA dataset are defined in the TE dataset.", "score": 1.0, "match_basis": "verbatim_token+domain_route:DS"}, {"md_atom_id": "md_dmDS_ex_a211", "md_file": "knowledge_base/domains/DS/examples.md", "md_atom_type": "SENTENCE", "md_parent_section": "§DS.11 [Example 11]", "md_verbatim": "The TE dataset shows the elements of the trial.", "score": 0.6769, "match_basis": "verbatim_token+domain_route:DS"}, {"md_atom_id": "md_dmDS_ex_a172", "md_file": "knowledge_base/domains/DS/examples.md", "md_atom_type": "SENTENCE", "md_parent_section": "§DS.10 [Example 10]", "md_verbatim": "The SE dataset shows the dates for the elements for each subject.", "score": 0.6182, "match_basis": "verbatim_token+domain_route:DS"}, {"md_atom_id": "md_dmDS_ex_a237", "md_file": "knowledge_base/domains/DS/examples.md", "md_atom_type": "SENTENCE", "md_parent_section": "§DS.11 [Example 11]", "md_verbatim": "The SE dataset records the elements this subject experienced.", "score": 0.5756, "match_basis": "verbatim_token+domain_route:DS"}, {"md_atom_id": "md_dmDS_ex_a132", "md_file": "knowledge_base/domains/DS/examples.md", "md_atom_type": "SENTENCE", "md_parent_section": "§DS.10 [Example 10]", "md_verbatim": "**Rows 2, 3:** Show the elements for treatment (either \"DRUG1\" or \"DRUG2\"). These appear in the first treatment epoch in the TA dataset.", "score": 0.5469, "match_basis": "verbatim_token+domain_route:DS"}], "candidate_count": 5, "zero_candidate": false}
{"pdf_atom_id": "ig34_p0163_a0016", "pdf_atom_type": "LIST_ITEM", "pdf_source": "SDTMIG_v3.4", "pdf_page": 163, "pdf_parent_section": "§6.2.4 Disposition (DS)", "pdf_verbatim": "Row 1:\tShows the screening element.", "figure_ref": null, "candidates": [{"md_atom_id": "md_dmDS_ex_a131", "md_file": "knowledge_base/domains/DS/examples.md", "md_atom_type": "SENTENCE", "md_parent_section": "§DS.10 [Example 10]", "md_verbatim": "**Row 1:** Shows the screening element.", "score": 0.91, "match_basis": "verbatim_token+domain_route:DS"}, {"md_atom_id": "md_dmDS_ex_a134", "md_file": "knowledge_base/domains/DS/examples.md", "md_atom_type": "SENTENCE", "md_parent_section": "§DS.10 [Example 10]", "md_verbatim": "**Row 6:** Shows the follow-up element.", "score": 0.5957, "match_basis": "verbatim_token+domain_route:DS"}, {"md_atom_id": "md_dmDS_ex_a173", "md_file": "knowledge_base/domains/DS/examples.md", "md_atom_type": "SENTENCE", "md_parent_section": "§DS.10 [Example 10]", "md_verbatim": "**Rows 1, 5:** Represent the subjects' actual screening elements.", "score": 0.5747, "match_basis": "verbatim_token+domain_route:DS"}, {"md_atom_id": "md_dmDS_ex_a144", "md_file": "knowledge_base/domains/DS/examples.md", "md_atom_type": "SENTENCE", "md_parent_section": "§DS.10 [Example 10]", "md_verbatim": "**Rows 1, 5:** Screening portion of the trial arm.", "score": 0.5408, "match_basis": "verbatim_token+domain_route:DS"}, {"md_atom_id": "md_dmDS_ex_a238", "md_file": "knowledge_base/domains/DS/examples.md", "md_atom_type": "SENTENCE", "md_parent_section": "§DS.11 [Example 11]", "md_verbatim": "**Rows 1-4:** The subject participated in the screening epoch and 3 elements of the treatment epoch.", "score": 0.5243, "match_basis": "verbatim_token+domain_route:DS"}], "candidate_count": 5, "zero_candidate": false}
{"pdf_atom_id": "ig34_p0163_a0017", "pdf_atom_type": "LIST_ITEM", "pdf_source": "SDTMIG_v3.4", "pdf_page": 163, "pdf_parent_section": "§6.2.4 Disposition (DS)", "pdf_verbatim": "Rows 2, 3:\tShow the elements for treatment (either \"DRUG1\" or \"DRUG2\"). These appear in the first treatment epoch in the TA dataset.", "figure_ref": null, "candidates": [{"md_atom_id": "md_dmDS_ex_a132", "md_file": "knowledge_base/domains/DS/examples.md", "md_atom_type": "SENTENCE", "md_parent_section": "§DS.10 [Example 10]", "md_verbatim": "**Rows 2, 3:** Show the elements for treatment (either \"DRUG1\" or \"DRUG2\"). These appear in the first treatment epoch in the TA dataset.", "score": 0.91, "match_basis": "verbatim_token+domain_route:DS"}, {"md_atom_id": "md_dmDS_ex_a133", "md_file": "knowledge_base/domains/DS/examples.md", "md_atom_type": "SENTENCE", "md_parent_section": "§DS.10 [Example 10]", "md_verbatim": "**Rows 4, 5:** Show the elements for treatment (either \"DG1INDG\" or \"DG2INDG\"). These appear in the second treatment epoch in the TA dataset.", "score": 0.6949, "match_basis": "verbatim_token+domain_route:DS"}, {"md_atom_id": "md_dmDS_ex_a211", "md_file": "knowledge_base/domains/DS/examples.md", "md_atom_type": "SENTENCE", "md_parent_section": "§DS.11 [Example 11]", "md_verbatim": "The TE dataset shows the elements of the trial.", "score": 0.5145, "match_basis": "verbatim_token+domain_route:DS"}, {"md_atom_id": "md_dmDS_ex_a145", "md_file": "knowledge_base/domains/DS/examples.md", "md_atom_type": "SENTENCE", "md_parent_section": "§DS.10 [Example 10]", "md_verbatim": "**Rows 2, 6:** Represents the planned initial treatment arm of either \"DRUG1\" or \"DRUG2\".", "score": 0.51, "match_basis": "verbatim_token+domain_route:DS"}, {"md_atom_id": "md_dmDS_ex_a174", "md_file": "knowledge_base/domains/DS/examples.md", "md_atom_type": "SENTENCE", "md_parent_section": "§DS.10 [Example 10]", "md_verbatim": "**Rows 2, 6:** Represent the subjects' actual first treatment epochs. The 2 subjects were in different elements in the first treatment epoch.", "score": 0.5069, "match_basis": "verbatim_token+domain_route:DS"}], "candidate_count": 5, "zero_candidate": false}
{"pdf_atom_id": "ig34_p0163_a0018", "pdf_atom_type": "LIST_ITEM", "pdf_source": "SDTMIG_v3.4", "pdf_page": 163, "pdf_parent_section": "§6.2.4 Disposition (DS)", "pdf_verbatim": "Rows 4, 5:\tShow the elements for treatment (either \"DG1INDG\" or \"DG2INDG\"). These appear in the second treatment epoch in the TA dataset.", "figure_ref": null, "candidates": [{"md_atom_id": "md_dmDS_ex_a133", "md_file": "knowledge_base/domains/DS/examples.md", "md_atom_type": "SENTENCE", "md_parent_section": "§DS.10 [Example 10]", "md_verbatim": "**Rows 4, 5:** Show the elements for treatment (either \"DG1INDG\" or \"DG2INDG\"). These appear in the second treatment epoch in the TA dataset.", "score": 0.91, "match_basis": "verbatim_token+domain_route:DS"}, {"md_atom_id": "md_dmDS_ex_a132", "md_file": "knowledge_base/domains/DS/examples.md", "md_atom_type": "SENTENCE", "md_parent_section": "§DS.10 [Example 10]", "md_verbatim": "**Rows 2, 3:** Show the elements for treatment (either \"DRUG1\" or \"DRUG2\"). These appear in the first treatment epoch in the TA dataset.", "score": 0.6949, "match_basis": "verbatim_token+domain_route:DS"}, {"md_atom_id": "md_dmDS_ex_a146", "md_file": "knowledge_base/domains/DS/examples.md", "md_atom_type": "SENTENCE", "md_parent_section": "§DS.10 [Example 10]", "md_verbatim": "**Rows 3, 7:** Represents the planned second treatment arm of either \"DG1INDG\" or \"DG2INDG\".", "score": 0.5942, "match_basis": "verbatim_token+domain_route:DS"}, {"md_atom_id": "md_dmDS_ex_a211", "md_file": "knowledge_base/domains/DS/examples.md", "md_atom_type": "SENTENCE", "md_parent_section": "§DS.11 [Example 11]", "md_verbatim": "The TE dataset shows the elements of the trial.", "score": 0.4937, "match_basis": "verbatim_token+domain_route:DS"}, {"md_atom_id": "md_dmDS_assn_a008", "md_file": "knowledge_base/domains/DS/assumptions.md", "md_atom_type": "LIST_ITEM", "md_parent_section": "§DS [DS — Assumptions]", "md_verbatim": "      iii. If a study has multiple treatments, then DSSCAT should name the individual treatment.", "score": 0.4892, "match_basis": "verbatim_token+domain_route:DS"}], "candidate_count": 5, "zero_candidate": false}
{"pdf_atom_id": "ig34_p0163_a0019", "pdf_atom_type": "LIST_ITEM", "pdf_source": "SDTMIG_v3.4", "pdf_page": 163, "pdf_parent_section": "§6.2.4 Disposition (DS)", "pdf_verbatim": "Row 6:\tShows the follow-up element.", "figure_ref": null, "candidates": [{"md_atom_id": "md_dmDS_ex_a134", "md_file": "knowledge_base/domains/DS/examples.md", "md_atom_type": "SENTENCE", "md_parent_section": "§DS.10 [Example 10]", "md_verbatim": "**Row 6:** Shows the follow-up element.", "score": 0.91, "match_basis": "verbatim_token+domain_route:DS"}, {"md_atom_id": "md_dmDS_ex_a131", "md_file": "knowledge_base/domains/DS/examples.md", "md_atom_type": "SENTENCE", "md_parent_section": "§DS.10 [Example 10]", "md_verbatim": "**Row 1:** Shows the screening element.", "score": 0.5957, "match_basis": "verbatim_token+domain_route:DS"}, {"md_atom_id": "md_dmDS_ex_a211", "md_file": "knowledge_base/domains/DS/examples.md", "md_atom_type": "SENTENCE", "md_parent_section": "§DS.11 [Example 11]", "md_verbatim": "The TE dataset shows the elements of the trial.", "score": 0.5448, "match_basis": "verbatim_token+domain_route:DS"}, {"md_atom_id": "md_dmDS_ex_a176", "md_file": "knowledge_base/domains/DS/examples.md", "md_atom_type": "SENTENCE", "md_parent_section": "§DS.10 [Example 10]", "md_verbatim": "**Rows 4, 8:** Represent the subjects' actual follow-up elements.", "score": 0.5423, "match_basis": "verbatim_token+domain_route:DS"}, {"md_atom_id": "md_dmDS_ex_a147", "md_file": "knowledge_base/domains/DS/examples.md", "md_atom_type": "SENTENCE", "md_parent_section": "§DS.10 [Example 10]", "md_verbatim": "**Rows 4, 8:** Follow-up portion of the trial arm.", "score": 0.4926, "match_basis": "verbatim_token+domain_route:DS"}], "candidate_count": 5, "zero_candidate": false}
{"pdf_atom_id": "ig34_p0163_a0020", "pdf_atom_type": "CODE_LITERAL", "pdf_source": "SDTMIG_v3.4", "pdf_page": 163, "pdf_parent_section": "§6.2.4 Disposition (DS)", "pdf_verbatim": "te.xpt", "figure_ref": null, "candidates": [{"md_atom_id": "md_dmDS_ex_a011", "md_file": "knowledge_base/domains/DS/examples.md", "md_atom_type": "SENTENCE", "md_parent_section": "§DS.1 [Example 1]", "md_verbatim": "**ds.xpt**", "score": 0.79, "match_basis": "verbatim_token+domain_route:DS"}, {"md_atom_id": "md_dmDS_ex_a038", "md_file": "knowledge_base/domains/DS/examples.md", "md_atom_type": "SENTENCE", "md_parent_section": "§DS.2 [Example 2]", "md_verbatim": "**ds.xpt**", "score": 0.79, "match_basis": "verbatim_token+domain_route:DS"}, {"md_atom_id": "md_dmDS_ex_a049", "md_file": "knowledge_base/domains/DS/examples.md", "md_atom_type": "SENTENCE", "md_parent_section": "§DS.3 [Example 3]", "md_verbatim": "**ds.xpt**", "score": 0.79, "match_basis": "verbatim_token+domain_route:DS"}, {"md_atom_id": "md_dmDS_ex_a059", "md_file": "knowledge_base/domains/DS/examples.md", "md_atom_type": "SENTENCE", "md_parent_section": "§DS.4 [Example 4]", "md_verbatim": "**ds.xpt**", "score": 0.79, "match_basis": "verbatim_token+domain_route:DS"}, {"md_atom_id": "md_dmDS_ex_a063", "md_file": "knowledge_base/domains/DS/examples.md", "md_atom_type": "SENTENCE", "md_parent_section": "§DS.4 [Example 4]", "md_verbatim": "**ae.xpt**", "score": 0.79, "match_basis": "verbatim_token+domain_route:DS"}, {"md_atom_id": "md_dmDS_ex_a077", "md_file": "knowledge_base/domains/DS/examples.md", "md_atom_type": "SENTENCE", "md_parent_section": "§DS.5 [Example 5]", "md_verbatim": "**ds.xpt**", "score": 0.79, "match_basis": "verbatim_token+domain_route:DS"}, {"md_atom_id": "md_dmDS_ex_a089", "md_file": "knowledge_base/domains/DS/examples.md", "md_atom_type": "SENTENCE", "md_parent_section": "§DS.6 [Example 6]", "md_verbatim": "**ds.xpt**", "score": 0.79, "match_basis": "verbatim_token+domain_route:DS"}, {"md_atom_id": "md_dmDS_ex_a098", "md_file": "knowledge_base/domains/DS/examples.md", "md_atom_type": "SENTENCE", "md_parent_section": "§DS.7 [Example 7]", "md_verbatim": "**ds.xpt**", "score": 0.79, "match_basis": "verbatim_token+domain_route:DS"}, {"md_atom_id": "md_dmDS_ex_a108", "md_file": "knowledge_base/domains/DS/examples.md", "md_atom_type": "SENTENCE", "md_parent_section": "§DS.8 [Example 8]", "md_verbatim": "**ds.xpt**", "score": 0.79, "match_basis": "verbatim_token+domain_route:DS"}, {"md_atom_id": "md_dmDS_ex_a121", "md_file": "knowledge_base/domains/DS/examples.md", "md_atom_type": "SENTENCE", "md_parent_section": "§DS.9 [Example 9]", "md_verbatim": "**ds.xpt**", "score": 0.79, "match_basis": "verbatim_token+domain_route:DS"}], "candidate_count": 10, "zero_candidate": false}
{"pdf_atom_id": "ig34_p0163_a0021", "pdf_atom_type": "TABLE_HEADER", "pdf_source": "SDTMIG_v3.4", "pdf_page": 163, "pdf_parent_section": "§6.2.4 Disposition (DS)", "pdf_verbatim": "| Row | STUDYID | DOMAIN | ETCD | ELEMENT | TESTRL | TEENRL | TEDUR |", "figure_ref": null, "candidates": [{"md_atom_id": "md_dmDS_ex_a136", "md_file": "knowledge_base/domains/DS/examples.md", "md_atom_type": "TABLE_HEADER", "md_parent_section": "§DS.10 [Example 10]", "md_verbatim": "| Row | STUDYID | DOMAIN | ETCD | ELEMENT | TESTRL | TEENRL | TEDUR |\n|-----|---------|--------|------|---------|--------|--------|-------|", "score": 1.0, "match_basis": "verbatim_token+domain_route:DS"}, {"md_atom_id": "md_dmDS_ex_a213", "md_file": "knowledge_base/domains/DS/examples.md", "md_atom_type": "TABLE_HEADER", "md_parent_section": "§DS.11 [Example 11]", "md_verbatim": "| Row | STUDYID | DOMAIN | ETCD | ELEMENT | TESTRL | TEENRL | TEDUR |\n|-----|---------|--------|------|---------|--------|--------|-------|", "score": 1.0, "match_basis": "verbatim_token+domain_route:DS"}, {"md_atom_id": "md_dmDS_ex_a149", "md_file": "knowledge_base/domains/DS/examples.md", "md_atom_type": "TABLE_HEADER", "md_parent_section": "§DS.10 [Example 10]", "md_verbatim": "| Row | STUDYID | DOMAIN | ARMCD | ARM | TAETORD | ETCD | ELEMENT | TABRANCH | TATRANS | EPOCH |\n|-----|---------|--------|-------|-----|---------|------|---------|----------|---------|-------|", "score": 0.6082, "match_basis": "verbatim_token+domain_route:DS"}, {"md_atom_id": "md_dmDS_ex_a221", "md_file": "knowledge_base/domains/DS/examples.md", "md_atom_type": "TABLE_HEADER", "md_parent_section": "§DS.11 [Example 11]", "md_verbatim": "| Row | STUDYID | DOMAIN | ARMCD | ARM | TAETORD | ETCD | ELEMENT | TABRANCH | TATRANS | EPOCH |\n|-----|---------|--------|-------|-----|---------|------|---------|----------|---------|-------|", "score": 0.6082, "match_basis": "verbatim_token+domain_route:DS"}, {"md_atom_id": "md_dmDS_ex_a178", "md_file": "knowledge_base/domains/DS/examples.md", "md_atom_type": "TABLE_HEADER", "md_parent_section": "§DS.10 [Example 10]", "md_verbatim": "| Row | STUDYID | DOMAIN | USUBJID | SDSEQ | ETCD | SESTDTC | SEENDTC | TAETORD | EPOCH |\n|-----|---------|--------|---------|-------|------|---------|---------|---------|-------|", "score": 0.5647, "match_basis": "verbatim_token+domain_route:DS"}], "candidate_count": 5, "zero_candidate": false}
{"pdf_atom_id": "ig34_p0163_a0022", "pdf_atom_type": "TABLE_ROW", "pdf_source": "SDTMIG_v3.4", "pdf_page": 163, "pdf_parent_section": "§6.2.4 Disposition (DS)", "pdf_verbatim": "| 1 | XYZ | TE | SCRN | Screen | Informed Consent | 1 week after start of Element | P7D |", "figure_ref": null, "candidates": [{"md_atom_id": "md_dmDS_ex_a137", "md_file": "knowledge_base/domains/DS/examples.md", "md_atom_type": "TABLE_ROW", "md_parent_section": "§DS.10 [Example 10]", "md_verbatim": "| 1 | XYZ | TE | SCRN | Screen | Informed Consent | 1 week after start of Element | P7D |", "score": 1.0, "match_basis": "verbatim_token+domain_route:DS"}, {"md_atom_id": "md_dmDS_ex_a214", "md_file": "knowledge_base/domains/DS/examples.md", "md_atom_type": "TABLE_ROW", "md_parent_section": "§DS.11 [Example 11]", "md_verbatim": "| 1 | DS10 | TE | SCRN | Screen | Informed Consent | Screening assessments are complete, up to 2 weeks after start of Element | |", "score": 0.736, "match_basis": "verbatim_token+domain_route:DS"}, {"md_atom_id": "md_dmDS_ex_a138", "md_file": "knowledge_base/domains/DS/examples.md", "md_atom_type": "TABLE_ROW", "md_parent_section": "§DS.10 [Example 10]", "md_verbatim": "| 2 | XYZ | TE | DRUG1 | Drug 1 | First dose of Drug 1 | 4 weeks after start of Element | P28D |", "score": 0.6049, "match_basis": "verbatim_token+domain_route:DS"}, {"md_atom_id": "md_dmDS_ex_a139", "md_file": "knowledge_base/domains/DS/examples.md", "md_atom_type": "TABLE_ROW", "md_parent_section": "§DS.10 [Example 10]", "md_verbatim": "| 3 | XYZ | TE | DRUG2 | Drug 2 | First dose of Drug 2 | 4 weeks after start of Element | P28D |", "score": 0.6049, "match_basis": "verbatim_token+domain_route:DS"}, {"md_atom_id": "md_dmDS_ex_a217", "md_file": "knowledge_base/domains/DS/examples.md", "md_atom_type": "TABLE_ROW", "md_parent_section": "§DS.11 [Example 11]", "md_verbatim": "| 4 | DS10 | TE | FU | Follow-up | Four weeks after start of last treatment element | Death, withdrawal of consent, or loss to follow-up. | |", "score": 0.5759, "match_basis": "verbatim_token+domain_route:DS"}], "candidate_count": 5, "zero_candidate": false}
{"pdf_atom_id": "ig34_p0163_a0023", "pdf_atom_type": "TABLE_ROW", "pdf_source": "SDTMIG_v3.4", "pdf_page": 163, "pdf_parent_section": "§6.2.4 Disposition (DS)", "pdf_verbatim": "| 2 | XYZ | TE | DRUG1 | Drug 1 | First dose of Drug 1 | 4 weeks after start of Element | P28D |", "figure_ref": null, "candidates": [{"md_atom_id": "md_dmDS_ex_a138", "md_file": "knowledge_base/domains/DS/examples.md", "md_atom_type": "TABLE_ROW", "md_parent_section": "§DS.10 [Example 10]", "md_verbatim": "| 2 | XYZ | TE | DRUG1 | Drug 1 | First dose of Drug 1 | 4 weeks after start of Element | P28D |", "score": 1.0, "match_basis": "verbatim_token+domain_route:DS"}, {"md_atom_id": "md_dmDS_ex_a139", "md_file": "knowledge_base/domains/DS/examples.md", "md_atom_type": "TABLE_ROW", "md_parent_section": "§DS.10 [Example 10]", "md_verbatim": "| 3 | XYZ | TE | DRUG2 | Drug 2 | First dose of Drug 2 | 4 weeks after start of Element | P28D |", "score": 0.9538, "match_basis": "verbatim_token+domain_route:DS"}, {"md_atom_id": "md_dmDS_ex_a215", "md_file": "knowledge_base/domains/DS/examples.md", "md_atom_type": "TABLE_ROW", "md_parent_section": "§DS.11 [Example 11]", "md_verbatim": "| 2 | DS10 | TE | AB | Trt AB | First dose of treatment Element, where treatment is AB | 4 weeks after start of Element | P4W |", "score": 0.7081, "match_basis": "verbatim_token+domain_route:DS"}, {"md_atom_id": "md_dmDS_ex_a216", "md_file": "knowledge_base/domains/DS/examples.md", "md_atom_type": "TABLE_ROW", "md_parent_section": "§DS.11 [Example 11]", "md_verbatim": "| 3 | DS10 | TE | ABC | Trt ABC | First dose of treatment Element, where treatment is AB+C | 4 weeks after start of Element | P4W |", "score": 0.7, "match_basis": "verbatim_token+domain_route:DS"}, {"md_atom_id": "md_dmDS_ex_a140", "md_file": "knowledge_base/domains/DS/examples.md", "md_atom_type": "TABLE_ROW", "md_parent_section": "§DS.10 [Example 10]", "md_verbatim": "| 4 | XYZ | TE | DG1INDG | Drug 1 + Investigation Drug | First dose of Investigational Drug, where Investigational Drug is given with Drug 1 | 1 week after start of Element | P7D |", "score": 0.6423, "match_basis": "verbatim_token+domain_route:DS"}], "candidate_count": 5, "zero_candidate": false}
{"pdf_atom_id": "ig34_p0163_a0024", "pdf_atom_type": "TABLE_ROW", "pdf_source": "SDTMIG_v3.4", "pdf_page": 163, "pdf_parent_section": "§6.2.4 Disposition (DS)", "pdf_verbatim": "| 3 | XYZ | TE | DRUG2 | Drug 2 | First dose of Drug 2 | 4 weeks after start of Element | P28D |", "figure_ref": null, "candidates": [{"md_atom_id": "md_dmDS_ex_a139", "md_file": "knowledge_base/domains/DS/examples.md", "md_atom_type": "TABLE_ROW", "md_parent_section": "§DS.10 [Example 10]", "md_verbatim": "| 3 | XYZ | TE | DRUG2 | Drug 2 | First dose of Drug 2 | 4 weeks after start of Element | P28D |", "score": 1.0, "match_basis": "verbatim_token+domain_route:DS"}, {"md_atom_id": "md_dmDS_ex_a138", "md_file": "knowledge_base/domains/DS/examples.md", "md_atom_type": "TABLE_ROW", "md_parent_section": "§DS.10 [Example 10]", "md_verbatim": "| 2 | XYZ | TE | DRUG1 | Drug 1 | First dose of Drug 1 | 4 weeks after start of Element | P28D |", "score": 0.9538, "match_basis": "verbatim_token+domain_route:DS"}, {"md_atom_id": "md_dmDS_ex_a215", "md_file": "knowledge_base/domains/DS/examples.md", "md_atom_type": "TABLE_ROW", "md_parent_section": "§DS.11 [Example 11]", "md_verbatim": "| 2 | DS10 | TE | AB | Trt AB | First dose of treatment Element, where treatment is AB | 4 weeks after start of Element | P4W |", "score": 0.7081, "match_basis": "verbatim_token+domain_route:DS"}, {"md_atom_id": "md_dmDS_ex_a216", "md_file": "knowledge_base/domains/DS/examples.md", "md_atom_type": "TABLE_ROW", "md_parent_section": "§DS.11 [Example 11]", "md_verbatim": "| 3 | DS10 | TE | ABC | Trt ABC | First dose of treatment Element, where treatment is AB+C | 4 weeks after start of Element | P4W |", "score": 0.7, "match_basis": "verbatim_token+domain_route:DS"}, {"md_atom_id": "md_dmDS_ex_a140", "md_file": "knowledge_base/domains/DS/examples.md", "md_atom_type": "TABLE_ROW", "md_parent_section": "§DS.10 [Example 10]", "md_verbatim": "| 4 | XYZ | TE | DG1INDG | Drug 1 + Investigation Drug | First dose of Investigational Drug, where Investigational Drug is given with Drug 1 | 1 week after start of Element | P7D |", "score": 0.6423, "match_basis": "verbatim_token+domain_route:DS"}], "candidate_count": 5, "zero_candidate": false}
{"pdf_atom_id": "ig34_p0163_a0025", "pdf_atom_type": "TABLE_ROW", "pdf_source": "SDTMIG_v3.4", "pdf_page": 163, "pdf_parent_section": "§6.2.4 Disposition (DS)", "pdf_verbatim": "| 4 | XYZ | TE | DG1INDG | Drug 1 + Investigation Drug | First dose of Investigational Drug, where Investigational Drug is given with Drug 1. | 1 week after start of Element | P7D |", "figure_ref": null, "candidates": [{"md_atom_id": "md_dmDS_ex_a140", "md_file": "knowledge_base/domains/DS/examples.md", "md_atom_type": "TABLE_ROW", "md_parent_section": "§DS.10 [Example 10]", "md_verbatim": "| 4 | XYZ | TE | DG1INDG | Drug 1 + Investigation Drug | First dose of Investigational Drug, where Investigational Drug is given with Drug 1 | 1 week after start of Element | P7D |", "score": 1.0, "match_basis": "verbatim_token+domain_route:DS"}, {"md_atom_id": "md_dmDS_ex_a141", "md_file": "knowledge_base/domains/DS/examples.md", "md_atom_type": "TABLE_ROW", "md_parent_section": "§DS.10 [Example 10]", "md_verbatim": "| 5 | XYZ | TE | DG2INDG | Drug 2 + Investigation Drug | First dose of Investigational Drug, where Investigational Drug is given with Drug 2 | 1 week after start of Element | P7D |", "score": 0.9294, "match_basis": "verbatim_token+domain_route:DS"}, {"md_atom_id": "md_dmDS_ex_a138", "md_file": "knowledge_base/domains/DS/examples.md", "md_atom_type": "TABLE_ROW", "md_parent_section": "§DS.10 [Example 10]", "md_verbatim": "| 2 | XYZ | TE | DRUG1 | Drug 1 | First dose of Drug 1 | 4 weeks after start of Element | P28D |", "score": 0.6423, "match_basis": "verbatim_token+domain_route:DS"}, {"md_atom_id": "md_dmDS_ex_a139", "md_file": "knowledge_base/domains/DS/examples.md", "md_atom_type": "TABLE_ROW", "md_parent_section": "§DS.10 [Example 10]", "md_verbatim": "| 3 | XYZ | TE | DRUG2 | Drug 2 | First dose of Drug 2 | 4 weeks after start of Element | P28D |", "score": 0.6423, "match_basis": "verbatim_token+domain_route:DS"}, {"md_atom_id": "md_dmDS_ex_a152", "md_file": "knowledge_base/domains/DS/examples.md", "md_atom_type": "TABLE_ROW", "md_parent_section": "§DS.10 [Example 10]", "md_verbatim": "| 3 | XYZ | TA | DG1INDG | Drug-1+Investigation-Drug | 3 | DG1INDG | Drug 1 + Investigation Drug | | | TREATMENT 2 |", "score": 0.6377, "match_basis": "verbatim_token+domain_route:DS"}], "candidate_count": 5, "zero_candidate": false}
{"pdf_atom_id": "ig34_p0163_a0026", "pdf_atom_type": "TABLE_ROW", "pdf_source": "SDTMIG_v3.4", "pdf_page": 163, "pdf_parent_section": "§6.2.4 Disposition (DS)", "pdf_verbatim": "| 5 | XYZ | TE | DG2INDG | Drug 2 + Investigation Drug | First dose of Investigational Drug, where Investigational Drug is given with Drug 2. | 1 week after start of Element | P7D |", "figure_ref": null, "candidates": [{"md_atom_id": "md_dmDS_ex_a141", "md_file": "knowledge_base/domains/DS/examples.md", "md_atom_type": "TABLE_ROW", "md_parent_section": "§DS.10 [Example 10]", "md_verbatim": "| 5 | XYZ | TE | DG2INDG | Drug 2 + Investigation Drug | First dose of Investigational Drug, where Investigational Drug is given with Drug 2 | 1 week after start of Element | P7D |", "score": 1.0, "match_basis": "verbatim_token+domain_route:DS"}, {"md_atom_id": "md_dmDS_ex_a140", "md_file": "knowledge_base/domains/DS/examples.md", "md_atom_type": "TABLE_ROW", "md_parent_section": "§DS.10 [Example 10]", "md_verbatim": "| 4 | XYZ | TE | DG1INDG | Drug 1 + Investigation Drug | First dose of Investigational Drug, where Investigational Drug is given with Drug 1 | 1 week after start of Element | P7D |", "score": 0.9294, "match_basis": "verbatim_token+domain_route:DS"}, {"md_atom_id": "md_dmDS_ex_a138", "md_file": "knowledge_base/domains/DS/examples.md", "md_atom_type": "TABLE_ROW", "md_parent_section": "§DS.10 [Example 10]", "md_verbatim": "| 2 | XYZ | TE | DRUG1 | Drug 1 | First dose of Drug 1 | 4 weeks after start of Element | P28D |", "score": 0.6423, "match_basis": "verbatim_token+domain_route:DS"}, {"md_atom_id": "md_dmDS_ex_a139", "md_file": "knowledge_base/domains/DS/examples.md", "md_atom_type": "TABLE_ROW", "md_parent_section": "§DS.10 [Example 10]", "md_verbatim": "| 3 | XYZ | TE | DRUG2 | Drug 2 | First dose of Drug 2 | 4 weeks after start of Element | P28D |", "score": 0.6423, "match_basis": "verbatim_token+domain_route:DS"}, {"md_atom_id": "md_dmDS_ex_a156", "md_file": "knowledge_base/domains/DS/examples.md", "md_atom_type": "TABLE_ROW", "md_parent_section": "§DS.10 [Example 10]", "md_verbatim": "| 7 | XYZ | TA | DG2INDG | Drug-2+Investigation-Drug | 3 | DG2INDG | Drug 2 + Investigation Drug | | | TREATMENT 2 |", "score": 0.6377, "match_basis": "verbatim_token+domain_route:DS"}], "candidate_count": 5, "zero_candidate": false}
{"pdf_atom_id": "ig34_p0163_a0027", "pdf_atom_type": "TABLE_ROW", "pdf_source": "SDTMIG_v3.4", "pdf_page": 163, "pdf_parent_section": "§6.2.4 Disposition (DS)", "pdf_verbatim": "| 6 | XYZ | TE | FU | Follow-up | One day after last administration of study drug. | | |", "figure_ref": null, "candidates": [{"md_atom_id": "md_dmDS_ex_a142", "md_file": "knowledge_base/domains/DS/examples.md", "md_atom_type": "TABLE_ROW", "md_parent_section": "§DS.10 [Example 10]", "md_verbatim": "| 6 | XYZ | TE | FU | Follow-up | One day after last administration of study drug | | |", "score": 1.0, "match_basis": "verbatim_token+domain_route:DS"}, {"md_atom_id": "md_dmDS_ex_a153", "md_file": "knowledge_base/domains/DS/examples.md", "md_atom_type": "TABLE_ROW", "md_parent_section": "§DS.10 [Example 10]", "md_verbatim": "| 4 | XYZ | TA | DG1INDG | Drug-1+Investigation-Drug | 4 | FU | Follow-up | | | FOLLOW-UP |", "score": 0.5429, "match_basis": "verbatim_token+domain_route:DS"}, {"md_atom_id": "md_dmDS_ex_a157", "md_file": "knowledge_base/domains/DS/examples.md", "md_atom_type": "TABLE_ROW", "md_parent_section": "§DS.10 [Example 10]", "md_verbatim": "| 8 | XYZ | TA | DG2INDG | Drug-2+Investigation-Drug | 4 | FU | Follow-up | | | FOLLOW-UP |", "score": 0.5429, "match_basis": "verbatim_token+domain_route:DS"}, {"md_atom_id": "md_dmDS_ex_a201", "md_file": "knowledge_base/domains/DS/examples.md", "md_atom_type": "TABLE_ROW", "md_parent_section": "§DS.10 [Example 10]", "md_verbatim": "| 7 | XYZ | DS | XYZ-767-001 | 7 | COMPLETED | COMPLETED | DISPOSITION EVENT | STUDY PARTICIPATION | FOLLOW-UP | 2016-04-24 |", "score": 0.5138, "match_basis": "verbatim_token+domain_route:DS"}, {"md_atom_id": "md_dmDS_ex_a208", "md_file": "knowledge_base/domains/DS/examples.md", "md_atom_type": "TABLE_ROW", "md_parent_section": "§DS.10 [Example 10]", "md_verbatim": "| 14 | XYZ | DS | XYZ-767-002 | 7 | COMPLETED | COMPLETED | DISPOSITION EVENT | STUDY PARTICIPATION | FOLLOW-UP | 2016-04-29 |", "score": 0.5138, "match_basis": "verbatim_token+domain_route:DS"}], "candidate_count": 5, "zero_candidate": false}
{"pdf_atom_id": "ig34_p0164_a0001", "pdf_atom_type": "SENTENCE", "pdf_source": "SDTMIG_v3.4", "pdf_page": 164, "pdf_parent_section": "§6.2.4 Disposition (DS)", "pdf_verbatim": "The TA dataset describes the design of the study.", "figure_ref": null, "candidates": [{"md_atom_id": "md_dmDS_ex_a143", "md_file": "knowledge_base/domains/DS/examples.md", "md_atom_type": "SENTENCE", "md_parent_section": "§DS.10 [Example 10]", "md_verbatim": "The TA dataset describes the design of the study.", "score": 1.0, "match_basis": "verbatim_token+domain_route:DS"}, {"md_atom_id": "md_dmDS_ex_a163", "md_file": "knowledge_base/domains/DS/examples.md", "md_atom_type": "SENTENCE", "md_parent_section": "§DS.10 [Example 10]", "md_verbatim": "The EX dataset shows the administration of study treatments.", "score": 0.5286, "match_basis": "verbatim_token+domain_route:DS"}, {"md_atom_id": "md_dmDS_ex_a211", "md_file": "knowledge_base/domains/DS/examples.md", "md_atom_type": "SENTENCE", "md_parent_section": "§DS.11 [Example 11]", "md_verbatim": "The TE dataset shows the elements of the trial.", "score": 0.5161, "match_basis": "verbatim_token+domain_route:DS"}, {"md_atom_id": "md_dmDS_ex_a130", "md_file": "knowledge_base/domains/DS/examples.md", "md_atom_type": "SENTENCE", "md_parent_section": "§DS.10 [Example 10]", "md_verbatim": "The elements used in the TA dataset are defined in the TE dataset.", "score": 0.5091, "match_basis": "verbatim_token+domain_route:DS"}, {"md_atom_id": "md_dmDS_ex_a172", "md_file": "knowledge_base/domains/DS/examples.md", "md_atom_type": "SENTENCE", "md_parent_section": "§DS.10 [Example 10]", "md_verbatim": "The SE dataset shows the dates for the elements for each subject.", "score": 0.4947, "match_basis": "verbatim_token+domain_route:DS"}], "candidate_count": 5, "zero_candidate": false}
{"pdf_atom_id": "ig34_p0164_a0002", "pdf_atom_type": "LIST_ITEM", "pdf_source": "SDTMIG_v3.4", "pdf_page": 164, "pdf_parent_section": "§6.2.4 Disposition (DS)", "pdf_verbatim": "Rows 1, 5:\tScreening portion of the trial arm.", "figure_ref": null, "candidates": [{"md_atom_id": "md_dmDS_ex_a144", "md_file": "knowledge_base/domains/DS/examples.md", "md_atom_type": "SENTENCE", "md_parent_section": "§DS.10 [Example 10]", "md_verbatim": "**Rows 1, 5:** Screening portion of the trial arm.", "score": 0.91, "match_basis": "verbatim_token+domain_route:DS"}, {"md_atom_id": "md_dmDS_ex_a147", "md_file": "knowledge_base/domains/DS/examples.md", "md_atom_type": "SENTENCE", "md_parent_section": "§DS.10 [Example 10]", "md_verbatim": "**Rows 4, 8:** Follow-up portion of the trial arm.", "score": 0.623, "match_basis": "verbatim_token+domain_route:DS"}, {"md_atom_id": "md_dmDS_ex_a131", "md_file": "knowledge_base/domains/DS/examples.md", "md_atom_type": "SENTENCE", "md_parent_section": "§DS.10 [Example 10]", "md_verbatim": "**Row 1:** Shows the screening element.", "score": 0.5408, "match_basis": "verbatim_token+domain_route:DS"}, {"md_atom_id": "md_dmDS_assn_a013", "md_file": "knowledge_base/domains/DS/assumptions.md", "md_atom_type": "LIST_ITEM", "md_parent_section": "§DS [DS — Assumptions]", "md_verbatim": "3. **DS description and coding**", "score": 0.4828, "match_basis": "verbatim_token+domain_route:DS"}, {"md_atom_id": "md_dmDS_ex_a173", "md_file": "knowledge_base/domains/DS/examples.md", "md_atom_type": "SENTENCE", "md_parent_section": "§DS.10 [Example 10]", "md_verbatim": "**Rows 1, 5:** Represent the subjects' actual screening elements.", "score": 0.4563, "match_basis": "verbatim_token+domain_route:DS"}], "candidate_count": 5, "zero_candidate": false}
{"pdf_atom_id": "ig34_p0164_a0003", "pdf_atom_type": "LIST_ITEM", "pdf_source": "SDTMIG_v3.4", "pdf_page": 164, "pdf_parent_section": "§6.2.4 Disposition (DS)", "pdf_verbatim": "Rows 2, 6:\tRepresents the planned initial treatment arm of either \"DRUG1\" or \"DRUG2\".", "figure_ref": null, "candidates": [{"md_atom_id": "md_dmDS_ex_a145", "md_file": "knowledge_base/domains/DS/examples.md", "md_atom_type": "SENTENCE", "md_parent_section": "§DS.10 [Example 10]", "md_verbatim": "**Rows 2, 6:** Represents the planned initial treatment arm of either \"DRUG1\" or \"DRUG2\".", "score": 0.91, "match_basis": "verbatim_token+domain_route:DS"}, {"md_atom_id": "md_dmDS_ex_a146", "md_file": "knowledge_base/domains/DS/examples.md", "md_atom_type": "SENTENCE", "md_parent_section": "§DS.10 [Example 10]", "md_verbatim": "**Rows 3, 7:** Represents the planned second treatment arm of either \"DG1INDG\" or \"DG2INDG\".", "score": 0.6419, "match_basis": "verbatim_token+domain_route:DS"}, {"md_atom_id": "md_dmDS_ex_a132", "md_file": "knowledge_base/domains/DS/examples.md", "md_atom_type": "SENTENCE", "md_parent_section": "§DS.10 [Example 10]", "md_verbatim": "**Rows 2, 3:** Show the elements for treatment (either \"DRUG1\" or \"DRUG2\"). These appear in the first treatment epoch in the TA dataset.", "score": 0.51, "match_basis": "verbatim_token+domain_route:DS"}, {"md_atom_id": "md_dmDS_assn_a005", "md_file": "knowledge_base/domains/DS/assumptions.md", "md_atom_type": "LIST_ITEM", "md_parent_section": "§DS [DS — Assumptions]", "md_verbatim": "   b. An event with DSCAT = \"DISPOSITION EVENT\" describes either disposition of study participation or of a study treatment. It describes whether a subject completed study participation or a study treatment and, if not, the reason they did not complete it. Dispositions may be described for each epoch (e.g., screening, initial treatment, washout, cross-over treatment, follow-up) or for the study as a whole. If disposition events for both study participation and study treatment(s) are to be represented, then DSCAT provides this distinction. For records with DSCAT = \"DISPOSITION EVENT\",", "score": 0.4952, "match_basis": "verbatim_token+domain_route:DS"}, {"md_atom_id": "md_dmDS_ex_a106", "md_file": "knowledge_base/domains/DS/examples.md", "md_atom_type": "SENTENCE", "md_parent_section": "§DS.8 [Example 8]", "md_verbatim": "**Rows 1, 2, 4, 5:** Represent the disposition of the blinded treatments for each of the 2 treatment epochs, indicated by DSSCAT = \"BLINDED DRUG A\" and DSSCAT = \"BLINDED DRUG B\".", "score": 0.4946, "match_basis": "verbatim_token+domain_route:DS"}], "candidate_count": 5, "zero_candidate": false}
{"pdf_atom_id": "ig34_p0164_a0004", "pdf_atom_type": "LIST_ITEM", "pdf_source": "SDTMIG_v3.4", "pdf_page": 164, "pdf_parent_section": "§6.2.4 Disposition (DS)", "pdf_verbatim": "Rows 3, 7:\tRepresents the planned second treatment arm of either \"DG1INDG\" or \" DG2INDG\".", "figure_ref": null, "candidates": [{"md_atom_id": "md_dmDS_ex_a146", "md_file": "knowledge_base/domains/DS/examples.md", "md_atom_type": "SENTENCE", "md_parent_section": "§DS.10 [Example 10]", "md_verbatim": "**Rows 3, 7:** Represents the planned second treatment arm of either \"DG1INDG\" or \"DG2INDG\".", "score": 0.91, "match_basis": "verbatim_token+domain_route:DS"}, {"md_atom_id": "md_dmDS_ex_a145", "md_file": "knowledge_base/domains/DS/examples.md", "md_atom_type": "SENTENCE", "md_parent_section": "§DS.10 [Example 10]", "md_verbatim": "**Rows 2, 6:** Represents the planned initial treatment arm of either \"DRUG1\" or \"DRUG2\".", "score": 0.6419, "match_basis": "verbatim_token+domain_route:DS"}, {"md_atom_id": "md_dmDS_ex_a133", "md_file": "knowledge_base/domains/DS/examples.md", "md_atom_type": "SENTENCE", "md_parent_section": "§DS.10 [Example 10]", "md_verbatim": "**Rows 4, 5:** Show the elements for treatment (either \"DG1INDG\" or \"DG2INDG\"). These appear in the second treatment epoch in the TA dataset.", "score": 0.5942, "match_basis": "verbatim_token+domain_route:DS"}, {"md_atom_id": "md_dmDS_ex_a175", "md_file": "knowledge_base/domains/DS/examples.md", "md_atom_type": "SENTENCE", "md_parent_section": "§DS.10 [Example 10]", "md_verbatim": "**Rows 3, 7:** Represent the subjects' actual second treatment epochs.", "score": 0.5408, "match_basis": "verbatim_token+domain_route:DS"}, {"md_atom_id": "md_dmDS_assn_a020", "md_file": "knowledge_base/domains/DS/assumptions.md", "md_atom_type": "LIST_ITEM", "md_parent_section": "§DS [DS — Assumptions]", "md_verbatim": "      i. If a reason for the event was collected, the reason for the event is in DSTERM and the DSDECOD is a term from sponsor terminology. For example, if treatment was unblinded due to investigator error, this might be represented in a record with DSTERM = \"INVESTIGATOR ERROR\" and DSDECOD = \"TREATMENT UNBLINDED\".", "score": 0.4927, "match_basis": "verbatim_token+domain_route:DS"}], "candidate_count": 5, "zero_candidate": false}
{"pdf_atom_id": "ig34_p0164_a0005", "pdf_atom_type": "LIST_ITEM", "pdf_source": "SDTMIG_v3.4", "pdf_page": 164, "pdf_parent_section": "§6.2.4 Disposition (DS)", "pdf_verbatim": "Rows 4, 8:\tFollow-up portion of the trial arm.", "figure_ref": null, "candidates": [{"md_atom_id": "md_dmDS_ex_a147", "md_file": "knowledge_base/domains/DS/examples.md", "md_atom_type": "SENTENCE", "md_parent_section": "§DS.10 [Example 10]", "md_verbatim": "**Rows 4, 8:** Follow-up portion of the trial arm.", "score": 0.91, "match_basis": "verbatim_token+domain_route:DS"}, {"md_atom_id": "md_dmDS_ex_a144", "md_file": "knowledge_base/domains/DS/examples.md", "md_atom_type": "SENTENCE", "md_parent_section": "§DS.10 [Example 10]", "md_verbatim": "**Rows 1, 5:** Screening portion of the trial arm.", "score": 0.623, "match_basis": "verbatim_token+domain_route:DS"}, {"md_atom_id": "md_dmDS_ex_a134", "md_file": "knowledge_base/domains/DS/examples.md", "md_atom_type": "SENTENCE", "md_parent_section": "§DS.10 [Example 10]", "md_verbatim": "**Row 6:** Shows the follow-up element.", "score": 0.4926, "match_basis": "verbatim_token+domain_route:DS"}, {"md_atom_id": "md_dmDS_assn_a026", "md_file": "knowledge_base/domains/DS/assumptions.md", "md_atom_type": "LIST_ITEM", "md_parent_section": "§DS [DS — Assumptions]", "md_verbatim": "   c. EPOCH may be included as a timing variable as in other general observation-class domains. In DS, EPOCH is based on DSSTDTC. The values of EPOCH are drawn from the Trial Arms (TA) dataset (see Section 7.2.1, Trial Arms).", "score": 0.45, "match_basis": "verbatim_token+domain_route:DS"}, {"md_atom_id": "md_dmDS_assn_a003", "md_file": "knowledge_base/domains/DS/assumptions.md", "md_atom_type": "LIST_ITEM", "md_parent_section": "§DS [DS — Assumptions]", "md_verbatim": "2. **Categorization**", "score": 0.4462, "match_basis": "verbatim_token+domain_route:DS"}], "candidate_count": 5, "zero_candidate": false}
{"pdf_atom_id": "ig34_p0164_a0006", "pdf_atom_type": "CODE_LITERAL", "pdf_source": "SDTMIG_v3.4", "pdf_page": 164, "pdf_parent_section": "§6.2.4 Disposition (DS)", "pdf_verbatim": "ta.xpt", "figure_ref": null, "candidates": [{"md_atom_id": "md_dmDS_ex_a011", "md_file": "knowledge_base/domains/DS/examples.md", "md_atom_type": "SENTENCE", "md_parent_section": "§DS.1 [Example 1]", "md_verbatim": "**ds.xpt**", "score": 0.79, "match_basis": "verbatim_token+domain_route:DS"}, {"md_atom_id": "md_dmDS_ex_a038", "md_file": "knowledge_base/domains/DS/examples.md", "md_atom_type": "SENTENCE", "md_parent_section": "§DS.2 [Example 2]", "md_verbatim": "**ds.xpt**", "score": 0.79, "match_basis": "verbatim_token+domain_route:DS"}, {"md_atom_id": "md_dmDS_ex_a049", "md_file": "knowledge_base/domains/DS/examples.md", "md_atom_type": "SENTENCE", "md_parent_section": "§DS.3 [Example 3]", "md_verbatim": "**ds.xpt**", "score": 0.79, "match_basis": "verbatim_token+domain_route:DS"}, {"md_atom_id": "md_dmDS_ex_a059", "md_file": "knowledge_base/domains/DS/examples.md", "md_atom_type": "SENTENCE", "md_parent_section": "§DS.4 [Example 4]", "md_verbatim": "**ds.xpt**", "score": 0.79, "match_basis": "verbatim_token+domain_route:DS"}, {"md_atom_id": "md_dmDS_ex_a063", "md_file": "knowledge_base/domains/DS/examples.md", "md_atom_type": "SENTENCE", "md_parent_section": "§DS.4 [Example 4]", "md_verbatim": "**ae.xpt**", "score": 0.79, "match_basis": "verbatim_token+domain_route:DS"}, {"md_atom_id": "md_dmDS_ex_a077", "md_file": "knowledge_base/domains/DS/examples.md", "md_atom_type": "SENTENCE", "md_parent_section": "§DS.5 [Example 5]", "md_verbatim": "**ds.xpt**", "score": 0.79, "match_basis": "verbatim_token+domain_route:DS"}, {"md_atom_id": "md_dmDS_ex_a089", "md_file": "knowledge_base/domains/DS/examples.md", "md_atom_type": "SENTENCE", "md_parent_section": "§DS.6 [Example 6]", "md_verbatim": "**ds.xpt**", "score": 0.79, "match_basis": "verbatim_token+domain_route:DS"}, {"md_atom_id": "md_dmDS_ex_a098", "md_file": "knowledge_base/domains/DS/examples.md", "md_atom_type": "SENTENCE", "md_parent_section": "§DS.7 [Example 7]", "md_verbatim": "**ds.xpt**", "score": 0.79, "match_basis": "verbatim_token+domain_route:DS"}, {"md_atom_id": "md_dmDS_ex_a108", "md_file": "knowledge_base/domains/DS/examples.md", "md_atom_type": "SENTENCE", "md_parent_section": "§DS.8 [Example 8]", "md_verbatim": "**ds.xpt**", "score": 0.79, "match_basis": "verbatim_token+domain_route:DS"}, {"md_atom_id": "md_dmDS_ex_a121", "md_file": "knowledge_base/domains/DS/examples.md", "md_atom_type": "SENTENCE", "md_parent_section": "§DS.9 [Example 9]", "md_verbatim": "**ds.xpt**", "score": 0.79, "match_basis": "verbatim_token+domain_route:DS"}], "candidate_count": 10, "zero_candidate": false}
{"pdf_atom_id": "ig34_p0164_a0007", "pdf_atom_type": "TABLE_HEADER", "pdf_source": "SDTMIG_v3.4", "pdf_page": 164, "pdf_parent_section": "§6.2.4 Disposition (DS)", "pdf_verbatim": "| Row | STUDYID | DOMAIN | ARMCD | ARM | TAETORD | ETCD | ELEMENT | TABRANCH | TATRANS | EPOCH |", "figure_ref": null, "candidates": [{"md_atom_id": "md_dmDS_ex_a149", "md_file": "knowledge_base/domains/DS/examples.md", "md_atom_type": "TABLE_HEADER", "md_parent_section": "§DS.10 [Example 10]", "md_verbatim": "| Row | STUDYID | DOMAIN | ARMCD | ARM | TAETORD | ETCD | ELEMENT | TABRANCH | TATRANS | EPOCH |\n|-----|---------|--------|-------|-----|---------|------|---------|----------|---------|-------|", "score": 1.0, "match_basis": "verbatim_token+domain_route:DS"}, {"md_atom_id": "md_dmDS_ex_a221", "md_file": "knowledge_base/domains/DS/examples.md", "md_atom_type": "TABLE_HEADER", "md_parent_section": "§DS.11 [Example 11]", "md_verbatim": "| Row | STUDYID | DOMAIN | ARMCD | ARM | TAETORD | ETCD | ELEMENT | TABRANCH | TATRANS | EPOCH |\n|-----|---------|--------|-------|-----|---------|------|---------|----------|---------|-------|", "score": 1.0, "match_basis": "verbatim_token+domain_route:DS"}, {"md_atom_id": "md_dmDS_ex_a178", "md_file": "knowledge_base/domains/DS/examples.md", "md_atom_type": "TABLE_HEADER", "md_parent_section": "§DS.10 [Example 10]", "md_verbatim": "| Row | STUDYID | DOMAIN | USUBJID | SDSEQ | ETCD | SESTDTC | SEENDTC | TAETORD | EPOCH |\n|-----|---------|--------|---------|-------|------|---------|---------|---------|-------|", "score": 0.6182, "match_basis": "verbatim_token+domain_route:DS"}, {"md_atom_id": "md_dmDS_ex_a136", "md_file": "knowledge_base/domains/DS/examples.md", "md_atom_type": "TABLE_HEADER", "md_parent_section": "§DS.10 [Example 10]", "md_verbatim": "| Row | STUDYID | DOMAIN | ETCD | ELEMENT | TESTRL | TEENRL | TEDUR |\n|-----|---------|--------|------|---------|--------|--------|-------|", "score": 0.6082, "match_basis": "verbatim_token+domain_route:DS"}, {"md_atom_id": "md_dmDS_ex_a213", "md_file": "knowledge_base/domains/DS/examples.md", "md_atom_type": "TABLE_HEADER", "md_parent_section": "§DS.11 [Example 11]", "md_verbatim": "| Row | STUDYID | DOMAIN | ETCD | ELEMENT | TESTRL | TEENRL | TEDUR |\n|-----|---------|--------|------|---------|--------|--------|-------|", "score": 0.6082, "match_basis": "verbatim_token+domain_route:DS"}], "candidate_count": 5, "zero_candidate": false}
{"pdf_atom_id": "ig34_p0164_a0008", "pdf_atom_type": "TABLE_ROW", "pdf_source": "SDTMIG_v3.4", "pdf_page": 164, "pdf_parent_section": "§6.2.4 Disposition (DS)", "pdf_verbatim": "| 1 | XYZ | TA | DG1INDG | Drug-1+Investigation-Drug | 1 | SCRN | Screen | Randomized to DG1INDG | | SCREENING |", "figure_ref": null, "candidates": [{"md_atom_id": "md_dmDS_ex_a150", "md_file": "knowledge_base/domains/DS/examples.md", "md_atom_type": "TABLE_ROW", "md_parent_section": "§DS.10 [Example 10]", "md_verbatim": "| 1 | XYZ | TA | DG1INDG | Drug-1+Investigation-Drug | 1 | SCRN | Screen | Randomized to DG1INDG | | SCREENING |", "score": 1.0, "match_basis": "verbatim_token+domain_route:DS"}, {"md_atom_id": "md_dmDS_ex_a154", "md_file": "knowledge_base/domains/DS/examples.md", "md_atom_type": "TABLE_ROW", "md_parent_section": "§DS.10 [Example 10]", "md_verbatim": "| 5 | XYZ | TA | DG2INDG | Drug-2+Investigation-Drug | 1 | SCRN | Screen | Randomized to DG2INDG | | SCREENING |", "score": 0.9053, "match_basis": "verbatim_token+domain_route:DS"}, {"md_atom_id": "md_dmDS_ex_a153", "md_file": "knowledge_base/domains/DS/examples.md", "md_atom_type": "TABLE_ROW", "md_parent_section": "§DS.10 [Example 10]", "md_verbatim": "| 4 | XYZ | TA | DG1INDG | Drug-1+Investigation-Drug | 4 | FU | Follow-up | | | FOLLOW-UP |", "score": 0.6923, "match_basis": "verbatim_token+domain_route:DS"}, {"md_atom_id": "md_dmDS_ex_a152", "md_file": "knowledge_base/domains/DS/examples.md", "md_atom_type": "TABLE_ROW", "md_parent_section": "§DS.10 [Example 10]", "md_verbatim": "| 3 | XYZ | TA | DG1INDG | Drug-1+Investigation-Drug | 3 | DG1INDG | Drug 1 + Investigation Drug | | | TREATMENT 2 |", "score": 0.6714, "match_basis": "verbatim_token+domain_route:DS"}, {"md_atom_id": "md_dmDS_ex_a161", "md_file": "knowledge_base/domains/DS/examples.md", "md_atom_type": "TABLE_ROW", "md_parent_section": "§DS.10 [Example 10]", "md_verbatim": "| 1 | XYZ | DM | XYZ-767-001 | 001 | 2016-02-14 | 2016-04-19 | 2016-02-02 | 2016-04-24 | 01 | ADAMS, M | DG1INDG | Drug-1+Investigation-Drug | DG1INDG | Drug-1+Investigation-Drug | | |", "score": 0.6714, "match_basis": "verbatim_token+domain_route:DS"}], "candidate_count": 5, "zero_candidate": false}
{"pdf_atom_id": "ig34_p0164_a0009", "pdf_atom_type": "TABLE_ROW", "pdf_source": "SDTMIG_v3.4", "pdf_page": 164, "pdf_parent_section": "§6.2.4 Disposition (DS)", "pdf_verbatim": "| 2 | XYZ | TA | DG1INDG | Drug-1+Investigation-Drug | 2 | DRUG1 | Drug-1 | | | TREATMENT 1 |", "figure_ref": null, "candidates": [{"md_atom_id": "md_dmDS_ex_a151", "md_file": "knowledge_base/domains/DS/examples.md", "md_atom_type": "TABLE_ROW", "md_parent_section": "§DS.10 [Example 10]", "md_verbatim": "| 2 | XYZ | TA | DG1INDG | Drug-1+Investigation-Drug | 2 | DRUG1 | Drug-1 | | | TREATMENT 1 |", "score": 1.0, "match_basis": "verbatim_token+domain_route:DS"}, {"md_atom_id": "md_dmDS_ex_a152", "md_file": "knowledge_base/domains/DS/examples.md", "md_atom_type": "TABLE_ROW", "md_parent_section": "§DS.10 [Example 10]", "md_verbatim": "| 3 | XYZ | TA | DG1INDG | Drug-1+Investigation-Drug | 3 | DG1INDG | Drug 1 + Investigation Drug | | | TREATMENT 2 |", "score": 0.9778, "match_basis": "verbatim_token+domain_route:DS"}, {"md_atom_id": "md_dmDS_ex_a156", "md_file": "knowledge_base/domains/DS/examples.md", "md_atom_type": "TABLE_ROW", "md_parent_section": "§DS.10 [Example 10]", "md_verbatim": "| 7 | XYZ | TA | DG2INDG | Drug-2+Investigation-Drug | 3 | DG2INDG | Drug 2 + Investigation Drug | | | TREATMENT 2 |", "score": 0.86, "match_basis": "verbatim_token+domain_route:DS"}, {"md_atom_id": "md_dmDS_ex_a155", "md_file": "knowledge_base/domains/DS/examples.md", "md_atom_type": "TABLE_ROW", "md_parent_section": "§DS.10 [Example 10]", "md_verbatim": "| 6 | XYZ | TA | DG2INDG | Drug-2+Investigation-Drug | 2 | DRUG2 | Drug-2 | | | TREATMENT 1 |", "score": 0.8452, "match_basis": "verbatim_token+domain_route:DS"}, {"md_atom_id": "md_dmDS_ex_a153", "md_file": "knowledge_base/domains/DS/examples.md", "md_atom_type": "TABLE_ROW", "md_parent_section": "§DS.10 [Example 10]", "md_verbatim": "| 4 | XYZ | TA | DG1INDG | Drug-1+Investigation-Drug | 4 | FU | Follow-up | | | FOLLOW-UP |", "score": 0.7677, "match_basis": "verbatim_token+domain_route:DS"}], "candidate_count": 5, "zero_candidate": false}
{"pdf_atom_id": "ig34_p0164_a0010", "pdf_atom_type": "TABLE_ROW", "pdf_source": "SDTMIG_v3.4", "pdf_page": 164, "pdf_parent_section": "§6.2.4 Disposition (DS)", "pdf_verbatim": "| 3 | XYZ | TA | DG1INDG | Drug-1+Investigation-Drug | 3 | DG1INDG | Drug 1 + Investigation Drug | | | TREATMENT 2 |", "figure_ref": null, "candidates": [{"md_atom_id": "md_dmDS_ex_a152", "md_file": "knowledge_base/domains/DS/examples.md", "md_atom_type": "TABLE_ROW", "md_parent_section": "§DS.10 [Example 10]", "md_verbatim": "| 3 | XYZ | TA | DG1INDG | Drug-1+Investigation-Drug | 3 | DG1INDG | Drug 1 + Investigation Drug | | | TREATMENT 2 |", "score": 1.0, "match_basis": "verbatim_token+domain_route:DS"}, {"md_atom_id": "md_dmDS_ex_a151", "md_file": "knowledge_base/domains/DS/examples.md", "md_atom_type": "TABLE_ROW", "md_parent_section": "§DS.10 [Example 10]", "md_verbatim": "| 2 | XYZ | TA | DG1INDG | Drug-1+Investigation-Drug | 2 | DRUG1 | Drug-1 | | | TREATMENT 1 |", "score": 0.9778, "match_basis": "verbatim_token+domain_route:DS"}, {"md_atom_id": "md_dmDS_ex_a156", "md_file": "knowledge_base/domains/DS/examples.md", "md_atom_type": "TABLE_ROW", "md_parent_section": "§DS.10 [Example 10]", "md_verbatim": "| 7 | XYZ | TA | DG2INDG | Drug-2+Investigation-Drug | 3 | DG2INDG | Drug 2 + Investigation Drug | | | TREATMENT 2 |", "score": 0.8759, "match_basis": "verbatim_token+domain_route:DS"}, {"md_atom_id": "md_dmDS_ex_a155", "md_file": "knowledge_base/domains/DS/examples.md", "md_atom_type": "TABLE_ROW", "md_parent_section": "§DS.10 [Example 10]", "md_verbatim": "| 6 | XYZ | TA | DG2INDG | Drug-2+Investigation-Drug | 2 | DRUG2 | Drug-2 | | | TREATMENT 1 |", "score": 0.86, "match_basis": "verbatim_token+domain_route:DS"}, {"md_atom_id": "md_dmDS_ex_a153", "md_file": "knowledge_base/domains/DS/examples.md", "md_atom_type": "TABLE_ROW", "md_parent_section": "§DS.10 [Example 10]", "md_verbatim": "| 4 | XYZ | TA | DG1INDG | Drug-1+Investigation-Drug | 4 | FU | Follow-up | | | FOLLOW-UP |", "score": 0.78, "match_basis": "verbatim_token+domain_route:DS"}], "candidate_count": 5, "zero_candidate": false}
{"pdf_atom_id": "ig34_p0164_a0011", "pdf_atom_type": "TABLE_ROW", "pdf_source": "SDTMIG_v3.4", "pdf_page": 164, "pdf_parent_section": "§6.2.4 Disposition (DS)", "pdf_verbatim": "| 4 | XYZ | TA | DG1INDG | Drug-1+Investigation-Drug | 4 | FU | Follow-up | | | FOLLOW-UP |", "figure_ref": null, "candidates": [{"md_atom_id": "md_dmDS_ex_a153", "md_file": "knowledge_base/domains/DS/examples.md", "md_atom_type": "TABLE_ROW", "md_parent_section": "§DS.10 [Example 10]", "md_verbatim": "| 4 | XYZ | TA | DG1INDG | Drug-1+Investigation-Drug | 4 | FU | Follow-up | | | FOLLOW-UP |", "score": 1.0, "match_basis": "verbatim_token+domain_route:DS"}, {"md_atom_id": "md_dmDS_ex_a157", "md_file": "knowledge_base/domains/DS/examples.md", "md_atom_type": "TABLE_ROW", "md_parent_section": "§DS.10 [Example 10]", "md_verbatim": "| 8 | XYZ | TA | DG2INDG | Drug-2+Investigation-Drug | 4 | FU | Follow-up | | | FOLLOW-UP |", "score": 0.8615, "match_basis": "verbatim_token+domain_route:DS"}, {"md_atom_id": "md_dmDS_ex_a152", "md_file": "knowledge_base/domains/DS/examples.md", "md_atom_type": "TABLE_ROW", "md_parent_section": "§DS.10 [Example 10]", "md_verbatim": "| 3 | XYZ | TA | DG1INDG | Drug-1+Investigation-Drug | 3 | DG1INDG | Drug 1 + Investigation Drug | | | TREATMENT 2 |", "score": 0.78, "match_basis": "verbatim_token+domain_route:DS"}, {"md_atom_id": "md_dmDS_ex_a161", "md_file": "knowledge_base/domains/DS/examples.md", "md_atom_type": "TABLE_ROW", "md_parent_section": "§DS.10 [Example 10]", "md_verbatim": "| 1 | XYZ | DM | XYZ-767-001 | 001 | 2016-02-14 | 2016-04-19 | 2016-02-02 | 2016-04-24 | 01 | ADAMS, M | DG1INDG | Drug-1+Investigation-Drug | DG1INDG | Drug-1+Investigation-Drug | | |", "score": 0.78, "match_basis": "verbatim_token+domain_route:DS"}, {"md_atom_id": "md_dmDS_ex_a151", "md_file": "knowledge_base/domains/DS/examples.md", "md_atom_type": "TABLE_ROW", "md_parent_section": "§DS.10 [Example 10]", "md_verbatim": "| 2 | XYZ | TA | DG1INDG | Drug-1+Investigation-Drug | 2 | DRUG1 | Drug-1 | | | TREATMENT 1 |", "score": 0.7677, "match_basis": "verbatim_token+domain_route:DS"}], "candidate_count": 5, "zero_candidate": false}
{"pdf_atom_id": "ig34_p0164_a0012", "pdf_atom_type": "TABLE_ROW", "pdf_source": "SDTMIG_v3.4", "pdf_page": 164, "pdf_parent_section": "§6.2.4 Disposition (DS)", "pdf_verbatim": "| 5 | XYZ | TA | DG2INDG | Drug-2+Investigation-Drug | 1 | SCRN | Screen | Randomized to DG2INDG | | SCREENING |", "figure_ref": null, "candidates": [{"md_atom_id": "md_dmDS_ex_a154", "md_file": "knowledge_base/domains/DS/examples.md", "md_atom_type": "TABLE_ROW", "md_parent_section": "§DS.10 [Example 10]", "md_verbatim": "| 5 | XYZ | TA | DG2INDG | Drug-2+Investigation-Drug | 1 | SCRN | Screen | Randomized to DG2INDG | | SCREENING |", "score": 1.0, "match_basis": "verbatim_token+domain_route:DS"}, {"md_atom_id": "md_dmDS_ex_a150", "md_file": "knowledge_base/domains/DS/examples.md", "md_atom_type": "TABLE_ROW", "md_parent_section": "§DS.10 [Example 10]", "md_verbatim": "| 1 | XYZ | TA | DG1INDG | Drug-1+Investigation-Drug | 1 | SCRN | Screen | Randomized to DG1INDG | | SCREENING |", "score": 0.9053, "match_basis": "verbatim_token+domain_route:DS"}, {"md_atom_id": "md_dmDS_ex_a157", "md_file": "knowledge_base/domains/DS/examples.md", "md_atom_type": "TABLE_ROW", "md_parent_section": "§DS.10 [Example 10]", "md_verbatim": "| 8 | XYZ | TA | DG2INDG | Drug-2+Investigation-Drug | 4 | FU | Follow-up | | | FOLLOW-UP |", "score": 0.6923, "match_basis": "verbatim_token+domain_route:DS"}, {"md_atom_id": "md_dmDS_ex_a156", "md_file": "knowledge_base/domains/DS/examples.md", "md_atom_type": "TABLE_ROW", "md_parent_section": "§DS.10 [Example 10]", "md_verbatim": "| 7 | XYZ | TA | DG2INDG | Drug-2+Investigation-Drug | 3 | DG2INDG | Drug 2 + Investigation Drug | | | TREATMENT 2 |", "score": 0.6714, "match_basis": "verbatim_token+domain_route:DS"}, {"md_atom_id": "md_dmDS_ex_a162", "md_file": "knowledge_base/domains/DS/examples.md", "md_atom_type": "TABLE_ROW", "md_parent_section": "§DS.10 [Example 10]", "md_verbatim": "| 3 | XYZ | DM | XYZ-767-002 | 002 | 2016-02-21 | 2016-04-24 | 2016-02-04 | 2016-04-29 | 01 | ADAMS, M | DG2INDG | Drug-2+Investigation-Drug | DG2INDG | Drug-2+Investigation-Drug | | |", "score": 0.6714, "match_basis": "verbatim_token+domain_route:DS"}], "candidate_count": 5, "zero_candidate": false}
{"pdf_atom_id": "ig34_p0164_a0013", "pdf_atom_type": "TABLE_ROW", "pdf_source": "SDTMIG_v3.4", "pdf_page": 164, "pdf_parent_section": "§6.2.4 Disposition (DS)", "pdf_verbatim": "| 6 | XYZ | TA | DG2INDG | Drug-2+Investigation-Drug | 2 | DRUG2 | Drug-2 | | | TREATMENT 1 |", "figure_ref": null, "candidates": [{"md_atom_id": "md_dmDS_ex_a155", "md_file": "knowledge_base/domains/DS/examples.md", "md_atom_type": "TABLE_ROW", "md_parent_section": "§DS.10 [Example 10]", "md_verbatim": "| 6 | XYZ | TA | DG2INDG | Drug-2+Investigation-Drug | 2 | DRUG2 | Drug-2 | | | TREATMENT 1 |", "score": 1.0, "match_basis": "verbatim_token+domain_route:DS"}, {"md_atom_id": "md_dmDS_ex_a156", "md_file": "knowledge_base/domains/DS/examples.md", "md_atom_type": "TABLE_ROW", "md_parent_section": "§DS.10 [Example 10]", "md_verbatim": "| 7 | XYZ | TA | DG2INDG | Drug-2+Investigation-Drug | 3 | DG2INDG | Drug 2 + Investigation Drug | | | TREATMENT 2 |", "score": 0.9778, "match_basis": "verbatim_token+domain_route:DS"}, {"md_atom_id": "md_dmDS_ex_a152", "md_file": "knowledge_base/domains/DS/examples.md", "md_atom_type": "TABLE_ROW", "md_parent_section": "§DS.10 [Example 10]", "md_verbatim": "| 3 | XYZ | TA | DG1INDG | Drug-1+Investigation-Drug | 3 | DG1INDG | Drug 1 + Investigation Drug | | | TREATMENT 2 |", "score": 0.86, "match_basis": "verbatim_token+domain_route:DS"}, {"md_atom_id": "md_dmDS_ex_a151", "md_file": "knowledge_base/domains/DS/examples.md", "md_atom_type": "TABLE_ROW", "md_parent_section": "§DS.10 [Example 10]", "md_verbatim": "| 2 | XYZ | TA | DG1INDG | Drug-1+Investigation-Drug | 2 | DRUG1 | Drug-1 | | | TREATMENT 1 |", "score": 0.8452, "match_basis": "verbatim_token+domain_route:DS"}, {"md_atom_id": "md_dmDS_ex_a157", "md_file": "knowledge_base/domains/DS/examples.md", "md_atom_type": "TABLE_ROW", "md_parent_section": "§DS.10 [Example 10]", "md_verbatim": "| 8 | XYZ | TA | DG2INDG | Drug-2+Investigation-Drug | 4 | FU | Follow-up | | | FOLLOW-UP |", "score": 0.7677, "match_basis": "verbatim_token+domain_route:DS"}], "candidate_count": 5, "zero_candidate": false}
{"pdf_atom_id": "ig34_p0164_a0014", "pdf_atom_type": "TABLE_ROW", "pdf_source": "SDTMIG_v3.4", "pdf_page": 164, "pdf_parent_section": "§6.2.4 Disposition (DS)", "pdf_verbatim": "| 7 | XYZ | TA | DG2INDG | Drug-2+Investigation-Drug | 3 | DG2INDG | Drug 2 + Investigation Drug | | | TREATMENT 2 |", "figure_ref": null, "candidates": [{"md_atom_id": "md_dmDS_ex_a156", "md_file": "knowledge_base/domains/DS/examples.md", "md_atom_type": "TABLE_ROW", "md_parent_section": "§DS.10 [Example 10]", "md_verbatim": "| 7 | XYZ | TA | DG2INDG | Drug-2+Investigation-Drug | 3 | DG2INDG | Drug 2 + Investigation Drug | | | TREATMENT 2 |", "score": 1.0, "match_basis": "verbatim_token+domain_route:DS"}, {"md_atom_id": "md_dmDS_ex_a155", "md_file": "knowledge_base/domains/DS/examples.md", "md_atom_type": "TABLE_ROW", "md_parent_section": "§DS.10 [Example 10]", "md_verbatim": "| 6 | XYZ | TA | DG2INDG | Drug-2+Investigation-Drug | 2 | DRUG2 | Drug-2 | | | TREATMENT 1 |", "score": 0.9778, "match_basis": "verbatim_token+domain_route:DS"}, {"md_atom_id": "md_dmDS_ex_a152", "md_file": "knowledge_base/domains/DS/examples.md", "md_atom_type": "TABLE_ROW", "md_parent_section": "§DS.10 [Example 10]", "md_verbatim": "| 3 | XYZ | TA | DG1INDG | Drug-1+Investigation-Drug | 3 | DG1INDG | Drug 1 + Investigation Drug | | | TREATMENT 2 |", "score": 0.8759, "match_basis": "verbatim_token+domain_route:DS"}, {"md_atom_id": "md_dmDS_ex_a151", "md_file": "knowledge_base/domains/DS/examples.md", "md_atom_type": "TABLE_ROW", "md_parent_section": "§DS.10 [Example 10]", "md_verbatim": "| 2 | XYZ | TA | DG1INDG | Drug-1+Investigation-Drug | 2 | DRUG1 | Drug-1 | | | TREATMENT 1 |", "score": 0.86, "match_basis": "verbatim_token+domain_route:DS"}, {"md_atom_id": "md_dmDS_ex_a157", "md_file": "knowledge_base/domains/DS/examples.md", "md_atom_type": "TABLE_ROW", "md_parent_section": "§DS.10 [Example 10]", "md_verbatim": "| 8 | XYZ | TA | DG2INDG | Drug-2+Investigation-Drug | 4 | FU | Follow-up | | | FOLLOW-UP |", "score": 0.78, "match_basis": "verbatim_token+domain_route:DS"}], "candidate_count": 5, "zero_candidate": false}
{"pdf_atom_id": "ig34_p0164_a0015", "pdf_atom_type": "TABLE_ROW", "pdf_source": "SDTMIG_v3.4", "pdf_page": 164, "pdf_parent_section": "§6.2.4 Disposition (DS)", "pdf_verbatim": "| 8 | XYZ | TA | DG2INDG | Drug-2+Investigation-Drug | 4 | FU | Follow-up | | | FOLLOW-UP |", "figure_ref": null, "candidates": [{"md_atom_id": "md_dmDS_ex_a157", "md_file": "knowledge_base/domains/DS/examples.md", "md_atom_type": "TABLE_ROW", "md_parent_section": "§DS.10 [Example 10]", "md_verbatim": "| 8 | XYZ | TA | DG2INDG | Drug-2+Investigation-Drug | 4 | FU | Follow-up | | | FOLLOW-UP |", "score": 1.0, "match_basis": "verbatim_token+domain_route:DS"}, {"md_atom_id": "md_dmDS_ex_a153", "md_file": "knowledge_base/domains/DS/examples.md", "md_atom_type": "TABLE_ROW", "md_parent_section": "§DS.10 [Example 10]", "md_verbatim": "| 4 | XYZ | TA | DG1INDG | Drug-1+Investigation-Drug | 4 | FU | Follow-up | | | FOLLOW-UP |", "score": 0.8615, "match_basis": "verbatim_token+domain_route:DS"}, {"md_atom_id": "md_dmDS_ex_a156", "md_file": "knowledge_base/domains/DS/examples.md", "md_atom_type": "TABLE_ROW", "md_parent_section": "§DS.10 [Example 10]", "md_verbatim": "| 7 | XYZ | TA | DG2INDG | Drug-2+Investigation-Drug | 3 | DG2INDG | Drug 2 + Investigation Drug | | | TREATMENT 2 |", "score": 0.78, "match_basis": "verbatim_token+domain_route:DS"}, {"md_atom_id": "md_dmDS_ex_a162", "md_file": "knowledge_base/domains/DS/examples.md", "md_atom_type": "TABLE_ROW", "md_parent_section": "§DS.10 [Example 10]", "md_verbatim": "| 3 | XYZ | DM | XYZ-767-002 | 002 | 2016-02-21 | 2016-04-24 | 2016-02-04 | 2016-04-29 | 01 | ADAMS, M | DG2INDG | Drug-2+Investigation-Drug | DG2INDG | Drug-2+Investigation-Drug | | |", "score": 0.78, "match_basis": "verbatim_token+domain_route:DS"}, {"md_atom_id": "md_dmDS_ex_a155", "md_file": "knowledge_base/domains/DS/examples.md", "md_atom_type": "TABLE_ROW", "md_parent_section": "§DS.10 [Example 10]", "md_verbatim": "| 6 | XYZ | TA | DG2INDG | Drug-2+Investigation-Drug | 2 | DRUG2 | Drug-2 | | | TREATMENT 1 |", "score": 0.7677, "match_basis": "verbatim_token+domain_route:DS"}], "candidate_count": 5, "zero_candidate": false}
{"pdf_atom_id": "ig34_p0164_a0016", "pdf_atom_type": "SENTENCE", "pdf_source": "SDTMIG_v3.4", "pdf_page": 164, "pdf_parent_section": "§6.2.4 Disposition (DS)", "pdf_verbatim": "The DM dataset includes the arm to which the subjects were randomized, and the dates of informed consent, start of study treatment, end of study treatment, and end of study participation.", "figure_ref": null, "candidates": [{"md_atom_id": "md_dmDS_ex_a158", "md_file": "knowledge_base/domains/DS/examples.md", "md_atom_type": "SENTENCE", "md_parent_section": "§DS.10 [Example 10]", "md_verbatim": "The DM dataset includes the arm to which the subjects were randomized, and the dates of informed consent, start of study treatment, end of study treatment, and end of study participation.", "score": 1.0, "match_basis": "verbatim_token+domain_route:DS"}, {"md_atom_id": "md_dmDS_ex_a037", "md_file": "knowledge_base/domains/DS/examples.md", "md_atom_type": "SENTENCE", "md_parent_section": "§DS.2 [Example 2]", "md_verbatim": "**Rows 2-3:** Subjects 456102 and 456103 discontinued. Both discontinued participation during the treatment epoch.", "score": 0.5742, "match_basis": "verbatim_token+domain_route:DS"}, {"md_atom_id": "md_dmDS_ex_a238", "md_file": "knowledge_base/domains/DS/examples.md", "md_atom_type": "SENTENCE", "md_parent_section": "§DS.11 [Example 11]", "md_verbatim": "**Rows 1-4:** The subject participated in the screening epoch and 3 elements of the treatment epoch.", "score": 0.5624, "match_basis": "verbatim_token+domain_route:DS"}, {"md_atom_id": "md_dmDS_ex_a252", "md_file": "knowledge_base/domains/DS/examples.md", "md_atom_type": "SENTENCE", "md_parent_section": "§DS.11 [Example 11]", "md_verbatim": "**Row 6:** Shows disposition of study participation in the treatment epoch.", "score": 0.561, "match_basis": "verbatim_token+domain_route:DS"}, {"md_atom_id": "md_dmDS_ex_a105", "md_file": "knowledge_base/domains/DS/examples.md", "md_atom_type": "SENTENCE", "md_parent_section": "§DS.8 [Example 8]", "md_verbatim": "This example represents data for an ongoing blinded study in which each subject received 2 treatments, identified by the sponsor as \"BLINDED DRUG A\" and \"BLINDED DRUG B\". Disposition of study participation and of each of the 2 blinded treatments was collected for each of the 2 treatment epochs in the study. The subject in this example completed study participation and both treatments for both treatment epochs.", "score": 0.56, "match_basis": "verbatim_token+domain_route:DS"}], "candidate_count": 5, "zero_candidate": false}
{"pdf_atom_id": "ig34_p0164_a0017", "pdf_atom_type": "CODE_LITERAL", "pdf_source": "SDTMIG_v3.4", "pdf_page": 164, "pdf_parent_section": "§6.2.4 Disposition (DS)", "pdf_verbatim": "dm.xpt", "figure_ref": null, "candidates": [{"md_atom_id": "md_dmDS_ex_a011", "md_file": "knowledge_base/domains/DS/examples.md", "md_atom_type": "SENTENCE", "md_parent_section": "§DS.1 [Example 1]", "md_verbatim": "**ds.xpt**", "score": 0.79, "match_basis": "verbatim_token+domain_route:DS"}, {"md_atom_id": "md_dmDS_ex_a038", "md_file": "knowledge_base/domains/DS/examples.md", "md_atom_type": "SENTENCE", "md_parent_section": "§DS.2 [Example 2]", "md_verbatim": "**ds.xpt**", "score": 0.79, "match_basis": "verbatim_token+domain_route:DS"}, {"md_atom_id": "md_dmDS_ex_a049", "md_file": "knowledge_base/domains/DS/examples.md", "md_atom_type": "SENTENCE", "md_parent_section": "§DS.3 [Example 3]", "md_verbatim": "**ds.xpt**", "score": 0.79, "match_basis": "verbatim_token+domain_route:DS"}, {"md_atom_id": "md_dmDS_ex_a059", "md_file": "knowledge_base/domains/DS/examples.md", "md_atom_type": "SENTENCE", "md_parent_section": "§DS.4 [Example 4]", "md_verbatim": "**ds.xpt**", "score": 0.79, "match_basis": "verbatim_token+domain_route:DS"}, {"md_atom_id": "md_dmDS_ex_a063", "md_file": "knowledge_base/domains/DS/examples.md", "md_atom_type": "SENTENCE", "md_parent_section": "§DS.4 [Example 4]", "md_verbatim": "**ae.xpt**", "score": 0.79, "match_basis": "verbatim_token+domain_route:DS"}, {"md_atom_id": "md_dmDS_ex_a077", "md_file": "knowledge_base/domains/DS/examples.md", "md_atom_type": "SENTENCE", "md_parent_section": "§DS.5 [Example 5]", "md_verbatim": "**ds.xpt**", "score": 0.79, "match_basis": "verbatim_token+domain_route:DS"}, {"md_atom_id": "md_dmDS_ex_a089", "md_file": "knowledge_base/domains/DS/examples.md", "md_atom_type": "SENTENCE", "md_parent_section": "§DS.6 [Example 6]", "md_verbatim": "**ds.xpt**", "score": 0.79, "match_basis": "verbatim_token+domain_route:DS"}, {"md_atom_id": "md_dmDS_ex_a098", "md_file": "knowledge_base/domains/DS/examples.md", "md_atom_type": "SENTENCE", "md_parent_section": "§DS.7 [Example 7]", "md_verbatim": "**ds.xpt**", "score": 0.79, "match_basis": "verbatim_token+domain_route:DS"}, {"md_atom_id": "md_dmDS_ex_a108", "md_file": "knowledge_base/domains/DS/examples.md", "md_atom_type": "SENTENCE", "md_parent_section": "§DS.8 [Example 8]", "md_verbatim": "**ds.xpt**", "score": 0.79, "match_basis": "verbatim_token+domain_route:DS"}, {"md_atom_id": "md_dmDS_ex_a121", "md_file": "knowledge_base/domains/DS/examples.md", "md_atom_type": "SENTENCE", "md_parent_section": "§DS.9 [Example 9]", "md_verbatim": "**ds.xpt**", "score": 0.79, "match_basis": "verbatim_token+domain_route:DS"}], "candidate_count": 10, "zero_candidate": false}
{"pdf_atom_id": "ig34_p0164_a0018", "pdf_atom_type": "TABLE_HEADER", "pdf_source": "SDTMIG_v3.4", "pdf_page": 164, "pdf_parent_section": "§6.2.4 Disposition (DS)", "pdf_verbatim": "| Row | STUDYID | DOMAIN | USUBJID | SUBJID | RFXSTDTC | RFXENDTC | RFICDTC | RFPENDTC | SITEID | INVNAM | ARMCD | ARM | ACTARMCD | ACTARM | ARMNRS | ACTARMUD |", "figure_ref": null, "candidates": [{"md_atom_id": "md_dmDS_ex_a160", "md_file": "knowledge_base/domains/DS/examples.md", "md_atom_type": "TABLE_HEADER", "md_parent_section": "§DS.10 [Example 10]", "md_verbatim": "| Row | STUDYID | DOMAIN | USUBJID | SUBJID | RFXSTDTC | RFXENDTC | RFICDTC | RFPENDTC | SITEID | INVNAM | ARMCD | ARM | ACTARMCD | ACTARM | ARMNRS | ACTARMUD |\n|-----|---------|--------|---------|--------|----------|----------|---------|----------|--------|--------|-------|-----|----------|--------|--------|----------|", "score": 1.0, "match_basis": "verbatim_token+domain_route:DS"}, {"md_atom_id": "md_dmDS_ex_a165", "md_file": "knowledge_base/domains/DS/examples.md", "md_atom_type": "TABLE_HEADER", "md_parent_section": "§DS.10 [Example 10]", "md_verbatim": "| Row | STUDYID | DOMAIN | USUBJID | EXSEQ | EXTRT | EXDOSE | EXDOSU | EPOCH | EXSTDTC | EXENDTC |\n|-----|---------|--------|---------|-------|-------|--------|--------|-------|---------|---------|", "score": 0.6, "match_basis": "verbatim_token+domain_route:DS"}, {"md_atom_id": "md_dmDS_ex_a178", "md_file": "knowledge_base/domains/DS/examples.md", "md_atom_type": "TABLE_HEADER", "md_parent_section": "§DS.10 [Example 10]", "md_verbatim": "| Row | STUDYID | DOMAIN | USUBJID | SDSEQ | ETCD | SESTDTC | SEENDTC | TAETORD | EPOCH |\n|-----|---------|--------|---------|-------|------|---------|---------|---------|-------|", "score": 0.5765, "match_basis": "verbatim_token+domain_route:DS"}, {"md_atom_id": "md_dmDS_ex_a241", "md_file": "knowledge_base/domains/DS/examples.md", "md_atom_type": "TABLE_HEADER", "md_parent_section": "§DS.11 [Example 11]", "md_verbatim": "| Row | STUDYID | DOMAIN | USUBJID | SESEQ | ETCD | SESTDTC | SEENDTC | SEUPDES | TAETORD | EPOCH |\n|-----|---------|--------|---------|-------|------|---------|---------|---------|---------|-------|", "score": 0.5667, "match_basis": "verbatim_token+domain_route:DS"}, {"md_atom_id": "md_dmDS_ex_a039", "md_file": "knowledge_base/domains/DS/examples.md", "md_atom_type": "TABLE_HEADER", "md_parent_section": "§DS.2 [Example 2]", "md_verbatim": "| Row | STUDYID | DOMAIN | USUBJID | DSSEQ | DSTERM | DSDECOD | DSCAT | EPOCH | DSSTDTC |\n|-----|---------|--------|---------|-------|--------|---------|-------|-------|---------|", "score": 0.5543, "match_basis": "verbatim_token+domain_route:DS"}], "candidate_count": 5, "zero_candidate": false}
{"pdf_atom_id": "ig34_p0164_a0019", "pdf_atom_type": "TABLE_ROW", "pdf_source": "SDTMIG_v3.4", "pdf_page": 164, "pdf_parent_section": "§6.2.4 Disposition (DS)", "pdf_verbatim": "| 1 | XYZ | DM | XYZ-767-001 | 001 | 2016-02-14 | 2016-04-19 | 2016-02-02 | 2016-04-24 | 01 | ADAMS, M | DG1INDG | Drug-1+Investigation-Drug | DG1INDG | Drug-1+Investigation-Drug | | |", "figure_ref": null, "candidates": [{"md_atom_id": "md_dmDS_ex_a161", "md_file": "knowledge_base/domains/DS/examples.md", "md_atom_type": "TABLE_ROW", "md_parent_section": "§DS.10 [Example 10]", "md_verbatim": "| 1 | XYZ | DM | XYZ-767-001 | 001 | 2016-02-14 | 2016-04-19 | 2016-02-02 | 2016-04-24 | 01 | ADAMS, M | DG1INDG | Drug-1+Investigation-Drug | DG1INDG | Drug-1+Investigation-Drug | | |", "score": 1.0, "match_basis": "verbatim_token+domain_route:DS"}, {"md_atom_id": "md_dmDS_ex_a162", "md_file": "knowledge_base/domains/DS/examples.md", "md_atom_type": "TABLE_ROW", "md_parent_section": "§DS.10 [Example 10]", "md_verbatim": "| 3 | XYZ | DM | XYZ-767-002 | 002 | 2016-02-21 | 2016-04-24 | 2016-02-04 | 2016-04-29 | 01 | ADAMS, M | DG2INDG | Drug-2+Investigation-Drug | DG2INDG | Drug-2+Investigation-Drug | | |", "score": 0.84, "match_basis": "verbatim_token+domain_route:DS"}, {"md_atom_id": "md_dmDS_ex_a153", "md_file": "knowledge_base/domains/DS/examples.md", "md_atom_type": "TABLE_ROW", "md_parent_section": "§DS.10 [Example 10]", "md_verbatim": "| 4 | XYZ | TA | DG1INDG | Drug-1+Investigation-Drug | 4 | FU | Follow-up | | | FOLLOW-UP |", "score": 0.78, "match_basis": "verbatim_token+domain_route:DS"}, {"md_atom_id": "md_dmDS_ex_a152", "md_file": "knowledge_base/domains/DS/examples.md", "md_atom_type": "TABLE_ROW", "md_parent_section": "§DS.10 [Example 10]", "md_verbatim": "| 3 | XYZ | TA | DG1INDG | Drug-1+Investigation-Drug | 3 | DG1INDG | Drug 1 + Investigation Drug | | | TREATMENT 2 |", "score": 0.7455, "match_basis": "verbatim_token+domain_route:DS"}, {"md_atom_id": "md_dmDS_ex_a151", "md_file": "knowledge_base/domains/DS/examples.md", "md_atom_type": "TABLE_ROW", "md_parent_section": "§DS.10 [Example 10]", "md_verbatim": "| 2 | XYZ | TA | DG1INDG | Drug-1+Investigation-Drug | 2 | DRUG1 | Drug-1 | | | TREATMENT 1 |", "score": 0.7353, "match_basis": "verbatim_token+domain_route:DS"}], "candidate_count": 5, "zero_candidate": false}
{"pdf_atom_id": "ig34_p0164_a0020", "pdf_atom_type": "TABLE_ROW", "pdf_source": "SDTMIG_v3.4", "pdf_page": 164, "pdf_parent_section": "§6.2.4 Disposition (DS)", "pdf_verbatim": "| 3 | XYZ | DM | XYZ-767-002 | 002 | 2016-02-21 | 2016-04-24 | 2016-02-04 | 2016-04-29 | 01 | ADAMS, M | DG2INDG | Drug-2+Investigation-Drug | DG2INDG | Drug-2+Investigation-Drug | | |", "figure_ref": null, "candidates": [{"md_atom_id": "md_dmDS_ex_a162", "md_file": "knowledge_base/domains/DS/examples.md", "md_atom_type": "TABLE_ROW", "md_parent_section": "§DS.10 [Example 10]", "md_verbatim": "| 3 | XYZ | DM | XYZ-767-002 | 002 | 2016-02-21 | 2016-04-24 | 2016-02-04 | 2016-04-29 | 01 | ADAMS, M | DG2INDG | Drug-2+Investigation-Drug | DG2INDG | Drug-2+Investigation-Drug | | |", "score": 1.0, "match_basis": "verbatim_token+domain_route:DS"}, {"md_atom_id": "md_dmDS_ex_a161", "md_file": "knowledge_base/domains/DS/examples.md", "md_atom_type": "TABLE_ROW", "md_parent_section": "§DS.10 [Example 10]", "md_verbatim": "| 1 | XYZ | DM | XYZ-767-001 | 001 | 2016-02-14 | 2016-04-19 | 2016-02-02 | 2016-04-24 | 01 | ADAMS, M | DG1INDG | Drug-1+Investigation-Drug | DG1INDG | Drug-1+Investigation-Drug | | |", "score": 0.84, "match_basis": "verbatim_token+domain_route:DS"}, {"md_atom_id": "md_dmDS_ex_a157", "md_file": "knowledge_base/domains/DS/examples.md", "md_atom_type": "TABLE_ROW", "md_parent_section": "§DS.10 [Example 10]", "md_verbatim": "| 8 | XYZ | TA | DG2INDG | Drug-2+Investigation-Drug | 4 | FU | Follow-up | | | FOLLOW-UP |", "score": 0.78, "match_basis": "verbatim_token+domain_route:DS"}, {"md_atom_id": "md_dmDS_ex_a156", "md_file": "knowledge_base/domains/DS/examples.md", "md_atom_type": "TABLE_ROW", "md_parent_section": "§DS.10 [Example 10]", "md_verbatim": "| 7 | XYZ | TA | DG2INDG | Drug-2+Investigation-Drug | 3 | DG2INDG | Drug 2 + Investigation Drug | | | TREATMENT 2 |", "score": 0.7455, "match_basis": "verbatim_token+domain_route:DS"}, {"md_atom_id": "md_dmDS_ex_a155", "md_file": "knowledge_base/domains/DS/examples.md", "md_atom_type": "TABLE_ROW", "md_parent_section": "§DS.10 [Example 10]", "md_verbatim": "| 6 | XYZ | TA | DG2INDG | Drug-2+Investigation-Drug | 2 | DRUG2 | Drug-2 | | | TREATMENT 1 |", "score": 0.7353, "match_basis": "verbatim_token+domain_route:DS"}], "candidate_count": 5, "zero_candidate": false}
{"pdf_atom_id": "ig34_p0164_a0021", "pdf_atom_type": "SENTENCE", "pdf_source": "SDTMIG_v3.4", "pdf_page": 164, "pdf_parent_section": "§6.2.4 Disposition (DS)", "pdf_verbatim": "The EX dataset shows the administration of study treatments.", "figure_ref": null, "candidates": [{"md_atom_id": "md_dmDS_ex_a163", "md_file": "knowledge_base/domains/DS/examples.md", "md_atom_type": "SENTENCE", "md_parent_section": "§DS.10 [Example 10]", "md_verbatim": "The EX dataset shows the administration of study treatments.", "score": 1.0, "match_basis": "verbatim_token+domain_route:DS"}, {"md_atom_id": "md_dmDS_ex_a252", "md_file": "knowledge_base/domains/DS/examples.md", "md_atom_type": "SENTENCE", "md_parent_section": "§DS.11 [Example 11]", "md_verbatim": "**Row 6:** Shows disposition of study participation in the treatment epoch.", "score": 0.6, "match_basis": "verbatim_token+domain_route:DS"}, {"md_atom_id": "md_dmDS_ex_a211", "md_file": "knowledge_base/domains/DS/examples.md", "md_atom_type": "SENTENCE", "md_parent_section": "§DS.11 [Example 11]", "md_verbatim": "The TE dataset shows the elements of the trial.", "score": 0.5895, "match_basis": "verbatim_token+domain_route:DS"}, {"md_atom_id": "md_dmDS_ex_a132", "md_file": "knowledge_base/domains/DS/examples.md", "md_atom_type": "SENTENCE", "md_parent_section": "§DS.10 [Example 10]", "md_verbatim": "**Rows 2, 3:** Show the elements for treatment (either \"DRUG1\" or \"DRUG2\"). These appear in the first treatment epoch in the TA dataset.", "score": 0.5821, "match_basis": "verbatim_token+domain_route:DS"}, {"md_atom_id": "md_dmDS_ex_a133", "md_file": "knowledge_base/domains/DS/examples.md", "md_atom_type": "SENTENCE", "md_parent_section": "§DS.10 [Example 10]", "md_verbatim": "**Rows 4, 5:** Show the elements for treatment (either \"DG1INDG\" or \"DG2INDG\"). These appear in the second treatment epoch in the TA dataset.", "score": 0.5672, "match_basis": "verbatim_token+domain_route:DS"}], "candidate_count": 5, "zero_candidate": false}
{"pdf_atom_id": "ig34_p0164_a0022", "pdf_atom_type": "CODE_LITERAL", "pdf_source": "SDTMIG_v3.4", "pdf_page": 164, "pdf_parent_section": "§6.2.4 Disposition (DS)", "pdf_verbatim": "ex.xpt", "figure_ref": null, "candidates": [{"md_atom_id": "md_dmDS_ex_a011", "md_file": "knowledge_base/domains/DS/examples.md", "md_atom_type": "SENTENCE", "md_parent_section": "§DS.1 [Example 1]", "md_verbatim": "**ds.xpt**", "score": 0.79, "match_basis": "verbatim_token+domain_route:DS"}, {"md_atom_id": "md_dmDS_ex_a038", "md_file": "knowledge_base/domains/DS/examples.md", "md_atom_type": "SENTENCE", "md_parent_section": "§DS.2 [Example 2]", "md_verbatim": "**ds.xpt**", "score": 0.79, "match_basis": "verbatim_token+domain_route:DS"}, {"md_atom_id": "md_dmDS_ex_a049", "md_file": "knowledge_base/domains/DS/examples.md", "md_atom_type": "SENTENCE", "md_parent_section": "§DS.3 [Example 3]", "md_verbatim": "**ds.xpt**", "score": 0.79, "match_basis": "verbatim_token+domain_route:DS"}, {"md_atom_id": "md_dmDS_ex_a059", "md_file": "knowledge_base/domains/DS/examples.md", "md_atom_type": "SENTENCE", "md_parent_section": "§DS.4 [Example 4]", "md_verbatim": "**ds.xpt**", "score": 0.79, "match_basis": "verbatim_token+domain_route:DS"}, {"md_atom_id": "md_dmDS_ex_a063", "md_file": "knowledge_base/domains/DS/examples.md", "md_atom_type": "SENTENCE", "md_parent_section": "§DS.4 [Example 4]", "md_verbatim": "**ae.xpt**", "score": 0.79, "match_basis": "verbatim_token+domain_route:DS"}, {"md_atom_id": "md_dmDS_ex_a077", "md_file": "knowledge_base/domains/DS/examples.md", "md_atom_type": "SENTENCE", "md_parent_section": "§DS.5 [Example 5]", "md_verbatim": "**ds.xpt**", "score": 0.79, "match_basis": "verbatim_token+domain_route:DS"}, {"md_atom_id": "md_dmDS_ex_a089", "md_file": "knowledge_base/domains/DS/examples.md", "md_atom_type": "SENTENCE", "md_parent_section": "§DS.6 [Example 6]", "md_verbatim": "**ds.xpt**", "score": 0.79, "match_basis": "verbatim_token+domain_route:DS"}, {"md_atom_id": "md_dmDS_ex_a098", "md_file": "knowledge_base/domains/DS/examples.md", "md_atom_type": "SENTENCE", "md_parent_section": "§DS.7 [Example 7]", "md_verbatim": "**ds.xpt**", "score": 0.79, "match_basis": "verbatim_token+domain_route:DS"}, {"md_atom_id": "md_dmDS_ex_a108", "md_file": "knowledge_base/domains/DS/examples.md", "md_atom_type": "SENTENCE", "md_parent_section": "§DS.8 [Example 8]", "md_verbatim": "**ds.xpt**", "score": 0.79, "match_basis": "verbatim_token+domain_route:DS"}, {"md_atom_id": "md_dmDS_ex_a121", "md_file": "knowledge_base/domains/DS/examples.md", "md_atom_type": "SENTENCE", "md_parent_section": "§DS.9 [Example 9]", "md_verbatim": "**ds.xpt**", "score": 0.79, "match_basis": "verbatim_token+domain_route:DS"}], "candidate_count": 10, "zero_candidate": false}
{"pdf_atom_id": "ig34_p0164_a0023", "pdf_atom_type": "TABLE_HEADER", "pdf_source": "SDTMIG_v3.4", "pdf_page": 164, "pdf_parent_section": "§6.2.4 Disposition (DS)", "pdf_verbatim": "| Row | STUDYID | DOMAIN | USUBJID | EXSEQ | EXTRT | EXDOSE | EXDOSU | EPOCH | EXSTDTC | EXENDTC |", "figure_ref": null, "candidates": [{"md_atom_id": "md_dmDS_ex_a165", "md_file": "knowledge_base/domains/DS/examples.md", "md_atom_type": "TABLE_HEADER", "md_parent_section": "§DS.10 [Example 10]", "md_verbatim": "| Row | STUDYID | DOMAIN | USUBJID | EXSEQ | EXTRT | EXDOSE | EXDOSU | EPOCH | EXSTDTC | EXENDTC |\n|-----|---------|--------|---------|-------|-------|--------|--------|-------|---------|---------|", "score": 1.0, "match_basis": "verbatim_token+domain_route:DS"}, {"md_atom_id": "md_dmDS_ex_a178", "md_file": "knowledge_base/domains/DS/examples.md", "md_atom_type": "TABLE_HEADER", "md_parent_section": "§DS.10 [Example 10]", "md_verbatim": "| Row | STUDYID | DOMAIN | USUBJID | SDSEQ | ETCD | SESTDTC | SEENDTC | TAETORD | EPOCH |\n|-----|---------|--------|---------|-------|------|---------|---------|---------|-------|", "score": 0.688, "match_basis": "verbatim_token+domain_route:DS"}, {"md_atom_id": "md_dmDS_ex_a241", "md_file": "knowledge_base/domains/DS/examples.md", "md_atom_type": "TABLE_HEADER", "md_parent_section": "§DS.11 [Example 11]", "md_verbatim": "| Row | STUDYID | DOMAIN | USUBJID | SESEQ | ETCD | SESTDTC | SEENDTC | SEUPDES | TAETORD | EPOCH |\n|-----|---------|--------|---------|-------|------|---------|---------|---------|---------|-------|", "score": 0.6667, "match_basis": "verbatim_token+domain_route:DS"}, {"md_atom_id": "md_dmDS_ex_a039", "md_file": "knowledge_base/domains/DS/examples.md", "md_atom_type": "TABLE_HEADER", "md_parent_section": "§DS.2 [Example 2]", "md_verbatim": "| Row | STUDYID | DOMAIN | USUBJID | DSSEQ | DSTERM | DSDECOD | DSCAT | EPOCH | DSSTDTC |\n|-----|---------|--------|---------|-------|--------|---------|-------|-------|---------|", "score": 0.6538, "match_basis": "verbatim_token+domain_route:DS"}, {"md_atom_id": "md_dmDS_ex_a050", "md_file": "knowledge_base/domains/DS/examples.md", "md_atom_type": "TABLE_HEADER", "md_parent_section": "§DS.3 [Example 3]", "md_verbatim": "| Row | STUDYID | DOMAIN | USUBJID | DSSEQ | DSTERM | DSDECOD | DSCAT | EPOCH | DSSTDTC |\n|-----|---------|--------|---------|-------|--------|---------|-------|-------|---------|", "score": 0.6538, "match_basis": "verbatim_token+domain_route:DS"}], "candidate_count": 5, "zero_candidate": false}
{"pdf_atom_id": "ig34_p0164_a0024", "pdf_atom_type": "TABLE_ROW", "pdf_source": "SDTMIG_v3.4", "pdf_page": 164, "pdf_parent_section": "§6.2.4 Disposition (DS)", "pdf_verbatim": "| 1 | XYZ | EX | XYZ-767-001 | 1 | Drug 1 | 500 | mg | TREATMENT 1 | 2016-02-14 | 2016-03-13 |", "figure_ref": null, "candidates": [{"md_atom_id": "md_dmDS_ex_a166", "md_file": "knowledge_base/domains/DS/examples.md", "md_atom_type": "TABLE_ROW", "md_parent_section": "§DS.10 [Example 10]", "md_verbatim": "| 1 | XYZ | EX | XYZ-767-001 | 1 | Drug 1 | 500 | mg | TREATMENT 1 | 2016-02-14 | 2016-03-13 |", "score": 1.0, "match_basis": "verbatim_token+domain_route:DS"}, {"md_atom_id": "md_dmDS_ex_a167", "md_file": "knowledge_base/domains/DS/examples.md", "md_atom_type": "TABLE_ROW", "md_parent_section": "§DS.10 [Example 10]", "md_verbatim": "| 2 | XYZ | EX | XYZ-767-001 | 2 | Drug 1 | 500 | mg | TREATMENT 2 | 2016-03-14 | 2016-04-19 |", "score": 1.0, "match_basis": "verbatim_token+domain_route:DS"}, {"md_atom_id": "md_dmDS_ex_a169", "md_file": "knowledge_base/domains/DS/examples.md", "md_atom_type": "TABLE_ROW", "md_parent_section": "§DS.10 [Example 10]", "md_verbatim": "| 4 | XYZ | EX | XYZ-767-002 | 1 | Drug 2 | 500 | mg | TREATMENT 1 | 2016-02-21 | 2016-03-23 |", "score": 0.925, "match_basis": "verbatim_token+domain_route:DS"}, {"md_atom_id": "md_dmDS_ex_a170", "md_file": "knowledge_base/domains/DS/examples.md", "md_atom_type": "TABLE_ROW", "md_parent_section": "§DS.10 [Example 10]", "md_verbatim": "| 5 | XYZ | EX | XYZ-767-002 | 2 | Drug 2 | 500 | mg | TREATMENT 2 | 2016-03-24 | 2016-04-24 |", "score": 0.925, "match_basis": "verbatim_token+domain_route:DS"}, {"md_atom_id": "md_dmDS_ex_a180", "md_file": "knowledge_base/domains/DS/examples.md", "md_atom_type": "TABLE_ROW", "md_parent_section": "§DS.10 [Example 10]", "md_verbatim": "| 2 | XYZ | SE | XYZ-767-001 | 2 | DRUG1 | 2016-02-14 | 2016-03-14 | 2 | TREATMENT 1 |", "score": 0.925, "match_basis": "verbatim_token+domain_route:DS"}], "candidate_count": 5, "zero_candidate": false}
{"pdf_atom_id": "ig34_p0164_a0025", "pdf_atom_type": "TABLE_ROW", "pdf_source": "SDTMIG_v3.4", "pdf_page": 164, "pdf_parent_section": "§6.2.4 Disposition (DS)", "pdf_verbatim": "| 2 | XYZ | EX | XYZ-767-001 | 2 | Drug 1 | 500 | mg | TREATMENT 2 | 2016-03-14 | 2016-04-19 |", "figure_ref": null, "candidates": [{"md_atom_id": "md_dmDS_ex_a166", "md_file": "knowledge_base/domains/DS/examples.md", "md_atom_type": "TABLE_ROW", "md_parent_section": "§DS.10 [Example 10]", "md_verbatim": "| 1 | XYZ | EX | XYZ-767-001 | 1 | Drug 1 | 500 | mg | TREATMENT 1 | 2016-02-14 | 2016-03-13 |", "score": 1.0, "match_basis": "verbatim_token+domain_route:DS"}, {"md_atom_id": "md_dmDS_ex_a167", "md_file": "knowledge_base/domains/DS/examples.md", "md_atom_type": "TABLE_ROW", "md_parent_section": "§DS.10 [Example 10]", "md_verbatim": "| 2 | XYZ | EX | XYZ-767-001 | 2 | Drug 1 | 500 | mg | TREATMENT 2 | 2016-03-14 | 2016-04-19 |", "score": 1.0, "match_basis": "verbatim_token+domain_route:DS"}, {"md_atom_id": "md_dmDS_ex_a169", "md_file": "knowledge_base/domains/DS/examples.md", "md_atom_type": "TABLE_ROW", "md_parent_section": "§DS.10 [Example 10]", "md_verbatim": "| 4 | XYZ | EX | XYZ-767-002 | 1 | Drug 2 | 500 | mg | TREATMENT 1 | 2016-02-21 | 2016-03-23 |", "score": 0.925, "match_basis": "verbatim_token+domain_route:DS"}, {"md_atom_id": "md_dmDS_ex_a170", "md_file": "knowledge_base/domains/DS/examples.md", "md_atom_type": "TABLE_ROW", "md_parent_section": "§DS.10 [Example 10]", "md_verbatim": "| 5 | XYZ | EX | XYZ-767-002 | 2 | Drug 2 | 500 | mg | TREATMENT 2 | 2016-03-24 | 2016-04-24 |", "score": 0.925, "match_basis": "verbatim_token+domain_route:DS"}, {"md_atom_id": "md_dmDS_ex_a180", "md_file": "knowledge_base/domains/DS/examples.md", "md_atom_type": "TABLE_ROW", "md_parent_section": "§DS.10 [Example 10]", "md_verbatim": "| 2 | XYZ | SE | XYZ-767-001 | 2 | DRUG1 | 2016-02-14 | 2016-03-14 | 2 | TREATMENT 1 |", "score": 0.925, "match_basis": "verbatim_token+domain_route:DS"}], "candidate_count": 5, "zero_candidate": false}
{"pdf_atom_id": "ig34_p0164_a0026", "pdf_atom_type": "TABLE_ROW", "pdf_source": "SDTMIG_v3.4", "pdf_page": 164, "pdf_parent_section": "§6.2.4 Disposition (DS)", "pdf_verbatim": "| 3 | XYZ | EX | XYZ-767-001 | 3 | Investigational Drug | 1000 | mg | TREATMENT 2 | 2016-03-14 | 2016-04-19 |", "figure_ref": null, "candidates": [{"md_atom_id": "md_dmDS_ex_a168", "md_file": "knowledge_base/domains/DS/examples.md", "md_atom_type": "TABLE_ROW", "md_parent_section": "§DS.10 [Example 10]", "md_verbatim": "| 3 | XYZ | EX | XYZ-767-001 | 3 | Investigational Drug | 1000 | mg | TREATMENT 2 | 2016-03-14 | 2016-04-19 |", "score": 1.0, "match_basis": "verbatim_token+domain_route:DS"}, {"md_atom_id": "md_dmDS_ex_a171", "md_file": "knowledge_base/domains/DS/examples.md", "md_atom_type": "TABLE_ROW", "md_parent_section": "§DS.10 [Example 10]", "md_verbatim": "| 6 | XYZ | EX | XYZ-767-002 | 3 | Investigational Drug | 1000 | mg | TREATMENT 2 | 2016-03-24 | 2016-04-24 |", "score": 0.96, "match_basis": "verbatim_token+domain_route:DS"}, {"md_atom_id": "md_dmDS_ex_a152", "md_file": "knowledge_base/domains/DS/examples.md", "md_atom_type": "TABLE_ROW", "md_parent_section": "§DS.10 [Example 10]", "md_verbatim": "| 3 | XYZ | TA | DG1INDG | Drug-1+Investigation-Drug | 3 | DG1INDG | Drug 1 + Investigation Drug | | | TREATMENT 2 |", "score": 0.7706, "match_basis": "verbatim_token+domain_route:DS"}, {"md_atom_id": "md_dmDS_ex_a156", "md_file": "knowledge_base/domains/DS/examples.md", "md_atom_type": "TABLE_ROW", "md_parent_section": "§DS.10 [Example 10]", "md_verbatim": "| 7 | XYZ | TA | DG2INDG | Drug-2+Investigation-Drug | 3 | DG2INDG | Drug 2 + Investigation Drug | | | TREATMENT 2 |", "score": 0.7706, "match_basis": "verbatim_token+domain_route:DS"}, {"md_atom_id": "md_dmDS_ex_a151", "md_file": "knowledge_base/domains/DS/examples.md", "md_atom_type": "TABLE_ROW", "md_parent_section": "§DS.10 [Example 10]", "md_verbatim": "| 2 | XYZ | TA | DG1INDG | Drug-1+Investigation-Drug | 2 | DRUG1 | Drug-1 | | | TREATMENT 1 |", "score": 0.76, "match_basis": "verbatim_token+domain_route:DS"}], "candidate_count": 5, "zero_candidate": false}
{"pdf_atom_id": "ig34_p0164_a0027", "pdf_atom_type": "TABLE_ROW", "pdf_source": "SDTMIG_v3.4", "pdf_page": 164, "pdf_parent_section": "§6.2.4 Disposition (DS)", "pdf_verbatim": "| 4 | XYZ | EX | XYZ-767-002 | 1 | Drug 2 | 500 | mg | TREATMENT 1 | 2016-02-21 | 2016-03-23 |", "figure_ref": null, "candidates": [{"md_atom_id": "md_dmDS_ex_a169", "md_file": "knowledge_base/domains/DS/examples.md", "md_atom_type": "TABLE_ROW", "md_parent_section": "§DS.10 [Example 10]", "md_verbatim": "| 4 | XYZ | EX | XYZ-767-002 | 1 | Drug 2 | 500 | mg | TREATMENT 1 | 2016-02-21 | 2016-03-23 |", "score": 1.0, "match_basis": "verbatim_token+domain_route:DS"}, {"md_atom_id": "md_dmDS_ex_a170", "md_file": "knowledge_base/domains/DS/examples.md", "md_atom_type": "TABLE_ROW", "md_parent_section": "§DS.10 [Example 10]", "md_verbatim": "| 5 | XYZ | EX | XYZ-767-002 | 2 | Drug 2 | 500 | mg | TREATMENT 2 | 2016-03-24 | 2016-04-24 |", "score": 1.0, "match_basis": "verbatim_token+domain_route:DS"}, {"md_atom_id": "md_dmDS_ex_a166", "md_file": "knowledge_base/domains/DS/examples.md", "md_atom_type": "TABLE_ROW", "md_parent_section": "§DS.10 [Example 10]", "md_verbatim": "| 1 | XYZ | EX | XYZ-767-001 | 1 | Drug 1 | 500 | mg | TREATMENT 1 | 2016-02-14 | 2016-03-13 |", "score": 0.925, "match_basis": "verbatim_token+domain_route:DS"}, {"md_atom_id": "md_dmDS_ex_a167", "md_file": "knowledge_base/domains/DS/examples.md", "md_atom_type": "TABLE_ROW", "md_parent_section": "§DS.10 [Example 10]", "md_verbatim": "| 2 | XYZ | EX | XYZ-767-001 | 2 | Drug 1 | 500 | mg | TREATMENT 2 | 2016-03-14 | 2016-04-19 |", "score": 0.925, "match_basis": "verbatim_token+domain_route:DS"}, {"md_atom_id": "md_dmDS_ex_a184", "md_file": "knowledge_base/domains/DS/examples.md", "md_atom_type": "TABLE_ROW", "md_parent_section": "§DS.10 [Example 10]", "md_verbatim": "| 6 | XYZ | SE | XYZ-767-002 | 2 | DRUG2 | 2016-03-23 | 2016-03-24 | 2 | TREATMENT 1 |", "score": 0.925, "match_basis": "verbatim_token+domain_route:DS"}], "candidate_count": 5, "zero_candidate": false}
{"pdf_atom_id": "ig34_p0164_a0028", "pdf_atom_type": "TABLE_ROW", "pdf_source": "SDTMIG_v3.4", "pdf_page": 164, "pdf_parent_section": "§6.2.4 Disposition (DS)", "pdf_verbatim": "| 5 | XYZ | EX | XYZ-767-002 | 2 | Drug 2 | 500 | mg | TREATMENT 2 | 2016-03-24 | 2016-04-24 |", "figure_ref": null, "candidates": [{"md_atom_id": "md_dmDS_ex_a169", "md_file": "knowledge_base/domains/DS/examples.md", "md_atom_type": "TABLE_ROW", "md_parent_section": "§DS.10 [Example 10]", "md_verbatim": "| 4 | XYZ | EX | XYZ-767-002 | 1 | Drug 2 | 500 | mg | TREATMENT 1 | 2016-02-21 | 2016-03-23 |", "score": 1.0, "match_basis": "verbatim_token+domain_route:DS"}, {"md_atom_id": "md_dmDS_ex_a170", "md_file": "knowledge_base/domains/DS/examples.md", "md_atom_type": "TABLE_ROW", "md_parent_section": "§DS.10 [Example 10]", "md_verbatim": "| 5 | XYZ | EX | XYZ-767-002 | 2 | Drug 2 | 500 | mg | TREATMENT 2 | 2016-03-24 | 2016-04-24 |", "score": 1.0, "match_basis": "verbatim_token+domain_route:DS"}, {"md_atom_id": "md_dmDS_ex_a166", "md_file": "knowledge_base/domains/DS/examples.md", "md_atom_type": "TABLE_ROW", "md_parent_section": "§DS.10 [Example 10]", "md_verbatim": "| 1 | XYZ | EX | XYZ-767-001 | 1 | Drug 1 | 500 | mg | TREATMENT 1 | 2016-02-14 | 2016-03-13 |", "score": 0.925, "match_basis": "verbatim_token+domain_route:DS"}, {"md_atom_id": "md_dmDS_ex_a167", "md_file": "knowledge_base/domains/DS/examples.md", "md_atom_type": "TABLE_ROW", "md_parent_section": "§DS.10 [Example 10]", "md_verbatim": "| 2 | XYZ | EX | XYZ-767-001 | 2 | Drug 1 | 500 | mg | TREATMENT 2 | 2016-03-14 | 2016-04-19 |", "score": 0.925, "match_basis": "verbatim_token+domain_route:DS"}, {"md_atom_id": "md_dmDS_ex_a184", "md_file": "knowledge_base/domains/DS/examples.md", "md_atom_type": "TABLE_ROW", "md_parent_section": "§DS.10 [Example 10]", "md_verbatim": "| 6 | XYZ | SE | XYZ-767-002 | 2 | DRUG2 | 2016-03-23 | 2016-03-24 | 2 | TREATMENT 1 |", "score": 0.925, "match_basis": "verbatim_token+domain_route:DS"}], "candidate_count": 5, "zero_candidate": false}
