{"pdf_atom_id": "ig34_p0113_a012", "pdf_atom_type": "SENTENCE", "pdf_source": "SDTMIG v3.4 (no header footer).pdf", "pdf_page": 113, "pdf_parent_section": "§6.1.3.3 [Exposure/Exposure as Collected Examples]", "pdf_verbatim": "The EC dataset shows administrations as collected, in tablets.", "figure_ref": null, "candidates": [{"md_atom_id": "md_dmEC_ex_a024", "md_file": "knowledge_base/domains/EC/examples.md", "md_atom_type": "SENTENCE", "md_parent_section": "§EC.3 [Example 3]", "md_verbatim": "The EC dataset shows administrations as collected, in tablets.", "score": 0.9, "match_basis": "verbatim_token+global_search"}, {"md_atom_id": "md_dmEX_ex_a073", "md_file": "knowledge_base/domains/EX/examples.md", "md_atom_type": "SENTENCE", "md_parent_section": "§EX.3 [Example 3]", "md_verbatim": "The EC dataset shows administrations as collected, in tablets.", "score": 0.9, "match_basis": "verbatim_token+global_search"}, {"md_atom_id": "md_dmEC_ex_a046", "md_file": "knowledge_base/domains/EC/examples.md", "md_atom_type": "SENTENCE", "md_parent_section": "§EC.6 [Example 6]", "md_verbatim": "The EC dataset shows administrations as collected.", "score": 0.8118, "match_basis": "verbatim_token+global_search"}, {"md_atom_id": "md_dmEC_ex_a073", "md_file": "knowledge_base/domains/EC/examples.md", "md_atom_type": "SENTENCE", "md_parent_section": "§EC.8 [Example 8]", "md_verbatim": "The EC dataset shows administrations as collected.", "score": 0.8118, "match_basis": "verbatim_token+global_search"}, {"md_atom_id": "md_dmEX_ex_a160", "md_file": "knowledge_base/domains/EX/examples.md", "md_atom_type": "SENTENCE", "md_parent_section": "§EX.6 [Example 6]", "md_verbatim": "The EC dataset shows administrations as collected.", "score": 0.8118, "match_basis": "verbatim_token+global_search"}], "candidate_count": 5, "zero_candidate": false}
{"pdf_atom_id": "ig34_p0113_a013", "pdf_atom_type": "CODE_LITERAL", "pdf_source": "SDTMIG v3.4 (no header footer).pdf", "pdf_page": 113, "pdf_parent_section": "§6.1.3.3 [Exposure/Exposure as Collected Examples]", "pdf_verbatim": "ec.xpt", "figure_ref": null, "candidates": [{"md_atom_id": "md_ch04_a207", "md_file": "knowledge_base/chapters/ch04_general_assumptions.md", "md_atom_type": "CODE_LITERAL", "md_parent_section": "§4.2.3 [Use of \"Subject\" and USUBJID]", "md_verbatim": "dm.xpt:", "score": 0.69, "match_basis": "verbatim_token+global_search"}, {"md_atom_id": "md_ch04_a210", "md_file": "knowledge_base/chapters/ch04_general_assumptions.md", "md_atom_type": "CODE_LITERAL", "md_parent_section": "§4.2.3 [Use of \"Subject\" and USUBJID]", "md_verbatim": "dm.xpt:", "score": 0.69, "match_basis": "verbatim_token+global_search"}, {"md_atom_id": "md_dmCM_ex_a010", "md_file": "knowledge_base/domains/CM/examples.md", "md_atom_type": "NOTE", "md_parent_section": "§CM.1 [Example 1]", "md_verbatim": "**cm.xpt**", "score": 0.69, "match_basis": "verbatim_token+global_search"}, {"md_atom_id": "md_dmCM_ex_a025", "md_file": "knowledge_base/domains/CM/examples.md", "md_atom_type": "NOTE", "md_parent_section": "§CM.2 [Example 2]", "md_verbatim": "**cm.xpt**", "score": 0.69, "match_basis": "verbatim_token+global_search"}, {"md_atom_id": "md_dmCM_ex_a042", "md_file": "knowledge_base/domains/CM/examples.md", "md_atom_type": "NOTE", "md_parent_section": "§CM.3 [Example 3]", "md_verbatim": "**cm.xpt**", "score": 0.69, "match_basis": "verbatim_token+global_search"}, {"md_atom_id": "md_dmCM_ex_a052", "md_file": "knowledge_base/domains/CM/examples.md", "md_atom_type": "NOTE", "md_parent_section": "§CM.4 [Example 4]", "md_verbatim": "**cm.xpt**", "score": 0.69, "match_basis": "verbatim_token+global_search"}, {"md_atom_id": "md_dmCM_ex_a070", "md_file": "knowledge_base/domains/CM/examples.md", "md_atom_type": "NOTE", "md_parent_section": "§CM.5 [Example 5]", "md_verbatim": "**cm.xpt**", "score": 0.69, "match_basis": "verbatim_token+global_search"}, {"md_atom_id": "md_ch04_a368", "md_file": "knowledge_base/chapters/ch04_general_assumptions.md", "md_atom_type": "CODE_LITERAL", "md_parent_section": "§4.2.8.3 [Multiple Values for a Non-result Qualifier Variable]", "md_verbatim": "ae.xpt:", "score": 0.69, "match_basis": "verbatim_token+global_search"}, {"md_atom_id": "md_ch04_a378", "md_file": "knowledge_base/chapters/ch04_general_assumptions.md", "md_atom_type": "CODE_LITERAL", "md_parent_section": "§4.2.8.3 [Multiple Values for a Non-result Qualifier Variable]", "md_verbatim": "ae.xpt:", "score": 0.69, "match_basis": "verbatim_token+global_search"}, {"md_atom_id": "md_ch04_a391", "md_file": "knowledge_base/chapters/ch04_general_assumptions.md", "md_atom_type": "CODE_LITERAL", "md_parent_section": "§4.2.8.3 [Multiple Values for a Non-result Qualifier Variable]", "md_verbatim": "ae.xpt:", "score": 0.69, "match_basis": "verbatim_token+global_search"}], "candidate_count": 10, "zero_candidate": false}
{"pdf_atom_id": "ig34_p0113_a014", "pdf_atom_type": "TABLE_HEADER", "pdf_source": "SDTMIG v3.4 (no header footer).pdf", "pdf_page": 113, "pdf_parent_section": "§6.1.3.3 [Exposure/Exposure as Collected Examples]", "pdf_verbatim": "Row | STUDYID | DOMAIN | USUBJID | ECSEQ | ECTRT | ECPRESP | ECOCCUR | ECDOSE | ECDOSU | ECDOSFRQ | EPOCH | ECSTDTC | ECENDTC | ECSTDY | ECENDY", "figure_ref": null, "candidates": [{"md_atom_id": "md_dmEC_ex_a026", "md_file": "knowledge_base/domains/EC/examples.md", "md_atom_type": "TABLE_HEADER", "md_parent_section": "§EC.3 [Example 3]", "md_verbatim": "| Row | STUDYID | DOMAIN | USUBJID | ECSEQ | ECTRT | ECPRESP | ECOCCUR | ECDOSE | ECDOSU | ECDOSFRQ | EPOCH | ECSTDTC | ECENDTC | ECSTDY | ECENDY |\n|-----|---------|--------|---------|-------|-------|---------|---------|--------|--------|----------|-------|---------|---------|--------|--------|", "score": 0.9, "match_basis": "verbatim_token+global_search"}, {"md_atom_id": "md_dmEX_ex_a075", "md_file": "knowledge_base/domains/EX/examples.md", "md_atom_type": "TABLE_HEADER", "md_parent_section": "§EX.3 [Example 3]", "md_verbatim": "| Row | STUDYID | DOMAIN | USUBJID | ECSEQ | ECTRT | ECPRESP | ECOCCUR | ECDOSE | ECDOSU | ECDOSFRQ | EPOCH | ECSTDTC | ECENDTC | ECSTDY | ECENDY |\n|-----|---------|--------|---------|-------|-------|---------|---------|--------|--------|----------|-------|---------|---------|--------|--------|", "score": 0.9, "match_basis": "verbatim_token+global_search"}, {"md_atom_id": "md_dmEC_ex_a078", "md_file": "knowledge_base/domains/EC/examples.md", "md_atom_type": "TABLE_HEADER", "md_parent_section": "§EC.8 [Example 8]", "md_verbatim": "| Row | STUDYID | DOMAIN | USUBJID | ECSEQ | ECTRT | ECCAT | ECPRESP | ECOCCUR | ECDOSE | ECDOSU | ECDOSFRQ | EPOCH | ECSTDTC | ECENDTC | ECSTDY | ECENDY |\n|-----|---------|--------|---------|-------|-------|-------|---------|---------|--------|--------|----------|-------|---------|---------|--------|--------|", "score": 0.8673, "match_basis": "verbatim_token+global_search"}, {"md_atom_id": "md_dmEX_ex_a265", "md_file": "knowledge_base/domains/EX/examples.md", "md_atom_type": "TABLE_HEADER", "md_parent_section": "§EX.8 [Example 8]", "md_verbatim": "| Row | STUDYID | DOMAIN | USUBJID | ECSEQ | ECTRT | ECCAT | ECPRESP | ECOCCUR | ECDOSE | ECDOSU | ECDOSFRQ | EPOCH | ECSTDTC | ECENDTC | ECSTDY | ECENDY |\n|-----|---------|--------|---------|-------|-------|-------|---------|---------|--------|--------|----------|-------|---------|---------|--------|--------|", "score": 0.8673, "match_basis": "verbatim_token+global_search"}, {"md_atom_id": "md_dmEC_ex_a037", "md_file": "knowledge_base/domains/EC/examples.md", "md_atom_type": "TABLE_HEADER", "md_parent_section": "§EC.5 [Example 5]", "md_verbatim": "| Row | STUDYID | DOMAIN | USUBJID | ECSEQ | ECLNKID | ECTRT | ECPRESP | ECOCCUR | ECDOSE | ECDOSU | ECDOSFRQ | EPOCH | ECSTDTC | ECENDTC | ECSTDY | ECENDY | ECTPT | ECTPTNUM |\n|-----|---------|--------|---------|-------|---------|-------|---------|---------|--------|--------|----------|-------|---------|---------|--------|--------|-------|----------|", "score": 0.8032, "match_basis": "verbatim_token+global_search"}], "candidate_count": 5, "zero_candidate": false}
{"pdf_atom_id": "ig34_p0113_a015", "pdf_atom_type": "TABLE_ROW", "pdf_source": "SDTMIG v3.4 (no header footer).pdf", "pdf_page": 113, "pdf_parent_section": "§6.1.3.3 [Exposure/Exposure as Collected Examples]", "pdf_verbatim": "1 | ABC | EC | ABC4001 | 1 | BOTTLE A | Y | Y | 1 | TABLET | QD | TREATMENT | 2011-01-14 | 2011-01-28 | 1 | 15", "figure_ref": null, "candidates": [{"md_atom_id": "md_dmEC_ex_a027", "md_file": "knowledge_base/domains/EC/examples.md", "md_atom_type": "TABLE_ROW", "md_parent_section": "§EC.3 [Example 3]", "md_verbatim": "| 1 | ABC | EC | ABC4001 | 1 | BOTTLE A | Y | Y | 1 | TABLET | QD | TREATMENT | 2011-01-14 | 2011-01-28 | 1 | 15 |", "score": 0.9, "match_basis": "verbatim_token+global_search"}, {"md_atom_id": "md_dmEC_ex_a028", "md_file": "knowledge_base/domains/EC/examples.md", "md_atom_type": "TABLE_ROW", "md_parent_section": "§EC.3 [Example 3]", "md_verbatim": "| 2 | ABC | EC | ABC4001 | 2 | BOTTLE C | Y | Y | 1 | TABLET | QD | TREATMENT | 2011-01-14 | 2011-01-28 | 1 | 15 |", "score": 0.9, "match_basis": "verbatim_token+global_search"}, {"md_atom_id": "md_dmEC_ex_a029", "md_file": "knowledge_base/domains/EC/examples.md", "md_atom_type": "TABLE_ROW", "md_parent_section": "§EC.3 [Example 3]", "md_verbatim": "| 3 | ABC | EC | ABC4001 | 3 | BOTTLE B | Y | Y | 1 | TABLET | QD | TREATMENT | 2011-01-14 | 2011-01-20 | 1 | 7 |", "score": 0.9, "match_basis": "verbatim_token+global_search"}, {"md_atom_id": "md_dmEC_ex_a030", "md_file": "knowledge_base/domains/EC/examples.md", "md_atom_type": "TABLE_ROW", "md_parent_section": "§EC.3 [Example 3]", "md_verbatim": "| 4 | ABC | EC | ABC4001 | 4 | BOTTLE B | Y | N | | TABLET | QD | TREATMENT | 2011-01-21 | 2011-01-21 | 8 | 8 |", "score": 0.9, "match_basis": "verbatim_token+global_search"}, {"md_atom_id": "md_dmEC_ex_a031", "md_file": "knowledge_base/domains/EC/examples.md", "md_atom_type": "TABLE_ROW", "md_parent_section": "§EC.3 [Example 3]", "md_verbatim": "| 5 | ABC | EC | ABC4001 | 5 | BOTTLE B | Y | Y | 2 | TABLET | QD | TREATMENT | 2011-01-22 | 2011-01-22 | 9 | 9 |", "score": 0.9, "match_basis": "verbatim_token+global_search"}], "candidate_count": 5, "zero_candidate": false}
{"pdf_atom_id": "ig34_p0113_a016", "pdf_atom_type": "TABLE_ROW", "pdf_source": "SDTMIG v3.4 (no header footer).pdf", "pdf_page": 113, "pdf_parent_section": "§6.1.3.3 [Exposure/Exposure as Collected Examples]", "pdf_verbatim": "2 | ABC | EC | ABC4001 | 2 | BOTTLE C | Y | Y | 1 | TABLET | QD | TREATMENT | 2011-01-14 | 2011-01-28 | 1 | 15", "figure_ref": null, "candidates": [{"md_atom_id": "md_dmEC_ex_a027", "md_file": "knowledge_base/domains/EC/examples.md", "md_atom_type": "TABLE_ROW", "md_parent_section": "§EC.3 [Example 3]", "md_verbatim": "| 1 | ABC | EC | ABC4001 | 1 | BOTTLE A | Y | Y | 1 | TABLET | QD | TREATMENT | 2011-01-14 | 2011-01-28 | 1 | 15 |", "score": 0.9, "match_basis": "verbatim_token+global_search"}, {"md_atom_id": "md_dmEC_ex_a028", "md_file": "knowledge_base/domains/EC/examples.md", "md_atom_type": "TABLE_ROW", "md_parent_section": "§EC.3 [Example 3]", "md_verbatim": "| 2 | ABC | EC | ABC4001 | 2 | BOTTLE C | Y | Y | 1 | TABLET | QD | TREATMENT | 2011-01-14 | 2011-01-28 | 1 | 15 |", "score": 0.9, "match_basis": "verbatim_token+global_search"}, {"md_atom_id": "md_dmEC_ex_a029", "md_file": "knowledge_base/domains/EC/examples.md", "md_atom_type": "TABLE_ROW", "md_parent_section": "§EC.3 [Example 3]", "md_verbatim": "| 3 | ABC | EC | ABC4001 | 3 | BOTTLE B | Y | Y | 1 | TABLET | QD | TREATMENT | 2011-01-14 | 2011-01-20 | 1 | 7 |", "score": 0.9, "match_basis": "verbatim_token+global_search"}, {"md_atom_id": "md_dmEC_ex_a030", "md_file": "knowledge_base/domains/EC/examples.md", "md_atom_type": "TABLE_ROW", "md_parent_section": "§EC.3 [Example 3]", "md_verbatim": "| 4 | ABC | EC | ABC4001 | 4 | BOTTLE B | Y | N | | TABLET | QD | TREATMENT | 2011-01-21 | 2011-01-21 | 8 | 8 |", "score": 0.9, "match_basis": "verbatim_token+global_search"}, {"md_atom_id": "md_dmEC_ex_a031", "md_file": "knowledge_base/domains/EC/examples.md", "md_atom_type": "TABLE_ROW", "md_parent_section": "§EC.3 [Example 3]", "md_verbatim": "| 5 | ABC | EC | ABC4001 | 5 | BOTTLE B | Y | Y | 2 | TABLET | QD | TREATMENT | 2011-01-22 | 2011-01-22 | 9 | 9 |", "score": 0.9, "match_basis": "verbatim_token+global_search"}], "candidate_count": 5, "zero_candidate": false}
{"pdf_atom_id": "ig34_p0113_a017", "pdf_atom_type": "TABLE_ROW", "pdf_source": "SDTMIG v3.4 (no header footer).pdf", "pdf_page": 113, "pdf_parent_section": "§6.1.3.3 [Exposure/Exposure as Collected Examples]", "pdf_verbatim": "3 | ABC | EC | ABC4001 | 3 | BOTTLE B | Y | Y | 1 | TABLET | QD | TREATMENT | 2011-01-14 | 2011-01-20 | 1 | 7", "figure_ref": null, "candidates": [{"md_atom_id": "md_dmEC_ex_a027", "md_file": "knowledge_base/domains/EC/examples.md", "md_atom_type": "TABLE_ROW", "md_parent_section": "§EC.3 [Example 3]", "md_verbatim": "| 1 | ABC | EC | ABC4001 | 1 | BOTTLE A | Y | Y | 1 | TABLET | QD | TREATMENT | 2011-01-14 | 2011-01-28 | 1 | 15 |", "score": 0.9, "match_basis": "verbatim_token+global_search"}, {"md_atom_id": "md_dmEC_ex_a028", "md_file": "knowledge_base/domains/EC/examples.md", "md_atom_type": "TABLE_ROW", "md_parent_section": "§EC.3 [Example 3]", "md_verbatim": "| 2 | ABC | EC | ABC4001 | 2 | BOTTLE C | Y | Y | 1 | TABLET | QD | TREATMENT | 2011-01-14 | 2011-01-28 | 1 | 15 |", "score": 0.9, "match_basis": "verbatim_token+global_search"}, {"md_atom_id": "md_dmEC_ex_a029", "md_file": "knowledge_base/domains/EC/examples.md", "md_atom_type": "TABLE_ROW", "md_parent_section": "§EC.3 [Example 3]", "md_verbatim": "| 3 | ABC | EC | ABC4001 | 3 | BOTTLE B | Y | Y | 1 | TABLET | QD | TREATMENT | 2011-01-14 | 2011-01-20 | 1 | 7 |", "score": 0.9, "match_basis": "verbatim_token+global_search"}, {"md_atom_id": "md_dmEC_ex_a030", "md_file": "knowledge_base/domains/EC/examples.md", "md_atom_type": "TABLE_ROW", "md_parent_section": "§EC.3 [Example 3]", "md_verbatim": "| 4 | ABC | EC | ABC4001 | 4 | BOTTLE B | Y | N | | TABLET | QD | TREATMENT | 2011-01-21 | 2011-01-21 | 8 | 8 |", "score": 0.9, "match_basis": "verbatim_token+global_search"}, {"md_atom_id": "md_dmEC_ex_a031", "md_file": "knowledge_base/domains/EC/examples.md", "md_atom_type": "TABLE_ROW", "md_parent_section": "§EC.3 [Example 3]", "md_verbatim": "| 5 | ABC | EC | ABC4001 | 5 | BOTTLE B | Y | Y | 2 | TABLET | QD | TREATMENT | 2011-01-22 | 2011-01-22 | 9 | 9 |", "score": 0.9, "match_basis": "verbatim_token+global_search"}], "candidate_count": 5, "zero_candidate": false}
{"pdf_atom_id": "ig34_p0113_a018", "pdf_atom_type": "TABLE_ROW", "pdf_source": "SDTMIG v3.4 (no header footer).pdf", "pdf_page": 113, "pdf_parent_section": "§6.1.3.3 [Exposure/Exposure as Collected Examples]", "pdf_verbatim": "4 | ABC | EC | ABC4001 | 4 | BOTTLE B | Y | N | | TABLET | QD | TREATMENT | 2011-01-21 | 2011-01-21 | 8 | 8", "figure_ref": null, "candidates": [{"md_atom_id": "md_dmEC_ex_a027", "md_file": "knowledge_base/domains/EC/examples.md", "md_atom_type": "TABLE_ROW", "md_parent_section": "§EC.3 [Example 3]", "md_verbatim": "| 1 | ABC | EC | ABC4001 | 1 | BOTTLE A | Y | Y | 1 | TABLET | QD | TREATMENT | 2011-01-14 | 2011-01-28 | 1 | 15 |", "score": 0.9, "match_basis": "verbatim_token+global_search"}, {"md_atom_id": "md_dmEC_ex_a028", "md_file": "knowledge_base/domains/EC/examples.md", "md_atom_type": "TABLE_ROW", "md_parent_section": "§EC.3 [Example 3]", "md_verbatim": "| 2 | ABC | EC | ABC4001 | 2 | BOTTLE C | Y | Y | 1 | TABLET | QD | TREATMENT | 2011-01-14 | 2011-01-28 | 1 | 15 |", "score": 0.9, "match_basis": "verbatim_token+global_search"}, {"md_atom_id": "md_dmEC_ex_a029", "md_file": "knowledge_base/domains/EC/examples.md", "md_atom_type": "TABLE_ROW", "md_parent_section": "§EC.3 [Example 3]", "md_verbatim": "| 3 | ABC | EC | ABC4001 | 3 | BOTTLE B | Y | Y | 1 | TABLET | QD | TREATMENT | 2011-01-14 | 2011-01-20 | 1 | 7 |", "score": 0.9, "match_basis": "verbatim_token+global_search"}, {"md_atom_id": "md_dmEC_ex_a030", "md_file": "knowledge_base/domains/EC/examples.md", "md_atom_type": "TABLE_ROW", "md_parent_section": "§EC.3 [Example 3]", "md_verbatim": "| 4 | ABC | EC | ABC4001 | 4 | BOTTLE B | Y | N | | TABLET | QD | TREATMENT | 2011-01-21 | 2011-01-21 | 8 | 8 |", "score": 0.9, "match_basis": "verbatim_token+global_search"}, {"md_atom_id": "md_dmEC_ex_a031", "md_file": "knowledge_base/domains/EC/examples.md", "md_atom_type": "TABLE_ROW", "md_parent_section": "§EC.3 [Example 3]", "md_verbatim": "| 5 | ABC | EC | ABC4001 | 5 | BOTTLE B | Y | Y | 2 | TABLET | QD | TREATMENT | 2011-01-22 | 2011-01-22 | 9 | 9 |", "score": 0.9, "match_basis": "verbatim_token+global_search"}], "candidate_count": 5, "zero_candidate": false}
{"pdf_atom_id": "ig34_p0113_a019", "pdf_atom_type": "TABLE_ROW", "pdf_source": "SDTMIG v3.4 (no header footer).pdf", "pdf_page": 113, "pdf_parent_section": "§6.1.3.3 [Exposure/Exposure as Collected Examples]", "pdf_verbatim": "5 | ABC | EC | ABC4001 | 5 | BOTTLE B | Y | Y | 2 | TABLET | QD | TREATMENT | 2011-01-22 | 2011-01-22 | 9 | 9", "figure_ref": null, "candidates": [{"md_atom_id": "md_dmEC_ex_a027", "md_file": "knowledge_base/domains/EC/examples.md", "md_atom_type": "TABLE_ROW", "md_parent_section": "§EC.3 [Example 3]", "md_verbatim": "| 1 | ABC | EC | ABC4001 | 1 | BOTTLE A | Y | Y | 1 | TABLET | QD | TREATMENT | 2011-01-14 | 2011-01-28 | 1 | 15 |", "score": 0.9, "match_basis": "verbatim_token+global_search"}, {"md_atom_id": "md_dmEC_ex_a028", "md_file": "knowledge_base/domains/EC/examples.md", "md_atom_type": "TABLE_ROW", "md_parent_section": "§EC.3 [Example 3]", "md_verbatim": "| 2 | ABC | EC | ABC4001 | 2 | BOTTLE C | Y | Y | 1 | TABLET | QD | TREATMENT | 2011-01-14 | 2011-01-28 | 1 | 15 |", "score": 0.9, "match_basis": "verbatim_token+global_search"}, {"md_atom_id": "md_dmEC_ex_a029", "md_file": "knowledge_base/domains/EC/examples.md", "md_atom_type": "TABLE_ROW", "md_parent_section": "§EC.3 [Example 3]", "md_verbatim": "| 3 | ABC | EC | ABC4001 | 3 | BOTTLE B | Y | Y | 1 | TABLET | QD | TREATMENT | 2011-01-14 | 2011-01-20 | 1 | 7 |", "score": 0.9, "match_basis": "verbatim_token+global_search"}, {"md_atom_id": "md_dmEC_ex_a030", "md_file": "knowledge_base/domains/EC/examples.md", "md_atom_type": "TABLE_ROW", "md_parent_section": "§EC.3 [Example 3]", "md_verbatim": "| 4 | ABC | EC | ABC4001 | 4 | BOTTLE B | Y | N | | TABLET | QD | TREATMENT | 2011-01-21 | 2011-01-21 | 8 | 8 |", "score": 0.9, "match_basis": "verbatim_token+global_search"}, {"md_atom_id": "md_dmEC_ex_a031", "md_file": "knowledge_base/domains/EC/examples.md", "md_atom_type": "TABLE_ROW", "md_parent_section": "§EC.3 [Example 3]", "md_verbatim": "| 5 | ABC | EC | ABC4001 | 5 | BOTTLE B | Y | Y | 2 | TABLET | QD | TREATMENT | 2011-01-22 | 2011-01-22 | 9 | 9 |", "score": 0.9, "match_basis": "verbatim_token+global_search"}], "candidate_count": 5, "zero_candidate": false}
{"pdf_atom_id": "ig34_p0113_a020", "pdf_atom_type": "TABLE_ROW", "pdf_source": "SDTMIG v3.4 (no header footer).pdf", "pdf_page": 113, "pdf_parent_section": "§6.1.3.3 [Exposure/Exposure as Collected Examples]", "pdf_verbatim": "6 | ABC | EC | ABC4001 | 6 | BOTTLE B | Y | Y | 1 | TABLET | QD | TREATMENT | 2011-01-23 | 2011-01-28 | 10 | 15", "figure_ref": null, "candidates": [{"md_atom_id": "md_dmEC_ex_a027", "md_file": "knowledge_base/domains/EC/examples.md", "md_atom_type": "TABLE_ROW", "md_parent_section": "§EC.3 [Example 3]", "md_verbatim": "| 1 | ABC | EC | ABC4001 | 1 | BOTTLE A | Y | Y | 1 | TABLET | QD | TREATMENT | 2011-01-14 | 2011-01-28 | 1 | 15 |", "score": 0.9, "match_basis": "verbatim_token+global_search"}, {"md_atom_id": "md_dmEC_ex_a028", "md_file": "knowledge_base/domains/EC/examples.md", "md_atom_type": "TABLE_ROW", "md_parent_section": "§EC.3 [Example 3]", "md_verbatim": "| 2 | ABC | EC | ABC4001 | 2 | BOTTLE C | Y | Y | 1 | TABLET | QD | TREATMENT | 2011-01-14 | 2011-01-28 | 1 | 15 |", "score": 0.9, "match_basis": "verbatim_token+global_search"}, {"md_atom_id": "md_dmEC_ex_a029", "md_file": "knowledge_base/domains/EC/examples.md", "md_atom_type": "TABLE_ROW", "md_parent_section": "§EC.3 [Example 3]", "md_verbatim": "| 3 | ABC | EC | ABC4001 | 3 | BOTTLE B | Y | Y | 1 | TABLET | QD | TREATMENT | 2011-01-14 | 2011-01-20 | 1 | 7 |", "score": 0.9, "match_basis": "verbatim_token+global_search"}, {"md_atom_id": "md_dmEC_ex_a030", "md_file": "knowledge_base/domains/EC/examples.md", "md_atom_type": "TABLE_ROW", "md_parent_section": "§EC.3 [Example 3]", "md_verbatim": "| 4 | ABC | EC | ABC4001 | 4 | BOTTLE B | Y | N | | TABLET | QD | TREATMENT | 2011-01-21 | 2011-01-21 | 8 | 8 |", "score": 0.9, "match_basis": "verbatim_token+global_search"}, {"md_atom_id": "md_dmEC_ex_a031", "md_file": "knowledge_base/domains/EC/examples.md", "md_atom_type": "TABLE_ROW", "md_parent_section": "§EC.3 [Example 3]", "md_verbatim": "| 5 | ABC | EC | ABC4001 | 5 | BOTTLE B | Y | Y | 2 | TABLET | QD | TREATMENT | 2011-01-22 | 2011-01-22 | 9 | 9 |", "score": 0.9, "match_basis": "verbatim_token+global_search"}], "candidate_count": 5, "zero_candidate": false}
{"pdf_atom_id": "ig34_p0113_a021", "pdf_atom_type": "SENTENCE", "pdf_source": "SDTMIG v3.4 (no header footer).pdf", "pdf_page": 113, "pdf_parent_section": "§6.1.3.3 [Exposure/Exposure as Collected Examples]", "pdf_verbatim": "Upon unmasking, it became known that the subject was randomized to drug X 20 mg and that:", "figure_ref": null, "candidates": [{"md_atom_id": "md_dmEX_ex_a082", "md_file": "knowledge_base/domains/EX/examples.md", "md_atom_type": "SENTENCE", "md_parent_section": "§EX.3 [Example 3]", "md_verbatim": "Upon unmasking, it became known that the subject was randomized to drug X 20 mg and that:", "score": 0.9, "match_basis": "verbatim_token+global_search"}, {"md_atom_id": "md_dmEC_ex_a005", "md_file": "knowledge_base/domains/EC/examples.md", "md_atom_type": "SENTENCE", "md_parent_section": "§EC.1 [Example 1]", "md_verbatim": "Upon unmasking, it became known that subject ABC1001 received drug X and Subject ABC2001 received drug Z. The EC dataset shows the administrations of study treatment as collected.", "score": 0.4884, "match_basis": "verbatim_token+global_search"}, {"md_atom_id": "md_dmEX_ex_a014", "md_file": "knowledge_base/domains/EX/examples.md", "md_atom_type": "SENTENCE", "md_parent_section": "§EX.1 [Example 1]", "md_verbatim": "Upon unmasking, it became known that subject ABC1001 received drug X and Subject ABC2001 received drug Z. The EC dataset shows the administrations of study treatment as collected.", "score": 0.4884, "match_basis": "verbatim_token+global_search"}, {"md_atom_id": "md_dmEX_ex_a129", "md_file": "knowledge_base/domains/EX/examples.md", "md_atom_type": "SENTENCE", "md_parent_section": "§EX.5 [Example 5]", "md_verbatim": "**Rows 1-2:** Show administrations for a subject who was randomized to the 20 mg drug X arm.", "score": 0.4855, "match_basis": "verbatim_token+global_search"}, {"md_atom_id": "md_dmEX_ex_a130", "md_file": "knowledge_base/domains/EX/examples.md", "md_atom_type": "SENTENCE", "md_parent_section": "§EX.5 [Example 5]", "md_verbatim": "**Rows 3-4:** Show administrations for a subject who was randomized to the 10 mg drug X arm.", "score": 0.4855, "match_basis": "verbatim_token+global_search"}], "candidate_count": 5, "zero_candidate": false}
{"pdf_atom_id": "ig34_p0113_a022", "pdf_atom_type": "LIST_ITEM", "pdf_source": "SDTMIG v3.4 (no header footer).pdf", "pdf_page": 113, "pdf_parent_section": "§6.1.3.3 [Exposure/Exposure as Collected Examples]", "pdf_verbatim": "Bottle A contained 10 mg/tablet", "figure_ref": null, "candidates": [{"md_atom_id": "md_dmEX_ex_a083", "md_file": "knowledge_base/domains/EX/examples.md", "md_atom_type": "LIST_ITEM", "md_parent_section": "§EX.3 [Example 3]", "md_verbatim": "- Bottle A contained 10 mg/tablet", "score": 0.9, "match_basis": "verbatim_token+global_search"}, {"md_atom_id": "md_dmEX_ex_a084", "md_file": "knowledge_base/domains/EX/examples.md", "md_atom_type": "LIST_ITEM", "md_parent_section": "§EX.3 [Example 3]", "md_verbatim": "- Bottle B contained 10 mg/tablet", "score": 0.9, "match_basis": "verbatim_token+global_search"}, {"md_atom_id": "md_dmEX_ex_a085", "md_file": "knowledge_base/domains/EX/examples.md", "md_atom_type": "LIST_ITEM", "md_parent_section": "§EX.3 [Example 3]", "md_verbatim": "- Bottle C contained placebo (i.e., 0 mg of active ingredient/tablet)", "score": 0.5813, "match_basis": "verbatim_token+global_search"}, {"md_atom_id": "md_dmEX_ex_a069", "md_file": "knowledge_base/domains/EX/examples.md", "md_atom_type": "LIST_ITEM", "md_parent_section": "§EX.3 [Example 3]", "md_verbatim": "- 1 tablet from bottles A, B and C from 2011-01-14 to 2011-01-20", "score": 0.5286, "match_basis": "verbatim_token+global_search"}, {"md_atom_id": "md_dmEX_ex_a071", "md_file": "knowledge_base/domains/EX/examples.md", "md_atom_type": "LIST_ITEM", "md_parent_section": "§EX.3 [Example 3]", "md_verbatim": "- 1 tablet from bottles A and C on 2011-01-21 and 2011-01-22", "score": 0.5286, "match_basis": "verbatim_token+global_search"}], "candidate_count": 5, "zero_candidate": false}
{"pdf_atom_id": "ig34_p0113_a023", "pdf_atom_type": "LIST_ITEM", "pdf_source": "SDTMIG v3.4 (no header footer).pdf", "pdf_page": 113, "pdf_parent_section": "§6.1.3.3 [Exposure/Exposure as Collected Examples]", "pdf_verbatim": "Bottle B contained 10 mg/tablet", "figure_ref": null, "candidates": [{"md_atom_id": "md_dmEX_ex_a083", "md_file": "knowledge_base/domains/EX/examples.md", "md_atom_type": "LIST_ITEM", "md_parent_section": "§EX.3 [Example 3]", "md_verbatim": "- Bottle A contained 10 mg/tablet", "score": 0.9, "match_basis": "verbatim_token+global_search"}, {"md_atom_id": "md_dmEX_ex_a084", "md_file": "knowledge_base/domains/EX/examples.md", "md_atom_type": "LIST_ITEM", "md_parent_section": "§EX.3 [Example 3]", "md_verbatim": "- Bottle B contained 10 mg/tablet", "score": 0.9, "match_basis": "verbatim_token+global_search"}, {"md_atom_id": "md_dmEX_ex_a085", "md_file": "knowledge_base/domains/EX/examples.md", "md_atom_type": "LIST_ITEM", "md_parent_section": "§EX.3 [Example 3]", "md_verbatim": "- Bottle C contained placebo (i.e., 0 mg of active ingredient/tablet)", "score": 0.5813, "match_basis": "verbatim_token+global_search"}, {"md_atom_id": "md_dmEX_ex_a069", "md_file": "knowledge_base/domains/EX/examples.md", "md_atom_type": "LIST_ITEM", "md_parent_section": "§EX.3 [Example 3]", "md_verbatim": "- 1 tablet from bottles A, B and C from 2011-01-14 to 2011-01-20", "score": 0.5286, "match_basis": "verbatim_token+global_search"}, {"md_atom_id": "md_dmEX_ex_a071", "md_file": "knowledge_base/domains/EX/examples.md", "md_atom_type": "LIST_ITEM", "md_parent_section": "§EX.3 [Example 3]", "md_verbatim": "- 1 tablet from bottles A and C on 2011-01-21 and 2011-01-22", "score": 0.5286, "match_basis": "verbatim_token+global_search"}], "candidate_count": 5, "zero_candidate": false}
{"pdf_atom_id": "ig34_p0113_a024", "pdf_atom_type": "LIST_ITEM", "pdf_source": "SDTMIG v3.4 (no header footer).pdf", "pdf_page": 113, "pdf_parent_section": "§6.1.3.3 [Exposure/Exposure as Collected Examples]", "pdf_verbatim": "Bottle C contained placebo (i.e., 0 mg of active ingredient/tablet)", "figure_ref": null, "candidates": [{"md_atom_id": "md_dmEX_ex_a085", "md_file": "knowledge_base/domains/EX/examples.md", "md_atom_type": "LIST_ITEM", "md_parent_section": "§EX.3 [Example 3]", "md_verbatim": "- Bottle C contained placebo (i.e., 0 mg of active ingredient/tablet)", "score": 0.9, "match_basis": "verbatim_token+global_search"}, {"md_atom_id": "md_dmEX_ex_a083", "md_file": "knowledge_base/domains/EX/examples.md", "md_atom_type": "LIST_ITEM", "md_parent_section": "§EX.3 [Example 3]", "md_verbatim": "- Bottle A contained 10 mg/tablet", "score": 0.5813, "match_basis": "verbatim_token+global_search"}, {"md_atom_id": "md_dmEX_ex_a084", "md_file": "knowledge_base/domains/EX/examples.md", "md_atom_type": "LIST_ITEM", "md_parent_section": "§EX.3 [Example 3]", "md_verbatim": "- Bottle B contained 10 mg/tablet", "score": 0.5813, "match_basis": "verbatim_token+global_search"}, {"md_atom_id": "md_dmEX_assn_a016", "md_file": "knowledge_base/domains/EX/assumptions.md", "md_atom_type": "LIST_ITEM", "md_parent_section": "§EX [EX — Assumptions]", "md_verbatim": "   b. Doses of placebo should be represented by EXTRT = \"PLACEBO\" and EXDOSE = \"0\" (indicating 0 mg of active ingredient was taken or administered).", "score": 0.4397, "match_basis": "verbatim_token+global_search"}, {"md_atom_id": "md_ch10_a146", "md_file": "knowledge_base/chapters/ch10_appendices.md", "md_atom_type": "LIST_ITEM", "md_parent_section": "§10.E [Revision History]", "md_verbatim": "- Domain tables replaced with sectional table of contents", "score": 0.432, "match_basis": "verbatim_token+global_search"}], "candidate_count": 5, "zero_candidate": false}
{"pdf_atom_id": "ig34_p0113_a025", "pdf_atom_type": "SENTENCE", "pdf_source": "SDTMIG v3.4 (no header footer).pdf", "pdf_page": 113, "pdf_parent_section": "§6.1.3.3 [Exposure/Exposure as Collected Examples]", "pdf_verbatim": "The EX dataset shows the doses administered in the protocol-specified unit (mg). The sponsor considered an administration to consist of the total amount for bottles A, B, and C. The derivation of EX records from multiple EC records should be shown in the Define-XML document.", "figure_ref": null, "candidates": [{"md_atom_id": "md_dmEX_ex_a086", "md_file": "knowledge_base/domains/EX/examples.md", "md_atom_type": "SENTENCE", "md_parent_section": "§EX.3 [Example 3]", "md_verbatim": "The EX dataset shows the doses administered in the protocol-specified unit (mg). The sponsor considered an administration to consist of the total amount for bottles A, B, and C. The derivation of EX records from multiple EC records should be shown in the Define-XML document.", "score": 0.9, "match_basis": "verbatim_token+global_search"}, {"md_atom_id": "md_dmEX_ex_a128", "md_file": "knowledge_base/domains/EX/examples.md", "md_atom_type": "SENTENCE", "md_parent_section": "§EX.5 [Example 5]", "md_verbatim": "The EX dataset shows the unmasked administrations in the protocol-specified unit, mg. Amount of placebo was represented as 0 mg. The sponsor chose to represent the administrations at the time-point level.", "score": 0.5169, "match_basis": "verbatim_token+global_search"}, {"md_atom_id": "md_dmEX_ex_a058", "md_file": "knowledge_base/domains/EX/examples.md", "md_atom_type": "SENTENCE", "md_parent_section": "§EX.2 [Example 2]", "md_verbatim": "The sponsor considered the 3 injections to constitute a single administration, so the EX dataset shows the total dose given in the protocol-specified unit, mg/kg. EXLOC = \"ABDOMEN\" is included because the location was common to all injections, but EXLAT was not included. If the sponsor had chosen to represent laterality in the EX record, this would have been handled as described in Section 4.2.8.3, Multiple Values for a Non-result Qualifier Variable.", "score": 0.5111, "match_basis": "verbatim_token+global_search"}, {"md_atom_id": "md_dmEX_ex_a229", "md_file": "knowledge_base/domains/EX/examples.md", "md_atom_type": "SENTENCE", "md_parent_section": "§EX.7 [Example 7]", "md_verbatim": "The EX dataset shows the administrations in protocol-specified unit (mg/kg). There is no record for the intended third dose that was not given. Intended doses in EC (records with ECMOOD = \"SCHEDULED\") can be compared with actual doses in EX.", "score": 0.5057, "match_basis": "verbatim_token+global_search"}, {"md_atom_id": "md_dmEX_ex_a095", "md_file": "knowledge_base/domains/EX/examples.md", "md_atom_type": "SENTENCE", "md_parent_section": "§EX.4 [Example 4]", "md_verbatim": "The EX dataset shows administrations collected in the protocol-specified unit, mg. No EC dataset was needed because the open-label administrations were collected in the protocol-specified unit; EC would be an exact duplicate of the entire EX domain.", "score": 0.4757, "match_basis": "verbatim_token+global_search"}], "candidate_count": 5, "zero_candidate": false}
{"pdf_atom_id": "ig34_p0113_a026", "pdf_atom_type": "CODE_LITERAL", "pdf_source": "SDTMIG v3.4 (no header footer).pdf", "pdf_page": 113, "pdf_parent_section": "§6.1.3.3 [Exposure/Exposure as Collected Examples]", "pdf_verbatim": "ex.xpt", "figure_ref": null, "candidates": [{"md_atom_id": "md_ch04_a207", "md_file": "knowledge_base/chapters/ch04_general_assumptions.md", "md_atom_type": "CODE_LITERAL", "md_parent_section": "§4.2.3 [Use of \"Subject\" and USUBJID]", "md_verbatim": "dm.xpt:", "score": 0.69, "match_basis": "verbatim_token+global_search"}, {"md_atom_id": "md_ch04_a210", "md_file": "knowledge_base/chapters/ch04_general_assumptions.md", "md_atom_type": "CODE_LITERAL", "md_parent_section": "§4.2.3 [Use of \"Subject\" and USUBJID]", "md_verbatim": "dm.xpt:", "score": 0.69, "match_basis": "verbatim_token+global_search"}, {"md_atom_id": "md_dmCM_ex_a010", "md_file": "knowledge_base/domains/CM/examples.md", "md_atom_type": "NOTE", "md_parent_section": "§CM.1 [Example 1]", "md_verbatim": "**cm.xpt**", "score": 0.69, "match_basis": "verbatim_token+global_search"}, {"md_atom_id": "md_dmCM_ex_a025", "md_file": "knowledge_base/domains/CM/examples.md", "md_atom_type": "NOTE", "md_parent_section": "§CM.2 [Example 2]", "md_verbatim": "**cm.xpt**", "score": 0.69, "match_basis": "verbatim_token+global_search"}, {"md_atom_id": "md_dmCM_ex_a042", "md_file": "knowledge_base/domains/CM/examples.md", "md_atom_type": "NOTE", "md_parent_section": "§CM.3 [Example 3]", "md_verbatim": "**cm.xpt**", "score": 0.69, "match_basis": "verbatim_token+global_search"}, {"md_atom_id": "md_dmCM_ex_a052", "md_file": "knowledge_base/domains/CM/examples.md", "md_atom_type": "NOTE", "md_parent_section": "§CM.4 [Example 4]", "md_verbatim": "**cm.xpt**", "score": 0.69, "match_basis": "verbatim_token+global_search"}, {"md_atom_id": "md_dmCM_ex_a070", "md_file": "knowledge_base/domains/CM/examples.md", "md_atom_type": "NOTE", "md_parent_section": "§CM.5 [Example 5]", "md_verbatim": "**cm.xpt**", "score": 0.69, "match_basis": "verbatim_token+global_search"}, {"md_atom_id": "md_ch04_a368", "md_file": "knowledge_base/chapters/ch04_general_assumptions.md", "md_atom_type": "CODE_LITERAL", "md_parent_section": "§4.2.8.3 [Multiple Values for a Non-result Qualifier Variable]", "md_verbatim": "ae.xpt:", "score": 0.69, "match_basis": "verbatim_token+global_search"}, {"md_atom_id": "md_ch04_a378", "md_file": "knowledge_base/chapters/ch04_general_assumptions.md", "md_atom_type": "CODE_LITERAL", "md_parent_section": "§4.2.8.3 [Multiple Values for a Non-result Qualifier Variable]", "md_verbatim": "ae.xpt:", "score": 0.69, "match_basis": "verbatim_token+global_search"}, {"md_atom_id": "md_ch04_a391", "md_file": "knowledge_base/chapters/ch04_general_assumptions.md", "md_atom_type": "CODE_LITERAL", "md_parent_section": "§4.2.8.3 [Multiple Values for a Non-result Qualifier Variable]", "md_verbatim": "ae.xpt:", "score": 0.69, "match_basis": "verbatim_token+global_search"}], "candidate_count": 10, "zero_candidate": false}
{"pdf_atom_id": "ig34_p0113_a027", "pdf_atom_type": "TABLE_HEADER", "pdf_source": "SDTMIG v3.4 (no header footer).pdf", "pdf_page": 113, "pdf_parent_section": "§6.1.3.3 [Exposure/Exposure as Collected Examples]", "pdf_verbatim": "Row | STUDYID | DOMAIN | USUBJID | EXSEQ | EXTRT | EXDOSE | EXDOSU | EXDOSFRM | EXDOSFRQ | EXROUTE | EPOCH | EXSTDTC | EXENDTC | EXSTDY | EXENDY", "figure_ref": null, "candidates": [{"md_atom_id": "md_dmEX_ex_a088", "md_file": "knowledge_base/domains/EX/examples.md", "md_atom_type": "TABLE_HEADER", "md_parent_section": "§EX.3 [Example 3]", "md_verbatim": "| Row | STUDYID | DOMAIN | USUBJID | EXSEQ | EXTRT | EXDOSE | EXDOSU | EXDOSFRM | EXDOSFRQ | EXROUTE | EPOCH | EXSTDTC | EXENDTC | EXSTDY | EXENDY |\n|-----|---------|--------|---------|-------|-------|--------|--------|----------|----------|---------|-------|---------|---------|--------|--------|", "score": 0.9, "match_basis": "verbatim_token+global_search"}, {"md_atom_id": "md_dmEX_ex_a274", "md_file": "knowledge_base/domains/EX/examples.md", "md_atom_type": "TABLE_HEADER", "md_parent_section": "§EX.8 [Example 8]", "md_verbatim": "| Row | STUDYID | DOMAIN | USUBJID | EXSEQ | EXTRT | EXDOSE | EXDOSU | EXDOSFRM | EXDOSFRQ | EXROUTE | EPOCH | EXSTDTC | EXENDTC | EXSTDY | EXENDY |\n|-----|---------|--------|---------|-------|-------|--------|--------|----------|----------|---------|-------|---------|---------|--------|--------|", "score": 0.9, "match_basis": "verbatim_token+global_search"}, {"md_atom_id": "md_dmEX_ex_a025", "md_file": "knowledge_base/domains/EX/examples.md", "md_atom_type": "TABLE_HEADER", "md_parent_section": "§EX.1 [Example 1]", "md_verbatim": "| Row | STUDYID | DOMAIN | USUBJID | EXSEQ | EXLNKID | EXTRT | EXDOSE | EXDOSU | EXDOSFRM | EXDOSFRQ | EXROUTE | EPOCH | EXSTDTC | EXENDTC | EXSTDY | EXENDY |\n|-----|---------|--------|---------|-------|---------|-------|--------|--------|----------|----------|---------|-------|---------|---------|--------|--------|", "score": 0.8434, "match_basis": "verbatim_token+global_search"}, {"md_atom_id": "md_dmEX_ex_a191", "md_file": "knowledge_base/domains/EX/examples.md", "md_atom_type": "TABLE_HEADER", "md_parent_section": "§EX.6 [Example 6]", "md_verbatim": "| Row | STUDYID | DOMAIN | USUBJID | EXSEQ | EXTRT | EXDOSE | EXDOSU | EXDOSFRM | EXDOSFRQ | EXROUTE | EPOCH | EXSTDTC | EXENDTC | EXSTDY | EXENDY | EXTPT | EXTPTREF |\n|-----|---------|--------|---------|-------|-------|--------|--------|----------|----------|---------|-------|---------|---------|--------|--------|-------|----------|", "score": 0.8434, "match_basis": "verbatim_token+global_search"}, {"md_atom_id": "md_dmEX_ex_a097", "md_file": "knowledge_base/domains/EX/examples.md", "md_atom_type": "TABLE_HEADER", "md_parent_section": "§EX.4 [Example 4]", "md_verbatim": "| Row | STUDYID | DOMAIN | USUBJID | EXSEQ | EXTRT | EXDOSE | EXDOSU | EXDOSFRM | EXDOSFRQ | EXROUTE | EXADJ | EPOCH | EXSTDTC | EXENDTC |\n|-----|---------|--------|---------|-------|-------|--------|--------|----------|----------|---------|-------|-------|---------|---------|", "score": 0.8412, "match_basis": "verbatim_token+global_search"}], "candidate_count": 5, "zero_candidate": false}
{"pdf_atom_id": "ig34_p0113_a028", "pdf_atom_type": "TABLE_ROW", "pdf_source": "SDTMIG v3.4 (no header footer).pdf", "pdf_page": 113, "pdf_parent_section": "§6.1.3.3 [Exposure/Exposure as Collected Examples]", "pdf_verbatim": "1 | ABC | EX | ABC4001 | 1 | DRUG X | 20 | mg | TABLET | QD | ORAL | TREATMENT | 2011-01-14 | 2011-01-20 | 1 | 7", "figure_ref": null, "candidates": [{"md_atom_id": "md_dmEX_ex_a089", "md_file": "knowledge_base/domains/EX/examples.md", "md_atom_type": "TABLE_ROW", "md_parent_section": "§EX.3 [Example 3]", "md_verbatim": "| 1 | ABC | EX | ABC4001 | 1 | DRUG X | 20 | mg | TABLET | QD | ORAL | TREATMENT | 2011-01-14 | 2011-01-20 | 1 | 7 |", "score": 0.9, "match_basis": "verbatim_token+global_search"}, {"md_atom_id": "md_dmEX_ex_a090", "md_file": "knowledge_base/domains/EX/examples.md", "md_atom_type": "TABLE_ROW", "md_parent_section": "§EX.3 [Example 3]", "md_verbatim": "| 2 | ABC | EX | ABC4001 | 2 | DRUG X | 10 | mg | TABLET | QD | ORAL | TREATMENT | 2011-01-21 | 2011-01-21 | 8 | 8 |", "score": 0.9, "match_basis": "verbatim_token+global_search"}, {"md_atom_id": "md_dmEX_ex_a091", "md_file": "knowledge_base/domains/EX/examples.md", "md_atom_type": "TABLE_ROW", "md_parent_section": "§EX.3 [Example 3]", "md_verbatim": "| 3 | ABC | EX | ABC4001 | 3 | DRUG X | 30 | mg | TABLET | QD | ORAL | TREATMENT | 2011-01-22 | 2011-01-22 | 9 | 9 |", "score": 0.9, "match_basis": "verbatim_token+global_search"}, {"md_atom_id": "md_dmEX_ex_a092", "md_file": "knowledge_base/domains/EX/examples.md", "md_atom_type": "TABLE_ROW", "md_parent_section": "§EX.3 [Example 3]", "md_verbatim": "| 4 | ABC | EX | ABC4001 | 4 | DRUG X | 20 | mg | TABLET | QD | ORAL | TREATMENT | 2011-01-23 | 2011-01-28 | 10 | 15 |", "score": 0.9, "match_basis": "verbatim_token+global_search"}, {"md_atom_id": "md_dmEC_ex_a027", "md_file": "knowledge_base/domains/EC/examples.md", "md_atom_type": "TABLE_ROW", "md_parent_section": "§EC.3 [Example 3]", "md_verbatim": "| 1 | ABC | EC | ABC4001 | 1 | BOTTLE A | Y | Y | 1 | TABLET | QD | TREATMENT | 2011-01-14 | 2011-01-28 | 1 | 15 |", "score": 0.7154, "match_basis": "verbatim_token+global_search"}], "candidate_count": 5, "zero_candidate": false}
{"pdf_atom_id": "ig34_p0113_a029", "pdf_atom_type": "TABLE_ROW", "pdf_source": "SDTMIG v3.4 (no header footer).pdf", "pdf_page": 113, "pdf_parent_section": "§6.1.3.3 [Exposure/Exposure as Collected Examples]", "pdf_verbatim": "2 | ABC | EX | ABC4001 | 2 | DRUG X | 10 | mg | TABLET | QD | ORAL | TREATMENT | 2011-01-21 | 2011-01-21 | 8 | 8", "figure_ref": null, "candidates": [{"md_atom_id": "md_dmEX_ex_a089", "md_file": "knowledge_base/domains/EX/examples.md", "md_atom_type": "TABLE_ROW", "md_parent_section": "§EX.3 [Example 3]", "md_verbatim": "| 1 | ABC | EX | ABC4001 | 1 | DRUG X | 20 | mg | TABLET | QD | ORAL | TREATMENT | 2011-01-14 | 2011-01-20 | 1 | 7 |", "score": 0.9, "match_basis": "verbatim_token+global_search"}, {"md_atom_id": "md_dmEX_ex_a090", "md_file": "knowledge_base/domains/EX/examples.md", "md_atom_type": "TABLE_ROW", "md_parent_section": "§EX.3 [Example 3]", "md_verbatim": "| 2 | ABC | EX | ABC4001 | 2 | DRUG X | 10 | mg | TABLET | QD | ORAL | TREATMENT | 2011-01-21 | 2011-01-21 | 8 | 8 |", "score": 0.9, "match_basis": "verbatim_token+global_search"}, {"md_atom_id": "md_dmEX_ex_a091", "md_file": "knowledge_base/domains/EX/examples.md", "md_atom_type": "TABLE_ROW", "md_parent_section": "§EX.3 [Example 3]", "md_verbatim": "| 3 | ABC | EX | ABC4001 | 3 | DRUG X | 30 | mg | TABLET | QD | ORAL | TREATMENT | 2011-01-22 | 2011-01-22 | 9 | 9 |", "score": 0.9, "match_basis": "verbatim_token+global_search"}, {"md_atom_id": "md_dmEX_ex_a092", "md_file": "knowledge_base/domains/EX/examples.md", "md_atom_type": "TABLE_ROW", "md_parent_section": "§EX.3 [Example 3]", "md_verbatim": "| 4 | ABC | EX | ABC4001 | 4 | DRUG X | 20 | mg | TABLET | QD | ORAL | TREATMENT | 2011-01-23 | 2011-01-28 | 10 | 15 |", "score": 0.9, "match_basis": "verbatim_token+global_search"}, {"md_atom_id": "md_dmEC_ex_a027", "md_file": "knowledge_base/domains/EC/examples.md", "md_atom_type": "TABLE_ROW", "md_parent_section": "§EC.3 [Example 3]", "md_verbatim": "| 1 | ABC | EC | ABC4001 | 1 | BOTTLE A | Y | Y | 1 | TABLET | QD | TREATMENT | 2011-01-14 | 2011-01-28 | 1 | 15 |", "score": 0.7154, "match_basis": "verbatim_token+global_search"}], "candidate_count": 5, "zero_candidate": false}
{"pdf_atom_id": "ig34_p0113_a030", "pdf_atom_type": "TABLE_ROW", "pdf_source": "SDTMIG v3.4 (no header footer).pdf", "pdf_page": 113, "pdf_parent_section": "§6.1.3.3 [Exposure/Exposure as Collected Examples]", "pdf_verbatim": "3 | ABC | EX | ABC4001 | 3 | DRUG X | 30 | mg | TABLET | QD | ORAL | TREATMENT | 2011-01-22 | 2011-01-22 | 9 | 9", "figure_ref": null, "candidates": [{"md_atom_id": "md_dmEX_ex_a089", "md_file": "knowledge_base/domains/EX/examples.md", "md_atom_type": "TABLE_ROW", "md_parent_section": "§EX.3 [Example 3]", "md_verbatim": "| 1 | ABC | EX | ABC4001 | 1 | DRUG X | 20 | mg | TABLET | QD | ORAL | TREATMENT | 2011-01-14 | 2011-01-20 | 1 | 7 |", "score": 0.9, "match_basis": "verbatim_token+global_search"}, {"md_atom_id": "md_dmEX_ex_a090", "md_file": "knowledge_base/domains/EX/examples.md", "md_atom_type": "TABLE_ROW", "md_parent_section": "§EX.3 [Example 3]", "md_verbatim": "| 2 | ABC | EX | ABC4001 | 2 | DRUG X | 10 | mg | TABLET | QD | ORAL | TREATMENT | 2011-01-21 | 2011-01-21 | 8 | 8 |", "score": 0.9, "match_basis": "verbatim_token+global_search"}, {"md_atom_id": "md_dmEX_ex_a091", "md_file": "knowledge_base/domains/EX/examples.md", "md_atom_type": "TABLE_ROW", "md_parent_section": "§EX.3 [Example 3]", "md_verbatim": "| 3 | ABC | EX | ABC4001 | 3 | DRUG X | 30 | mg | TABLET | QD | ORAL | TREATMENT | 2011-01-22 | 2011-01-22 | 9 | 9 |", "score": 0.9, "match_basis": "verbatim_token+global_search"}, {"md_atom_id": "md_dmEX_ex_a092", "md_file": "knowledge_base/domains/EX/examples.md", "md_atom_type": "TABLE_ROW", "md_parent_section": "§EX.3 [Example 3]", "md_verbatim": "| 4 | ABC | EX | ABC4001 | 4 | DRUG X | 20 | mg | TABLET | QD | ORAL | TREATMENT | 2011-01-23 | 2011-01-28 | 10 | 15 |", "score": 0.9, "match_basis": "verbatim_token+global_search"}, {"md_atom_id": "md_dmEC_ex_a027", "md_file": "knowledge_base/domains/EC/examples.md", "md_atom_type": "TABLE_ROW", "md_parent_section": "§EC.3 [Example 3]", "md_verbatim": "| 1 | ABC | EC | ABC4001 | 1 | BOTTLE A | Y | Y | 1 | TABLET | QD | TREATMENT | 2011-01-14 | 2011-01-28 | 1 | 15 |", "score": 0.7154, "match_basis": "verbatim_token+global_search"}], "candidate_count": 5, "zero_candidate": false}
{"pdf_atom_id": "ig34_p0113_a031", "pdf_atom_type": "TABLE_ROW", "pdf_source": "SDTMIG v3.4 (no header footer).pdf", "pdf_page": 113, "pdf_parent_section": "§6.1.3.3 [Exposure/Exposure as Collected Examples]", "pdf_verbatim": "4 | ABC | EX | ABC4001 | 4 | DRUG X | 20 | mg | TABLET | QD | ORAL | TREATMENT | 2011-01-23 | 2011-01-28 | 10 | 15", "figure_ref": null, "candidates": [{"md_atom_id": "md_dmEX_ex_a089", "md_file": "knowledge_base/domains/EX/examples.md", "md_atom_type": "TABLE_ROW", "md_parent_section": "§EX.3 [Example 3]", "md_verbatim": "| 1 | ABC | EX | ABC4001 | 1 | DRUG X | 20 | mg | TABLET | QD | ORAL | TREATMENT | 2011-01-14 | 2011-01-20 | 1 | 7 |", "score": 0.9, "match_basis": "verbatim_token+global_search"}, {"md_atom_id": "md_dmEX_ex_a090", "md_file": "knowledge_base/domains/EX/examples.md", "md_atom_type": "TABLE_ROW", "md_parent_section": "§EX.3 [Example 3]", "md_verbatim": "| 2 | ABC | EX | ABC4001 | 2 | DRUG X | 10 | mg | TABLET | QD | ORAL | TREATMENT | 2011-01-21 | 2011-01-21 | 8 | 8 |", "score": 0.9, "match_basis": "verbatim_token+global_search"}, {"md_atom_id": "md_dmEX_ex_a091", "md_file": "knowledge_base/domains/EX/examples.md", "md_atom_type": "TABLE_ROW", "md_parent_section": "§EX.3 [Example 3]", "md_verbatim": "| 3 | ABC | EX | ABC4001 | 3 | DRUG X | 30 | mg | TABLET | QD | ORAL | TREATMENT | 2011-01-22 | 2011-01-22 | 9 | 9 |", "score": 0.9, "match_basis": "verbatim_token+global_search"}, {"md_atom_id": "md_dmEX_ex_a092", "md_file": "knowledge_base/domains/EX/examples.md", "md_atom_type": "TABLE_ROW", "md_parent_section": "§EX.3 [Example 3]", "md_verbatim": "| 4 | ABC | EX | ABC4001 | 4 | DRUG X | 20 | mg | TABLET | QD | ORAL | TREATMENT | 2011-01-23 | 2011-01-28 | 10 | 15 |", "score": 0.9, "match_basis": "verbatim_token+global_search"}, {"md_atom_id": "md_dmEC_ex_a027", "md_file": "knowledge_base/domains/EC/examples.md", "md_atom_type": "TABLE_ROW", "md_parent_section": "§EC.3 [Example 3]", "md_verbatim": "| 1 | ABC | EC | ABC4001 | 1 | BOTTLE A | Y | Y | 1 | TABLET | QD | TREATMENT | 2011-01-14 | 2011-01-28 | 1 | 15 |", "score": 0.7154, "match_basis": "verbatim_token+global_search"}], "candidate_count": 5, "zero_candidate": false}
{"pdf_atom_id": "ig34_p0114_a001", "pdf_atom_type": "HEADING", "pdf_source": "SDTMIG v3.4 (no header footer).pdf", "pdf_page": 114, "pdf_parent_section": "§6.1.3.3 [Exposure/Exposure as Collected Examples]", "pdf_verbatim": "Example 4", "figure_ref": null, "candidates": [{"md_atom_id": "md_dmCM_ex_a002", "md_file": "knowledge_base/domains/CM/examples.md", "md_atom_type": "HEADING", "md_parent_section": "§CM.1 [Example 1]", "md_verbatim": "## Example 1", "score": 0.9, "match_basis": "verbatim_token+global_search"}, {"md_atom_id": "md_dmCM_ex_a022", "md_file": "knowledge_base/domains/CM/examples.md", "md_atom_type": "HEADING", "md_parent_section": "§CM.2 [Example 2]", "md_verbatim": "## Example 2", "score": 0.9, "match_basis": "verbatim_token+global_search"}, {"md_atom_id": "md_dmCM_ex_a029", "md_file": "knowledge_base/domains/CM/examples.md", "md_atom_type": "HEADING", "md_parent_section": "§CM.3 [Example 3]", "md_verbatim": "## Example 3", "score": 0.9, "match_basis": "verbatim_token+global_search"}, {"md_atom_id": "md_dmCM_ex_a047", "md_file": "knowledge_base/domains/CM/examples.md", "md_atom_type": "HEADING", "md_parent_section": "§CM.4 [Example 4]", "md_verbatim": "## Example 4", "score": 0.9, "match_basis": "verbatim_token+global_search"}, {"md_atom_id": "md_dmCM_ex_a060", "md_file": "knowledge_base/domains/CM/examples.md", "md_atom_type": "HEADING", "md_parent_section": "§CM.5 [Example 5]", "md_verbatim": "## Example 5", "score": 0.9, "match_basis": "verbatim_token+global_search"}, {"md_atom_id": "md_ch08_a292", "md_file": "knowledge_base/chapters/ch08_relationships.md", "md_atom_type": "HEADING", "md_parent_section": "§8.7 [Related Subjects (RELSUB)]", "md_verbatim": "### Example", "score": 0.9, "match_basis": "verbatim_token+global_search"}, {"md_atom_id": "md_ch08_a331", "md_file": "knowledge_base/chapters/ch08_relationships.md", "md_atom_type": "HEADING", "md_parent_section": "§8.8 [Related Specimens (RELSPEC)]", "md_verbatim": "### Example", "score": 0.9, "match_basis": "verbatim_token+global_search"}, {"md_atom_id": "md_dmAE_ex_a002", "md_file": "knowledge_base/domains/AE/examples.md", "md_atom_type": "HEADING", "md_parent_section": "§AE.1 [Example 1]", "md_verbatim": "## Example 1", "score": 0.9, "match_basis": "verbatim_token+global_search"}, {"md_atom_id": "md_dmAE_ex_a020", "md_file": "knowledge_base/domains/AE/examples.md", "md_atom_type": "HEADING", "md_parent_section": "§AE.2 [Example 2]", "md_verbatim": "## Example 2", "score": 0.9, "match_basis": "verbatim_token+global_search"}, {"md_atom_id": "md_dmAE_ex_a035", "md_file": "knowledge_base/domains/AE/examples.md", "md_atom_type": "HEADING", "md_parent_section": "§AE.3 [Example 3]", "md_verbatim": "## Example 3", "score": 0.9, "match_basis": "verbatim_token+global_search"}], "candidate_count": 10, "zero_candidate": false}
{"pdf_atom_id": "ig34_p0114_a002", "pdf_atom_type": "SENTENCE", "pdf_source": "SDTMIG v3.4 (no header footer).pdf", "pdf_page": 114, "pdf_parent_section": "§6.1.3.3 [Exposure/Exposure as Collected Examples]", "pdf_verbatim": "The study in this example was an open-label study examining the tolerability of different doses of drug A. The study drug was taken orally, daily for 3 months. Dose adjustments were allowed as needed in response to tolerability or efficacy issues.", "figure_ref": null, "candidates": [{"md_atom_id": "md_dmEX_ex_a094", "md_file": "knowledge_base/domains/EX/examples.md", "md_atom_type": "SENTENCE", "md_parent_section": "§EX.4 [Example 4]", "md_verbatim": "The study in this example was an open-label study examining the tolerability of different doses of drug A. The study drug was taken orally, daily for 3 months. Dose adjustments were allowed as needed in response to tolerability or efficacy issues.", "score": 0.9, "match_basis": "verbatim_token+global_search"}, {"md_atom_id": "md_dmEC_ex_a045", "md_file": "knowledge_base/domains/EC/examples.md", "md_atom_type": "SENTENCE", "md_parent_section": "§EC.6 [Example 6]", "md_verbatim": "The study in this example was a single-crossover study comparing once-daily oral administration of drug A 20 mg capsules with drug B 30 mg coated tablets. The study drug was taken for 3 consecutive mornings, 30 minutes prior to a standardized breakfast. There was a 6-day washout period between treatments.", "score": 0.4079, "match_basis": "verbatim_token+global_search"}, {"md_atom_id": "md_dmEX_ex_a146", "md_file": "knowledge_base/domains/EX/examples.md", "md_atom_type": "SENTENCE", "md_parent_section": "§EX.6 [Example 6]", "md_verbatim": "The study in this example was a single-crossover study comparing once-daily oral administration of drug A 20 mg capsules with drug B 30 mg coated tablets. The study drug was taken for 3 consecutive mornings, 30 minutes prior to a standardized breakfast. There was a 6-day washout period between treatments.", "score": 0.4079, "match_basis": "verbatim_token+global_search"}, {"md_atom_id": "md_dmEC_ex_a023", "md_file": "knowledge_base/domains/EC/examples.md", "md_atom_type": "SENTENCE", "md_parent_section": "§EC.3 [Example 3]", "md_verbatim": "The study in this example was a double-blind study comparing 10, 20, and 30 mg of Drug X once daily vs. placebo. Study treatment was given as 1 tablet each from bottles A, B, and C taken together once daily.", "score": 0.4051, "match_basis": "verbatim_token+global_search"}, {"md_atom_id": "md_dmDS_ex_a044", "md_file": "knowledge_base/domains/DS/examples.md", "md_atom_type": "SENTENCE", "md_parent_section": "§DS.3 [Example 3]", "md_verbatim": "In this study, disposition of study participation was collected for the treatment and follow-up epochs. For these records, the value in EPOCH was taken from the CRF. Data on screen failures were not submitted for this study, so all submitted subjects completed screening; the sponsor chose not to collect data on disposition of the screening epoch.", "score": 0.403, "match_basis": "verbatim_token+global_search"}], "candidate_count": 5, "zero_candidate": false}
{"pdf_atom_id": "ig34_p0114_a003", "pdf_atom_type": "SENTENCE", "pdf_source": "SDTMIG v3.4 (no header footer).pdf", "pdf_page": 114, "pdf_parent_section": "§6.1.3.3 [Exposure/Exposure as Collected Examples]", "pdf_verbatim": "The EX dataset shows administrations collected in the protocol-specified unit, mg. No EC dataset was needed because the open-label administrations were collected in the protocol-specified unit; EC would be an exact duplicate of the entire EX domain.", "figure_ref": null, "candidates": [{"md_atom_id": "md_dmEX_ex_a095", "md_file": "knowledge_base/domains/EX/examples.md", "md_atom_type": "SENTENCE", "md_parent_section": "§EX.4 [Example 4]", "md_verbatim": "The EX dataset shows administrations collected in the protocol-specified unit, mg. No EC dataset was needed because the open-label administrations were collected in the protocol-specified unit; EC would be an exact duplicate of the entire EX domain.", "score": 0.9, "match_basis": "verbatim_token+global_search"}, {"md_atom_id": "md_dmEC_ex_a046", "md_file": "knowledge_base/domains/EC/examples.md", "md_atom_type": "SENTENCE", "md_parent_section": "§EC.6 [Example 6]", "md_verbatim": "The EC dataset shows administrations as collected.", "score": 0.5148, "match_basis": "verbatim_token+global_search"}, {"md_atom_id": "md_dmEC_ex_a073", "md_file": "knowledge_base/domains/EC/examples.md", "md_atom_type": "SENTENCE", "md_parent_section": "§EC.8 [Example 8]", "md_verbatim": "The EC dataset shows administrations as collected.", "score": 0.5148, "match_basis": "verbatim_token+global_search"}, {"md_atom_id": "md_dmEX_ex_a160", "md_file": "knowledge_base/domains/EX/examples.md", "md_atom_type": "SENTENCE", "md_parent_section": "§EX.6 [Example 6]", "md_verbatim": "The EC dataset shows administrations as collected.", "score": 0.5148, "match_basis": "verbatim_token+global_search"}, {"md_atom_id": "md_dmEX_ex_a260", "md_file": "knowledge_base/domains/EX/examples.md", "md_atom_type": "SENTENCE", "md_parent_section": "§EX.8 [Example 8]", "md_verbatim": "The EC dataset shows administrations as collected.", "score": 0.5148, "match_basis": "verbatim_token+global_search"}], "candidate_count": 5, "zero_candidate": false}
{"pdf_atom_id": "ig34_p0114_a004", "pdf_atom_type": "CODE_LITERAL", "pdf_source": "SDTMIG v3.4 (no header footer).pdf", "pdf_page": 114, "pdf_parent_section": "§6.1.3.3 [Exposure/Exposure as Collected Examples]", "pdf_verbatim": "ex.xpt", "figure_ref": null, "candidates": [{"md_atom_id": "md_ch04_a207", "md_file": "knowledge_base/chapters/ch04_general_assumptions.md", "md_atom_type": "CODE_LITERAL", "md_parent_section": "§4.2.3 [Use of \"Subject\" and USUBJID]", "md_verbatim": "dm.xpt:", "score": 0.69, "match_basis": "verbatim_token+global_search"}, {"md_atom_id": "md_ch04_a210", "md_file": "knowledge_base/chapters/ch04_general_assumptions.md", "md_atom_type": "CODE_LITERAL", "md_parent_section": "§4.2.3 [Use of \"Subject\" and USUBJID]", "md_verbatim": "dm.xpt:", "score": 0.69, "match_basis": "verbatim_token+global_search"}, {"md_atom_id": "md_dmCM_ex_a010", "md_file": "knowledge_base/domains/CM/examples.md", "md_atom_type": "NOTE", "md_parent_section": "§CM.1 [Example 1]", "md_verbatim": "**cm.xpt**", "score": 0.69, "match_basis": "verbatim_token+global_search"}, {"md_atom_id": "md_dmCM_ex_a025", "md_file": "knowledge_base/domains/CM/examples.md", "md_atom_type": "NOTE", "md_parent_section": "§CM.2 [Example 2]", "md_verbatim": "**cm.xpt**", "score": 0.69, "match_basis": "verbatim_token+global_search"}, {"md_atom_id": "md_dmCM_ex_a042", "md_file": "knowledge_base/domains/CM/examples.md", "md_atom_type": "NOTE", "md_parent_section": "§CM.3 [Example 3]", "md_verbatim": "**cm.xpt**", "score": 0.69, "match_basis": "verbatim_token+global_search"}, {"md_atom_id": "md_dmCM_ex_a052", "md_file": "knowledge_base/domains/CM/examples.md", "md_atom_type": "NOTE", "md_parent_section": "§CM.4 [Example 4]", "md_verbatim": "**cm.xpt**", "score": 0.69, "match_basis": "verbatim_token+global_search"}, {"md_atom_id": "md_dmCM_ex_a070", "md_file": "knowledge_base/domains/CM/examples.md", "md_atom_type": "NOTE", "md_parent_section": "§CM.5 [Example 5]", "md_verbatim": "**cm.xpt**", "score": 0.69, "match_basis": "verbatim_token+global_search"}, {"md_atom_id": "md_ch04_a368", "md_file": "knowledge_base/chapters/ch04_general_assumptions.md", "md_atom_type": "CODE_LITERAL", "md_parent_section": "§4.2.8.3 [Multiple Values for a Non-result Qualifier Variable]", "md_verbatim": "ae.xpt:", "score": 0.69, "match_basis": "verbatim_token+global_search"}, {"md_atom_id": "md_ch04_a378", "md_file": "knowledge_base/chapters/ch04_general_assumptions.md", "md_atom_type": "CODE_LITERAL", "md_parent_section": "§4.2.8.3 [Multiple Values for a Non-result Qualifier Variable]", "md_verbatim": "ae.xpt:", "score": 0.69, "match_basis": "verbatim_token+global_search"}, {"md_atom_id": "md_ch04_a391", "md_file": "knowledge_base/chapters/ch04_general_assumptions.md", "md_atom_type": "CODE_LITERAL", "md_parent_section": "§4.2.8.3 [Multiple Values for a Non-result Qualifier Variable]", "md_verbatim": "ae.xpt:", "score": 0.69, "match_basis": "verbatim_token+global_search"}], "candidate_count": 10, "zero_candidate": false}
{"pdf_atom_id": "ig34_p0114_a005", "pdf_atom_type": "TABLE_HEADER", "pdf_source": "SDTMIG v3.4 (no header footer).pdf", "pdf_page": 114, "pdf_parent_section": "§6.1.3.3 [Exposure/Exposure as Collected Examples]", "pdf_verbatim": "Row | STUDYID | DOMAIN | USUBJID | EXSEQ | EXTRT | EXDOSE | EXDOSU | EXDOSFRM | EXDOSFRQ | EXROUTE | EXADJ | EPOCH | EXSTDTC | EXENDTC", "figure_ref": null, "candidates": [{"md_atom_id": "md_dmEX_ex_a097", "md_file": "knowledge_base/domains/EX/examples.md", "md_atom_type": "TABLE_HEADER", "md_parent_section": "§EX.4 [Example 4]", "md_verbatim": "| Row | STUDYID | DOMAIN | USUBJID | EXSEQ | EXTRT | EXDOSE | EXDOSU | EXDOSFRM | EXDOSFRQ | EXROUTE | EXADJ | EPOCH | EXSTDTC | EXENDTC |\n|-----|---------|--------|---------|-------|-------|--------|--------|----------|----------|---------|-------|-------|---------|---------|", "score": 0.9, "match_basis": "verbatim_token+global_search"}, {"md_atom_id": "md_dmEX_ex_a088", "md_file": "knowledge_base/domains/EX/examples.md", "md_atom_type": "TABLE_HEADER", "md_parent_section": "§EX.3 [Example 3]", "md_verbatim": "| Row | STUDYID | DOMAIN | USUBJID | EXSEQ | EXTRT | EXDOSE | EXDOSU | EXDOSFRM | EXDOSFRQ | EXROUTE | EPOCH | EXSTDTC | EXENDTC | EXSTDY | EXENDY |\n|-----|---------|--------|---------|-------|-------|--------|--------|----------|----------|---------|-------|---------|---------|--------|--------|", "score": 0.8412, "match_basis": "verbatim_token+global_search"}, {"md_atom_id": "md_dmEX_ex_a274", "md_file": "knowledge_base/domains/EX/examples.md", "md_atom_type": "TABLE_HEADER", "md_parent_section": "§EX.8 [Example 8]", "md_verbatim": "| Row | STUDYID | DOMAIN | USUBJID | EXSEQ | EXTRT | EXDOSE | EXDOSU | EXDOSFRM | EXDOSFRQ | EXROUTE | EPOCH | EXSTDTC | EXENDTC | EXSTDY | EXENDY |\n|-----|---------|--------|---------|-------|-------|--------|--------|----------|----------|---------|-------|---------|---------|--------|--------|", "score": 0.8412, "match_basis": "verbatim_token+global_search"}, {"md_atom_id": "md_dmFA_ex_a010", "md_file": "knowledge_base/domains/FA/examples.md", "md_atom_type": "TABLE_HEADER", "md_parent_section": "§FA.1 [Example 1]", "md_verbatim": "| Row | STUDYID | DOMAIN | USUBJID | EXSEQ | EXSPID | EXTRT | EXDOSE | EXDOSU | EXDOSFRM | EXDOSFRQ | EXROUTE | EPOCH | EXSTDTC | EXENDTC |\n|-----|---------|--------|---------|-------|--------|-------|--------|--------|----------|----------|---------|-------|---------|---------|", "score": 0.8308, "match_basis": "verbatim_token+global_search"}, {"md_atom_id": "md_dmEX_ex_a025", "md_file": "knowledge_base/domains/EX/examples.md", "md_atom_type": "TABLE_HEADER", "md_parent_section": "§EX.1 [Example 1]", "md_verbatim": "| Row | STUDYID | DOMAIN | USUBJID | EXSEQ | EXLNKID | EXTRT | EXDOSE | EXDOSU | EXDOSFRM | EXDOSFRQ | EXROUTE | EPOCH | EXSTDTC | EXENDTC | EXSTDY | EXENDY |\n|-----|---------|--------|---------|-------|---------|-------|--------|--------|----------|----------|---------|-------|---------|---------|--------|--------|", "score": 0.7929, "match_basis": "verbatim_token+global_search"}], "candidate_count": 5, "zero_candidate": false}
{"pdf_atom_id": "ig34_p0114_a006", "pdf_atom_type": "TABLE_ROW", "pdf_source": "SDTMIG v3.4 (no header footer).pdf", "pdf_page": 114, "pdf_parent_section": "§6.1.3.3 [Exposure/Exposure as Collected Examples]", "pdf_verbatim": "1 | 37841 | EX | 37841001 | 1 | DRUG A | 20 | mg | TABLET | QD | ORAL | | TREATMENT | 2002-07-01 | 2002-10-01", "figure_ref": null, "candidates": [{"md_atom_id": "md_dmEX_ex_a098", "md_file": "knowledge_base/domains/EX/examples.md", "md_atom_type": "TABLE_ROW", "md_parent_section": "§EX.4 [Example 4]", "md_verbatim": "| 1 | 37841 | EX | 37841001 | 1 | DRUG A | 20 | mg | TABLET | QD | ORAL | | TREATMENT | 2002-07-01 | 2002-10-01 |", "score": 0.9, "match_basis": "verbatim_token+global_search"}, {"md_atom_id": "md_dmEX_ex_a099", "md_file": "knowledge_base/domains/EX/examples.md", "md_atom_type": "TABLE_ROW", "md_parent_section": "§EX.4 [Example 4]", "md_verbatim": "| 2 | 37841 | EX | 37841002 | 1 | DRUG A | 20 | mg | TABLET | QD | ORAL | | TREATMENT | 2002-04-02 | 2002-04-21 |", "score": 0.8739, "match_basis": "verbatim_token+global_search"}, {"md_atom_id": "md_dmEX_ex_a101", "md_file": "knowledge_base/domains/EX/examples.md", "md_atom_type": "TABLE_ROW", "md_parent_section": "§EX.4 [Example 4]", "md_verbatim": "| 4 | 37841 | EX | 37841003 | 1 | DRUG A | 20 | mg | TABLET | QD | ORAL | | TREATMENT | 2002-05-09 | 2002-06-01 |", "score": 0.85, "match_basis": "verbatim_token+global_search"}, {"md_atom_id": "md_dmEX_ex_a100", "md_file": "knowledge_base/domains/EX/examples.md", "md_atom_type": "TABLE_ROW", "md_parent_section": "§EX.4 [Example 4]", "md_verbatim": "| 3 | 37841 | EX | 37841002 | 2 | DRUG A | 15 | mg | TABLET | QD | ORAL | Reduced due to toxicity | TREATMENT | 2002-04-22 | 2002-07-01 |", "score": 0.6771, "match_basis": "verbatim_token+global_search"}, {"md_atom_id": "md_dmEX_ex_a275", "md_file": "knowledge_base/domains/EX/examples.md", "md_atom_type": "TABLE_ROW", "md_parent_section": "§EX.8 [Example 8]", "md_verbatim": "| 1 | ABC | EX | ABC7001 | 1 | DRUG X | 100 | mg | TABLET | QD | ORAL | TREATMENT | 2012-01-13 | 2012-01-14 | 1 | 2 |", "score": 0.6517, "match_basis": "verbatim_token+global_search"}], "candidate_count": 5, "zero_candidate": false}
{"pdf_atom_id": "ig34_p0114_a007", "pdf_atom_type": "TABLE_ROW", "pdf_source": "SDTMIG v3.4 (no header footer).pdf", "pdf_page": 114, "pdf_parent_section": "§6.1.3.3 [Exposure/Exposure as Collected Examples]", "pdf_verbatim": "2 | 37841 | EX | 37841002 | 1 | DRUG A | 20 | mg | TABLET | QD | ORAL | | TREATMENT | 2002-04-02 | 2002-04-21", "figure_ref": null, "candidates": [{"md_atom_id": "md_dmEX_ex_a099", "md_file": "knowledge_base/domains/EX/examples.md", "md_atom_type": "TABLE_ROW", "md_parent_section": "§EX.4 [Example 4]", "md_verbatim": "| 2 | 37841 | EX | 37841002 | 1 | DRUG A | 20 | mg | TABLET | QD | ORAL | | TREATMENT | 2002-04-02 | 2002-04-21 |", "score": 0.9, "match_basis": "verbatim_token+global_search"}, {"md_atom_id": "md_dmEX_ex_a098", "md_file": "knowledge_base/domains/EX/examples.md", "md_atom_type": "TABLE_ROW", "md_parent_section": "§EX.4 [Example 4]", "md_verbatim": "| 1 | 37841 | EX | 37841001 | 1 | DRUG A | 20 | mg | TABLET | QD | ORAL | | TREATMENT | 2002-07-01 | 2002-10-01 |", "score": 0.8739, "match_basis": "verbatim_token+global_search"}, {"md_atom_id": "md_dmEX_ex_a101", "md_file": "knowledge_base/domains/EX/examples.md", "md_atom_type": "TABLE_ROW", "md_parent_section": "§EX.4 [Example 4]", "md_verbatim": "| 4 | 37841 | EX | 37841003 | 1 | DRUG A | 20 | mg | TABLET | QD | ORAL | | TREATMENT | 2002-05-09 | 2002-06-01 |", "score": 0.8739, "match_basis": "verbatim_token+global_search"}, {"md_atom_id": "md_dmEX_ex_a100", "md_file": "knowledge_base/domains/EX/examples.md", "md_atom_type": "TABLE_ROW", "md_parent_section": "§EX.4 [Example 4]", "md_verbatim": "| 3 | 37841 | EX | 37841002 | 2 | DRUG A | 15 | mg | TABLET | QD | ORAL | Reduced due to toxicity | TREATMENT | 2002-04-22 | 2002-07-01 |", "score": 0.6882, "match_basis": "verbatim_token+global_search"}, {"md_atom_id": "md_dmEX_ex_a275", "md_file": "knowledge_base/domains/EX/examples.md", "md_atom_type": "TABLE_ROW", "md_parent_section": "§EX.8 [Example 8]", "md_verbatim": "| 1 | ABC | EX | ABC7001 | 1 | DRUG X | 100 | mg | TABLET | QD | ORAL | TREATMENT | 2012-01-13 | 2012-01-14 | 1 | 2 |", "score": 0.631, "match_basis": "verbatim_token+global_search"}], "candidate_count": 5, "zero_candidate": false}
{"pdf_atom_id": "ig34_p0114_a008", "pdf_atom_type": "TABLE_ROW", "pdf_source": "SDTMIG v3.4 (no header footer).pdf", "pdf_page": 114, "pdf_parent_section": "§6.1.3.3 [Exposure/Exposure as Collected Examples]", "pdf_verbatim": "3 | 37841 | EX | 37841002 | 2 | DRUG A | 15 | mg | TABLET | QD | ORAL | Reduced due to toxicity | TREATMENT | 2002-04-22 | 2002-07-01", "figure_ref": null, "candidates": [{"md_atom_id": "md_dmEX_ex_a100", "md_file": "knowledge_base/domains/EX/examples.md", "md_atom_type": "TABLE_ROW", "md_parent_section": "§EX.4 [Example 4]", "md_verbatim": "| 3 | 37841 | EX | 37841002 | 2 | DRUG A | 15 | mg | TABLET | QD | ORAL | Reduced due to toxicity | TREATMENT | 2002-04-22 | 2002-07-01 |", "score": 0.9, "match_basis": "verbatim_token+global_search"}, {"md_atom_id": "md_dmEX_ex_a099", "md_file": "knowledge_base/domains/EX/examples.md", "md_atom_type": "TABLE_ROW", "md_parent_section": "§EX.4 [Example 4]", "md_verbatim": "| 2 | 37841 | EX | 37841002 | 1 | DRUG A | 20 | mg | TABLET | QD | ORAL | | TREATMENT | 2002-04-02 | 2002-04-21 |", "score": 0.6882, "match_basis": "verbatim_token+global_search"}, {"md_atom_id": "md_dmEX_ex_a098", "md_file": "knowledge_base/domains/EX/examples.md", "md_atom_type": "TABLE_ROW", "md_parent_section": "§EX.4 [Example 4]", "md_verbatim": "| 1 | 37841 | EX | 37841001 | 1 | DRUG A | 20 | mg | TABLET | QD | ORAL | | TREATMENT | 2002-07-01 | 2002-10-01 |", "score": 0.6771, "match_basis": "verbatim_token+global_search"}, {"md_atom_id": "md_dmEX_ex_a101", "md_file": "knowledge_base/domains/EX/examples.md", "md_atom_type": "TABLE_ROW", "md_parent_section": "§EX.4 [Example 4]", "md_verbatim": "| 4 | 37841 | EX | 37841003 | 1 | DRUG A | 20 | mg | TABLET | QD | ORAL | | TREATMENT | 2002-05-09 | 2002-06-01 |", "score": 0.6771, "match_basis": "verbatim_token+global_search"}, {"md_atom_id": "md_dmEX_ex_a102", "md_file": "knowledge_base/domains/EX/examples.md", "md_atom_type": "TABLE_ROW", "md_parent_section": "§EX.4 [Example 4]", "md_verbatim": "| 5 | 37841 | EX | 37841003 | 2 | DRUG A | 25 | mg | TABLET | QD | ORAL | Increased due to suboptimal efficacy | TREATMENT | 2002-06-02 | 2002-07-01 |", "score": 0.5509, "match_basis": "verbatim_token+global_search"}], "candidate_count": 5, "zero_candidate": false}
{"pdf_atom_id": "ig34_p0114_a009", "pdf_atom_type": "TABLE_ROW", "pdf_source": "SDTMIG v3.4 (no header footer).pdf", "pdf_page": 114, "pdf_parent_section": "§6.1.3.3 [Exposure/Exposure as Collected Examples]", "pdf_verbatim": "4 | 37841 | EX | 37841003 | 1 | DRUG A | 20 | mg | TABLET | QD | ORAL | | TREATMENT | 2002-05-09 | 2002-06-01", "figure_ref": null, "candidates": [{"md_atom_id": "md_dmEX_ex_a101", "md_file": "knowledge_base/domains/EX/examples.md", "md_atom_type": "TABLE_ROW", "md_parent_section": "§EX.4 [Example 4]", "md_verbatim": "| 4 | 37841 | EX | 37841003 | 1 | DRUG A | 20 | mg | TABLET | QD | ORAL | | TREATMENT | 2002-05-09 | 2002-06-01 |", "score": 0.9, "match_basis": "verbatim_token+global_search"}, {"md_atom_id": "md_dmEX_ex_a099", "md_file": "knowledge_base/domains/EX/examples.md", "md_atom_type": "TABLE_ROW", "md_parent_section": "§EX.4 [Example 4]", "md_verbatim": "| 2 | 37841 | EX | 37841002 | 1 | DRUG A | 20 | mg | TABLET | QD | ORAL | | TREATMENT | 2002-04-02 | 2002-04-21 |", "score": 0.8739, "match_basis": "verbatim_token+global_search"}, {"md_atom_id": "md_dmEX_ex_a098", "md_file": "knowledge_base/domains/EX/examples.md", "md_atom_type": "TABLE_ROW", "md_parent_section": "§EX.4 [Example 4]", "md_verbatim": "| 1 | 37841 | EX | 37841001 | 1 | DRUG A | 20 | mg | TABLET | QD | ORAL | | TREATMENT | 2002-07-01 | 2002-10-01 |", "score": 0.85, "match_basis": "verbatim_token+global_search"}, {"md_atom_id": "md_dmEX_ex_a100", "md_file": "knowledge_base/domains/EX/examples.md", "md_atom_type": "TABLE_ROW", "md_parent_section": "§EX.4 [Example 4]", "md_verbatim": "| 3 | 37841 | EX | 37841002 | 2 | DRUG A | 15 | mg | TABLET | QD | ORAL | Reduced due to toxicity | TREATMENT | 2002-04-22 | 2002-07-01 |", "score": 0.6771, "match_basis": "verbatim_token+global_search"}, {"md_atom_id": "md_dmEX_ex_a275", "md_file": "knowledge_base/domains/EX/examples.md", "md_atom_type": "TABLE_ROW", "md_parent_section": "§EX.8 [Example 8]", "md_verbatim": "| 1 | ABC | EX | ABC7001 | 1 | DRUG X | 100 | mg | TABLET | QD | ORAL | TREATMENT | 2012-01-13 | 2012-01-14 | 1 | 2 |", "score": 0.62, "match_basis": "verbatim_token+global_search"}], "candidate_count": 5, "zero_candidate": false}
{"pdf_atom_id": "ig34_p0114_a010", "pdf_atom_type": "TABLE_ROW", "pdf_source": "SDTMIG v3.4 (no header footer).pdf", "pdf_page": 114, "pdf_parent_section": "§6.1.3.3 [Exposure/Exposure as Collected Examples]", "pdf_verbatim": "5 | 37841 | EX | 37841003 | 2 | DRUG A | 25 | mg | TABLET | QD | ORAL | Increased due to suboptimal efficacy | TREATMENT | 2002-06-02 | 2002-07-01", "figure_ref": null, "candidates": [{"md_atom_id": "md_dmEX_ex_a102", "md_file": "knowledge_base/domains/EX/examples.md", "md_atom_type": "TABLE_ROW", "md_parent_section": "§EX.4 [Example 4]", "md_verbatim": "| 5 | 37841 | EX | 37841003 | 2 | DRUG A | 25 | mg | TABLET | QD | ORAL | Increased due to suboptimal efficacy | TREATMENT | 2002-06-02 | 2002-07-01 |", "score": 0.9, "match_basis": "verbatim_token+global_search"}, {"md_atom_id": "md_dmEX_ex_a103", "md_file": "knowledge_base/domains/EX/examples.md", "md_atom_type": "TABLE_ROW", "md_parent_section": "§EX.4 [Example 4]", "md_verbatim": "| 6 | 37841 | EX | 37841003 | 3 | DRUG A | 30 | mg | TABLET | QD | ORAL | Increased due to suboptimal efficacy | TREATMENT | 2002-07-02 | 2002-08-01 |", "score": 0.9, "match_basis": "verbatim_token+global_search"}, {"md_atom_id": "md_dmEX_ex_a101", "md_file": "knowledge_base/domains/EX/examples.md", "md_atom_type": "TABLE_ROW", "md_parent_section": "§EX.4 [Example 4]", "md_verbatim": "| 4 | 37841 | EX | 37841003 | 1 | DRUG A | 20 | mg | TABLET | QD | ORAL | | TREATMENT | 2002-05-09 | 2002-06-01 |", "score": 0.6136, "match_basis": "verbatim_token+global_search"}, {"md_atom_id": "md_dmEX_ex_a099", "md_file": "knowledge_base/domains/EX/examples.md", "md_atom_type": "TABLE_ROW", "md_parent_section": "§EX.4 [Example 4]", "md_verbatim": "| 2 | 37841 | EX | 37841002 | 1 | DRUG A | 20 | mg | TABLET | QD | ORAL | | TREATMENT | 2002-04-02 | 2002-04-21 |", "score": 0.6, "match_basis": "verbatim_token+global_search"}, {"md_atom_id": "md_dmEX_ex_a098", "md_file": "knowledge_base/domains/EX/examples.md", "md_atom_type": "TABLE_ROW", "md_parent_section": "§EX.4 [Example 4]", "md_verbatim": "| 1 | 37841 | EX | 37841001 | 1 | DRUG A | 20 | mg | TABLET | QD | ORAL | | TREATMENT | 2002-07-01 | 2002-10-01 |", "score": 0.5933, "match_basis": "verbatim_token+global_search"}], "candidate_count": 5, "zero_candidate": false}
{"pdf_atom_id": "ig34_p0114_a011", "pdf_atom_type": "TABLE_ROW", "pdf_source": "SDTMIG v3.4 (no header footer).pdf", "pdf_page": 114, "pdf_parent_section": "§6.1.3.3 [Exposure/Exposure as Collected Examples]", "pdf_verbatim": "6 | 37841 | EX | 37841003 | 3 | DRUG A | 30 | mg | TABLET | QD | ORAL | Increased due to suboptimal efficacy | TREATMENT | 2002-07-02 | 2002-08-01", "figure_ref": null, "candidates": [{"md_atom_id": "md_dmEX_ex_a102", "md_file": "knowledge_base/domains/EX/examples.md", "md_atom_type": "TABLE_ROW", "md_parent_section": "§EX.4 [Example 4]", "md_verbatim": "| 5 | 37841 | EX | 37841003 | 2 | DRUG A | 25 | mg | TABLET | QD | ORAL | Increased due to suboptimal efficacy | TREATMENT | 2002-06-02 | 2002-07-01 |", "score": 0.9, "match_basis": "verbatim_token+global_search"}, {"md_atom_id": "md_dmEX_ex_a103", "md_file": "knowledge_base/domains/EX/examples.md", "md_atom_type": "TABLE_ROW", "md_parent_section": "§EX.4 [Example 4]", "md_verbatim": "| 6 | 37841 | EX | 37841003 | 3 | DRUG A | 30 | mg | TABLET | QD | ORAL | Increased due to suboptimal efficacy | TREATMENT | 2002-07-02 | 2002-08-01 |", "score": 0.9, "match_basis": "verbatim_token+global_search"}, {"md_atom_id": "md_dmEX_ex_a101", "md_file": "knowledge_base/domains/EX/examples.md", "md_atom_type": "TABLE_ROW", "md_parent_section": "§EX.4 [Example 4]", "md_verbatim": "| 4 | 37841 | EX | 37841003 | 1 | DRUG A | 20 | mg | TABLET | QD | ORAL | | TREATMENT | 2002-05-09 | 2002-06-01 |", "score": 0.6136, "match_basis": "verbatim_token+global_search"}, {"md_atom_id": "md_dmEX_ex_a099", "md_file": "knowledge_base/domains/EX/examples.md", "md_atom_type": "TABLE_ROW", "md_parent_section": "§EX.4 [Example 4]", "md_verbatim": "| 2 | 37841 | EX | 37841002 | 1 | DRUG A | 20 | mg | TABLET | QD | ORAL | | TREATMENT | 2002-04-02 | 2002-04-21 |", "score": 0.6, "match_basis": "verbatim_token+global_search"}, {"md_atom_id": "md_dmEX_ex_a098", "md_file": "knowledge_base/domains/EX/examples.md", "md_atom_type": "TABLE_ROW", "md_parent_section": "§EX.4 [Example 4]", "md_verbatim": "| 1 | 37841 | EX | 37841001 | 1 | DRUG A | 20 | mg | TABLET | QD | ORAL | | TREATMENT | 2002-07-01 | 2002-10-01 |", "score": 0.5933, "match_basis": "verbatim_token+global_search"}], "candidate_count": 5, "zero_candidate": false}
{"pdf_atom_id": "ig34_p0114_a012", "pdf_atom_type": "HEADING", "pdf_source": "SDTMIG v3.4 (no header footer).pdf", "pdf_page": 114, "pdf_parent_section": "§6.1.3.3 [Exposure/Exposure as Collected Examples]", "pdf_verbatim": "Example 5", "figure_ref": null, "candidates": [{"md_atom_id": "md_dmCM_ex_a002", "md_file": "knowledge_base/domains/CM/examples.md", "md_atom_type": "HEADING", "md_parent_section": "§CM.1 [Example 1]", "md_verbatim": "## Example 1", "score": 0.9, "match_basis": "verbatim_token+global_search"}, {"md_atom_id": "md_dmCM_ex_a022", "md_file": "knowledge_base/domains/CM/examples.md", "md_atom_type": "HEADING", "md_parent_section": "§CM.2 [Example 2]", "md_verbatim": "## Example 2", "score": 0.9, "match_basis": "verbatim_token+global_search"}, {"md_atom_id": "md_dmCM_ex_a029", "md_file": "knowledge_base/domains/CM/examples.md", "md_atom_type": "HEADING", "md_parent_section": "§CM.3 [Example 3]", "md_verbatim": "## Example 3", "score": 0.9, "match_basis": "verbatim_token+global_search"}, {"md_atom_id": "md_dmCM_ex_a047", "md_file": "knowledge_base/domains/CM/examples.md", "md_atom_type": "HEADING", "md_parent_section": "§CM.4 [Example 4]", "md_verbatim": "## Example 4", "score": 0.9, "match_basis": "verbatim_token+global_search"}, {"md_atom_id": "md_dmCM_ex_a060", "md_file": "knowledge_base/domains/CM/examples.md", "md_atom_type": "HEADING", "md_parent_section": "§CM.5 [Example 5]", "md_verbatim": "## Example 5", "score": 0.9, "match_basis": "verbatim_token+global_search"}, {"md_atom_id": "md_ch08_a292", "md_file": "knowledge_base/chapters/ch08_relationships.md", "md_atom_type": "HEADING", "md_parent_section": "§8.7 [Related Subjects (RELSUB)]", "md_verbatim": "### Example", "score": 0.9, "match_basis": "verbatim_token+global_search"}, {"md_atom_id": "md_ch08_a331", "md_file": "knowledge_base/chapters/ch08_relationships.md", "md_atom_type": "HEADING", "md_parent_section": "§8.8 [Related Specimens (RELSPEC)]", "md_verbatim": "### Example", "score": 0.9, "match_basis": "verbatim_token+global_search"}, {"md_atom_id": "md_dmAE_ex_a002", "md_file": "knowledge_base/domains/AE/examples.md", "md_atom_type": "HEADING", "md_parent_section": "§AE.1 [Example 1]", "md_verbatim": "## Example 1", "score": 0.9, "match_basis": "verbatim_token+global_search"}, {"md_atom_id": "md_dmAE_ex_a020", "md_file": "knowledge_base/domains/AE/examples.md", "md_atom_type": "HEADING", "md_parent_section": "§AE.2 [Example 2]", "md_verbatim": "## Example 2", "score": 0.9, "match_basis": "verbatim_token+global_search"}, {"md_atom_id": "md_dmAE_ex_a035", "md_file": "knowledge_base/domains/AE/examples.md", "md_atom_type": "HEADING", "md_parent_section": "§AE.3 [Example 3]", "md_verbatim": "## Example 3", "score": 0.9, "match_basis": "verbatim_token+global_search"}], "candidate_count": 10, "zero_candidate": false}
{"pdf_atom_id": "ig34_p0114_a013", "pdf_atom_type": "SENTENCE", "pdf_source": "SDTMIG v3.4 (no header footer).pdf", "pdf_page": 114, "pdf_parent_section": "§6.1.3.3 [Exposure/Exposure as Collected Examples]", "pdf_verbatim": "This is an example of a double-blind study design comparing 10 and 20 mg of drug X vs. placebo taken daily, morning and evening, for a week.", "figure_ref": null, "candidates": [{"md_atom_id": "md_dmEC_ex_a034", "md_file": "knowledge_base/domains/EC/examples.md", "md_atom_type": "SENTENCE", "md_parent_section": "§EC.5 [Example 5]", "md_verbatim": "This is an example of a double-blind study design comparing 10 and 20 mg of drug X vs. placebo taken daily, morning and evening, for a week.", "score": 0.9, "match_basis": "verbatim_token+global_search"}, {"md_atom_id": "md_dmEX_ex_a105", "md_file": "knowledge_base/domains/EX/examples.md", "md_atom_type": "SENTENCE", "md_parent_section": "§EX.5 [Example 5]", "md_verbatim": "This is an example of a double-blind study design comparing 10 and 20 mg of drug X vs. placebo taken daily, morning and evening, for a week.", "score": 0.9, "match_basis": "verbatim_token+global_search"}, {"md_atom_id": "md_dmEC_ex_a023", "md_file": "knowledge_base/domains/EC/examples.md", "md_atom_type": "SENTENCE", "md_parent_section": "§EC.3 [Example 3]", "md_verbatim": "The study in this example was a double-blind study comparing 10, 20, and 30 mg of Drug X once daily vs. placebo. Study treatment was given as 1 tablet each from bottles A, B, and C taken together once daily.", "score": 0.5854, "match_basis": "verbatim_token+global_search"}, {"md_atom_id": "md_dmEX_ex_a068", "md_file": "knowledge_base/domains/EX/examples.md", "md_atom_type": "SENTENCE", "md_parent_section": "§EX.3 [Example 3]", "md_verbatim": "The study in this example was a double-blind study comparing 10, 20, and 30 mg of Drug X once daily vs. placebo. Study treatment was given as 1 tablet each from bottles A, B, and C taken together once daily. The subject in this example took:", "score": 0.5629, "match_basis": "verbatim_token+global_search"}, {"md_atom_id": "md_dmTV_ex_a007", "md_file": "knowledge_base/domains/TV/examples.md", "md_atom_type": "SENTENCE", "md_parent_section": "§TV.1 [Example 1]", "md_verbatim": "This example is based on TA Example Trial 1, a Parallel Design with 3 arms (Placebo, Drug A, Drug B).", "score": 0.4701, "match_basis": "verbatim_token+global_search"}], "candidate_count": 5, "zero_candidate": false}
{"pdf_atom_id": "ig34_p0114_a014", "pdf_atom_type": "HEADING", "pdf_source": "SDTMIG v3.4 (no header footer).pdf", "pdf_page": 114, "pdf_parent_section": "§6.1.3.3 [Exposure/Exposure as Collected Examples]", "pdf_verbatim": "Subject ABC5001", "figure_ref": null, "candidates": [{"md_atom_id": "md_model03_a123", "md_file": "knowledge_base/model/03_special_purpose_domains.md", "md_atom_type": "HEADING", "md_parent_section": "§ Subject Visits (SV)", "md_verbatim": "## Subject Visits (SV)", "score": 0.5143, "match_basis": "verbatim_token+global_search"}, {"md_atom_id": "md_ch04_a201", "md_file": "knowledge_base/chapters/ch04_general_assumptions.md", "md_atom_type": "HEADING", "md_parent_section": "§4.2 [General Variable Assumptions]", "md_verbatim": "### 4.2.3 Use of \"Subject\" and USUBJID", "score": 0.5, "match_basis": "verbatim_token+global_search"}, {"md_atom_id": "md_model03_a085", "md_file": "knowledge_base/model/03_special_purpose_domains.md", "md_atom_type": "HEADING", "md_parent_section": "§ Subject Elements (SE)", "md_verbatim": "## Subject Elements (SE)", "score": 0.4875, "match_basis": "verbatim_token+global_search"}, {"md_atom_id": "md_model03_a105", "md_file": "knowledge_base/model/03_special_purpose_domains.md", "md_atom_type": "HEADING", "md_parent_section": "§ Subject Repro Stages", "md_verbatim": "## Subject Repro Stages", "score": 0.4765, "match_basis": "verbatim_token+global_search"}, {"md_atom_id": "md_model06_a064", "md_file": "knowledge_base/model/06_relationship_datasets.md", "md_atom_type": "HEADING", "md_parent_section": "§6.4 Related Subjects (RELSUB)", "md_verbatim": "## 6.4 Related Subjects (RELSUB)", "score": 0.4667, "match_basis": "verbatim_token+global_search"}], "candidate_count": 5, "zero_candidate": false}
{"pdf_atom_id": "ig34_p0114_a015", "pdf_atom_type": "TABLE_HEADER", "pdf_source": "SDTMIG v3.4 (no header footer).pdf", "pdf_page": 114, "pdf_parent_section": "§6.1.3.3 [Exposure/Exposure as Collected Examples]", "pdf_verbatim": "Bottle | Time Point | Number of Tablets Taken | Start Date | End Date", "figure_ref": null, "candidates": [{"md_atom_id": "md_dmEX_ex_a108", "md_file": "knowledge_base/domains/EX/examples.md", "md_atom_type": "TABLE_HEADER", "md_parent_section": "§EX.5 [Example 5]", "md_verbatim": "| Bottle | Time Point | Number of Tablets Taken | Start Date | End Date |\n|--------|------------|-------------------------|------------|----------|", "score": 0.9, "match_basis": "verbatim_token+global_search"}, {"md_atom_id": "md_dmEX_ex_a112", "md_file": "knowledge_base/domains/EX/examples.md", "md_atom_type": "TABLE_HEADER", "md_parent_section": "§EX.5 [Example 5]", "md_verbatim": "| Bottle | Time Point | Number of Tablets Taken | Start Date | End Date |\n|--------|------------|-------------------------|------------|----------|", "score": 0.9, "match_basis": "verbatim_token+global_search"}, {"md_atom_id": "md_dmEX_ex_a116", "md_file": "knowledge_base/domains/EX/examples.md", "md_atom_type": "TABLE_HEADER", "md_parent_section": "§EX.5 [Example 5]", "md_verbatim": "| Bottle | Time Point | Number of Tablets Taken | Start Date | End Date |\n|--------|------------|-------------------------|------------|----------|", "score": 0.9, "match_basis": "verbatim_token+global_search"}, {"md_atom_id": "md_dmEX_ex_a007", "md_file": "knowledge_base/domains/EX/examples.md", "md_atom_type": "TABLE_HEADER", "md_parent_section": "§EX.1 [Example 1]", "md_verbatim": "| Bottle | Number of Tablets Taken Daily | Reason for Variation | Start Date | End Date |\n|--------|-------------------------------|----------------------|------------|----------|", "score": 0.6143, "match_basis": "verbatim_token+global_search"}, {"md_atom_id": "md_dmEX_ex_a010", "md_file": "knowledge_base/domains/EX/examples.md", "md_atom_type": "TABLE_HEADER", "md_parent_section": "§EX.1 [Example 1]", "md_verbatim": "| Bottle | Number of Tablets Taken Daily | Reason for Variation | Start Date | End Date |\n|--------|-------------------------------|----------------------|------------|----------|", "score": 0.6143, "match_basis": "verbatim_token+global_search"}], "candidate_count": 5, "zero_candidate": false}
{"pdf_atom_id": "ig34_p0114_a016", "pdf_atom_type": "TABLE_ROW", "pdf_source": "SDTMIG v3.4 (no header footer).pdf", "pdf_page": 114, "pdf_parent_section": "§6.1.3.3 [Exposure/Exposure as Collected Examples]", "pdf_verbatim": "A | AM | 1 | 2012-01-01 | 2012-01-08", "figure_ref": null, "candidates": [{"md_atom_id": "md_dmEX_ex_a109", "md_file": "knowledge_base/domains/EX/examples.md", "md_atom_type": "TABLE_ROW", "md_parent_section": "§EX.5 [Example 5]", "md_verbatim": "| A | AM | 1 | 2012-01-01 | 2012-01-08 |", "score": 0.9, "match_basis": "verbatim_token+global_search"}, {"md_atom_id": "md_dmEX_ex_a110", "md_file": "knowledge_base/domains/EX/examples.md", "md_atom_type": "TABLE_ROW", "md_parent_section": "§EX.5 [Example 5]", "md_verbatim": "| B | PM | 1 | 2012-01-01 | 2012-01-08 |", "score": 0.9, "match_basis": "verbatim_token+global_search"}, {"md_atom_id": "md_dmEX_ex_a113", "md_file": "knowledge_base/domains/EX/examples.md", "md_atom_type": "TABLE_ROW", "md_parent_section": "§EX.5 [Example 5]", "md_verbatim": "| A | AM | 1 | 2012-02-01 | 2012-02-08 |", "score": 0.9, "match_basis": "verbatim_token+global_search"}, {"md_atom_id": "md_dmEX_ex_a114", "md_file": "knowledge_base/domains/EX/examples.md", "md_atom_type": "TABLE_ROW", "md_parent_section": "§EX.5 [Example 5]", "md_verbatim": "| B | PM | 1 | 2012-02-01 | 2012-02-08 |", "score": 0.9, "match_basis": "verbatim_token+global_search"}, {"md_atom_id": "md_dmEX_ex_a117", "md_file": "knowledge_base/domains/EX/examples.md", "md_atom_type": "TABLE_ROW", "md_parent_section": "§EX.5 [Example 5]", "md_verbatim": "| A | AM | 1 | 2012-03-01 | 2012-03-08 |", "score": 0.9, "match_basis": "verbatim_token+global_search"}, {"md_atom_id": "md_dmEX_ex_a118", "md_file": "knowledge_base/domains/EX/examples.md", "md_atom_type": "TABLE_ROW", "md_parent_section": "§EX.5 [Example 5]", "md_verbatim": "| B | PM | 1 | 2012-03-01 | 2012-03-08 |", "score": 0.9, "match_basis": "verbatim_token+global_search"}, {"md_atom_id": "md_dmEX_ex_a256", "md_file": "knowledge_base/domains/EX/examples.md", "md_atom_type": "TABLE_ROW", "md_parent_section": "§EX.8 [Example 8]", "md_verbatim": "| 2012-01-13 | 2012-01-20 |", "score": 0.9, "match_basis": "verbatim_token+global_search"}, {"md_atom_id": "md_dmEX_ex_a258", "md_file": "knowledge_base/domains/EX/examples.md", "md_atom_type": "TABLE_ROW", "md_parent_section": "§EX.8 [Example 8]", "md_verbatim": "| 2012-01-15 | 0 |", "score": 0.9, "match_basis": "verbatim_token+global_search"}, {"md_atom_id": "md_dmEX_ex_a259", "md_file": "knowledge_base/domains/EX/examples.md", "md_atom_type": "TABLE_ROW", "md_parent_section": "§EX.8 [Example 8]", "md_verbatim": "| 2012-01-16 | 2 |", "score": 0.9, "match_basis": "verbatim_token+global_search"}, {"md_atom_id": "md_dmEX_ex_a008", "md_file": "knowledge_base/domains/EX/examples.md", "md_atom_type": "TABLE_ROW", "md_parent_section": "§EX.1 [Example 1]", "md_verbatim": "| A | 2 | | 2011-01-14 | 2011-01-28 |", "score": 0.5, "match_basis": "verbatim_token+global_search"}], "candidate_count": 10, "zero_candidate": false}
{"pdf_atom_id": "ig34_p0114_a017", "pdf_atom_type": "TABLE_ROW", "pdf_source": "SDTMIG v3.4 (no header footer).pdf", "pdf_page": 114, "pdf_parent_section": "§6.1.3.3 [Exposure/Exposure as Collected Examples]", "pdf_verbatim": "B | PM | 1 | 2012-01-01 | 2012-01-08", "figure_ref": null, "candidates": [{"md_atom_id": "md_dmEX_ex_a109", "md_file": "knowledge_base/domains/EX/examples.md", "md_atom_type": "TABLE_ROW", "md_parent_section": "§EX.5 [Example 5]", "md_verbatim": "| A | AM | 1 | 2012-01-01 | 2012-01-08 |", "score": 0.9, "match_basis": "verbatim_token+global_search"}, {"md_atom_id": "md_dmEX_ex_a110", "md_file": "knowledge_base/domains/EX/examples.md", "md_atom_type": "TABLE_ROW", "md_parent_section": "§EX.5 [Example 5]", "md_verbatim": "| B | PM | 1 | 2012-01-01 | 2012-01-08 |", "score": 0.9, "match_basis": "verbatim_token+global_search"}, {"md_atom_id": "md_dmEX_ex_a113", "md_file": "knowledge_base/domains/EX/examples.md", "md_atom_type": "TABLE_ROW", "md_parent_section": "§EX.5 [Example 5]", "md_verbatim": "| A | AM | 1 | 2012-02-01 | 2012-02-08 |", "score": 0.9, "match_basis": "verbatim_token+global_search"}, {"md_atom_id": "md_dmEX_ex_a114", "md_file": "knowledge_base/domains/EX/examples.md", "md_atom_type": "TABLE_ROW", "md_parent_section": "§EX.5 [Example 5]", "md_verbatim": "| B | PM | 1 | 2012-02-01 | 2012-02-08 |", "score": 0.9, "match_basis": "verbatim_token+global_search"}, {"md_atom_id": "md_dmEX_ex_a117", "md_file": "knowledge_base/domains/EX/examples.md", "md_atom_type": "TABLE_ROW", "md_parent_section": "§EX.5 [Example 5]", "md_verbatim": "| A | AM | 1 | 2012-03-01 | 2012-03-08 |", "score": 0.9, "match_basis": "verbatim_token+global_search"}, {"md_atom_id": "md_dmEX_ex_a118", "md_file": "knowledge_base/domains/EX/examples.md", "md_atom_type": "TABLE_ROW", "md_parent_section": "§EX.5 [Example 5]", "md_verbatim": "| B | PM | 1 | 2012-03-01 | 2012-03-08 |", "score": 0.9, "match_basis": "verbatim_token+global_search"}, {"md_atom_id": "md_dmEX_ex_a256", "md_file": "knowledge_base/domains/EX/examples.md", "md_atom_type": "TABLE_ROW", "md_parent_section": "§EX.8 [Example 8]", "md_verbatim": "| 2012-01-13 | 2012-01-20 |", "score": 0.9, "match_basis": "verbatim_token+global_search"}, {"md_atom_id": "md_dmEX_ex_a258", "md_file": "knowledge_base/domains/EX/examples.md", "md_atom_type": "TABLE_ROW", "md_parent_section": "§EX.8 [Example 8]", "md_verbatim": "| 2012-01-15 | 0 |", "score": 0.9, "match_basis": "verbatim_token+global_search"}, {"md_atom_id": "md_dmEX_ex_a259", "md_file": "knowledge_base/domains/EX/examples.md", "md_atom_type": "TABLE_ROW", "md_parent_section": "§EX.8 [Example 8]", "md_verbatim": "| 2012-01-16 | 2 |", "score": 0.9, "match_basis": "verbatim_token+global_search"}, {"md_atom_id": "md_dmEX_ex_a008", "md_file": "knowledge_base/domains/EX/examples.md", "md_atom_type": "TABLE_ROW", "md_parent_section": "§EX.1 [Example 1]", "md_verbatim": "| A | 2 | | 2011-01-14 | 2011-01-28 |", "score": 0.5, "match_basis": "verbatim_token+global_search"}], "candidate_count": 10, "zero_candidate": false}
{"pdf_atom_id": "ig34_p0114_a018", "pdf_atom_type": "HEADING", "pdf_source": "SDTMIG v3.4 (no header footer).pdf", "pdf_page": 114, "pdf_parent_section": "§6.1.3.3 [Exposure/Exposure as Collected Examples]", "pdf_verbatim": "Subject ABC5002", "figure_ref": null, "candidates": [{"md_atom_id": "md_model03_a123", "md_file": "knowledge_base/model/03_special_purpose_domains.md", "md_atom_type": "HEADING", "md_parent_section": "§ Subject Visits (SV)", "md_verbatim": "## Subject Visits (SV)", "score": 0.5143, "match_basis": "verbatim_token+global_search"}, {"md_atom_id": "md_ch04_a201", "md_file": "knowledge_base/chapters/ch04_general_assumptions.md", "md_atom_type": "HEADING", "md_parent_section": "§4.2 [General Variable Assumptions]", "md_verbatim": "### 4.2.3 Use of \"Subject\" and USUBJID", "score": 0.5, "match_basis": "verbatim_token+global_search"}, {"md_atom_id": "md_model03_a085", "md_file": "knowledge_base/model/03_special_purpose_domains.md", "md_atom_type": "HEADING", "md_parent_section": "§ Subject Elements (SE)", "md_verbatim": "## Subject Elements (SE)", "score": 0.4875, "match_basis": "verbatim_token+global_search"}, {"md_atom_id": "md_model03_a105", "md_file": "knowledge_base/model/03_special_purpose_domains.md", "md_atom_type": "HEADING", "md_parent_section": "§ Subject Repro Stages", "md_verbatim": "## Subject Repro Stages", "score": 0.4765, "match_basis": "verbatim_token+global_search"}, {"md_atom_id": "md_model06_a064", "md_file": "knowledge_base/model/06_relationship_datasets.md", "md_atom_type": "HEADING", "md_parent_section": "§6.4 Related Subjects (RELSUB)", "md_verbatim": "## 6.4 Related Subjects (RELSUB)", "score": 0.4667, "match_basis": "verbatim_token+global_search"}], "candidate_count": 5, "zero_candidate": false}
{"pdf_atom_id": "ig34_p0114_a019", "pdf_atom_type": "TABLE_HEADER", "pdf_source": "SDTMIG v3.4 (no header footer).pdf", "pdf_page": 114, "pdf_parent_section": "§6.1.3.3 [Exposure/Exposure as Collected Examples]", "pdf_verbatim": "Bottle | Time Point | Number of Tablets Taken | Start Date | End Date", "figure_ref": null, "candidates": [{"md_atom_id": "md_dmEX_ex_a108", "md_file": "knowledge_base/domains/EX/examples.md", "md_atom_type": "TABLE_HEADER", "md_parent_section": "§EX.5 [Example 5]", "md_verbatim": "| Bottle | Time Point | Number of Tablets Taken | Start Date | End Date |\n|--------|------------|-------------------------|------------|----------|", "score": 0.9, "match_basis": "verbatim_token+global_search"}, {"md_atom_id": "md_dmEX_ex_a112", "md_file": "knowledge_base/domains/EX/examples.md", "md_atom_type": "TABLE_HEADER", "md_parent_section": "§EX.5 [Example 5]", "md_verbatim": "| Bottle | Time Point | Number of Tablets Taken | Start Date | End Date |\n|--------|------------|-------------------------|------------|----------|", "score": 0.9, "match_basis": "verbatim_token+global_search"}, {"md_atom_id": "md_dmEX_ex_a116", "md_file": "knowledge_base/domains/EX/examples.md", "md_atom_type": "TABLE_HEADER", "md_parent_section": "§EX.5 [Example 5]", "md_verbatim": "| Bottle | Time Point | Number of Tablets Taken | Start Date | End Date |\n|--------|------------|-------------------------|------------|----------|", "score": 0.9, "match_basis": "verbatim_token+global_search"}, {"md_atom_id": "md_dmEX_ex_a007", "md_file": "knowledge_base/domains/EX/examples.md", "md_atom_type": "TABLE_HEADER", "md_parent_section": "§EX.1 [Example 1]", "md_verbatim": "| Bottle | Number of Tablets Taken Daily | Reason for Variation | Start Date | End Date |\n|--------|-------------------------------|----------------------|------------|----------|", "score": 0.6143, "match_basis": "verbatim_token+global_search"}, {"md_atom_id": "md_dmEX_ex_a010", "md_file": "knowledge_base/domains/EX/examples.md", "md_atom_type": "TABLE_HEADER", "md_parent_section": "§EX.1 [Example 1]", "md_verbatim": "| Bottle | Number of Tablets Taken Daily | Reason for Variation | Start Date | End Date |\n|--------|-------------------------------|----------------------|------------|----------|", "score": 0.6143, "match_basis": "verbatim_token+global_search"}], "candidate_count": 5, "zero_candidate": false}
{"pdf_atom_id": "ig34_p0114_a020", "pdf_atom_type": "TABLE_ROW", "pdf_source": "SDTMIG v3.4 (no header footer).pdf", "pdf_page": 114, "pdf_parent_section": "§6.1.3.3 [Exposure/Exposure as Collected Examples]", "pdf_verbatim": "A | AM | 1 | 2012-02-01 | 2012-02-08", "figure_ref": null, "candidates": [{"md_atom_id": "md_dmEX_ex_a109", "md_file": "knowledge_base/domains/EX/examples.md", "md_atom_type": "TABLE_ROW", "md_parent_section": "§EX.5 [Example 5]", "md_verbatim": "| A | AM | 1 | 2012-01-01 | 2012-01-08 |", "score": 0.9, "match_basis": "verbatim_token+global_search"}, {"md_atom_id": "md_dmEX_ex_a110", "md_file": "knowledge_base/domains/EX/examples.md", "md_atom_type": "TABLE_ROW", "md_parent_section": "§EX.5 [Example 5]", "md_verbatim": "| B | PM | 1 | 2012-01-01 | 2012-01-08 |", "score": 0.9, "match_basis": "verbatim_token+global_search"}, {"md_atom_id": "md_dmEX_ex_a113", "md_file": "knowledge_base/domains/EX/examples.md", "md_atom_type": "TABLE_ROW", "md_parent_section": "§EX.5 [Example 5]", "md_verbatim": "| A | AM | 1 | 2012-02-01 | 2012-02-08 |", "score": 0.9, "match_basis": "verbatim_token+global_search"}, {"md_atom_id": "md_dmEX_ex_a114", "md_file": "knowledge_base/domains/EX/examples.md", "md_atom_type": "TABLE_ROW", "md_parent_section": "§EX.5 [Example 5]", "md_verbatim": "| B | PM | 1 | 2012-02-01 | 2012-02-08 |", "score": 0.9, "match_basis": "verbatim_token+global_search"}, {"md_atom_id": "md_dmEX_ex_a117", "md_file": "knowledge_base/domains/EX/examples.md", "md_atom_type": "TABLE_ROW", "md_parent_section": "§EX.5 [Example 5]", "md_verbatim": "| A | AM | 1 | 2012-03-01 | 2012-03-08 |", "score": 0.9, "match_basis": "verbatim_token+global_search"}, {"md_atom_id": "md_dmEX_ex_a118", "md_file": "knowledge_base/domains/EX/examples.md", "md_atom_type": "TABLE_ROW", "md_parent_section": "§EX.5 [Example 5]", "md_verbatim": "| B | PM | 1 | 2012-03-01 | 2012-03-08 |", "score": 0.9, "match_basis": "verbatim_token+global_search"}, {"md_atom_id": "md_dmEX_ex_a256", "md_file": "knowledge_base/domains/EX/examples.md", "md_atom_type": "TABLE_ROW", "md_parent_section": "§EX.8 [Example 8]", "md_verbatim": "| 2012-01-13 | 2012-01-20 |", "score": 0.9, "match_basis": "verbatim_token+global_search"}, {"md_atom_id": "md_dmEX_ex_a258", "md_file": "knowledge_base/domains/EX/examples.md", "md_atom_type": "TABLE_ROW", "md_parent_section": "§EX.8 [Example 8]", "md_verbatim": "| 2012-01-15 | 0 |", "score": 0.9, "match_basis": "verbatim_token+global_search"}, {"md_atom_id": "md_dmEX_ex_a259", "md_file": "knowledge_base/domains/EX/examples.md", "md_atom_type": "TABLE_ROW", "md_parent_section": "§EX.8 [Example 8]", "md_verbatim": "| 2012-01-16 | 2 |", "score": 0.9, "match_basis": "verbatim_token+global_search"}, {"md_atom_id": "md_dmEX_ex_a008", "md_file": "knowledge_base/domains/EX/examples.md", "md_atom_type": "TABLE_ROW", "md_parent_section": "§EX.1 [Example 1]", "md_verbatim": "| A | 2 | | 2011-01-14 | 2011-01-28 |", "score": 0.5, "match_basis": "verbatim_token+global_search"}], "candidate_count": 10, "zero_candidate": false}
{"pdf_atom_id": "ig34_p0114_a021", "pdf_atom_type": "TABLE_ROW", "pdf_source": "SDTMIG v3.4 (no header footer).pdf", "pdf_page": 114, "pdf_parent_section": "§6.1.3.3 [Exposure/Exposure as Collected Examples]", "pdf_verbatim": "B | PM | 1 | 2012-02-01 | 2012-02-08", "figure_ref": null, "candidates": [{"md_atom_id": "md_dmEX_ex_a109", "md_file": "knowledge_base/domains/EX/examples.md", "md_atom_type": "TABLE_ROW", "md_parent_section": "§EX.5 [Example 5]", "md_verbatim": "| A | AM | 1 | 2012-01-01 | 2012-01-08 |", "score": 0.9, "match_basis": "verbatim_token+global_search"}, {"md_atom_id": "md_dmEX_ex_a110", "md_file": "knowledge_base/domains/EX/examples.md", "md_atom_type": "TABLE_ROW", "md_parent_section": "§EX.5 [Example 5]", "md_verbatim": "| B | PM | 1 | 2012-01-01 | 2012-01-08 |", "score": 0.9, "match_basis": "verbatim_token+global_search"}, {"md_atom_id": "md_dmEX_ex_a113", "md_file": "knowledge_base/domains/EX/examples.md", "md_atom_type": "TABLE_ROW", "md_parent_section": "§EX.5 [Example 5]", "md_verbatim": "| A | AM | 1 | 2012-02-01 | 2012-02-08 |", "score": 0.9, "match_basis": "verbatim_token+global_search"}, {"md_atom_id": "md_dmEX_ex_a114", "md_file": "knowledge_base/domains/EX/examples.md", "md_atom_type": "TABLE_ROW", "md_parent_section": "§EX.5 [Example 5]", "md_verbatim": "| B | PM | 1 | 2012-02-01 | 2012-02-08 |", "score": 0.9, "match_basis": "verbatim_token+global_search"}, {"md_atom_id": "md_dmEX_ex_a117", "md_file": "knowledge_base/domains/EX/examples.md", "md_atom_type": "TABLE_ROW", "md_parent_section": "§EX.5 [Example 5]", "md_verbatim": "| A | AM | 1 | 2012-03-01 | 2012-03-08 |", "score": 0.9, "match_basis": "verbatim_token+global_search"}, {"md_atom_id": "md_dmEX_ex_a118", "md_file": "knowledge_base/domains/EX/examples.md", "md_atom_type": "TABLE_ROW", "md_parent_section": "§EX.5 [Example 5]", "md_verbatim": "| B | PM | 1 | 2012-03-01 | 2012-03-08 |", "score": 0.9, "match_basis": "verbatim_token+global_search"}, {"md_atom_id": "md_dmEX_ex_a256", "md_file": "knowledge_base/domains/EX/examples.md", "md_atom_type": "TABLE_ROW", "md_parent_section": "§EX.8 [Example 8]", "md_verbatim": "| 2012-01-13 | 2012-01-20 |", "score": 0.9, "match_basis": "verbatim_token+global_search"}, {"md_atom_id": "md_dmEX_ex_a258", "md_file": "knowledge_base/domains/EX/examples.md", "md_atom_type": "TABLE_ROW", "md_parent_section": "§EX.8 [Example 8]", "md_verbatim": "| 2012-01-15 | 0 |", "score": 0.9, "match_basis": "verbatim_token+global_search"}, {"md_atom_id": "md_dmEX_ex_a259", "md_file": "knowledge_base/domains/EX/examples.md", "md_atom_type": "TABLE_ROW", "md_parent_section": "§EX.8 [Example 8]", "md_verbatim": "| 2012-01-16 | 2 |", "score": 0.9, "match_basis": "verbatim_token+global_search"}, {"md_atom_id": "md_dmEX_ex_a008", "md_file": "knowledge_base/domains/EX/examples.md", "md_atom_type": "TABLE_ROW", "md_parent_section": "§EX.1 [Example 1]", "md_verbatim": "| A | 2 | | 2011-01-14 | 2011-01-28 |", "score": 0.5, "match_basis": "verbatim_token+global_search"}], "candidate_count": 10, "zero_candidate": false}
{"pdf_atom_id": "ig34_p0114_a022", "pdf_atom_type": "HEADING", "pdf_source": "SDTMIG v3.4 (no header footer).pdf", "pdf_page": 114, "pdf_parent_section": "§6.1.3.3 [Exposure/Exposure as Collected Examples]", "pdf_verbatim": "Subject ABC5003", "figure_ref": null, "candidates": [{"md_atom_id": "md_model03_a123", "md_file": "knowledge_base/model/03_special_purpose_domains.md", "md_atom_type": "HEADING", "md_parent_section": "§ Subject Visits (SV)", "md_verbatim": "## Subject Visits (SV)", "score": 0.5143, "match_basis": "verbatim_token+global_search"}, {"md_atom_id": "md_ch04_a201", "md_file": "knowledge_base/chapters/ch04_general_assumptions.md", "md_atom_type": "HEADING", "md_parent_section": "§4.2 [General Variable Assumptions]", "md_verbatim": "### 4.2.3 Use of \"Subject\" and USUBJID", "score": 0.5, "match_basis": "verbatim_token+global_search"}, {"md_atom_id": "md_model03_a085", "md_file": "knowledge_base/model/03_special_purpose_domains.md", "md_atom_type": "HEADING", "md_parent_section": "§ Subject Elements (SE)", "md_verbatim": "## Subject Elements (SE)", "score": 0.4875, "match_basis": "verbatim_token+global_search"}, {"md_atom_id": "md_model03_a105", "md_file": "knowledge_base/model/03_special_purpose_domains.md", "md_atom_type": "HEADING", "md_parent_section": "§ Subject Repro Stages", "md_verbatim": "## Subject Repro Stages", "score": 0.4765, "match_basis": "verbatim_token+global_search"}, {"md_atom_id": "md_model06_a064", "md_file": "knowledge_base/model/06_relationship_datasets.md", "md_atom_type": "HEADING", "md_parent_section": "§6.4 Related Subjects (RELSUB)", "md_verbatim": "## 6.4 Related Subjects (RELSUB)", "score": 0.4667, "match_basis": "verbatim_token+global_search"}], "candidate_count": 5, "zero_candidate": false}
{"pdf_atom_id": "ig34_p0114_a023", "pdf_atom_type": "TABLE_HEADER", "pdf_source": "SDTMIG v3.4 (no header footer).pdf", "pdf_page": 114, "pdf_parent_section": "§6.1.3.3 [Exposure/Exposure as Collected Examples]", "pdf_verbatim": "Bottle | Time Point | Number of Tablets Taken | Start Date | End Date", "figure_ref": null, "candidates": [{"md_atom_id": "md_dmEX_ex_a108", "md_file": "knowledge_base/domains/EX/examples.md", "md_atom_type": "TABLE_HEADER", "md_parent_section": "§EX.5 [Example 5]", "md_verbatim": "| Bottle | Time Point | Number of Tablets Taken | Start Date | End Date |\n|--------|------------|-------------------------|------------|----------|", "score": 0.9, "match_basis": "verbatim_token+global_search"}, {"md_atom_id": "md_dmEX_ex_a112", "md_file": "knowledge_base/domains/EX/examples.md", "md_atom_type": "TABLE_HEADER", "md_parent_section": "§EX.5 [Example 5]", "md_verbatim": "| Bottle | Time Point | Number of Tablets Taken | Start Date | End Date |\n|--------|------------|-------------------------|------------|----------|", "score": 0.9, "match_basis": "verbatim_token+global_search"}, {"md_atom_id": "md_dmEX_ex_a116", "md_file": "knowledge_base/domains/EX/examples.md", "md_atom_type": "TABLE_HEADER", "md_parent_section": "§EX.5 [Example 5]", "md_verbatim": "| Bottle | Time Point | Number of Tablets Taken | Start Date | End Date |\n|--------|------------|-------------------------|------------|----------|", "score": 0.9, "match_basis": "verbatim_token+global_search"}, {"md_atom_id": "md_dmEX_ex_a007", "md_file": "knowledge_base/domains/EX/examples.md", "md_atom_type": "TABLE_HEADER", "md_parent_section": "§EX.1 [Example 1]", "md_verbatim": "| Bottle | Number of Tablets Taken Daily | Reason for Variation | Start Date | End Date |\n|--------|-------------------------------|----------------------|------------|----------|", "score": 0.6143, "match_basis": "verbatim_token+global_search"}, {"md_atom_id": "md_dmEX_ex_a010", "md_file": "knowledge_base/domains/EX/examples.md", "md_atom_type": "TABLE_HEADER", "md_parent_section": "§EX.1 [Example 1]", "md_verbatim": "| Bottle | Number of Tablets Taken Daily | Reason for Variation | Start Date | End Date |\n|--------|-------------------------------|----------------------|------------|----------|", "score": 0.6143, "match_basis": "verbatim_token+global_search"}], "candidate_count": 5, "zero_candidate": false}
{"pdf_atom_id": "ig34_p0114_a024", "pdf_atom_type": "TABLE_ROW", "pdf_source": "SDTMIG v3.4 (no header footer).pdf", "pdf_page": 114, "pdf_parent_section": "§6.1.3.3 [Exposure/Exposure as Collected Examples]", "pdf_verbatim": "A | AM | 1 | 2012-03-01 | 2012-03-08", "figure_ref": null, "candidates": [{"md_atom_id": "md_dmEX_ex_a109", "md_file": "knowledge_base/domains/EX/examples.md", "md_atom_type": "TABLE_ROW", "md_parent_section": "§EX.5 [Example 5]", "md_verbatim": "| A | AM | 1 | 2012-01-01 | 2012-01-08 |", "score": 0.9, "match_basis": "verbatim_token+global_search"}, {"md_atom_id": "md_dmEX_ex_a110", "md_file": "knowledge_base/domains/EX/examples.md", "md_atom_type": "TABLE_ROW", "md_parent_section": "§EX.5 [Example 5]", "md_verbatim": "| B | PM | 1 | 2012-01-01 | 2012-01-08 |", "score": 0.9, "match_basis": "verbatim_token+global_search"}, {"md_atom_id": "md_dmEX_ex_a113", "md_file": "knowledge_base/domains/EX/examples.md", "md_atom_type": "TABLE_ROW", "md_parent_section": "§EX.5 [Example 5]", "md_verbatim": "| A | AM | 1 | 2012-02-01 | 2012-02-08 |", "score": 0.9, "match_basis": "verbatim_token+global_search"}, {"md_atom_id": "md_dmEX_ex_a114", "md_file": "knowledge_base/domains/EX/examples.md", "md_atom_type": "TABLE_ROW", "md_parent_section": "§EX.5 [Example 5]", "md_verbatim": "| B | PM | 1 | 2012-02-01 | 2012-02-08 |", "score": 0.9, "match_basis": "verbatim_token+global_search"}, {"md_atom_id": "md_dmEX_ex_a117", "md_file": "knowledge_base/domains/EX/examples.md", "md_atom_type": "TABLE_ROW", "md_parent_section": "§EX.5 [Example 5]", "md_verbatim": "| A | AM | 1 | 2012-03-01 | 2012-03-08 |", "score": 0.9, "match_basis": "verbatim_token+global_search"}, {"md_atom_id": "md_dmEX_ex_a118", "md_file": "knowledge_base/domains/EX/examples.md", "md_atom_type": "TABLE_ROW", "md_parent_section": "§EX.5 [Example 5]", "md_verbatim": "| B | PM | 1 | 2012-03-01 | 2012-03-08 |", "score": 0.9, "match_basis": "verbatim_token+global_search"}, {"md_atom_id": "md_dmEX_ex_a256", "md_file": "knowledge_base/domains/EX/examples.md", "md_atom_type": "TABLE_ROW", "md_parent_section": "§EX.8 [Example 8]", "md_verbatim": "| 2012-01-13 | 2012-01-20 |", "score": 0.9, "match_basis": "verbatim_token+global_search"}, {"md_atom_id": "md_dmEX_ex_a258", "md_file": "knowledge_base/domains/EX/examples.md", "md_atom_type": "TABLE_ROW", "md_parent_section": "§EX.8 [Example 8]", "md_verbatim": "| 2012-01-15 | 0 |", "score": 0.9, "match_basis": "verbatim_token+global_search"}, {"md_atom_id": "md_dmEX_ex_a259", "md_file": "knowledge_base/domains/EX/examples.md", "md_atom_type": "TABLE_ROW", "md_parent_section": "§EX.8 [Example 8]", "md_verbatim": "| 2012-01-16 | 2 |", "score": 0.9, "match_basis": "verbatim_token+global_search"}, {"md_atom_id": "md_dmEX_ex_a008", "md_file": "knowledge_base/domains/EX/examples.md", "md_atom_type": "TABLE_ROW", "md_parent_section": "§EX.1 [Example 1]", "md_verbatim": "| A | 2 | | 2011-01-14 | 2011-01-28 |", "score": 0.5, "match_basis": "verbatim_token+global_search"}], "candidate_count": 10, "zero_candidate": false}
{"pdf_atom_id": "ig34_p0114_a025", "pdf_atom_type": "TABLE_ROW", "pdf_source": "SDTMIG v3.4 (no header footer).pdf", "pdf_page": 114, "pdf_parent_section": "§6.1.3.3 [Exposure/Exposure as Collected Examples]", "pdf_verbatim": "B | PM | 1 | 2012-03-01 | 2012-03-08", "figure_ref": null, "candidates": [{"md_atom_id": "md_dmEX_ex_a109", "md_file": "knowledge_base/domains/EX/examples.md", "md_atom_type": "TABLE_ROW", "md_parent_section": "§EX.5 [Example 5]", "md_verbatim": "| A | AM | 1 | 2012-01-01 | 2012-01-08 |", "score": 0.9, "match_basis": "verbatim_token+global_search"}, {"md_atom_id": "md_dmEX_ex_a110", "md_file": "knowledge_base/domains/EX/examples.md", "md_atom_type": "TABLE_ROW", "md_parent_section": "§EX.5 [Example 5]", "md_verbatim": "| B | PM | 1 | 2012-01-01 | 2012-01-08 |", "score": 0.9, "match_basis": "verbatim_token+global_search"}, {"md_atom_id": "md_dmEX_ex_a113", "md_file": "knowledge_base/domains/EX/examples.md", "md_atom_type": "TABLE_ROW", "md_parent_section": "§EX.5 [Example 5]", "md_verbatim": "| A | AM | 1 | 2012-02-01 | 2012-02-08 |", "score": 0.9, "match_basis": "verbatim_token+global_search"}, {"md_atom_id": "md_dmEX_ex_a114", "md_file": "knowledge_base/domains/EX/examples.md", "md_atom_type": "TABLE_ROW", "md_parent_section": "§EX.5 [Example 5]", "md_verbatim": "| B | PM | 1 | 2012-02-01 | 2012-02-08 |", "score": 0.9, "match_basis": "verbatim_token+global_search"}, {"md_atom_id": "md_dmEX_ex_a117", "md_file": "knowledge_base/domains/EX/examples.md", "md_atom_type": "TABLE_ROW", "md_parent_section": "§EX.5 [Example 5]", "md_verbatim": "| A | AM | 1 | 2012-03-01 | 2012-03-08 |", "score": 0.9, "match_basis": "verbatim_token+global_search"}, {"md_atom_id": "md_dmEX_ex_a118", "md_file": "knowledge_base/domains/EX/examples.md", "md_atom_type": "TABLE_ROW", "md_parent_section": "§EX.5 [Example 5]", "md_verbatim": "| B | PM | 1 | 2012-03-01 | 2012-03-08 |", "score": 0.9, "match_basis": "verbatim_token+global_search"}, {"md_atom_id": "md_dmEX_ex_a256", "md_file": "knowledge_base/domains/EX/examples.md", "md_atom_type": "TABLE_ROW", "md_parent_section": "§EX.8 [Example 8]", "md_verbatim": "| 2012-01-13 | 2012-01-20 |", "score": 0.9, "match_basis": "verbatim_token+global_search"}, {"md_atom_id": "md_dmEX_ex_a258", "md_file": "knowledge_base/domains/EX/examples.md", "md_atom_type": "TABLE_ROW", "md_parent_section": "§EX.8 [Example 8]", "md_verbatim": "| 2012-01-15 | 0 |", "score": 0.9, "match_basis": "verbatim_token+global_search"}, {"md_atom_id": "md_dmEX_ex_a259", "md_file": "knowledge_base/domains/EX/examples.md", "md_atom_type": "TABLE_ROW", "md_parent_section": "§EX.8 [Example 8]", "md_verbatim": "| 2012-01-16 | 2 |", "score": 0.9, "match_basis": "verbatim_token+global_search"}, {"md_atom_id": "md_dmEX_ex_a008", "md_file": "knowledge_base/domains/EX/examples.md", "md_atom_type": "TABLE_ROW", "md_parent_section": "§EX.1 [Example 1]", "md_verbatim": "| A | 2 | | 2011-01-14 | 2011-01-28 |", "score": 0.5, "match_basis": "verbatim_token+global_search"}], "candidate_count": 10, "zero_candidate": false}
{"pdf_atom_id": "ig34_p0114_a026", "pdf_atom_type": "SENTENCE", "pdf_source": "SDTMIG v3.4 (no header footer).pdf", "pdf_page": 114, "pdf_parent_section": "§6.1.3.3 [Exposure/Exposure as Collected Examples]", "pdf_verbatim": "The EC dataset shows the administrations as collected. The time-point variables ECTPT and ECTPTNUM were used to describe the time of day of administration. This use of time-point variables is novel, representing data about multiple time points, 1 on each day of administration, rather than data for a single time point.", "figure_ref": null, "candidates": [{"md_atom_id": "md_dmEX_ex_a119", "md_file": "knowledge_base/domains/EX/examples.md", "md_atom_type": "SENTENCE", "md_parent_section": "§EX.5 [Example 5]", "md_verbatim": "The EC dataset shows the administrations as collected. The time-point variables ECTPT and ECTPTNUM were used to describe the time of day of administration. This use of time-point variables is novel, representing data about multiple time points, 1 on each day of administration, rather than data for a single time point.", "score": 0.9, "match_basis": "verbatim_token+global_search"}, {"md_atom_id": "md_dmEC_ex_a035", "md_file": "knowledge_base/domains/EC/examples.md", "md_atom_type": "SENTENCE", "md_parent_section": "§EC.5 [Example 5]", "md_verbatim": "The EC dataset shows the administrations as collected. The time-point variables ECTPT and ECTPTNUM were used to describe the time of day of administration.", "score": 0.6742, "match_basis": "verbatim_token+global_search"}, {"md_atom_id": "md_dmEC_ex_a016", "md_file": "knowledge_base/domains/EC/examples.md", "md_atom_type": "SENTENCE", "md_parent_section": "§EC.2 [Example 2]", "md_verbatim": "The collected administration amounts, in mL, and their locations are represented in the EC dataset.", "score": 0.5019, "match_basis": "verbatim_token+global_search"}, {"md_atom_id": "md_dmEX_ex_a052", "md_file": "knowledge_base/domains/EX/examples.md", "md_atom_type": "SENTENCE", "md_parent_section": "§EX.2 [Example 2]", "md_verbatim": "The collected administration amounts, in mL, and their locations are represented in the EC dataset.", "score": 0.5019, "match_basis": "verbatim_token+global_search"}, {"md_atom_id": "md_model01_a016", "md_file": "knowledge_base/model/01_concepts_and_terms.md", "md_atom_type": "SENTENCE", "md_parent_section": "§2.1 [Model Concepts and Terms — Variables]", "md_verbatim": "All datasets are structured as flat files with rows representing observations and columns representing variables; each dataset is described by metadata definitions that provide information about the variables used in the dataset.", "score": 0.5, "match_basis": "verbatim_token+global_search"}], "candidate_count": 5, "zero_candidate": false}
{"pdf_atom_id": "ig34_p0115_a001", "pdf_atom_type": "CODE_LITERAL", "pdf_source": "SDTMIG v3.4 (no header footer).pdf", "pdf_page": 115, "pdf_parent_section": "§6.1.3.3 [Exposure/Exposure as Collected Examples]", "pdf_verbatim": "ec.xpt", "figure_ref": null, "candidates": [{"md_atom_id": "md_ch04_a207", "md_file": "knowledge_base/chapters/ch04_general_assumptions.md", "md_atom_type": "CODE_LITERAL", "md_parent_section": "§4.2.3 [Use of \"Subject\" and USUBJID]", "md_verbatim": "dm.xpt:", "score": 0.69, "match_basis": "verbatim_token+global_search"}, {"md_atom_id": "md_ch04_a210", "md_file": "knowledge_base/chapters/ch04_general_assumptions.md", "md_atom_type": "CODE_LITERAL", "md_parent_section": "§4.2.3 [Use of \"Subject\" and USUBJID]", "md_verbatim": "dm.xpt:", "score": 0.69, "match_basis": "verbatim_token+global_search"}, {"md_atom_id": "md_dmCM_ex_a010", "md_file": "knowledge_base/domains/CM/examples.md", "md_atom_type": "NOTE", "md_parent_section": "§CM.1 [Example 1]", "md_verbatim": "**cm.xpt**", "score": 0.69, "match_basis": "verbatim_token+global_search"}, {"md_atom_id": "md_dmCM_ex_a025", "md_file": "knowledge_base/domains/CM/examples.md", "md_atom_type": "NOTE", "md_parent_section": "§CM.2 [Example 2]", "md_verbatim": "**cm.xpt**", "score": 0.69, "match_basis": "verbatim_token+global_search"}, {"md_atom_id": "md_dmCM_ex_a042", "md_file": "knowledge_base/domains/CM/examples.md", "md_atom_type": "NOTE", "md_parent_section": "§CM.3 [Example 3]", "md_verbatim": "**cm.xpt**", "score": 0.69, "match_basis": "verbatim_token+global_search"}, {"md_atom_id": "md_dmCM_ex_a052", "md_file": "knowledge_base/domains/CM/examples.md", "md_atom_type": "NOTE", "md_parent_section": "§CM.4 [Example 4]", "md_verbatim": "**cm.xpt**", "score": 0.69, "match_basis": "verbatim_token+global_search"}, {"md_atom_id": "md_dmCM_ex_a070", "md_file": "knowledge_base/domains/CM/examples.md", "md_atom_type": "NOTE", "md_parent_section": "§CM.5 [Example 5]", "md_verbatim": "**cm.xpt**", "score": 0.69, "match_basis": "verbatim_token+global_search"}, {"md_atom_id": "md_ch04_a368", "md_file": "knowledge_base/chapters/ch04_general_assumptions.md", "md_atom_type": "CODE_LITERAL", "md_parent_section": "§4.2.8.3 [Multiple Values for a Non-result Qualifier Variable]", "md_verbatim": "ae.xpt:", "score": 0.69, "match_basis": "verbatim_token+global_search"}, {"md_atom_id": "md_ch04_a378", "md_file": "knowledge_base/chapters/ch04_general_assumptions.md", "md_atom_type": "CODE_LITERAL", "md_parent_section": "§4.2.8.3 [Multiple Values for a Non-result Qualifier Variable]", "md_verbatim": "ae.xpt:", "score": 0.69, "match_basis": "verbatim_token+global_search"}, {"md_atom_id": "md_ch04_a391", "md_file": "knowledge_base/chapters/ch04_general_assumptions.md", "md_atom_type": "CODE_LITERAL", "md_parent_section": "§4.2.8.3 [Multiple Values for a Non-result Qualifier Variable]", "md_verbatim": "ae.xpt:", "score": 0.69, "match_basis": "verbatim_token+global_search"}], "candidate_count": 10, "zero_candidate": false}
{"pdf_atom_id": "ig34_p0115_a002", "pdf_atom_type": "TABLE_HEADER", "pdf_source": "SDTMIG v3.4 (no header footer).pdf", "pdf_page": 115, "pdf_parent_section": "§6.1.3.3 [Exposure/Exposure as Collected Examples]", "pdf_verbatim": "Row | STUDYID | DOMAIN | USUBJID | ECSEQ | ECLNKID | ECTRT | ECPRESP | ECOCCUR | ECDOSE | ECDOSU | ECDOSFRQ | EPOCH | ECSTDTC | ECENDTC | ECSTDY | ECENDY | ECTPT | ECTPTNUM", "figure_ref": null, "candidates": [{"md_atom_id": "md_dmEC_ex_a037", "md_file": "knowledge_base/domains/EC/examples.md", "md_atom_type": "TABLE_HEADER", "md_parent_section": "§EC.5 [Example 5]", "md_verbatim": "| Row | STUDYID | DOMAIN | USUBJID | ECSEQ | ECLNKID | ECTRT | ECPRESP | ECOCCUR | ECDOSE | ECDOSU | ECDOSFRQ | EPOCH | ECSTDTC | ECENDTC | ECSTDY | ECENDY | ECTPT | ECTPTNUM |\n|-----|---------|--------|---------|-------|---------|-------|---------|---------|--------|--------|----------|-------|---------|---------|--------|--------|-------|----------|", "score": 0.9, "match_basis": "verbatim_token+global_search"}, {"md_atom_id": "md_dmEX_ex_a121", "md_file": "knowledge_base/domains/EX/examples.md", "md_atom_type": "TABLE_HEADER", "md_parent_section": "§EX.5 [Example 5]", "md_verbatim": "| Row | STUDYID | DOMAIN | USUBJID | ECSEQ | ECLNKID | ECTRT | ECPRESP | ECOCCUR | ECDOSE | ECDOSU | ECDOSFRQ | EPOCH | ECSTDTC | ECENDTC | ECSTDY | ECENDY | ECTPT | ECTPTNUM |\n|-----|---------|--------|---------|-------|---------|-------|---------|---------|--------|--------|----------|-------|---------|---------|--------|--------|-------|----------|", "score": 0.9, "match_basis": "verbatim_token+global_search"}, {"md_atom_id": "md_dmEC_ex_a026", "md_file": "knowledge_base/domains/EC/examples.md", "md_atom_type": "TABLE_HEADER", "md_parent_section": "§EC.3 [Example 3]", "md_verbatim": "| Row | STUDYID | DOMAIN | USUBJID | ECSEQ | ECTRT | ECPRESP | ECOCCUR | ECDOSE | ECDOSU | ECDOSFRQ | EPOCH | ECSTDTC | ECENDTC | ECSTDY | ECENDY |\n|-----|---------|--------|---------|-------|-------|---------|---------|--------|--------|----------|-------|---------|---------|--------|--------|", "score": 0.8032, "match_basis": "verbatim_token+global_search"}, {"md_atom_id": "md_dmEX_ex_a075", "md_file": "knowledge_base/domains/EX/examples.md", "md_atom_type": "TABLE_HEADER", "md_parent_section": "§EX.3 [Example 3]", "md_verbatim": "| Row | STUDYID | DOMAIN | USUBJID | ECSEQ | ECTRT | ECPRESP | ECOCCUR | ECDOSE | ECDOSU | ECDOSFRQ | EPOCH | ECSTDTC | ECENDTC | ECSTDY | ECENDY |\n|-----|---------|--------|---------|-------|-------|---------|---------|--------|--------|----------|-------|---------|---------|--------|--------|", "score": 0.8032, "match_basis": "verbatim_token+global_search"}, {"md_atom_id": "md_dmEC_ex_a009", "md_file": "knowledge_base/domains/EC/examples.md", "md_atom_type": "TABLE_HEADER", "md_parent_section": "§EC.1 [Example 1]", "md_verbatim": "| Row | STUDYID | DOMAIN | USUBJID | ECSEQ | ECLNKID | ECTRT | ECPRESP | ECOCCUR | ECREASOC | ECDOSE | ECDOSU | ECDOSFRQ | EPOCH | ECSTDTC | ECENDTC | ECSTDY | ECENDY |\n|-----|---------|--------|---------|-------|---------|-------|---------|---------|----------|--------|--------|----------|-------|---------|---------|--------|--------|", "score": 0.8029, "match_basis": "verbatim_token+global_search"}], "candidate_count": 5, "zero_candidate": false}
{"pdf_atom_id": "ig34_p0115_a003", "pdf_atom_type": "TABLE_ROW", "pdf_source": "SDTMIG v3.4 (no header footer).pdf", "pdf_page": 115, "pdf_parent_section": "§6.1.3.3 [Exposure/Exposure as Collected Examples]", "pdf_verbatim": "1 | ABC | EC | ABC5001 | 1 | 20120101-20120108-AM | BOTTLE A | Y | Y | 1 | TABLET | QD | TREATMENT | 2012-01-01 | 2012-01-08 | 1 | 8 | AM | 1", "figure_ref": null, "candidates": [{"md_atom_id": "md_dmEC_ex_a038", "md_file": "knowledge_base/domains/EC/examples.md", "md_atom_type": "TABLE_ROW", "md_parent_section": "§EC.5 [Example 5]", "md_verbatim": "| 1 | ABC | EC | ABC5001 | 1 | 20120101-20120108-AM | BOTTLE A | Y | Y | 1 | TABLET | QD | TREATMENT | 2012-01-01 | 2012-01-08 | 1 | 8 | AM | 1 |", "score": 0.9, "match_basis": "verbatim_token+global_search"}, {"md_atom_id": "md_dmEC_ex_a039", "md_file": "knowledge_base/domains/EC/examples.md", "md_atom_type": "TABLE_ROW", "md_parent_section": "§EC.5 [Example 5]", "md_verbatim": "| 2 | ABC | EC | ABC5001 | 2 | 20120101-20120108-PM | BOTTLE B | Y | Y | 1 | TABLET | QD | TREATMENT | 2012-01-01 | 2012-01-08 | 1 | 8 | PM | 2 |", "score": 0.9, "match_basis": "verbatim_token+global_search"}, {"md_atom_id": "md_dmEX_ex_a122", "md_file": "knowledge_base/domains/EX/examples.md", "md_atom_type": "TABLE_ROW", "md_parent_section": "§EX.5 [Example 5]", "md_verbatim": "| 1 | ABC | EC | ABC5001 | 1 | 20120101-20120108-AM | BOTTLE A | Y | Y | 1 | TABLET | QD | TREATMENT | 2012-01-01 | 2012-01-08 | 1 | 8 | AM | 1 |", "score": 0.9, "match_basis": "verbatim_token+global_search"}, {"md_atom_id": "md_dmEX_ex_a123", "md_file": "knowledge_base/domains/EX/examples.md", "md_atom_type": "TABLE_ROW", "md_parent_section": "§EX.5 [Example 5]", "md_verbatim": "| 2 | ABC | EC | ABC5001 | 2 | 20120101-20120108-PM | BOTTLE B | Y | Y | 1 | TABLET | QD | TREATMENT | 2012-01-01 | 2012-01-08 | 1 | 8 | PM | 2 |", "score": 0.9, "match_basis": "verbatim_token+global_search"}, {"md_atom_id": "md_dmEC_ex_a040", "md_file": "knowledge_base/domains/EC/examples.md", "md_atom_type": "TABLE_ROW", "md_parent_section": "§EC.5 [Example 5]", "md_verbatim": "| 3 | ABC | EC | ABC5002 | 1 | 20120201-20120208-AM | BOTTLE A | Y | Y | 1 | TABLET | QD | TREATMENT | 2012-02-01 | 2012-02-08 | 1 | 8 | AM | 1 |", "score": 0.74, "match_basis": "verbatim_token+global_search"}], "candidate_count": 5, "zero_candidate": false}
{"pdf_atom_id": "ig34_p0115_a004", "pdf_atom_type": "TABLE_ROW", "pdf_source": "SDTMIG v3.4 (no header footer).pdf", "pdf_page": 115, "pdf_parent_section": "§6.1.3.3 [Exposure/Exposure as Collected Examples]", "pdf_verbatim": "2 | ABC | EC | ABC5001 | 2 | 20120101-20120108-PM | BOTTLE B | Y | Y | 1 | TABLET | QD | TREATMENT | 2012-01-01 | 2012-01-08 | 1 | 8 | PM | 2", "figure_ref": null, "candidates": [{"md_atom_id": "md_dmEC_ex_a038", "md_file": "knowledge_base/domains/EC/examples.md", "md_atom_type": "TABLE_ROW", "md_parent_section": "§EC.5 [Example 5]", "md_verbatim": "| 1 | ABC | EC | ABC5001 | 1 | 20120101-20120108-AM | BOTTLE A | Y | Y | 1 | TABLET | QD | TREATMENT | 2012-01-01 | 2012-01-08 | 1 | 8 | AM | 1 |", "score": 0.9, "match_basis": "verbatim_token+global_search"}, {"md_atom_id": "md_dmEC_ex_a039", "md_file": "knowledge_base/domains/EC/examples.md", "md_atom_type": "TABLE_ROW", "md_parent_section": "§EC.5 [Example 5]", "md_verbatim": "| 2 | ABC | EC | ABC5001 | 2 | 20120101-20120108-PM | BOTTLE B | Y | Y | 1 | TABLET | QD | TREATMENT | 2012-01-01 | 2012-01-08 | 1 | 8 | PM | 2 |", "score": 0.9, "match_basis": "verbatim_token+global_search"}, {"md_atom_id": "md_dmEX_ex_a122", "md_file": "knowledge_base/domains/EX/examples.md", "md_atom_type": "TABLE_ROW", "md_parent_section": "§EX.5 [Example 5]", "md_verbatim": "| 1 | ABC | EC | ABC5001 | 1 | 20120101-20120108-AM | BOTTLE A | Y | Y | 1 | TABLET | QD | TREATMENT | 2012-01-01 | 2012-01-08 | 1 | 8 | AM | 1 |", "score": 0.9, "match_basis": "verbatim_token+global_search"}, {"md_atom_id": "md_dmEX_ex_a123", "md_file": "knowledge_base/domains/EX/examples.md", "md_atom_type": "TABLE_ROW", "md_parent_section": "§EX.5 [Example 5]", "md_verbatim": "| 2 | ABC | EC | ABC5001 | 2 | 20120101-20120108-PM | BOTTLE B | Y | Y | 1 | TABLET | QD | TREATMENT | 2012-01-01 | 2012-01-08 | 1 | 8 | PM | 2 |", "score": 0.9, "match_basis": "verbatim_token+global_search"}, {"md_atom_id": "md_dmEC_ex_a040", "md_file": "knowledge_base/domains/EC/examples.md", "md_atom_type": "TABLE_ROW", "md_parent_section": "§EC.5 [Example 5]", "md_verbatim": "| 3 | ABC | EC | ABC5002 | 1 | 20120201-20120208-AM | BOTTLE A | Y | Y | 1 | TABLET | QD | TREATMENT | 2012-02-01 | 2012-02-08 | 1 | 8 | AM | 1 |", "score": 0.74, "match_basis": "verbatim_token+global_search"}], "candidate_count": 5, "zero_candidate": false}
{"pdf_atom_id": "ig34_p0115_a005", "pdf_atom_type": "TABLE_ROW", "pdf_source": "SDTMIG v3.4 (no header footer).pdf", "pdf_page": 115, "pdf_parent_section": "§6.1.3.3 [Exposure/Exposure as Collected Examples]", "pdf_verbatim": "3 | ABC | EC | ABC5002 | 1 | 20120201-20120208-AM | BOTTLE A | Y | Y | 1 | TABLET | QD | TREATMENT | 2012-02-01 | 2012-02-08 | 1 | 8 | AM | 1", "figure_ref": null, "candidates": [{"md_atom_id": "md_dmEC_ex_a040", "md_file": "knowledge_base/domains/EC/examples.md", "md_atom_type": "TABLE_ROW", "md_parent_section": "§EC.5 [Example 5]", "md_verbatim": "| 3 | ABC | EC | ABC5002 | 1 | 20120201-20120208-AM | BOTTLE A | Y | Y | 1 | TABLET | QD | TREATMENT | 2012-02-01 | 2012-02-08 | 1 | 8 | AM | 1 |", "score": 0.9, "match_basis": "verbatim_token+global_search"}, {"md_atom_id": "md_dmEC_ex_a041", "md_file": "knowledge_base/domains/EC/examples.md", "md_atom_type": "TABLE_ROW", "md_parent_section": "§EC.5 [Example 5]", "md_verbatim": "| 4 | ABC | EC | ABC5002 | 2 | 20120201-20120208-PM | BOTTLE B | Y | Y | 1 | TABLET | QD | TREATMENT | 2012-02-01 | 2012-02-08 | 1 | 8 | PM | 2 |", "score": 0.9, "match_basis": "verbatim_token+global_search"}, {"md_atom_id": "md_dmEX_ex_a124", "md_file": "knowledge_base/domains/EX/examples.md", "md_atom_type": "TABLE_ROW", "md_parent_section": "§EX.5 [Example 5]", "md_verbatim": "| 3 | ABC | EC | ABC5002 | 1 | 20120201-20120208-AM | BOTTLE A | Y | Y | 1 | TABLET | QD | TREATMENT | 2012-02-01 | 2012-02-08 | 1 | 8 | AM | 1 |", "score": 0.9, "match_basis": "verbatim_token+global_search"}, {"md_atom_id": "md_dmEX_ex_a125", "md_file": "knowledge_base/domains/EX/examples.md", "md_atom_type": "TABLE_ROW", "md_parent_section": "§EX.5 [Example 5]", "md_verbatim": "| 4 | ABC | EC | ABC5002 | 2 | 20120201-20120208-PM | BOTTLE B | Y | Y | 1 | TABLET | QD | TREATMENT | 2012-02-01 | 2012-02-08 | 1 | 8 | PM | 2 |", "score": 0.9, "match_basis": "verbatim_token+global_search"}, {"md_atom_id": "md_dmEC_ex_a038", "md_file": "knowledge_base/domains/EC/examples.md", "md_atom_type": "TABLE_ROW", "md_parent_section": "§EC.5 [Example 5]", "md_verbatim": "| 1 | ABC | EC | ABC5001 | 1 | 20120101-20120108-AM | BOTTLE A | Y | Y | 1 | TABLET | QD | TREATMENT | 2012-01-01 | 2012-01-08 | 1 | 8 | AM | 1 |", "score": 0.74, "match_basis": "verbatim_token+global_search"}], "candidate_count": 5, "zero_candidate": false}
{"pdf_atom_id": "ig34_p0115_a006", "pdf_atom_type": "TABLE_ROW", "pdf_source": "SDTMIG v3.4 (no header footer).pdf", "pdf_page": 115, "pdf_parent_section": "§6.1.3.3 [Exposure/Exposure as Collected Examples]", "pdf_verbatim": "4 | ABC | EC | ABC5002 | 2 | 20120201-20120208-PM | BOTTLE B | Y | Y | 1 | TABLET | QD | TREATMENT | 2012-02-01 | 2012-02-08 | 1 | 8 | PM | 2", "figure_ref": null, "candidates": [{"md_atom_id": "md_dmEC_ex_a040", "md_file": "knowledge_base/domains/EC/examples.md", "md_atom_type": "TABLE_ROW", "md_parent_section": "§EC.5 [Example 5]", "md_verbatim": "| 3 | ABC | EC | ABC5002 | 1 | 20120201-20120208-AM | BOTTLE A | Y | Y | 1 | TABLET | QD | TREATMENT | 2012-02-01 | 2012-02-08 | 1 | 8 | AM | 1 |", "score": 0.9, "match_basis": "verbatim_token+global_search"}, {"md_atom_id": "md_dmEC_ex_a041", "md_file": "knowledge_base/domains/EC/examples.md", "md_atom_type": "TABLE_ROW", "md_parent_section": "§EC.5 [Example 5]", "md_verbatim": "| 4 | ABC | EC | ABC5002 | 2 | 20120201-20120208-PM | BOTTLE B | Y | Y | 1 | TABLET | QD | TREATMENT | 2012-02-01 | 2012-02-08 | 1 | 8 | PM | 2 |", "score": 0.9, "match_basis": "verbatim_token+global_search"}, {"md_atom_id": "md_dmEX_ex_a124", "md_file": "knowledge_base/domains/EX/examples.md", "md_atom_type": "TABLE_ROW", "md_parent_section": "§EX.5 [Example 5]", "md_verbatim": "| 3 | ABC | EC | ABC5002 | 1 | 20120201-20120208-AM | BOTTLE A | Y | Y | 1 | TABLET | QD | TREATMENT | 2012-02-01 | 2012-02-08 | 1 | 8 | AM | 1 |", "score": 0.9, "match_basis": "verbatim_token+global_search"}, {"md_atom_id": "md_dmEX_ex_a125", "md_file": "knowledge_base/domains/EX/examples.md", "md_atom_type": "TABLE_ROW", "md_parent_section": "§EX.5 [Example 5]", "md_verbatim": "| 4 | ABC | EC | ABC5002 | 2 | 20120201-20120208-PM | BOTTLE B | Y | Y | 1 | TABLET | QD | TREATMENT | 2012-02-01 | 2012-02-08 | 1 | 8 | PM | 2 |", "score": 0.9, "match_basis": "verbatim_token+global_search"}, {"md_atom_id": "md_dmEC_ex_a038", "md_file": "knowledge_base/domains/EC/examples.md", "md_atom_type": "TABLE_ROW", "md_parent_section": "§EC.5 [Example 5]", "md_verbatim": "| 1 | ABC | EC | ABC5001 | 1 | 20120101-20120108-AM | BOTTLE A | Y | Y | 1 | TABLET | QD | TREATMENT | 2012-01-01 | 2012-01-08 | 1 | 8 | AM | 1 |", "score": 0.74, "match_basis": "verbatim_token+global_search"}], "candidate_count": 5, "zero_candidate": false}
{"pdf_atom_id": "ig34_p0115_a007", "pdf_atom_type": "TABLE_ROW", "pdf_source": "SDTMIG v3.4 (no header footer).pdf", "pdf_page": 115, "pdf_parent_section": "§6.1.3.3 [Exposure/Exposure as Collected Examples]", "pdf_verbatim": "5 | ABC | EC | ABC5003 | 1 | 20120301-20120308-AM | BOTTLE A | Y | Y | 1 | TABLET | QD | TREATMENT | 2012-03-01 | 2012-03-08 | 1 | 8 | AM | 1", "figure_ref": null, "candidates": [{"md_atom_id": "md_dmEC_ex_a042", "md_file": "knowledge_base/domains/EC/examples.md", "md_atom_type": "TABLE_ROW", "md_parent_section": "§EC.5 [Example 5]", "md_verbatim": "| 5 | ABC | EC | ABC5003 | 1 | 20120301-20120308-AM | BOTTLE A | Y | Y | 1 | TABLET | QD | TREATMENT | 2012-03-01 | 2012-03-08 | 1 | 8 | AM | 1 |", "score": 0.9, "match_basis": "verbatim_token+global_search"}, {"md_atom_id": "md_dmEC_ex_a043", "md_file": "knowledge_base/domains/EC/examples.md", "md_atom_type": "TABLE_ROW", "md_parent_section": "§EC.5 [Example 5]", "md_verbatim": "| 6 | ABC | EC | ABC5003 | 2 | 20120301-20120308-PM | BOTTLE B | Y | Y | 1 | TABLET | QD | TREATMENT | 2012-03-01 | 2012-03-08 | 1 | 8 | PM | 2 |", "score": 0.9, "match_basis": "verbatim_token+global_search"}, {"md_atom_id": "md_dmEX_ex_a126", "md_file": "knowledge_base/domains/EX/examples.md", "md_atom_type": "TABLE_ROW", "md_parent_section": "§EX.5 [Example 5]", "md_verbatim": "| 5 | ABC | EC | ABC5003 | 1 | 20120301-20120308-AM | BOTTLE A | Y | Y | 1 | TABLET | QD | TREATMENT | 2012-03-01 | 2012-03-08 | 1 | 8 | AM | 1 |", "score": 0.9, "match_basis": "verbatim_token+global_search"}, {"md_atom_id": "md_dmEX_ex_a127", "md_file": "knowledge_base/domains/EX/examples.md", "md_atom_type": "TABLE_ROW", "md_parent_section": "§EX.5 [Example 5]", "md_verbatim": "| 6 | ABC | EC | ABC5003 | 2 | 20120301-20120308-PM | BOTTLE B | Y | Y | 1 | TABLET | QD | TREATMENT | 2012-03-01 | 2012-03-08 | 1 | 8 | PM | 2 |", "score": 0.9, "match_basis": "verbatim_token+global_search"}, {"md_atom_id": "md_dmEC_ex_a038", "md_file": "knowledge_base/domains/EC/examples.md", "md_atom_type": "TABLE_ROW", "md_parent_section": "§EC.5 [Example 5]", "md_verbatim": "| 1 | ABC | EC | ABC5001 | 1 | 20120101-20120108-AM | BOTTLE A | Y | Y | 1 | TABLET | QD | TREATMENT | 2012-01-01 | 2012-01-08 | 1 | 8 | AM | 1 |", "score": 0.7258, "match_basis": "verbatim_token+global_search"}], "candidate_count": 5, "zero_candidate": false}
{"pdf_atom_id": "ig34_p0115_a008", "pdf_atom_type": "TABLE_ROW", "pdf_source": "SDTMIG v3.4 (no header footer).pdf", "pdf_page": 115, "pdf_parent_section": "§6.1.3.3 [Exposure/Exposure as Collected Examples]", "pdf_verbatim": "6 | ABC | EC | ABC5003 | 2 | 20120301-20120308-PM | BOTTLE B | Y | Y | 1 | TABLET | QD | TREATMENT | 2012-03-01 | 2012-03-08 | 1 | 8 | PM | 2", "figure_ref": null, "candidates": [{"md_atom_id": "md_dmEC_ex_a042", "md_file": "knowledge_base/domains/EC/examples.md", "md_atom_type": "TABLE_ROW", "md_parent_section": "§EC.5 [Example 5]", "md_verbatim": "| 5 | ABC | EC | ABC5003 | 1 | 20120301-20120308-AM | BOTTLE A | Y | Y | 1 | TABLET | QD | TREATMENT | 2012-03-01 | 2012-03-08 | 1 | 8 | AM | 1 |", "score": 0.9, "match_basis": "verbatim_token+global_search"}, {"md_atom_id": "md_dmEC_ex_a043", "md_file": "knowledge_base/domains/EC/examples.md", "md_atom_type": "TABLE_ROW", "md_parent_section": "§EC.5 [Example 5]", "md_verbatim": "| 6 | ABC | EC | ABC5003 | 2 | 20120301-20120308-PM | BOTTLE B | Y | Y | 1 | TABLET | QD | TREATMENT | 2012-03-01 | 2012-03-08 | 1 | 8 | PM | 2 |", "score": 0.9, "match_basis": "verbatim_token+global_search"}, {"md_atom_id": "md_dmEX_ex_a126", "md_file": "knowledge_base/domains/EX/examples.md", "md_atom_type": "TABLE_ROW", "md_parent_section": "§EX.5 [Example 5]", "md_verbatim": "| 5 | ABC | EC | ABC5003 | 1 | 20120301-20120308-AM | BOTTLE A | Y | Y | 1 | TABLET | QD | TREATMENT | 2012-03-01 | 2012-03-08 | 1 | 8 | AM | 1 |", "score": 0.9, "match_basis": "verbatim_token+global_search"}, {"md_atom_id": "md_dmEX_ex_a127", "md_file": "knowledge_base/domains/EX/examples.md", "md_atom_type": "TABLE_ROW", "md_parent_section": "§EX.5 [Example 5]", "md_verbatim": "| 6 | ABC | EC | ABC5003 | 2 | 20120301-20120308-PM | BOTTLE B | Y | Y | 1 | TABLET | QD | TREATMENT | 2012-03-01 | 2012-03-08 | 1 | 8 | PM | 2 |", "score": 0.9, "match_basis": "verbatim_token+global_search"}, {"md_atom_id": "md_dmEC_ex_a038", "md_file": "knowledge_base/domains/EC/examples.md", "md_atom_type": "TABLE_ROW", "md_parent_section": "§EC.5 [Example 5]", "md_verbatim": "| 1 | ABC | EC | ABC5001 | 1 | 20120101-20120108-AM | BOTTLE A | Y | Y | 1 | TABLET | QD | TREATMENT | 2012-01-01 | 2012-01-08 | 1 | 8 | AM | 1 |", "score": 0.7258, "match_basis": "verbatim_token+global_search"}], "candidate_count": 5, "zero_candidate": false}
{"pdf_atom_id": "ig34_p0115_a009", "pdf_atom_type": "SENTENCE", "pdf_source": "SDTMIG v3.4 (no header footer).pdf", "pdf_page": 115, "pdf_parent_section": "§6.1.3.3 [Exposure/Exposure as Collected Examples]", "pdf_verbatim": "The EX dataset shows the unmasked administrations in the protocol specified unit, mg. Amount of placebo was represented as 0 mg. The sponsor chose to represent the administrations at the time-point level.", "figure_ref": null, "candidates": [{"md_atom_id": "md_dmEX_ex_a128", "md_file": "knowledge_base/domains/EX/examples.md", "md_atom_type": "SENTENCE", "md_parent_section": "§EX.5 [Example 5]", "md_verbatim": "The EX dataset shows the unmasked administrations in the protocol-specified unit, mg. Amount of placebo was represented as 0 mg. The sponsor chose to represent the administrations at the time-point level.", "score": 0.9, "match_basis": "verbatim_token+global_search"}, {"md_atom_id": "md_dmEC_ex_a016", "md_file": "knowledge_base/domains/EC/examples.md", "md_atom_type": "SENTENCE", "md_parent_section": "§EC.2 [Example 2]", "md_verbatim": "The collected administration amounts, in mL, and their locations are represented in the EC dataset.", "score": 0.52, "match_basis": "verbatim_token+global_search"}, {"md_atom_id": "md_dmEX_ex_a052", "md_file": "knowledge_base/domains/EX/examples.md", "md_atom_type": "SENTENCE", "md_parent_section": "§EX.2 [Example 2]", "md_verbatim": "The collected administration amounts, in mL, and their locations are represented in the EC dataset.", "score": 0.52, "match_basis": "verbatim_token+global_search"}, {"md_atom_id": "md_dmEX_ex_a086", "md_file": "knowledge_base/domains/EX/examples.md", "md_atom_type": "SENTENCE", "md_parent_section": "§EX.3 [Example 3]", "md_verbatim": "The EX dataset shows the doses administered in the protocol-specified unit (mg). The sponsor considered an administration to consist of the total amount for bottles A, B, and C. The derivation of EX records from multiple EC records should be shown in the Define-XML document.", "score": 0.5169, "match_basis": "verbatim_token+global_search"}, {"md_atom_id": "md_dmEX_ex_a095", "md_file": "knowledge_base/domains/EX/examples.md", "md_atom_type": "SENTENCE", "md_parent_section": "§EX.4 [Example 4]", "md_verbatim": "The EX dataset shows administrations collected in the protocol-specified unit, mg. No EC dataset was needed because the open-label administrations were collected in the protocol-specified unit; EC would be an exact duplicate of the entire EX domain.", "score": 0.5034, "match_basis": "verbatim_token+global_search"}], "candidate_count": 5, "zero_candidate": false}
{"pdf_atom_id": "ig34_p0115_a010", "pdf_atom_type": "NOTE", "pdf_source": "SDTMIG v3.4 (no header footer).pdf", "pdf_page": 115, "pdf_parent_section": "§6.1.3.3 [Exposure/Exposure as Collected Examples]", "pdf_verbatim": "Rows 1-2: Show administrations for a subject who was randomized to the 20 mg drug X arm.", "figure_ref": null, "candidates": [{"md_atom_id": "md_dmEX_ex_a129", "md_file": "knowledge_base/domains/EX/examples.md", "md_atom_type": "SENTENCE", "md_parent_section": "§EX.5 [Example 5]", "md_verbatim": "**Rows 1-2:** Show administrations for a subject who was randomized to the 20 mg drug X arm.", "score": 0.81, "match_basis": "verbatim_token+global_search"}, {"md_atom_id": "md_dmEX_ex_a130", "md_file": "knowledge_base/domains/EX/examples.md", "md_atom_type": "SENTENCE", "md_parent_section": "§EX.5 [Example 5]", "md_verbatim": "**Rows 3-4:** Show administrations for a subject who was randomized to the 10 mg drug X arm.", "score": 0.81, "match_basis": "verbatim_token+global_search"}, {"md_atom_id": "md_dmEX_ex_a131", "md_file": "knowledge_base/domains/EX/examples.md", "md_atom_type": "SENTENCE", "md_parent_section": "§EX.5 [Example 5]", "md_verbatim": "**Rows 5-6:** Show administrations for a subject who was randomized to the placebo arm.", "score": 0.71, "match_basis": "verbatim_token+global_search"}, {"md_atom_id": "md_dmDM_ex_a014", "md_file": "knowledge_base/domains/DM/examples.md", "md_atom_type": "SENTENCE", "md_parent_section": "§DM.2 [Example 2]", "md_verbatim": "**Row 2:** Subject 002 was randomized to arm \"Drug B\". As shown in the SE dataset, their actual arm was consistent with their randomization.", "score": 0.47, "match_basis": "verbatim_token+global_search"}, {"md_atom_id": "md_dmEC_ex_a046", "md_file": "knowledge_base/domains/EC/examples.md", "md_atom_type": "SENTENCE", "md_parent_section": "§EC.6 [Example 6]", "md_verbatim": "The EC dataset shows administrations as collected.", "score": 0.435, "match_basis": "verbatim_token+global_search"}], "candidate_count": 5, "zero_candidate": false}
{"pdf_atom_id": "ig34_p0115_a011", "pdf_atom_type": "NOTE", "pdf_source": "SDTMIG v3.4 (no header footer).pdf", "pdf_page": 115, "pdf_parent_section": "§6.1.3.3 [Exposure/Exposure as Collected Examples]", "pdf_verbatim": "Rows 3-4: Show administrations for a subject who was randomized to the 10 mg drug X arm.", "figure_ref": null, "candidates": [{"md_atom_id": "md_dmEX_ex_a129", "md_file": "knowledge_base/domains/EX/examples.md", "md_atom_type": "SENTENCE", "md_parent_section": "§EX.5 [Example 5]", "md_verbatim": "**Rows 1-2:** Show administrations for a subject who was randomized to the 20 mg drug X arm.", "score": 0.81, "match_basis": "verbatim_token+global_search"}, {"md_atom_id": "md_dmEX_ex_a130", "md_file": "knowledge_base/domains/EX/examples.md", "md_atom_type": "SENTENCE", "md_parent_section": "§EX.5 [Example 5]", "md_verbatim": "**Rows 3-4:** Show administrations for a subject who was randomized to the 10 mg drug X arm.", "score": 0.81, "match_basis": "verbatim_token+global_search"}, {"md_atom_id": "md_dmEX_ex_a131", "md_file": "knowledge_base/domains/EX/examples.md", "md_atom_type": "SENTENCE", "md_parent_section": "§EX.5 [Example 5]", "md_verbatim": "**Rows 5-6:** Show administrations for a subject who was randomized to the placebo arm.", "score": 0.71, "match_basis": "verbatim_token+global_search"}, {"md_atom_id": "md_dmDM_ex_a014", "md_file": "knowledge_base/domains/DM/examples.md", "md_atom_type": "SENTENCE", "md_parent_section": "§DM.2 [Example 2]", "md_verbatim": "**Row 2:** Subject 002 was randomized to arm \"Drug B\". As shown in the SE dataset, their actual arm was consistent with their randomization.", "score": 0.47, "match_basis": "verbatim_token+global_search"}, {"md_atom_id": "md_dmEC_ex_a046", "md_file": "knowledge_base/domains/EC/examples.md", "md_atom_type": "SENTENCE", "md_parent_section": "§EC.6 [Example 6]", "md_verbatim": "The EC dataset shows administrations as collected.", "score": 0.435, "match_basis": "verbatim_token+global_search"}], "candidate_count": 5, "zero_candidate": false}
{"pdf_atom_id": "ig34_p0115_a012", "pdf_atom_type": "NOTE", "pdf_source": "SDTMIG v3.4 (no header footer).pdf", "pdf_page": 115, "pdf_parent_section": "§6.1.3.3 [Exposure/Exposure as Collected Examples]", "pdf_verbatim": "Rows 5-6: Show administrations for a subject who was randomized to the placebo arm.", "figure_ref": null, "candidates": [{"md_atom_id": "md_dmEX_ex_a131", "md_file": "knowledge_base/domains/EX/examples.md", "md_atom_type": "SENTENCE", "md_parent_section": "§EX.5 [Example 5]", "md_verbatim": "**Rows 5-6:** Show administrations for a subject who was randomized to the placebo arm.", "score": 0.81, "match_basis": "verbatim_token+global_search"}, {"md_atom_id": "md_dmEX_ex_a129", "md_file": "knowledge_base/domains/EX/examples.md", "md_atom_type": "SENTENCE", "md_parent_section": "§EX.5 [Example 5]", "md_verbatim": "**Rows 1-2:** Show administrations for a subject who was randomized to the 20 mg drug X arm.", "score": 0.71, "match_basis": "verbatim_token+global_search"}, {"md_atom_id": "md_dmEX_ex_a130", "md_file": "knowledge_base/domains/EX/examples.md", "md_atom_type": "SENTENCE", "md_parent_section": "§EX.5 [Example 5]", "md_verbatim": "**Rows 3-4:** Show administrations for a subject who was randomized to the 10 mg drug X arm.", "score": 0.71, "match_basis": "verbatim_token+global_search"}, {"md_atom_id": "md_dmDM_ex_a014", "md_file": "knowledge_base/domains/DM/examples.md", "md_atom_type": "SENTENCE", "md_parent_section": "§DM.2 [Example 2]", "md_verbatim": "**Row 2:** Subject 002 was randomized to arm \"Drug B\". As shown in the SE dataset, their actual arm was consistent with their randomization.", "score": 0.4315, "match_basis": "verbatim_token+global_search"}, {"md_atom_id": "md_dmEC_ex_a046", "md_file": "knowledge_base/domains/EC/examples.md", "md_atom_type": "SENTENCE", "md_parent_section": "§EC.6 [Example 6]", "md_verbatim": "The EC dataset shows administrations as collected.", "score": 0.4218, "match_basis": "verbatim_token+global_search"}], "candidate_count": 5, "zero_candidate": false}
{"pdf_atom_id": "ig34_p0115_a013", "pdf_atom_type": "CODE_LITERAL", "pdf_source": "SDTMIG v3.4 (no header footer).pdf", "pdf_page": 115, "pdf_parent_section": "§6.1.3.3 [Exposure/Exposure as Collected Examples]", "pdf_verbatim": "ex.xpt", "figure_ref": null, "candidates": [{"md_atom_id": "md_ch04_a207", "md_file": "knowledge_base/chapters/ch04_general_assumptions.md", "md_atom_type": "CODE_LITERAL", "md_parent_section": "§4.2.3 [Use of \"Subject\" and USUBJID]", "md_verbatim": "dm.xpt:", "score": 0.69, "match_basis": "verbatim_token+global_search"}, {"md_atom_id": "md_ch04_a210", "md_file": "knowledge_base/chapters/ch04_general_assumptions.md", "md_atom_type": "CODE_LITERAL", "md_parent_section": "§4.2.3 [Use of \"Subject\" and USUBJID]", "md_verbatim": "dm.xpt:", "score": 0.69, "match_basis": "verbatim_token+global_search"}, {"md_atom_id": "md_dmCM_ex_a010", "md_file": "knowledge_base/domains/CM/examples.md", "md_atom_type": "NOTE", "md_parent_section": "§CM.1 [Example 1]", "md_verbatim": "**cm.xpt**", "score": 0.69, "match_basis": "verbatim_token+global_search"}, {"md_atom_id": "md_dmCM_ex_a025", "md_file": "knowledge_base/domains/CM/examples.md", "md_atom_type": "NOTE", "md_parent_section": "§CM.2 [Example 2]", "md_verbatim": "**cm.xpt**", "score": 0.69, "match_basis": "verbatim_token+global_search"}, {"md_atom_id": "md_dmCM_ex_a042", "md_file": "knowledge_base/domains/CM/examples.md", "md_atom_type": "NOTE", "md_parent_section": "§CM.3 [Example 3]", "md_verbatim": "**cm.xpt**", "score": 0.69, "match_basis": "verbatim_token+global_search"}, {"md_atom_id": "md_dmCM_ex_a052", "md_file": "knowledge_base/domains/CM/examples.md", "md_atom_type": "NOTE", "md_parent_section": "§CM.4 [Example 4]", "md_verbatim": "**cm.xpt**", "score": 0.69, "match_basis": "verbatim_token+global_search"}, {"md_atom_id": "md_dmCM_ex_a070", "md_file": "knowledge_base/domains/CM/examples.md", "md_atom_type": "NOTE", "md_parent_section": "§CM.5 [Example 5]", "md_verbatim": "**cm.xpt**", "score": 0.69, "match_basis": "verbatim_token+global_search"}, {"md_atom_id": "md_ch04_a368", "md_file": "knowledge_base/chapters/ch04_general_assumptions.md", "md_atom_type": "CODE_LITERAL", "md_parent_section": "§4.2.8.3 [Multiple Values for a Non-result Qualifier Variable]", "md_verbatim": "ae.xpt:", "score": 0.69, "match_basis": "verbatim_token+global_search"}, {"md_atom_id": "md_ch04_a378", "md_file": "knowledge_base/chapters/ch04_general_assumptions.md", "md_atom_type": "CODE_LITERAL", "md_parent_section": "§4.2.8.3 [Multiple Values for a Non-result Qualifier Variable]", "md_verbatim": "ae.xpt:", "score": 0.69, "match_basis": "verbatim_token+global_search"}, {"md_atom_id": "md_ch04_a391", "md_file": "knowledge_base/chapters/ch04_general_assumptions.md", "md_atom_type": "CODE_LITERAL", "md_parent_section": "§4.2.8.3 [Multiple Values for a Non-result Qualifier Variable]", "md_verbatim": "ae.xpt:", "score": 0.69, "match_basis": "verbatim_token+global_search"}], "candidate_count": 10, "zero_candidate": false}
{"pdf_atom_id": "ig34_p0115_a014", "pdf_atom_type": "TABLE_HEADER", "pdf_source": "SDTMIG v3.4 (no header footer).pdf", "pdf_page": 115, "pdf_parent_section": "§6.1.3.3 [Exposure/Exposure as Collected Examples]", "pdf_verbatim": "Row | STUDYID | DOMAIN | USUBJID | EXSEQ | EXLNKID | EXTRT | EXDOSE | EXDOSU | EXDOSFRM | EXDOSFRQ | EXROUTE | EPOCH | EXSTDTC | EXENDTC | EXSTDY | EXENDY | EXTPT | EXTPTNUM", "figure_ref": null, "candidates": [{"md_atom_id": "md_dmEX_ex_a133", "md_file": "knowledge_base/domains/EX/examples.md", "md_atom_type": "TABLE_HEADER", "md_parent_section": "§EX.5 [Example 5]", "md_verbatim": "| Row | STUDYID | DOMAIN | USUBJID | EXSEQ | EXLNKID | EXTRT | EXDOSE | EXDOSU | EXDOSFRM | EXDOSFRQ | EXROUTE | EPOCH | EXSTDTC | EXENDTC | EXSTDY | EXENDY | EXTPT | EXTPTNUM |\n|-----|---------|--------|---------|-------|---------|-------|--------|--------|----------|----------|---------|-------|---------|---------|--------|--------|-------|----------|", "score": 0.9, "match_basis": "verbatim_token+global_search"}, {"md_atom_id": "md_dmEX_ex_a025", "md_file": "knowledge_base/domains/EX/examples.md", "md_atom_type": "TABLE_HEADER", "md_parent_section": "§EX.1 [Example 1]", "md_verbatim": "| Row | STUDYID | DOMAIN | USUBJID | EXSEQ | EXLNKID | EXTRT | EXDOSE | EXDOSU | EXDOSFRM | EXDOSFRQ | EXROUTE | EPOCH | EXSTDTC | EXENDTC | EXSTDY | EXENDY |\n|-----|---------|--------|---------|-------|---------|-------|--------|--------|----------|----------|---------|-------|---------|---------|--------|--------|", "score": 0.8483, "match_basis": "verbatim_token+global_search"}, {"md_atom_id": "md_dmEX_ex_a088", "md_file": "knowledge_base/domains/EX/examples.md", "md_atom_type": "TABLE_HEADER", "md_parent_section": "§EX.3 [Example 3]", "md_verbatim": "| Row | STUDYID | DOMAIN | USUBJID | EXSEQ | EXTRT | EXDOSE | EXDOSU | EXDOSFRM | EXDOSFRQ | EXROUTE | EPOCH | EXSTDTC | EXENDTC | EXSTDY | EXENDY |\n|-----|---------|--------|---------|-------|-------|--------|--------|----------|----------|---------|-------|---------|---------|--------|--------|", "score": 0.7966, "match_basis": "verbatim_token+global_search"}, {"md_atom_id": "md_dmEX_ex_a274", "md_file": "knowledge_base/domains/EX/examples.md", "md_atom_type": "TABLE_HEADER", "md_parent_section": "§EX.8 [Example 8]", "md_verbatim": "| Row | STUDYID | DOMAIN | USUBJID | EXSEQ | EXTRT | EXDOSE | EXDOSU | EXDOSFRM | EXDOSFRQ | EXROUTE | EPOCH | EXSTDTC | EXENDTC | EXSTDY | EXENDY |\n|-----|---------|--------|---------|-------|-------|--------|--------|----------|----------|---------|-------|---------|---------|--------|--------|", "score": 0.7966, "match_basis": "verbatim_token+global_search"}, {"md_atom_id": "md_dmEX_ex_a060", "md_file": "knowledge_base/domains/EX/examples.md", "md_atom_type": "TABLE_HEADER", "md_parent_section": "§EX.2 [Example 2]", "md_verbatim": "| Row | STUDYID | DOMAIN | USUBJID | EXSEQ | EXSPID | EXLNKID | EXTRT | EXDOSE | EXDOSU | EXDOSFRM | EXDOSFRQ | EXROUTE | EXLOC | VISITNUM | VISIT | EPOCH | EXSTDTC | EXENDTC | EXSTDY | EXENDY |\n|-----|---------|--------|---------|-------|--------|---------|-------|--------|--------|----------|----------|---------|-------|----------|-------|-------|---------|---------|--------|--------|", "score": 0.7925, "match_basis": "verbatim_token+global_search"}], "candidate_count": 5, "zero_candidate": false}
{"pdf_atom_id": "ig34_p0115_a015", "pdf_atom_type": "TABLE_ROW", "pdf_source": "SDTMIG v3.4 (no header footer).pdf", "pdf_page": 115, "pdf_parent_section": "§6.1.3.3 [Exposure/Exposure as Collected Examples]", "pdf_verbatim": "1 | ABC | EX | ABC5001 | 1 | 20120101-20120108-AM | DRUG X | 10 | mg | TABLET | QD | ORAL | TREATMENT | 2012-01-01 | 2012-01-08 | 1 | 8 | AM | 1", "figure_ref": null, "candidates": [{"md_atom_id": "md_dmEX_ex_a134", "md_file": "knowledge_base/domains/EX/examples.md", "md_atom_type": "TABLE_ROW", "md_parent_section": "§EX.5 [Example 5]", "md_verbatim": "| 1 | ABC | EX | ABC5001 | 1 | 20120101-20120108-AM | DRUG X | 10 | mg | TABLET | QD | ORAL | TREATMENT | 2012-01-01 | 2012-01-08 | 1 | 8 | AM | 1 |", "score": 0.9, "match_basis": "verbatim_token+global_search"}, {"md_atom_id": "md_dmEX_ex_a135", "md_file": "knowledge_base/domains/EX/examples.md", "md_atom_type": "TABLE_ROW", "md_parent_section": "§EX.5 [Example 5]", "md_verbatim": "| 2 | ABC | EX | ABC5001 | 2 | 20120101-20120108-PM | DRUG X | 10 | mg | TABLET | QD | ORAL | TREATMENT | 2012-01-01 | 2012-01-08 | 1 | 8 | PM | 2 |", "score": 0.9, "match_basis": "verbatim_token+global_search"}, {"md_atom_id": "md_dmEC_ex_a038", "md_file": "knowledge_base/domains/EC/examples.md", "md_atom_type": "TABLE_ROW", "md_parent_section": "§EC.5 [Example 5]", "md_verbatim": "| 1 | ABC | EC | ABC5001 | 1 | 20120101-20120108-AM | BOTTLE A | Y | Y | 1 | TABLET | QD | TREATMENT | 2012-01-01 | 2012-01-08 | 1 | 8 | AM | 1 |", "score": 0.74, "match_basis": "verbatim_token+global_search"}, {"md_atom_id": "md_dmEC_ex_a039", "md_file": "knowledge_base/domains/EC/examples.md", "md_atom_type": "TABLE_ROW", "md_parent_section": "§EC.5 [Example 5]", "md_verbatim": "| 2 | ABC | EC | ABC5001 | 2 | 20120101-20120108-PM | BOTTLE B | Y | Y | 1 | TABLET | QD | TREATMENT | 2012-01-01 | 2012-01-08 | 1 | 8 | PM | 2 |", "score": 0.74, "match_basis": "verbatim_token+global_search"}, {"md_atom_id": "md_dmEX_ex_a122", "md_file": "knowledge_base/domains/EX/examples.md", "md_atom_type": "TABLE_ROW", "md_parent_section": "§EX.5 [Example 5]", "md_verbatim": "| 1 | ABC | EC | ABC5001 | 1 | 20120101-20120108-AM | BOTTLE A | Y | Y | 1 | TABLET | QD | TREATMENT | 2012-01-01 | 2012-01-08 | 1 | 8 | AM | 1 |", "score": 0.74, "match_basis": "verbatim_token+global_search"}], "candidate_count": 5, "zero_candidate": false}
{"pdf_atom_id": "ig34_p0115_a016", "pdf_atom_type": "TABLE_ROW", "pdf_source": "SDTMIG v3.4 (no header footer).pdf", "pdf_page": 115, "pdf_parent_section": "§6.1.3.3 [Exposure/Exposure as Collected Examples]", "pdf_verbatim": "2 | ABC | EX | ABC5001 | 2 | 20120101-20120108-PM | DRUG X | 10 | mg | TABLET | QD | ORAL | TREATMENT | 2012-01-01 | 2012-01-08 | 1 | 8 | PM | 2", "figure_ref": null, "candidates": [{"md_atom_id": "md_dmEX_ex_a134", "md_file": "knowledge_base/domains/EX/examples.md", "md_atom_type": "TABLE_ROW", "md_parent_section": "§EX.5 [Example 5]", "md_verbatim": "| 1 | ABC | EX | ABC5001 | 1 | 20120101-20120108-AM | DRUG X | 10 | mg | TABLET | QD | ORAL | TREATMENT | 2012-01-01 | 2012-01-08 | 1 | 8 | AM | 1 |", "score": 0.9, "match_basis": "verbatim_token+global_search"}, {"md_atom_id": "md_dmEX_ex_a135", "md_file": "knowledge_base/domains/EX/examples.md", "md_atom_type": "TABLE_ROW", "md_parent_section": "§EX.5 [Example 5]", "md_verbatim": "| 2 | ABC | EX | ABC5001 | 2 | 20120101-20120108-PM | DRUG X | 10 | mg | TABLET | QD | ORAL | TREATMENT | 2012-01-01 | 2012-01-08 | 1 | 8 | PM | 2 |", "score": 0.9, "match_basis": "verbatim_token+global_search"}, {"md_atom_id": "md_dmEC_ex_a038", "md_file": "knowledge_base/domains/EC/examples.md", "md_atom_type": "TABLE_ROW", "md_parent_section": "§EC.5 [Example 5]", "md_verbatim": "| 1 | ABC | EC | ABC5001 | 1 | 20120101-20120108-AM | BOTTLE A | Y | Y | 1 | TABLET | QD | TREATMENT | 2012-01-01 | 2012-01-08 | 1 | 8 | AM | 1 |", "score": 0.74, "match_basis": "verbatim_token+global_search"}, {"md_atom_id": "md_dmEC_ex_a039", "md_file": "knowledge_base/domains/EC/examples.md", "md_atom_type": "TABLE_ROW", "md_parent_section": "§EC.5 [Example 5]", "md_verbatim": "| 2 | ABC | EC | ABC5001 | 2 | 20120101-20120108-PM | BOTTLE B | Y | Y | 1 | TABLET | QD | TREATMENT | 2012-01-01 | 2012-01-08 | 1 | 8 | PM | 2 |", "score": 0.74, "match_basis": "verbatim_token+global_search"}, {"md_atom_id": "md_dmEX_ex_a122", "md_file": "knowledge_base/domains/EX/examples.md", "md_atom_type": "TABLE_ROW", "md_parent_section": "§EX.5 [Example 5]", "md_verbatim": "| 1 | ABC | EC | ABC5001 | 1 | 20120101-20120108-AM | BOTTLE A | Y | Y | 1 | TABLET | QD | TREATMENT | 2012-01-01 | 2012-01-08 | 1 | 8 | AM | 1 |", "score": 0.74, "match_basis": "verbatim_token+global_search"}], "candidate_count": 5, "zero_candidate": false}
{"pdf_atom_id": "ig34_p0115_a017", "pdf_atom_type": "TABLE_ROW", "pdf_source": "SDTMIG v3.4 (no header footer).pdf", "pdf_page": 115, "pdf_parent_section": "§6.1.3.3 [Exposure/Exposure as Collected Examples]", "pdf_verbatim": "3 | ABC | EX | ABC5002 | 1 | 20120201-20120208-AM | DRUG X | 10 | mg | TABLET | QD | ORAL | TREATMENT | 2012-02-01 | 2012-02-08 | 1 | 8 | AM | 1", "figure_ref": null, "candidates": [{"md_atom_id": "md_dmEX_ex_a136", "md_file": "knowledge_base/domains/EX/examples.md", "md_atom_type": "TABLE_ROW", "md_parent_section": "§EX.5 [Example 5]", "md_verbatim": "| 3 | ABC | EX | ABC5002 | 1 | 20120201-20120208-AM | DRUG X | 10 | mg | TABLET | QD | ORAL | TREATMENT | 2012-02-01 | 2012-02-08 | 1 | 8 | AM | 1 |", "score": 0.9, "match_basis": "verbatim_token+global_search"}, {"md_atom_id": "md_dmEX_ex_a137", "md_file": "knowledge_base/domains/EX/examples.md", "md_atom_type": "TABLE_ROW", "md_parent_section": "§EX.5 [Example 5]", "md_verbatim": "| 4 | ABC | EX | ABC5002 | 2 | 20120201-20120208-PM | PLACEBO | 0 | mg | TABLET | QD | ORAL | TREATMENT | 2012-02-01 | 2012-02-08 | 1 | 8 | PM | 2 |", "score": 0.7645, "match_basis": "verbatim_token+global_search"}, {"md_atom_id": "md_dmEC_ex_a040", "md_file": "knowledge_base/domains/EC/examples.md", "md_atom_type": "TABLE_ROW", "md_parent_section": "§EC.5 [Example 5]", "md_verbatim": "| 3 | ABC | EC | ABC5002 | 1 | 20120201-20120208-AM | BOTTLE A | Y | Y | 1 | TABLET | QD | TREATMENT | 2012-02-01 | 2012-02-08 | 1 | 8 | AM | 1 |", "score": 0.74, "match_basis": "verbatim_token+global_search"}, {"md_atom_id": "md_dmEC_ex_a041", "md_file": "knowledge_base/domains/EC/examples.md", "md_atom_type": "TABLE_ROW", "md_parent_section": "§EC.5 [Example 5]", "md_verbatim": "| 4 | ABC | EC | ABC5002 | 2 | 20120201-20120208-PM | BOTTLE B | Y | Y | 1 | TABLET | QD | TREATMENT | 2012-02-01 | 2012-02-08 | 1 | 8 | PM | 2 |", "score": 0.74, "match_basis": "verbatim_token+global_search"}, {"md_atom_id": "md_dmEX_ex_a124", "md_file": "knowledge_base/domains/EX/examples.md", "md_atom_type": "TABLE_ROW", "md_parent_section": "§EX.5 [Example 5]", "md_verbatim": "| 3 | ABC | EC | ABC5002 | 1 | 20120201-20120208-AM | BOTTLE A | Y | Y | 1 | TABLET | QD | TREATMENT | 2012-02-01 | 2012-02-08 | 1 | 8 | AM | 1 |", "score": 0.74, "match_basis": "verbatim_token+global_search"}], "candidate_count": 5, "zero_candidate": false}
{"pdf_atom_id": "ig34_p0115_a018", "pdf_atom_type": "TABLE_ROW", "pdf_source": "SDTMIG v3.4 (no header footer).pdf", "pdf_page": 115, "pdf_parent_section": "§6.1.3.3 [Exposure/Exposure as Collected Examples]", "pdf_verbatim": "4 | ABC | EX | ABC5002 | 2 | 20120201-20120208-PM | PLACEBO | 0 | mg | TABLET | QD | ORAL | TREATMENT | 2012-02-01 | 2012-02-08 | 1 | 8 | PM | 2", "figure_ref": null, "candidates": [{"md_atom_id": "md_dmEX_ex_a137", "md_file": "knowledge_base/domains/EX/examples.md", "md_atom_type": "TABLE_ROW", "md_parent_section": "§EX.5 [Example 5]", "md_verbatim": "| 4 | ABC | EX | ABC5002 | 2 | 20120201-20120208-PM | PLACEBO | 0 | mg | TABLET | QD | ORAL | TREATMENT | 2012-02-01 | 2012-02-08 | 1 | 8 | PM | 2 |", "score": 0.9, "match_basis": "verbatim_token+global_search"}, {"md_atom_id": "md_dmEX_ex_a136", "md_file": "knowledge_base/domains/EX/examples.md", "md_atom_type": "TABLE_ROW", "md_parent_section": "§EX.5 [Example 5]", "md_verbatim": "| 3 | ABC | EX | ABC5002 | 1 | 20120201-20120208-AM | DRUG X | 10 | mg | TABLET | QD | ORAL | TREATMENT | 2012-02-01 | 2012-02-08 | 1 | 8 | AM | 1 |", "score": 0.7645, "match_basis": "verbatim_token+global_search"}, {"md_atom_id": "md_dmEX_ex_a138", "md_file": "knowledge_base/domains/EX/examples.md", "md_atom_type": "TABLE_ROW", "md_parent_section": "§EX.5 [Example 5]", "md_verbatim": "| 5 | ABC | EX | ABC5003 | 1 | 20120301-20120308-AM | PLACEBO | 0 | mg | TABLET | QD | ORAL | TREATMENT | 2012-03-01 | 2012-03-08 | 1 | 8 | AM | 1 |", "score": 0.7412, "match_basis": "verbatim_token+global_search"}, {"md_atom_id": "md_dmEX_ex_a139", "md_file": "knowledge_base/domains/EX/examples.md", "md_atom_type": "TABLE_ROW", "md_parent_section": "§EX.5 [Example 5]", "md_verbatim": "| 6 | ABC | EX | ABC5003 | 2 | 20120301-20120308-PM | PLACEBO | 0 | mg | TABLET | QD | ORAL | TREATMENT | 2012-03-01 | 2012-03-08 | 1 | 8 | PM | 2 |", "score": 0.7412, "match_basis": "verbatim_token+global_search"}, {"md_atom_id": "md_dmEC_ex_a040", "md_file": "knowledge_base/domains/EC/examples.md", "md_atom_type": "TABLE_ROW", "md_parent_section": "§EC.5 [Example 5]", "md_verbatim": "| 3 | ABC | EC | ABC5002 | 1 | 20120201-20120208-AM | BOTTLE A | Y | Y | 1 | TABLET | QD | TREATMENT | 2012-02-01 | 2012-02-08 | 1 | 8 | AM | 1 |", "score": 0.7, "match_basis": "verbatim_token+global_search"}], "candidate_count": 5, "zero_candidate": false}
{"pdf_atom_id": "ig34_p0115_a019", "pdf_atom_type": "TABLE_ROW", "pdf_source": "SDTMIG v3.4 (no header footer).pdf", "pdf_page": 115, "pdf_parent_section": "§6.1.3.3 [Exposure/Exposure as Collected Examples]", "pdf_verbatim": "5 | ABC | EX | ABC5003 | 1 | 20120301-20120308-AM | PLACEBO | 0 | mg | TABLET | QD | ORAL | TREATMENT | 2012-03-01 | 2012-03-08 | 1 | 8 | AM | 1", "figure_ref": null, "candidates": [{"md_atom_id": "md_dmEX_ex_a138", "md_file": "knowledge_base/domains/EX/examples.md", "md_atom_type": "TABLE_ROW", "md_parent_section": "§EX.5 [Example 5]", "md_verbatim": "| 5 | ABC | EX | ABC5003 | 1 | 20120301-20120308-AM | PLACEBO | 0 | mg | TABLET | QD | ORAL | TREATMENT | 2012-03-01 | 2012-03-08 | 1 | 8 | AM | 1 |", "score": 0.9, "match_basis": "verbatim_token+global_search"}, {"md_atom_id": "md_dmEX_ex_a139", "md_file": "knowledge_base/domains/EX/examples.md", "md_atom_type": "TABLE_ROW", "md_parent_section": "§EX.5 [Example 5]", "md_verbatim": "| 6 | ABC | EX | ABC5003 | 2 | 20120301-20120308-PM | PLACEBO | 0 | mg | TABLET | QD | ORAL | TREATMENT | 2012-03-01 | 2012-03-08 | 1 | 8 | PM | 2 |", "score": 0.9, "match_basis": "verbatim_token+global_search"}, {"md_atom_id": "md_dmEX_ex_a137", "md_file": "knowledge_base/domains/EX/examples.md", "md_atom_type": "TABLE_ROW", "md_parent_section": "§EX.5 [Example 5]", "md_verbatim": "| 4 | ABC | EX | ABC5002 | 2 | 20120201-20120208-PM | PLACEBO | 0 | mg | TABLET | QD | ORAL | TREATMENT | 2012-02-01 | 2012-02-08 | 1 | 8 | PM | 2 |", "score": 0.7412, "match_basis": "verbatim_token+global_search"}, {"md_atom_id": "md_dmEC_ex_a042", "md_file": "knowledge_base/domains/EC/examples.md", "md_atom_type": "TABLE_ROW", "md_parent_section": "§EC.5 [Example 5]", "md_verbatim": "| 5 | ABC | EC | ABC5003 | 1 | 20120301-20120308-AM | BOTTLE A | Y | Y | 1 | TABLET | QD | TREATMENT | 2012-03-01 | 2012-03-08 | 1 | 8 | AM | 1 |", "score": 0.7059, "match_basis": "verbatim_token+global_search"}, {"md_atom_id": "md_dmEC_ex_a043", "md_file": "knowledge_base/domains/EC/examples.md", "md_atom_type": "TABLE_ROW", "md_parent_section": "§EC.5 [Example 5]", "md_verbatim": "| 6 | ABC | EC | ABC5003 | 2 | 20120301-20120308-PM | BOTTLE B | Y | Y | 1 | TABLET | QD | TREATMENT | 2012-03-01 | 2012-03-08 | 1 | 8 | PM | 2 |", "score": 0.7059, "match_basis": "verbatim_token+global_search"}], "candidate_count": 5, "zero_candidate": false}
{"pdf_atom_id": "ig34_p0115_a020", "pdf_atom_type": "TABLE_ROW", "pdf_source": "SDTMIG v3.4 (no header footer).pdf", "pdf_page": 115, "pdf_parent_section": "§6.1.3.3 [Exposure/Exposure as Collected Examples]", "pdf_verbatim": "6 | ABC | EX | ABC5003 | 2 | 20120301-20120308-PM | PLACEBO | 0 | mg | TABLET | QD | ORAL | TREATMENT | 2012-03-01 | 2012-03-08 | 1 | 8 | PM | 2", "figure_ref": null, "candidates": [{"md_atom_id": "md_dmEX_ex_a138", "md_file": "knowledge_base/domains/EX/examples.md", "md_atom_type": "TABLE_ROW", "md_parent_section": "§EX.5 [Example 5]", "md_verbatim": "| 5 | ABC | EX | ABC5003 | 1 | 20120301-20120308-AM | PLACEBO | 0 | mg | TABLET | QD | ORAL | TREATMENT | 2012-03-01 | 2012-03-08 | 1 | 8 | AM | 1 |", "score": 0.9, "match_basis": "verbatim_token+global_search"}, {"md_atom_id": "md_dmEX_ex_a139", "md_file": "knowledge_base/domains/EX/examples.md", "md_atom_type": "TABLE_ROW", "md_parent_section": "§EX.5 [Example 5]", "md_verbatim": "| 6 | ABC | EX | ABC5003 | 2 | 20120301-20120308-PM | PLACEBO | 0 | mg | TABLET | QD | ORAL | TREATMENT | 2012-03-01 | 2012-03-08 | 1 | 8 | PM | 2 |", "score": 0.9, "match_basis": "verbatim_token+global_search"}, {"md_atom_id": "md_dmEX_ex_a137", "md_file": "knowledge_base/domains/EX/examples.md", "md_atom_type": "TABLE_ROW", "md_parent_section": "§EX.5 [Example 5]", "md_verbatim": "| 4 | ABC | EX | ABC5002 | 2 | 20120201-20120208-PM | PLACEBO | 0 | mg | TABLET | QD | ORAL | TREATMENT | 2012-02-01 | 2012-02-08 | 1 | 8 | PM | 2 |", "score": 0.7412, "match_basis": "verbatim_token+global_search"}, {"md_atom_id": "md_dmEC_ex_a042", "md_file": "knowledge_base/domains/EC/examples.md", "md_atom_type": "TABLE_ROW", "md_parent_section": "§EC.5 [Example 5]", "md_verbatim": "| 5 | ABC | EC | ABC5003 | 1 | 20120301-20120308-AM | BOTTLE A | Y | Y | 1 | TABLET | QD | TREATMENT | 2012-03-01 | 2012-03-08 | 1 | 8 | AM | 1 |", "score": 0.7059, "match_basis": "verbatim_token+global_search"}, {"md_atom_id": "md_dmEC_ex_a043", "md_file": "knowledge_base/domains/EC/examples.md", "md_atom_type": "TABLE_ROW", "md_parent_section": "§EC.5 [Example 5]", "md_verbatim": "| 6 | ABC | EC | ABC5003 | 2 | 20120301-20120308-PM | BOTTLE B | Y | Y | 1 | TABLET | QD | TREATMENT | 2012-03-01 | 2012-03-08 | 1 | 8 | PM | 2 |", "score": 0.7059, "match_basis": "verbatim_token+global_search"}], "candidate_count": 5, "zero_candidate": false}
{"pdf_atom_id": "ig34_p0115_a021", "pdf_atom_type": "SENTENCE", "pdf_source": "SDTMIG v3.4 (no header footer).pdf", "pdf_page": 115, "pdf_parent_section": "§6.1.3.3 [Exposure/Exposure as Collected Examples]", "pdf_verbatim": "The relrec.xpt example reflects a one-to-one dataset-level relationship between EC and EX using --LNKID.", "figure_ref": null, "candidates": [{"md_atom_id": "md_dmEX_ex_a029", "md_file": "knowledge_base/domains/EX/examples.md", "md_atom_type": "SENTENCE", "md_parent_section": "§EX.1 [Example 1]", "md_verbatim": "The relrec.xpt example reflects a one-to-one dataset-level relationship between EC and EX using --LNKID.", "score": 0.9, "match_basis": "verbatim_token+global_search"}, {"md_atom_id": "md_dmEX_ex_a140", "md_file": "knowledge_base/domains/EX/examples.md", "md_atom_type": "SENTENCE", "md_parent_section": "§EX.5 [Example 5]", "md_verbatim": "The relrec.xpt example reflects a one-to-one dataset-level relationship between EC and EX using --LNKID.", "score": 0.9, "match_basis": "verbatim_token+global_search"}, {"md_atom_id": "md_dmEX_ex_a062", "md_file": "knowledge_base/domains/EX/examples.md", "md_atom_type": "SENTENCE", "md_parent_section": "§EX.2 [Example 2]", "md_verbatim": "The relrec.xpt example reflects a many-to-one dataset-level relationship between EC and EX using --LNKID.", "score": 0.8755, "match_basis": "verbatim_token+global_search"}, {"md_atom_id": "md_dmPR_ex_a023", "md_file": "knowledge_base/domains/PR/examples.md", "md_atom_type": "SENTENCE", "md_parent_section": "§PR.2 [Example 2]", "md_verbatim": "The relrec.xpt reflects a one-to-many dataset-level relationship between PR and EG using --LNKID.", "score": 0.8143, "match_basis": "verbatim_token+global_search"}, {"md_atom_id": "md_dmEX_ex_a241", "md_file": "knowledge_base/domains/EX/examples.md", "md_atom_type": "SENTENCE", "md_parent_section": "§EX.7 [Example 7]", "md_verbatim": "The RELREC dataset represents relationships between EC, EX, and VS.", "score": 0.5679, "match_basis": "verbatim_token+global_search"}], "candidate_count": 5, "zero_candidate": false}
{"pdf_atom_id": "ig34_p0115_a022", "pdf_atom_type": "CODE_LITERAL", "pdf_source": "SDTMIG v3.4 (no header footer).pdf", "pdf_page": 115, "pdf_parent_section": "§6.1.3.3 [Exposure/Exposure as Collected Examples]", "pdf_verbatim": "relrec.xpt", "figure_ref": null, "candidates": [{"md_atom_id": "md_ch04_a062", "md_file": "knowledge_base/chapters/ch04_general_assumptions.md", "md_atom_type": "SENTENCE", "md_parent_section": "§4.1.7 [Splitting Domains]", "md_verbatim": "**relrec.xpt**", "score": 0.69, "match_basis": "verbatim_token+global_search"}, {"md_atom_id": "md_ch08_a085", "md_file": "knowledge_base/chapters/ch08_relationships.md", "md_atom_type": "SENTENCE", "md_parent_section": "§8.2.2 [RELREC Dataset Examples]", "md_verbatim": "relrec.xpt:", "score": 0.69, "match_basis": "verbatim_token+global_search"}, {"md_atom_id": "md_ch08_a094", "md_file": "knowledge_base/chapters/ch08_relationships.md", "md_atom_type": "SENTENCE", "md_parent_section": "§8.2.2 [RELREC Dataset Examples]", "md_verbatim": "relrec.xpt:", "score": 0.69, "match_basis": "verbatim_token+global_search"}, {"md_atom_id": "md_ch08_a102", "md_file": "knowledge_base/chapters/ch08_relationships.md", "md_atom_type": "SENTENCE", "md_parent_section": "§8.2.2 [RELREC Dataset Examples]", "md_verbatim": "relrec.xpt:", "score": 0.69, "match_basis": "verbatim_token+global_search"}, {"md_atom_id": "md_ch08_a116", "md_file": "knowledge_base/chapters/ch08_relationships.md", "md_atom_type": "SENTENCE", "md_parent_section": "§8.3.1 [RELREC Dataset Relationship Example]", "md_verbatim": "relrec.xpt:", "score": 0.69, "match_basis": "verbatim_token+global_search"}, {"md_atom_id": "md_dmAG_ex_a050", "md_file": "knowledge_base/domains/AG/examples.md", "md_atom_type": "SENTENCE", "md_parent_section": "§AG.2 [Example 2]", "md_verbatim": "**relrec.xpt**", "score": 0.69, "match_basis": "verbatim_token+global_search"}, {"md_atom_id": "md_dmBE_ex_a040", "md_file": "knowledge_base/domains/BE/examples.md", "md_atom_type": "SENTENCE", "md_parent_section": "§BE.1 [Example 1]", "md_verbatim": "**relrec.xpt**", "score": 0.69, "match_basis": "verbatim_token+global_search"}, {"md_atom_id": "md_dmBE_ex_a111", "md_file": "knowledge_base/domains/BE/examples.md", "md_atom_type": "SENTENCE", "md_parent_section": "§BE.2 [Example 2]", "md_verbatim": "**relrec.xpt**", "score": 0.69, "match_basis": "verbatim_token+global_search"}, {"md_atom_id": "md_dmCE_ex_a121", "md_file": "knowledge_base/domains/CE/examples.md", "md_atom_type": "SENTENCE", "md_parent_section": "§CE.3 [Example 3]", "md_verbatim": "**relrec.xpt**", "score": 0.69, "match_basis": "verbatim_token+global_search"}, {"md_atom_id": "md_dmDD_ex_a034", "md_file": "knowledge_base/domains/DD/examples.md", "md_atom_type": "SENTENCE", "md_parent_section": "§DD.2 [Example 2]", "md_verbatim": "**relrec.xpt**", "score": 0.69, "match_basis": "verbatim_token+global_search"}], "candidate_count": 10, "zero_candidate": false}
{"pdf_atom_id": "ig34_p0115_a023", "pdf_atom_type": "TABLE_HEADER", "pdf_source": "SDTMIG v3.4 (no header footer).pdf", "pdf_page": 115, "pdf_parent_section": "§6.1.3.3 [Exposure/Exposure as Collected Examples]", "pdf_verbatim": "Row | STUDYID | RDOMAIN | USUBJID | IDVAR | IDVARVAL | RELTYPE | RELID", "figure_ref": null, "candidates": [{"md_atom_id": "md_ch04_a063", "md_file": "knowledge_base/chapters/ch04_general_assumptions.md", "md_atom_type": "TABLE_HEADER", "md_parent_section": "§4.1.7 [Splitting Domains]", "md_verbatim": "| Row | STUDYID | RDOMAIN | USUBJID | IDVAR | IDVARVAL | RELTYPE | RELID |\n|-----|---------|---------|---------|-------|----------|---------|-------|", "score": 0.9, "match_basis": "verbatim_token+global_search"}, {"md_atom_id": "md_ch08_a086", "md_file": "knowledge_base/chapters/ch08_relationships.md", "md_atom_type": "TABLE_HEADER", "md_parent_section": "§8.2.2 [RELREC Dataset Examples]", "md_verbatim": "| Row | STUDYID | RDOMAIN | USUBJID | IDVAR | IDVARVAL | RELTYPE | RELID |\n|-----|---------|---------|---------|-------|----------|---------|-------|", "score": 0.9, "match_basis": "verbatim_token+global_search"}, {"md_atom_id": "md_ch08_a095", "md_file": "knowledge_base/chapters/ch08_relationships.md", "md_atom_type": "TABLE_HEADER", "md_parent_section": "§8.2.2 [RELREC Dataset Examples]", "md_verbatim": "| Row | STUDYID | RDOMAIN | USUBJID | IDVAR | IDVARVAL | RELTYPE | RELID |\n|-----|---------|---------|---------|-------|----------|---------|-------|", "score": 0.9, "match_basis": "verbatim_token+global_search"}, {"md_atom_id": "md_ch08_a103", "md_file": "knowledge_base/chapters/ch08_relationships.md", "md_atom_type": "TABLE_HEADER", "md_parent_section": "§8.2.2 [RELREC Dataset Examples]", "md_verbatim": "| Row | STUDYID | RDOMAIN | USUBJID | IDVAR | IDVARVAL | RELTYPE | RELID |\n|-----|---------|---------|---------|-------|----------|---------|-------|", "score": 0.9, "match_basis": "verbatim_token+global_search"}, {"md_atom_id": "md_ch08_a117", "md_file": "knowledge_base/chapters/ch08_relationships.md", "md_atom_type": "TABLE_HEADER", "md_parent_section": "§8.3.1 [RELREC Dataset Relationship Example]", "md_verbatim": "| Row | STUDYID | RDOMAIN | USUBJID | IDVAR | IDVARVAL | RELTYPE | RELID |\n|-----|---------|---------|---------|-------|----------|---------|-------|", "score": 0.9, "match_basis": "verbatim_token+global_search"}], "candidate_count": 5, "zero_candidate": false}
{"pdf_atom_id": "ig34_p0115_a024", "pdf_atom_type": "TABLE_ROW", "pdf_source": "SDTMIG v3.4 (no header footer).pdf", "pdf_page": 115, "pdf_parent_section": "§6.1.3.3 [Exposure/Exposure as Collected Examples]", "pdf_verbatim": "1 | ABC | EC | | ECLNKID | | ONE | 1", "figure_ref": null, "candidates": [{"md_atom_id": "md_dmEX_ex_a032", "md_file": "knowledge_base/domains/EX/examples.md", "md_atom_type": "TABLE_ROW", "md_parent_section": "§EX.1 [Example 1]", "md_verbatim": "| 1 | ABC | EC | | ECLNKID | | ONE | 1 |", "score": 0.9, "match_basis": "verbatim_token+global_search"}, {"md_atom_id": "md_dmEX_ex_a143", "md_file": "knowledge_base/domains/EX/examples.md", "md_atom_type": "TABLE_ROW", "md_parent_section": "§EX.5 [Example 5]", "md_verbatim": "| 1 | ABC | EC | | ECLNKID | | ONE | 1 |", "score": 0.9, "match_basis": "verbatim_token+global_search"}, {"md_atom_id": "md_dmEX_ex_a246", "md_file": "knowledge_base/domains/EX/examples.md", "md_atom_type": "TABLE_ROW", "md_parent_section": "§EX.7 [Example 7]", "md_verbatim": "| 1 | ABC123 | EC | | ECLNKID | | ONE | 1 |", "score": 0.72, "match_basis": "verbatim_token+global_search"}, {"md_atom_id": "md_dmEX_ex_a065", "md_file": "knowledge_base/domains/EX/examples.md", "md_atom_type": "TABLE_ROW", "md_parent_section": "§EX.2 [Example 2]", "md_verbatim": "| 1 | ABC | EC | | ECLNKID | | MANY | 1 |", "score": 0.7, "match_basis": "verbatim_token+global_search"}, {"md_atom_id": "md_dmEX_ex_a033", "md_file": "knowledge_base/domains/EX/examples.md", "md_atom_type": "TABLE_ROW", "md_parent_section": "§EX.1 [Example 1]", "md_verbatim": "| 2 | ABC | EX | | EXLNKID | | ONE | 1 |", "score": 0.6333, "match_basis": "verbatim_token+global_search"}], "candidate_count": 5, "zero_candidate": false}
{"pdf_atom_id": "ig34_p0115_a025", "pdf_atom_type": "TABLE_ROW", "pdf_source": "SDTMIG v3.4 (no header footer).pdf", "pdf_page": 115, "pdf_parent_section": "§6.1.3.3 [Exposure/Exposure as Collected Examples]", "pdf_verbatim": "2 | ABC | EX | | EXLNKID | | ONE | 1", "figure_ref": null, "candidates": [{"md_atom_id": "md_dmEX_ex_a033", "md_file": "knowledge_base/domains/EX/examples.md", "md_atom_type": "TABLE_ROW", "md_parent_section": "§EX.1 [Example 1]", "md_verbatim": "| 2 | ABC | EX | | EXLNKID | | ONE | 1 |", "score": 0.9, "match_basis": "verbatim_token+global_search"}, {"md_atom_id": "md_dmEX_ex_a066", "md_file": "knowledge_base/domains/EX/examples.md", "md_atom_type": "TABLE_ROW", "md_parent_section": "§EX.2 [Example 2]", "md_verbatim": "| 2 | ABC | EX | | EXLNKID | | ONE | 1 |", "score": 0.9, "match_basis": "verbatim_token+global_search"}, {"md_atom_id": "md_dmEX_ex_a144", "md_file": "knowledge_base/domains/EX/examples.md", "md_atom_type": "TABLE_ROW", "md_parent_section": "§EX.5 [Example 5]", "md_verbatim": "| 2 | ABC | EX | | EXLNKID | | ONE | 1 |", "score": 0.9, "match_basis": "verbatim_token+global_search"}, {"md_atom_id": "md_dmEX_ex_a247", "md_file": "knowledge_base/domains/EX/examples.md", "md_atom_type": "TABLE_ROW", "md_parent_section": "§EX.7 [Example 7]", "md_verbatim": "| 2 | ABC123 | EX | | EXLNKID | | ONE | 1 |", "score": 0.72, "match_basis": "verbatim_token+global_search"}, {"md_atom_id": "md_dmEX_ex_a032", "md_file": "knowledge_base/domains/EX/examples.md", "md_atom_type": "TABLE_ROW", "md_parent_section": "§EX.1 [Example 1]", "md_verbatim": "| 1 | ABC | EC | | ECLNKID | | ONE | 1 |", "score": 0.6333, "match_basis": "verbatim_token+global_search"}], "candidate_count": 5, "zero_candidate": false}
{"pdf_atom_id": "ig34_p0115_a026", "pdf_atom_type": "HEADING", "pdf_source": "SDTMIG v3.4 (no header footer).pdf", "pdf_page": 115, "pdf_parent_section": "§6.1.3.3 [Exposure/Exposure as Collected Examples]", "pdf_verbatim": "Example 6", "figure_ref": null, "candidates": [{"md_atom_id": "md_dmCM_ex_a002", "md_file": "knowledge_base/domains/CM/examples.md", "md_atom_type": "HEADING", "md_parent_section": "§CM.1 [Example 1]", "md_verbatim": "## Example 1", "score": 0.9, "match_basis": "verbatim_token+global_search"}, {"md_atom_id": "md_dmCM_ex_a022", "md_file": "knowledge_base/domains/CM/examples.md", "md_atom_type": "HEADING", "md_parent_section": "§CM.2 [Example 2]", "md_verbatim": "## Example 2", "score": 0.9, "match_basis": "verbatim_token+global_search"}, {"md_atom_id": "md_dmCM_ex_a029", "md_file": "knowledge_base/domains/CM/examples.md", "md_atom_type": "HEADING", "md_parent_section": "§CM.3 [Example 3]", "md_verbatim": "## Example 3", "score": 0.9, "match_basis": "verbatim_token+global_search"}, {"md_atom_id": "md_dmCM_ex_a047", "md_file": "knowledge_base/domains/CM/examples.md", "md_atom_type": "HEADING", "md_parent_section": "§CM.4 [Example 4]", "md_verbatim": "## Example 4", "score": 0.9, "match_basis": "verbatim_token+global_search"}, {"md_atom_id": "md_dmCM_ex_a060", "md_file": "knowledge_base/domains/CM/examples.md", "md_atom_type": "HEADING", "md_parent_section": "§CM.5 [Example 5]", "md_verbatim": "## Example 5", "score": 0.9, "match_basis": "verbatim_token+global_search"}, {"md_atom_id": "md_ch08_a292", "md_file": "knowledge_base/chapters/ch08_relationships.md", "md_atom_type": "HEADING", "md_parent_section": "§8.7 [Related Subjects (RELSUB)]", "md_verbatim": "### Example", "score": 0.9, "match_basis": "verbatim_token+global_search"}, {"md_atom_id": "md_ch08_a331", "md_file": "knowledge_base/chapters/ch08_relationships.md", "md_atom_type": "HEADING", "md_parent_section": "§8.8 [Related Specimens (RELSPEC)]", "md_verbatim": "### Example", "score": 0.9, "match_basis": "verbatim_token+global_search"}, {"md_atom_id": "md_dmAE_ex_a002", "md_file": "knowledge_base/domains/AE/examples.md", "md_atom_type": "HEADING", "md_parent_section": "§AE.1 [Example 1]", "md_verbatim": "## Example 1", "score": 0.9, "match_basis": "verbatim_token+global_search"}, {"md_atom_id": "md_dmAE_ex_a020", "md_file": "knowledge_base/domains/AE/examples.md", "md_atom_type": "HEADING", "md_parent_section": "§AE.2 [Example 2]", "md_verbatim": "## Example 2", "score": 0.9, "match_basis": "verbatim_token+global_search"}, {"md_atom_id": "md_dmAE_ex_a035", "md_file": "knowledge_base/domains/AE/examples.md", "md_atom_type": "HEADING", "md_parent_section": "§AE.3 [Example 3]", "md_verbatim": "## Example 3", "score": 0.9, "match_basis": "verbatim_token+global_search"}], "candidate_count": 10, "zero_candidate": false}
{"pdf_atom_id": "ig34_p0115_a027", "pdf_atom_type": "SENTENCE", "pdf_source": "SDTMIG v3.4 (no header footer).pdf", "pdf_page": 115, "pdf_parent_section": "§6.1.3.3 [Exposure/Exposure as Collected Examples]", "pdf_verbatim": "The study in this example was a single-crossover study comparing once-daily oral administration of drug A 20 mg capsules with drug B 30 mg coated tablets. The study drug was taken for 3 consecutive mornings, 30 minutes prior to a standardized breakfast. There was a 6-day washout period between treatments.", "figure_ref": null, "candidates": [{"md_atom_id": "md_dmEC_ex_a045", "md_file": "knowledge_base/domains/EC/examples.md", "md_atom_type": "SENTENCE", "md_parent_section": "§EC.6 [Example 6]", "md_verbatim": "The study in this example was a single-crossover study comparing once-daily oral administration of drug A 20 mg capsules with drug B 30 mg coated tablets. The study drug was taken for 3 consecutive mornings, 30 minutes prior to a standardized breakfast. There was a 6-day washout period between treatments.", "score": 0.9, "match_basis": "verbatim_token+global_search"}, {"md_atom_id": "md_dmEX_ex_a146", "md_file": "knowledge_base/domains/EX/examples.md", "md_atom_type": "SENTENCE", "md_parent_section": "§EX.6 [Example 6]", "md_verbatim": "The study in this example was a single-crossover study comparing once-daily oral administration of drug A 20 mg capsules with drug B 30 mg coated tablets. The study drug was taken for 3 consecutive mornings, 30 minutes prior to a standardized breakfast. There was a 6-day washout period between treatments.", "score": 0.9, "match_basis": "verbatim_token+global_search"}, {"md_atom_id": "md_dmEC_ex_a023", "md_file": "knowledge_base/domains/EC/examples.md", "md_atom_type": "SENTENCE", "md_parent_section": "§EC.3 [Example 3]", "md_verbatim": "The study in this example was a double-blind study comparing 10, 20, and 30 mg of Drug X once daily vs. placebo. Study treatment was given as 1 tablet each from bottles A, B, and C taken together once daily.", "score": 0.4692, "match_basis": "verbatim_token+global_search"}, {"md_atom_id": "md_dmEX_ex_a068", "md_file": "knowledge_base/domains/EX/examples.md", "md_atom_type": "SENTENCE", "md_parent_section": "§EX.3 [Example 3]", "md_verbatim": "The study in this example was a double-blind study comparing 10, 20, and 30 mg of Drug X once daily vs. placebo. Study treatment was given as 1 tablet each from bottles A, B, and C taken together once daily. The subject in this example took:", "score": 0.462, "match_basis": "verbatim_token+global_search"}, {"md_atom_id": "md_dmTA_ex_a042", "md_file": "knowledge_base/domains/TA/examples.md", "md_atom_type": "SENTENCE", "md_parent_section": "§TA.2 [Example 2]", "md_verbatim": "A crossover trial comparing 3 treatments (Placebo, 5 mg, 10 mg) with 7 epochs: Screening, 3 Treatment Epochs with 3 Rest (washout) Epochs between them, and a Follow-up Epoch.", "score": 0.4442, "match_basis": "verbatim_token+global_search"}], "candidate_count": 5, "zero_candidate": false}
{"pdf_atom_id": "ig34_p0115_a028", "pdf_atom_type": "SENTENCE", "pdf_source": "SDTMIG v3.4 (no header footer).pdf", "pdf_page": 115, "pdf_parent_section": "§6.1.3.3 [Exposure/Exposure as Collected Examples]", "pdf_verbatim": "The following CRFs show data for 2 subjects.", "figure_ref": null, "candidates": [{"md_atom_id": "md_dmMH_ex_a090", "md_file": "knowledge_base/domains/MH/examples.md", "md_atom_type": "SENTENCE", "md_parent_section": "§MH.5 [Example 5]", "md_verbatim": "The example shows data for 2 subjects.", "score": 0.5667, "match_basis": "verbatim_token+global_search"}, {"md_atom_id": "md_dmDS_ex_a172", "md_file": "knowledge_base/domains/DS/examples.md", "md_atom_type": "SENTENCE", "md_parent_section": "§DS.10 [Example 10]", "md_verbatim": "The SE dataset shows the dates for the elements for each subject.", "score": 0.4886, "match_basis": "verbatim_token+global_search"}, {"md_atom_id": "md_dmML_ex_a038", "md_file": "knowledge_base/domains/ML/examples.md", "md_atom_type": "SENTENCE", "md_parent_section": "§ML.2 [Example 2]", "md_verbatim": "The dataset below shows the food-card data collected for the first 3 weeks for a subject.", "score": 0.4857, "match_basis": "verbatim_token+global_search"}, {"md_atom_id": "md_dmSE_ex_a032", "md_file": "knowledge_base/domains/SE/examples.md", "md_atom_type": "SENTENCE", "md_parent_section": "§SE.2 [Example 2]", "md_verbatim": "The following data represent 2 subjects enrolled in a trial in which assignment to an arm occurs in 2 stages.", "score": 0.4745, "match_basis": "verbatim_token+global_search"}, {"md_atom_id": "md_ch08_a302", "md_file": "knowledge_base/chapters/ch08_relationships.md", "md_atom_type": "SENTENCE", "md_parent_section": "§8.7 [Related Subjects (RELSUB)]", "md_verbatim": "The RELSUB table is for the 3 subjects whose demography data is shown in the preceding table.", "score": 0.4733, "match_basis": "verbatim_token+global_search"}], "candidate_count": 5, "zero_candidate": false}
{"pdf_atom_id": "ig34_p0115_a029", "pdf_atom_type": "HEADING", "pdf_source": "SDTMIG v3.4 (no header footer).pdf", "pdf_page": 115, "pdf_parent_section": "§6.1.3.3 [Exposure/Exposure as Collected Examples]", "pdf_verbatim": "Subject 56789001", "figure_ref": null, "candidates": [{"md_atom_id": "md_model03_a123", "md_file": "knowledge_base/model/03_special_purpose_domains.md", "md_atom_type": "HEADING", "md_parent_section": "§ Subject Visits (SV)", "md_verbatim": "## Subject Visits (SV)", "score": 0.5, "match_basis": "verbatim_token+global_search"}, {"md_atom_id": "md_ch04_a201", "md_file": "knowledge_base/chapters/ch04_general_assumptions.md", "md_atom_type": "HEADING", "md_parent_section": "§4.2 [General Variable Assumptions]", "md_verbatim": "### 4.2.3 Use of \"Subject\" and USUBJID", "score": 0.4875, "match_basis": "verbatim_token+global_search"}, {"md_atom_id": "md_model03_a085", "md_file": "knowledge_base/model/03_special_purpose_domains.md", "md_atom_type": "HEADING", "md_parent_section": "§ Subject Elements (SE)", "md_verbatim": "## Subject Elements (SE)", "score": 0.4765, "match_basis": "verbatim_token+global_search"}, {"md_atom_id": "md_model03_a105", "md_file": "knowledge_base/model/03_special_purpose_domains.md", "md_atom_type": "HEADING", "md_parent_section": "§ Subject Repro Stages", "md_verbatim": "## Subject Repro Stages", "score": 0.4667, "match_basis": "verbatim_token+global_search"}, {"md_atom_id": "md_model06_a064", "md_file": "knowledge_base/model/06_relationship_datasets.md", "md_atom_type": "HEADING", "md_parent_section": "§6.4 Related Subjects (RELSUB)", "md_verbatim": "## 6.4 Related Subjects (RELSUB)", "score": 0.4579, "match_basis": "verbatim_token+global_search"}], "candidate_count": 5, "zero_candidate": false}
{"pdf_atom_id": "ig34_p0115_a030", "pdf_atom_type": "TABLE_HEADER", "pdf_source": "SDTMIG v3.4 (no header footer).pdf", "pdf_page": 115, "pdf_parent_section": "§6.1.3.3 [Exposure/Exposure as Collected Examples]", "pdf_verbatim": "Period 1: Day | Bottle 1 # of capsules | Bottle 2 # of tablets | Start Date/Time | End Date/Time | Period 2: Day | Bottle 1 # of capsules | Bottle 2 # of tablets | Start Date/Time | End Date/Time", "figure_ref": null, "candidates": [{"md_atom_id": "md_dmEX_ex_a150", "md_file": "knowledge_base/domains/EX/examples.md", "md_atom_type": "TABLE_ROW", "md_parent_section": "§EX.6 [Example 6]", "md_verbatim": "| Day | Bottle 1 # of capsules | Bottle 2 # of tablets | Start Date/Time | End Date/Time | Day | Bottle 1 # of capsules | Bottle 2 # of tablets | Start Date/Time | End Date/Time |", "score": 0.7543, "match_basis": "verbatim_token+global_search"}, {"md_atom_id": "md_dmEX_ex_a156", "md_file": "knowledge_base/domains/EX/examples.md", "md_atom_type": "TABLE_ROW", "md_parent_section": "§EX.6 [Example 6]", "md_verbatim": "| Day | Bottle 1 # of capsules | Bottle 2 # of tablets | Start Date/Time | End Date/Time | Day | Bottle 1 # of capsules | Bottle 2 # of tablets | Start Date/Time | End Date/Time |", "score": 0.7543, "match_basis": "verbatim_token+global_search"}, {"md_atom_id": "md_dmEX_ex_a108", "md_file": "knowledge_base/domains/EX/examples.md", "md_atom_type": "TABLE_HEADER", "md_parent_section": "§EX.5 [Example 5]", "md_verbatim": "| Bottle | Time Point | Number of Tablets Taken | Start Date | End Date |\n|--------|------------|-------------------------|------------|----------|", "score": 0.5684, "match_basis": "verbatim_token+global_search"}, {"md_atom_id": "md_dmEX_ex_a112", "md_file": "knowledge_base/domains/EX/examples.md", "md_atom_type": "TABLE_HEADER", "md_parent_section": "§EX.5 [Example 5]", "md_verbatim": "| Bottle | Time Point | Number of Tablets Taken | Start Date | End Date |\n|--------|------------|-------------------------|------------|----------|", "score": 0.5684, "match_basis": "verbatim_token+global_search"}, {"md_atom_id": "md_dmEX_ex_a116", "md_file": "knowledge_base/domains/EX/examples.md", "md_atom_type": "TABLE_HEADER", "md_parent_section": "§EX.5 [Example 5]", "md_verbatim": "| Bottle | Time Point | Number of Tablets Taken | Start Date | End Date |\n|--------|------------|-------------------------|------------|----------|", "score": 0.5684, "match_basis": "verbatim_token+global_search"}], "candidate_count": 5, "zero_candidate": false}
{"pdf_atom_id": "ig34_p0115_a031", "pdf_atom_type": "TABLE_ROW", "pdf_source": "SDTMIG v3.4 (no header footer).pdf", "pdf_page": 115, "pdf_parent_section": "§6.1.3.3 [Exposure/Exposure as Collected Examples]", "pdf_verbatim": "1 | 1 | 1 | 2002-07-01T07:30 | 2002-07-01T07:30 | 1 | 1 | 1 | 2002-07-09T07:30 | 2002-07-09T07:30", "figure_ref": null, "candidates": [{"md_atom_id": "md_dmEX_ex_a151", "md_file": "knowledge_base/domains/EX/examples.md", "md_atom_type": "TABLE_ROW", "md_parent_section": "§EX.6 [Example 6]", "md_verbatim": "| 1 | 1 | 1 | 2002-07-01T07:30 | 2002-07-01T07:30 | 1 | 1 | 1 | 2002-07-09T07:30 | 2002-07-09T07:30 |", "score": 0.9, "match_basis": "verbatim_token+global_search"}, {"md_atom_id": "md_dmEX_ex_a153", "md_file": "knowledge_base/domains/EX/examples.md", "md_atom_type": "TABLE_ROW", "md_parent_section": "§EX.6 [Example 6]", "md_verbatim": "| 3 | 1 | 1 | 2002-07-03T07:32 | 2002-07-03T07:32 | 3 | 1 | 1 | 2002-07-11T07:34 | 2002-07-11T07:34 |", "score": 0.54, "match_basis": "verbatim_token+global_search"}, {"md_atom_id": "md_dmEX_ex_a157", "md_file": "knowledge_base/domains/EX/examples.md", "md_atom_type": "TABLE_ROW", "md_parent_section": "§EX.6 [Example 6]", "md_verbatim": "| 1 | 1 | 1 | 2002-07-03T07:30 | 2002-07-03T07:30 | 1 | 1 | 1 | 2002-07-11T07:30 | 2002-07-11T07:30 |", "score": 0.54, "match_basis": "verbatim_token+global_search"}, {"md_atom_id": "md_dmEX_ex_a152", "md_file": "knowledge_base/domains/EX/examples.md", "md_atom_type": "TABLE_ROW", "md_parent_section": "§EX.6 [Example 6]", "md_verbatim": "| 2 | 1 | 1 | 2002-07-02T07:30 | 2002-07-02T07:30 | 2 | 1 | 1 | 2002-07-10T07:30 | 2002-07-10T07:30 |", "score": 0.4636, "match_basis": "verbatim_token+global_search"}, {"md_atom_id": "md_dmEX_ex_a158", "md_file": "knowledge_base/domains/EX/examples.md", "md_atom_type": "TABLE_ROW", "md_parent_section": "§EX.6 [Example 6]", "md_verbatim": "| 2 | 1 | 1 | 2002-07-04T07:24 | 2002-07-04T07:24 | 2 | 1 | 1 | 2002-07-12T07:43 | 2002-07-12T07:43 |", "score": 0.4636, "match_basis": "verbatim_token+global_search"}], "candidate_count": 5, "zero_candidate": false}
{"pdf_atom_id": "ig34_p0115_a032", "pdf_atom_type": "TABLE_ROW", "pdf_source": "SDTMIG v3.4 (no header footer).pdf", "pdf_page": 115, "pdf_parent_section": "§6.1.3.3 [Exposure/Exposure as Collected Examples]", "pdf_verbatim": "2 | 1 | 1 | 2002-07-02T07:30 | 2002-07-02T07:30 | 2 | 1 | 1 | 2002-07-10T07:30 | 2002-07-10T07:30", "figure_ref": null, "candidates": [{"md_atom_id": "md_dmEX_ex_a152", "md_file": "knowledge_base/domains/EX/examples.md", "md_atom_type": "TABLE_ROW", "md_parent_section": "§EX.6 [Example 6]", "md_verbatim": "| 2 | 1 | 1 | 2002-07-02T07:30 | 2002-07-02T07:30 | 2 | 1 | 1 | 2002-07-10T07:30 | 2002-07-10T07:30 |", "score": 0.9, "match_basis": "verbatim_token+global_search"}, {"md_atom_id": "md_dmEX_ex_a158", "md_file": "knowledge_base/domains/EX/examples.md", "md_atom_type": "TABLE_ROW", "md_parent_section": "§EX.6 [Example 6]", "md_verbatim": "| 2 | 1 | 1 | 2002-07-04T07:24 | 2002-07-04T07:24 | 2 | 1 | 1 | 2002-07-12T07:43 | 2002-07-12T07:43 |", "score": 0.54, "match_basis": "verbatim_token+global_search"}, {"md_atom_id": "md_dmEX_ex_a151", "md_file": "knowledge_base/domains/EX/examples.md", "md_atom_type": "TABLE_ROW", "md_parent_section": "§EX.6 [Example 6]", "md_verbatim": "| 1 | 1 | 1 | 2002-07-01T07:30 | 2002-07-01T07:30 | 1 | 1 | 1 | 2002-07-09T07:30 | 2002-07-09T07:30 |", "score": 0.4636, "match_basis": "verbatim_token+global_search"}, {"md_atom_id": "md_dmEX_ex_a153", "md_file": "knowledge_base/domains/EX/examples.md", "md_atom_type": "TABLE_ROW", "md_parent_section": "§EX.6 [Example 6]", "md_verbatim": "| 3 | 1 | 1 | 2002-07-03T07:32 | 2002-07-03T07:32 | 3 | 1 | 1 | 2002-07-11T07:34 | 2002-07-11T07:34 |", "score": 0.4636, "match_basis": "verbatim_token+global_search"}, {"md_atom_id": "md_dmEX_ex_a157", "md_file": "knowledge_base/domains/EX/examples.md", "md_atom_type": "TABLE_ROW", "md_parent_section": "§EX.6 [Example 6]", "md_verbatim": "| 1 | 1 | 1 | 2002-07-03T07:30 | 2002-07-03T07:30 | 1 | 1 | 1 | 2002-07-11T07:30 | 2002-07-11T07:30 |", "score": 0.4636, "match_basis": "verbatim_token+global_search"}], "candidate_count": 5, "zero_candidate": false}
{"pdf_atom_id": "ig34_p0115_a033", "pdf_atom_type": "TABLE_ROW", "pdf_source": "SDTMIG v3.4 (no header footer).pdf", "pdf_page": 115, "pdf_parent_section": "§6.1.3.3 [Exposure/Exposure as Collected Examples]", "pdf_verbatim": "3 | 1 | 1 | 2002-07-03T07:32 | 2002-07-03T07:32 | 3 | 1 | 1 | 2002-07-11T07:34 | 2002-07-11T07:34", "figure_ref": null, "candidates": [{"md_atom_id": "md_dmEX_ex_a153", "md_file": "knowledge_base/domains/EX/examples.md", "md_atom_type": "TABLE_ROW", "md_parent_section": "§EX.6 [Example 6]", "md_verbatim": "| 3 | 1 | 1 | 2002-07-03T07:32 | 2002-07-03T07:32 | 3 | 1 | 1 | 2002-07-11T07:34 | 2002-07-11T07:34 |", "score": 0.9, "match_basis": "verbatim_token+global_search"}, {"md_atom_id": "md_dmEX_ex_a157", "md_file": "knowledge_base/domains/EX/examples.md", "md_atom_type": "TABLE_ROW", "md_parent_section": "§EX.6 [Example 6]", "md_verbatim": "| 1 | 1 | 1 | 2002-07-03T07:30 | 2002-07-03T07:30 | 1 | 1 | 1 | 2002-07-11T07:30 | 2002-07-11T07:30 |", "score": 0.9, "match_basis": "verbatim_token+global_search"}, {"md_atom_id": "md_dmEX_ex_a151", "md_file": "knowledge_base/domains/EX/examples.md", "md_atom_type": "TABLE_ROW", "md_parent_section": "§EX.6 [Example 6]", "md_verbatim": "| 1 | 1 | 1 | 2002-07-01T07:30 | 2002-07-01T07:30 | 1 | 1 | 1 | 2002-07-09T07:30 | 2002-07-09T07:30 |", "score": 0.54, "match_basis": "verbatim_token+global_search"}, {"md_atom_id": "md_dmEX_ex_a159", "md_file": "knowledge_base/domains/EX/examples.md", "md_atom_type": "TABLE_ROW", "md_parent_section": "§EX.6 [Example 6]", "md_verbatim": "| 3 | 1 | 1 | 2002-07-05T07:24 | 2002-07-05T07:24 | 3 | 1 | 1 | 2002-07-13T07:38 | 2002-07-13T07:38 |", "score": 0.54, "match_basis": "verbatim_token+global_search"}, {"md_atom_id": "md_dmEX_ex_a152", "md_file": "knowledge_base/domains/EX/examples.md", "md_atom_type": "TABLE_ROW", "md_parent_section": "§EX.6 [Example 6]", "md_verbatim": "| 2 | 1 | 1 | 2002-07-02T07:30 | 2002-07-02T07:30 | 2 | 1 | 1 | 2002-07-10T07:30 | 2002-07-10T07:30 |", "score": 0.4636, "match_basis": "verbatim_token+global_search"}], "candidate_count": 5, "zero_candidate": false}
{"pdf_atom_id": "ig34_p0116_a001", "pdf_atom_type": "HEADING", "pdf_source": "SDTMIG v3.4 (no header footer).pdf", "pdf_page": 116, "pdf_parent_section": "§6.1.3.3 [Exposure/Exposure as Collected Examples]", "pdf_verbatim": "Subject 56789003", "figure_ref": null, "candidates": [{"md_atom_id": "md_model03_a123", "md_file": "knowledge_base/model/03_special_purpose_domains.md", "md_atom_type": "HEADING", "md_parent_section": "§ Subject Visits (SV)", "md_verbatim": "## Subject Visits (SV)", "score": 0.5, "match_basis": "verbatim_token+global_search"}, {"md_atom_id": "md_ch04_a201", "md_file": "knowledge_base/chapters/ch04_general_assumptions.md", "md_atom_type": "HEADING", "md_parent_section": "§4.2 [General Variable Assumptions]", "md_verbatim": "### 4.2.3 Use of \"Subject\" and USUBJID", "score": 0.4875, "match_basis": "verbatim_token+global_search"}, {"md_atom_id": "md_model03_a085", "md_file": "knowledge_base/model/03_special_purpose_domains.md", "md_atom_type": "HEADING", "md_parent_section": "§ Subject Elements (SE)", "md_verbatim": "## Subject Elements (SE)", "score": 0.4765, "match_basis": "verbatim_token+global_search"}, {"md_atom_id": "md_model03_a105", "md_file": "knowledge_base/model/03_special_purpose_domains.md", "md_atom_type": "HEADING", "md_parent_section": "§ Subject Repro Stages", "md_verbatim": "## Subject Repro Stages", "score": 0.4667, "match_basis": "verbatim_token+global_search"}, {"md_atom_id": "md_model06_a064", "md_file": "knowledge_base/model/06_relationship_datasets.md", "md_atom_type": "HEADING", "md_parent_section": "§6.4 Related Subjects (RELSUB)", "md_verbatim": "## 6.4 Related Subjects (RELSUB)", "score": 0.4579, "match_basis": "verbatim_token+global_search"}], "candidate_count": 5, "zero_candidate": false}
{"pdf_atom_id": "ig34_p0116_a002", "pdf_atom_type": "TABLE_HEADER", "pdf_source": "SDTMIG v3.4 (no header footer).pdf", "pdf_page": 116, "pdf_parent_section": "§6.1.3.3 [Exposure/Exposure as Collected Examples]", "pdf_verbatim": "| Period 1 | | | | | Period 2 | | | | |", "figure_ref": null, "candidates": [{"md_atom_id": "md_dmEX_ex_a149", "md_file": "knowledge_base/domains/EX/examples.md", "md_atom_type": "TABLE_HEADER", "md_parent_section": "§EX.6 [Example 6]", "md_verbatim": "| | Period 1 | | | | | Period 2 | | | | |\n|---|---|---|---|---|---|---|---|---|---|---|", "score": 0.9, "match_basis": "verbatim_token+global_search"}, {"md_atom_id": "md_dmEX_ex_a155", "md_file": "knowledge_base/domains/EX/examples.md", "md_atom_type": "TABLE_HEADER", "md_parent_section": "§EX.6 [Example 6]", "md_verbatim": "| | Period 1 | | | | | Period 2 | | | | |\n|---|---|---|---|---|---|---|---|---|---|---|", "score": 0.9, "match_basis": "verbatim_token+global_search"}, {"md_atom_id": "md_ch04_a737", "md_file": "knowledge_base/chapters/ch04_general_assumptions.md", "md_atom_type": "TABLE_ROW", "md_parent_section": "§4.4.10 [Representing Time Points]", "md_verbatim": "| PERIOD 1 | 3 | PRE-DOSE | 1 | DAY 1, AM DOSE |", "score": 0.54, "match_basis": "verbatim_token+global_search"}, {"md_atom_id": "md_ch04_a749", "md_file": "knowledge_base/chapters/ch04_general_assumptions.md", "md_atom_type": "TABLE_ROW", "md_parent_section": "§4.4.10 [Representing Time Points]", "md_verbatim": "| PERIOD 2 | 4 | PRE-DOSE | 1 | DAY 1, AM DOSE |", "score": 0.54, "match_basis": "verbatim_token+global_search"}, {"md_atom_id": "md_ch04_a757", "md_file": "knowledge_base/chapters/ch04_general_assumptions.md", "md_atom_type": "TABLE_ROW", "md_parent_section": "§4.4.10 [Representing Time Points]", "md_verbatim": "| PERIOD 1, DAY 1 | 3 | PRE-DOSE | 1 | AM DOSE |", "score": 0.54, "match_basis": "verbatim_token+global_search"}, {"md_atom_id": "md_ch04_a763", "md_file": "knowledge_base/chapters/ch04_general_assumptions.md", "md_atom_type": "TABLE_ROW", "md_parent_section": "§4.4.10 [Representing Time Points]", "md_verbatim": "| PERIOD 1, DAY 5 | 4 | PRE-DOSE | 1 | AM DOSE |", "score": 0.54, "match_basis": "verbatim_token+global_search"}, {"md_atom_id": "md_ch04_a769", "md_file": "knowledge_base/chapters/ch04_general_assumptions.md", "md_atom_type": "TABLE_ROW", "md_parent_section": "§4.4.10 [Representing Time Points]", "md_verbatim": "| PERIOD 2, DAY 1 | 5 | PRE-DOSE | 1 | AM DOSE |", "score": 0.54, "match_basis": "verbatim_token+global_search"}, {"md_atom_id": "md_dmAE_assn_a028", "md_file": "knowledge_base/domains/AE/assumptions.md", "md_atom_type": "TABLE_HEADER", "md_parent_section": "§AE [AE — Assumptions]", "md_verbatim": "      | Serious? | [ ] Yes  [ ] No |\n      |----------|-----------------|", "score": 0.45, "match_basis": "verbatim_token+global_search"}, {"md_atom_id": "md_ch10_a108", "md_file": "knowledge_base/chapters/ch10_appendices.md", "md_atom_type": "TABLE_ROW", "md_parent_section": "§10.D [CDISC Variable-naming Fragments]", "md_verbatim": "| EXTERNAL | X | | SERIOUS | S, SER |", "score": 0.3323, "match_basis": "verbatim_token+global_search"}, {"md_atom_id": "md_dmCE_ex_a028", "md_file": "knowledge_base/domains/CE/examples.md", "md_atom_type": "TABLE_HEADER", "md_parent_section": "§CE.2 [Example 2]", "md_verbatim": "| Event | | Date Started | Date Ended | Severity |\n|-------|---|-------------|-----------|----------|", "score": 0.3286, "match_basis": "verbatim_token+global_search"}], "candidate_count": 10, "zero_candidate": false}
