{"pdf_atom_id": "ig34_p0039_a027", "pdf_atom_type": "SENTENCE", "pdf_source": "SDTMIG_v3.4", "pdf_page": 39, "pdf_parent_section": "§4.4.2 Date/Time Precision", "pdf_verbatim": "The following table provides examples of ISO 8601 representations of complete and truncated date/time values using ISO 8601 \"appropriate right truncations\" of incomplete date/time representations.", "figure_ref": null, "candidates": [{"md_atom_id": "md_ch04_a516", "md_file": "knowledge_base/chapters/ch04_general_assumptions.md", "md_atom_type": "SENTENCE", "md_parent_section": "§4.4.2 [Date/Time Precision]", "md_verbatim": "The following table provides examples of ISO 8601 representations of complete and truncated date/time values.", "score": 0.7833, "match_basis": "verbatim_token+chapter_route:ch04"}, {"md_atom_id": "md_ch04_a578", "md_file": "knowledge_base/chapters/ch04_general_assumptions.md", "md_atom_type": "SENTENCE", "md_parent_section": "§4.4.3.1 [Intervals of Time and Use of Duration]", "md_verbatim": "The following table provides some examples of ISO 8601-compliant representations of durations.", "score": 0.6037, "match_basis": "verbatim_token+chapter_route:ch04"}, {"md_atom_id": "md_ch04_a527", "md_file": "knowledge_base/chapters/ch04_general_assumptions.md", "md_atom_type": "SENTENCE", "md_parent_section": "§4.4.2 [Date/Time Precision]", "md_verbatim": "To represent these intervals while applying the ISO 8601 standard, it is recommended that the sponsor concatenate the date/time values (using the most complete representation of the date/time known) that describe the beginning and the end of the interval of uncertainty and separate them with a solidus, as shown in the following table.", "score": 0.4986, "match_basis": "verbatim_token+chapter_route:ch04"}, {"md_atom_id": "md_ch04_a480", "md_file": "knowledge_base/chapters/ch04_general_assumptions.md", "md_atom_type": "SENTENCE", "md_parent_section": "§4.4 [Actual and Relative Time Assumptions]", "md_verbatim": "ISO 8601 provides a text-based representation of dates and/or times, intervals of time, and durations of time.", "score": 0.4909, "match_basis": "verbatim_token+chapter_route:ch04"}, {"md_atom_id": "md_ch04_a553", "md_file": "knowledge_base/chapters/ch04_general_assumptions.md", "md_atom_type": "SENTENCE", "md_parent_section": "§4.4.3.1 [Intervals of Time and Use of Duration]", "md_verbatim": "Although this example represents the interval (by providing the start date/time and end date/time to bound the interval of time), it does not provide the value of the duration (the quantity of time).", "score": 0.4682, "match_basis": "verbatim_token+chapter_route:ch04"}], "candidate_count": 5, "zero_candidate": false}
{"pdf_atom_id": "ig34_p0039_a028", "pdf_atom_type": "SENTENCE", "pdf_source": "SDTMIG_v3.4", "pdf_page": 39, "pdf_parent_section": "§4.4.2 Date/Time Precision", "pdf_verbatim": "Note that if no time component is represented, the [T] time designator (in addition to the missing time) must be omitted in ISO 8601 representation.", "figure_ref": null, "candidates": [{"md_atom_id": "md_ch04_a517", "md_file": "knowledge_base/chapters/ch04_general_assumptions.md", "md_atom_type": "SENTENCE", "md_parent_section": "§4.4.2 [Date/Time Precision]", "md_verbatim": "Note that if no time component is represented, the [T] time designator (in addition to the missing time) must be omitted in ISO 8601 representation.", "score": 0.9, "match_basis": "verbatim_token+chapter_route:ch04"}, {"md_atom_id": "md_ch04_a574", "md_file": "knowledge_base/chapters/ch04_general_assumptions.md", "md_atom_type": "SENTENCE", "md_parent_section": "§4.4.3.1 [Intervals of Time and Use of Duration]", "md_verbatim": "If no time component is represented, the [T] time designator must be omitted in ISO 8601 representation.", "score": 0.7528, "match_basis": "verbatim_token+chapter_route:ch04"}, {"md_atom_id": "md_ch04_a512", "md_file": "knowledge_base/chapters/ch04_general_assumptions.md", "md_atom_type": "SENTENCE", "md_parent_section": "§4.4.2 [Date/Time Precision]", "md_verbatim": "Missing components are represented by right truncation or a hyphen (for intermediate components that are missing).", "score": 0.4948, "match_basis": "verbatim_token+chapter_route:ch04"}, {"md_atom_id": "md_ch04_a575", "md_file": "knowledge_base/chapters/ch04_general_assumptions.md", "md_atom_type": "SENTENCE", "md_parent_section": "§4.4.3.1 [Intervals of Time and Use of Duration]", "md_verbatim": "ISO 8601 also allows that the \"lowest-order components\" of duration being represented may be represented in decimal format.", "score": 0.4852, "match_basis": "verbatim_token+chapter_route:ch04"}, {"md_atom_id": "md_ch04_a573", "md_file": "knowledge_base/chapters/ch04_general_assumptions.md", "md_atom_type": "SENTENCE", "md_parent_section": "§4.4.3.1 [Intervals of Time and Use of Duration]", "md_verbatim": "As is the case with the date/time representation in --DTC, --STDTC, or --ENDTC, only the components of duration that are known or collected need to be represented.", "score": 0.4829, "match_basis": "verbatim_token+chapter_route:ch04"}], "candidate_count": 5, "zero_candidate": false}
{"pdf_atom_id": "ig34_p0039_a029", "pdf_atom_type": "TABLE_HEADER", "pdf_source": "SDTMIG_v3.4", "pdf_page": 39, "pdf_parent_section": "§4.4.2 Date/Time Precision", "pdf_verbatim": "Date and Time as Originally Recorded | Precision | ISO 8601 Date/Time", "figure_ref": null, "candidates": [{"md_atom_id": "md_ch04_a518", "md_file": "knowledge_base/chapters/ch04_general_assumptions.md", "md_atom_type": "TABLE_HEADER", "md_parent_section": "§4.4.2 [Date/Time Precision]", "md_verbatim": "| # | Date and Time as Originally Recorded | Precision | ISO 8601 Date/Time |\n|---|--------------------------------------|-----------|-------------------|", "score": 0.9, "match_basis": "verbatim_token+chapter_route:ch04"}, {"md_atom_id": "md_ch04_a536", "md_file": "knowledge_base/chapters/ch04_general_assumptions.md", "md_atom_type": "TABLE_HEADER", "md_parent_section": "§4.4.2 [Date/Time Precision]", "md_verbatim": "| # | Date and Time as Originally Recorded | Level of Uncertainty | ISO 8601 Date/Time |\n|---|--------------------------------------|---------------------|-------------------|", "score": 0.63, "match_basis": "verbatim_token+chapter_route:ch04"}, {"md_atom_id": "md_ch04_a579", "md_file": "knowledge_base/chapters/ch04_general_assumptions.md", "md_atom_type": "TABLE_HEADER", "md_parent_section": "§4.4.3.1 [Intervals of Time and Use of Duration]", "md_verbatim": "| Duration as originally recorded | ISO 8601 Duration |\n|---------------------------------|-------------------|", "score": 0.6273, "match_basis": "verbatim_token+chapter_route:ch04"}, {"md_atom_id": "md_ch04_a528", "md_file": "knowledge_base/chapters/ch04_general_assumptions.md", "md_atom_type": "TABLE_HEADER", "md_parent_section": "§4.4.2 [Date/Time Precision]", "md_verbatim": "| # | Interval of Uncertainty | ISO 8601 Date/Time |\n|---|------------------------|-------------------|", "score": 0.4, "match_basis": "verbatim_token+chapter_route:ch04"}, {"md_atom_id": "md_ch04_a461", "md_file": "knowledge_base/chapters/ch04_general_assumptions.md", "md_atom_type": "TABLE_HEADER", "md_parent_section": "§4.3.6 [Storing Topic Variables for General Domain Models]", "md_verbatim": "| Domain | Original Verbatim | Modified Verbatim | Standardized Value |\n|--------|-------------------|-------------------|--------------------|", "score": 0.3873, "match_basis": "verbatim_token+chapter_route:ch04"}], "candidate_count": 5, "zero_candidate": false}
{"pdf_atom_id": "ig34_p0039_a030", "pdf_atom_type": "TABLE_ROW", "pdf_source": "SDTMIG_v3.4", "pdf_page": 39, "pdf_parent_section": "§4.4.2 Date/Time Precision", "pdf_verbatim": "1 | December 15, 2003 13:14:17.123 | Date/time, including fractional seconds | 2003-12-15T13:14:17.123", "figure_ref": null, "candidates": [{"md_atom_id": "md_ch04_a519", "md_file": "knowledge_base/chapters/ch04_general_assumptions.md", "md_atom_type": "TABLE_ROW", "md_parent_section": "§4.4.2 [Date/Time Precision]", "md_verbatim": "| 1 | December 15, 2003 13:14:17.123 | Date/time, including fractional seconds | 2003-12-15T13:14:17.123 |", "score": 0.9, "match_basis": "verbatim_token+chapter_route:ch04"}, {"md_atom_id": "md_ch04_a520", "md_file": "knowledge_base/chapters/ch04_general_assumptions.md", "md_atom_type": "TABLE_ROW", "md_parent_section": "§4.4.2 [Date/Time Precision]", "md_verbatim": "| 2 | December 15, 2003 13:14:17 | Date/time to the nearest second | 2003-12-15T13:14:17 |", "score": 0.5714, "match_basis": "verbatim_token+chapter_route:ch04"}, {"md_atom_id": "md_ch04_a537", "md_file": "knowledge_base/chapters/ch04_general_assumptions.md", "md_atom_type": "TABLE_ROW", "md_parent_section": "§4.4.2 [Date/Time Precision]", "md_verbatim": "| 1 | December 15, 2003 13:15:17 | Date/time to the nearest second | 2003-12-15T13:15:17 |", "score": 0.5714, "match_basis": "verbatim_token+chapter_route:ch04"}, {"md_atom_id": "md_ch04_a521", "md_file": "knowledge_base/chapters/ch04_general_assumptions.md", "md_atom_type": "TABLE_ROW", "md_parent_section": "§4.4.2 [Date/Time Precision]", "md_verbatim": "| 3 | December 15, 2003 13:14 | Unknown seconds | 2003-12-15T13:14 |", "score": 0.5341, "match_basis": "verbatim_token+chapter_route:ch04"}, {"md_atom_id": "md_ch04_a539", "md_file": "knowledge_base/chapters/ch04_general_assumptions.md", "md_atom_type": "TABLE_ROW", "md_parent_section": "§4.4.2 [Date/Time Precision]", "md_verbatim": "| 3 | December 15, 2003 13:??:17 | Unknown minutes with known date, hours, and seconds | 2003-12-15T13:--:17 |", "score": 0.5077, "match_basis": "verbatim_token+chapter_route:ch04"}], "candidate_count": 5, "zero_candidate": false}
{"pdf_atom_id": "ig34_p0039_a031", "pdf_atom_type": "TABLE_ROW", "pdf_source": "SDTMIG_v3.4", "pdf_page": 39, "pdf_parent_section": "§4.4.2 Date/Time Precision", "pdf_verbatim": "2 | December 15, 2003 13:14:17 | Date/time to the nearest second | 2003-12-15T13:14:17", "figure_ref": null, "candidates": [{"md_atom_id": "md_ch04_a520", "md_file": "knowledge_base/chapters/ch04_general_assumptions.md", "md_atom_type": "TABLE_ROW", "md_parent_section": "§4.4.2 [Date/Time Precision]", "md_verbatim": "| 2 | December 15, 2003 13:14:17 | Date/time to the nearest second | 2003-12-15T13:14:17 |", "score": 0.9, "match_basis": "verbatim_token+chapter_route:ch04"}, {"md_atom_id": "md_ch04_a537", "md_file": "knowledge_base/chapters/ch04_general_assumptions.md", "md_atom_type": "TABLE_ROW", "md_parent_section": "§4.4.2 [Date/Time Precision]", "md_verbatim": "| 1 | December 15, 2003 13:15:17 | Date/time to the nearest second | 2003-12-15T13:15:17 |", "score": 0.9, "match_basis": "verbatim_token+chapter_route:ch04"}, {"md_atom_id": "md_ch04_a521", "md_file": "knowledge_base/chapters/ch04_general_assumptions.md", "md_atom_type": "TABLE_ROW", "md_parent_section": "§4.4.2 [Date/Time Precision]", "md_verbatim": "| 3 | December 15, 2003 13:14 | Unknown seconds | 2003-12-15T13:14 |", "score": 0.5903, "match_basis": "verbatim_token+chapter_route:ch04"}, {"md_atom_id": "md_ch04_a519", "md_file": "knowledge_base/chapters/ch04_general_assumptions.md", "md_atom_type": "TABLE_ROW", "md_parent_section": "§4.4.2 [Date/Time Precision]", "md_verbatim": "| 1 | December 15, 2003 13:14:17.123 | Date/time, including fractional seconds | 2003-12-15T13:14:17.123 |", "score": 0.5714, "match_basis": "verbatim_token+chapter_route:ch04"}, {"md_atom_id": "md_ch04_a522", "md_file": "knowledge_base/chapters/ch04_general_assumptions.md", "md_atom_type": "TABLE_ROW", "md_parent_section": "§4.4.2 [Date/Time Precision]", "md_verbatim": "| 4 | December 15, 2003 13 | Unknown minutes and seconds | 2003-12-15T13 |", "score": 0.5432, "match_basis": "verbatim_token+chapter_route:ch04"}], "candidate_count": 5, "zero_candidate": false}
{"pdf_atom_id": "ig34_p0039_a032", "pdf_atom_type": "TABLE_ROW", "pdf_source": "SDTMIG_v3.4", "pdf_page": 39, "pdf_parent_section": "§4.4.2 Date/Time Precision", "pdf_verbatim": "3 | December 15, 2003 13:14 | Unknown seconds | 2003-12-15T13:14", "figure_ref": null, "candidates": [{"md_atom_id": "md_ch04_a521", "md_file": "knowledge_base/chapters/ch04_general_assumptions.md", "md_atom_type": "TABLE_ROW", "md_parent_section": "§4.4.2 [Date/Time Precision]", "md_verbatim": "| 3 | December 15, 2003 13:14 | Unknown seconds | 2003-12-15T13:14 |", "score": 0.9, "match_basis": "verbatim_token+chapter_route:ch04"}, {"md_atom_id": "md_ch04_a522", "md_file": "knowledge_base/chapters/ch04_general_assumptions.md", "md_atom_type": "TABLE_ROW", "md_parent_section": "§4.4.2 [Date/Time Precision]", "md_verbatim": "| 4 | December 15, 2003 13 | Unknown minutes and seconds | 2003-12-15T13 |", "score": 0.7667, "match_basis": "verbatim_token+chapter_route:ch04"}, {"md_atom_id": "md_ch04_a539", "md_file": "knowledge_base/chapters/ch04_general_assumptions.md", "md_atom_type": "TABLE_ROW", "md_parent_section": "§4.4.2 [Date/Time Precision]", "md_verbatim": "| 3 | December 15, 2003 13:??:17 | Unknown minutes with known date, hours, and seconds | 2003-12-15T13:--:17 |", "score": 0.6706, "match_basis": "verbatim_token+chapter_route:ch04"}, {"md_atom_id": "md_ch04_a523", "md_file": "knowledge_base/chapters/ch04_general_assumptions.md", "md_atom_type": "TABLE_ROW", "md_parent_section": "§4.4.2 [Date/Time Precision]", "md_verbatim": "| 5 | December 15, 2003 | Unknown time | 2003-12-15 |", "score": 0.6391, "match_basis": "verbatim_token+chapter_route:ch04"}, {"md_atom_id": "md_ch04_a524", "md_file": "knowledge_base/chapters/ch04_general_assumptions.md", "md_atom_type": "TABLE_ROW", "md_parent_section": "§4.4.2 [Date/Time Precision]", "md_verbatim": "| 6 | December, 2003 | Unknown day and time | 2003-12 |", "score": 0.612, "match_basis": "verbatim_token+chapter_route:ch04"}], "candidate_count": 5, "zero_candidate": false}
{"pdf_atom_id": "ig34_p0039_a033", "pdf_atom_type": "TABLE_ROW", "pdf_source": "SDTMIG_v3.4", "pdf_page": 39, "pdf_parent_section": "§4.4.2 Date/Time Precision", "pdf_verbatim": "4 | December 15, 2003 13 | Unknown minutes and seconds | 2003-12-15T13", "figure_ref": null, "candidates": [{"md_atom_id": "md_ch04_a522", "md_file": "knowledge_base/chapters/ch04_general_assumptions.md", "md_atom_type": "TABLE_ROW", "md_parent_section": "§4.4.2 [Date/Time Precision]", "md_verbatim": "| 4 | December 15, 2003 13 | Unknown minutes and seconds | 2003-12-15T13 |", "score": 0.9, "match_basis": "verbatim_token+chapter_route:ch04"}, {"md_atom_id": "md_ch04_a539", "md_file": "knowledge_base/chapters/ch04_general_assumptions.md", "md_atom_type": "TABLE_ROW", "md_parent_section": "§4.4.2 [Date/Time Precision]", "md_verbatim": "| 3 | December 15, 2003 13:??:17 | Unknown minutes with known date, hours, and seconds | 2003-12-15T13:--:17 |", "score": 0.7765, "match_basis": "verbatim_token+chapter_route:ch04"}, {"md_atom_id": "md_ch04_a521", "md_file": "knowledge_base/chapters/ch04_general_assumptions.md", "md_atom_type": "TABLE_ROW", "md_parent_section": "§4.4.2 [Date/Time Precision]", "md_verbatim": "| 3 | December 15, 2003 13:14 | Unknown seconds | 2003-12-15T13:14 |", "score": 0.7667, "match_basis": "verbatim_token+chapter_route:ch04"}, {"md_atom_id": "md_ch04_a538", "md_file": "knowledge_base/chapters/ch04_general_assumptions.md", "md_atom_type": "TABLE_ROW", "md_parent_section": "§4.4.2 [Date/Time Precision]", "md_verbatim": "| 2 | December 15, 2003 ??:15 | Unknown hour with known minutes | 2003-12-15T--:15 |", "score": 0.6677, "match_basis": "verbatim_token+chapter_route:ch04"}, {"md_atom_id": "md_ch04_a524", "md_file": "knowledge_base/chapters/ch04_general_assumptions.md", "md_atom_type": "TABLE_ROW", "md_parent_section": "§4.4.2 [Date/Time Precision]", "md_verbatim": "| 6 | December, 2003 | Unknown day and time | 2003-12 |", "score": 0.58, "match_basis": "verbatim_token+chapter_route:ch04"}], "candidate_count": 5, "zero_candidate": false}
{"pdf_atom_id": "ig34_p0039_a034", "pdf_atom_type": "TABLE_ROW", "pdf_source": "SDTMIG_v3.4", "pdf_page": 39, "pdf_parent_section": "§4.4.2 Date/Time Precision", "pdf_verbatim": "5 | December 15, 2003 | Unknown time | 2003-12-15", "figure_ref": null, "candidates": [{"md_atom_id": "md_ch04_a523", "md_file": "knowledge_base/chapters/ch04_general_assumptions.md", "md_atom_type": "TABLE_ROW", "md_parent_section": "§4.4.2 [Date/Time Precision]", "md_verbatim": "| 5 | December 15, 2003 | Unknown time | 2003-12-15 |", "score": 0.9, "match_basis": "verbatim_token+chapter_route:ch04"}, {"md_atom_id": "md_ch04_a524", "md_file": "knowledge_base/chapters/ch04_general_assumptions.md", "md_atom_type": "TABLE_ROW", "md_parent_section": "§4.4.2 [Date/Time Precision]", "md_verbatim": "| 6 | December, 2003 | Unknown day and time | 2003-12 |", "score": 0.8294, "match_basis": "verbatim_token+chapter_route:ch04"}, {"md_atom_id": "md_ch04_a521", "md_file": "knowledge_base/chapters/ch04_general_assumptions.md", "md_atom_type": "TABLE_ROW", "md_parent_section": "§4.4.2 [Date/Time Precision]", "md_verbatim": "| 3 | December 15, 2003 13:14 | Unknown seconds | 2003-12-15T13:14 |", "score": 0.6391, "match_basis": "verbatim_token+chapter_route:ch04"}, {"md_atom_id": "md_ch04_a538", "md_file": "knowledge_base/chapters/ch04_general_assumptions.md", "md_atom_type": "TABLE_ROW", "md_parent_section": "§4.4.2 [Date/Time Precision]", "md_verbatim": "| 2 | December 15, 2003 ??:15 | Unknown hour with known minutes | 2003-12-15T--:15 |", "score": 0.612, "match_basis": "verbatim_token+chapter_route:ch04"}, {"md_atom_id": "md_ch04_a525", "md_file": "knowledge_base/chapters/ch04_general_assumptions.md", "md_atom_type": "TABLE_ROW", "md_parent_section": "§4.4.2 [Date/Time Precision]", "md_verbatim": "| 7 | 2003 | Unknown month, day, and time | 2003 |", "score": 0.57, "match_basis": "verbatim_token+chapter_route:ch04"}], "candidate_count": 5, "zero_candidate": false}
{"pdf_atom_id": "ig34_p0039_a035", "pdf_atom_type": "TABLE_ROW", "pdf_source": "SDTMIG_v3.4", "pdf_page": 39, "pdf_parent_section": "§4.4.2 Date/Time Precision", "pdf_verbatim": "6 | December, 2003 | Unknown day and time | 2003-12", "figure_ref": null, "candidates": [{"md_atom_id": "md_ch04_a524", "md_file": "knowledge_base/chapters/ch04_general_assumptions.md", "md_atom_type": "TABLE_ROW", "md_parent_section": "§4.4.2 [Date/Time Precision]", "md_verbatim": "| 6 | December, 2003 | Unknown day and time | 2003-12 |", "score": 0.9, "match_basis": "verbatim_token+chapter_route:ch04"}, {"md_atom_id": "md_ch04_a523", "md_file": "knowledge_base/chapters/ch04_general_assumptions.md", "md_atom_type": "TABLE_ROW", "md_parent_section": "§4.4.2 [Date/Time Precision]", "md_verbatim": "| 5 | December 15, 2003 | Unknown time | 2003-12-15 |", "score": 0.8294, "match_basis": "verbatim_token+chapter_route:ch04"}, {"md_atom_id": "md_ch04_a525", "md_file": "knowledge_base/chapters/ch04_general_assumptions.md", "md_atom_type": "TABLE_ROW", "md_parent_section": "§4.4.2 [Date/Time Precision]", "md_verbatim": "| 7 | 2003 | Unknown month, day, and time | 2003 |", "score": 0.63, "match_basis": "verbatim_token+chapter_route:ch04"}, {"md_atom_id": "md_ch04_a521", "md_file": "knowledge_base/chapters/ch04_general_assumptions.md", "md_atom_type": "TABLE_ROW", "md_parent_section": "§4.4.2 [Date/Time Precision]", "md_verbatim": "| 3 | December 15, 2003 13:14 | Unknown seconds | 2003-12-15T13:14 |", "score": 0.612, "match_basis": "verbatim_token+chapter_route:ch04"}, {"md_atom_id": "md_ch04_a538", "md_file": "knowledge_base/chapters/ch04_general_assumptions.md", "md_atom_type": "TABLE_ROW", "md_parent_section": "§4.4.2 [Date/Time Precision]", "md_verbatim": "| 2 | December 15, 2003 ??:15 | Unknown hour with known minutes | 2003-12-15T--:15 |", "score": 0.5889, "match_basis": "verbatim_token+chapter_route:ch04"}], "candidate_count": 5, "zero_candidate": false}
{"pdf_atom_id": "ig34_p0039_a036", "pdf_atom_type": "TABLE_ROW", "pdf_source": "SDTMIG_v3.4", "pdf_page": 39, "pdf_parent_section": "§4.4.2 Date/Time Precision", "pdf_verbatim": "7 | 2003 | Unknown month, day, and time | 2003", "figure_ref": null, "candidates": [{"md_atom_id": "md_ch04_a525", "md_file": "knowledge_base/chapters/ch04_general_assumptions.md", "md_atom_type": "TABLE_ROW", "md_parent_section": "§4.4.2 [Date/Time Precision]", "md_verbatim": "| 7 | 2003 | Unknown month, day, and time | 2003 |", "score": 0.9, "match_basis": "verbatim_token+chapter_route:ch04"}, {"md_atom_id": "md_ch04_a524", "md_file": "knowledge_base/chapters/ch04_general_assumptions.md", "md_atom_type": "TABLE_ROW", "md_parent_section": "§4.4.2 [Date/Time Precision]", "md_verbatim": "| 6 | December, 2003 | Unknown day and time | 2003-12 |", "score": 0.63, "match_basis": "verbatim_token+chapter_route:ch04"}, {"md_atom_id": "md_ch04_a540", "md_file": "knowledge_base/chapters/ch04_general_assumptions.md", "md_atom_type": "TABLE_ROW", "md_parent_section": "§4.4.2 [Date/Time Precision]", "md_verbatim": "| 4 | The 15th of some month in 2003, time not collected | Unknown month and time with known year and day | 2003---15 |", "score": 0.571, "match_basis": "verbatim_token+chapter_route:ch04"}, {"md_atom_id": "md_ch04_a523", "md_file": "knowledge_base/chapters/ch04_general_assumptions.md", "md_atom_type": "TABLE_ROW", "md_parent_section": "§4.4.2 [Date/Time Precision]", "md_verbatim": "| 5 | December 15, 2003 | Unknown time | 2003-12-15 |", "score": 0.57, "match_basis": "verbatim_token+chapter_route:ch04"}, {"md_atom_id": "md_ch04_a541", "md_file": "knowledge_base/chapters/ch04_general_assumptions.md", "md_atom_type": "TABLE_ROW", "md_parent_section": "§4.4.2 [Date/Time Precision]", "md_verbatim": "| 5 | December 15, but can't remember the year, time not collected | Unknown year with known month and day | --12-15 |", "score": 0.4895, "match_basis": "verbatim_token+chapter_route:ch04"}], "candidate_count": 5, "zero_candidate": false}
{"pdf_atom_id": "ig34_p0039_a037", "pdf_atom_type": "SENTENCE", "pdf_source": "SDTMIG_v3.4", "pdf_page": 39, "pdf_parent_section": "§4.4.2 Date/Time Precision", "pdf_verbatim": "This date and date/time model also provides for imprecise or estimated dates, such as those commonly seen in Medical History.", "figure_ref": null, "candidates": [{"md_atom_id": "md_ch04_a526", "md_file": "knowledge_base/chapters/ch04_general_assumptions.md", "md_atom_type": "SENTENCE", "md_parent_section": "§4.4.2 [Date/Time Precision]", "md_verbatim": "This date and date/time model also provides for imprecise or estimated dates, such as those commonly seen in Medical History.", "score": 0.9, "match_basis": "verbatim_token+chapter_route:ch04"}, {"md_atom_id": "md_ch04_a654", "md_file": "knowledge_base/chapters/ch04_general_assumptions.md", "md_atom_type": "SENTENCE", "md_parent_section": "§4.4.7 [Use of Relative Timing Variables]", "md_verbatim": "**Example 1: Medical History**", "score": 0.4017, "match_basis": "verbatim_token+chapter_route:ch04"}, {"md_atom_id": "md_ch04_a480", "md_file": "knowledge_base/chapters/ch04_general_assumptions.md", "md_atom_type": "SENTENCE", "md_parent_section": "§4.4 [Actual and Relative Time Assumptions]", "md_verbatim": "ISO 8601 provides a text-based representation of dates and/or times, intervals of time, and durations of time.", "score": 0.4, "match_basis": "verbatim_token+chapter_route:ch04"}, {"md_atom_id": "md_ch04_a701", "md_file": "knowledge_base/chapters/ch04_general_assumptions.md", "md_atom_type": "SENTENCE", "md_parent_section": "§4.4.9 [Use of Dates as Result Variables]", "md_verbatim": "One approach to modeling these data would be to place the text of the question in --TEST and the response to the question (a date represented in ISO 8601 format) in --ORRES and --STRESC, as long as these date results do not contain the dates of medically significant events or interventions.", "score": 0.3877, "match_basis": "verbatim_token+chapter_route:ch04"}, {"md_atom_id": "md_ch04_a516", "md_file": "knowledge_base/chapters/ch04_general_assumptions.md", "md_atom_type": "SENTENCE", "md_parent_section": "§4.4.2 [Date/Time Precision]", "md_verbatim": "The following table provides examples of ISO 8601 representations of complete and truncated date/time values.", "score": 0.3857, "match_basis": "verbatim_token+chapter_route:ch04"}], "candidate_count": 5, "zero_candidate": false}
{"pdf_atom_id": "ig34_p0039_a038", "pdf_atom_type": "SENTENCE", "pdf_source": "SDTMIG_v3.4", "pdf_page": 39, "pdf_parent_section": "§4.4.2 Date/Time Precision", "pdf_verbatim": "To represent these intervals while applying the ISO 8601 standard, it is recommended that the sponsor concatenate the date/time values (using the most complete representation of the date/time known) that describe the beginning and the end of the interval of uncertainty and separate them with a solidus, as shown in the following table.", "figure_ref": null, "candidates": [{"md_atom_id": "md_ch04_a527", "md_file": "knowledge_base/chapters/ch04_general_assumptions.md", "md_atom_type": "SENTENCE", "md_parent_section": "§4.4.2 [Date/Time Precision]", "md_verbatim": "To represent these intervals while applying the ISO 8601 standard, it is recommended that the sponsor concatenate the date/time values (using the most complete representation of the date/time known) that describe the beginning and the end of the interval of uncertainty and separate them with a solidus, as shown in the following table.", "score": 0.9, "match_basis": "verbatim_token+chapter_route:ch04"}, {"md_atom_id": "md_ch04_a516", "md_file": "knowledge_base/chapters/ch04_general_assumptions.md", "md_atom_type": "SENTENCE", "md_parent_section": "§4.4.2 [Date/Time Precision]", "md_verbatim": "The following table provides examples of ISO 8601 representations of complete and truncated date/time values.", "score": 0.5015, "match_basis": "verbatim_token+chapter_route:ch04"}, {"md_atom_id": "md_ch04_a598", "md_file": "knowledge_base/chapters/ch04_general_assumptions.md", "md_atom_type": "SENTENCE", "md_parent_section": "§4.4.3.2 [Interval with Uncertainty]", "md_verbatim": "where the duration \"Pn...\" is represented before the solidus [/], the end date/time is represented following the solidus, and the entire representation is known as an \"interval.\"", "score": 0.4783, "match_basis": "verbatim_token+chapter_route:ch04"}, {"md_atom_id": "md_ch04_a594", "md_file": "knowledge_base/chapters/ch04_general_assumptions.md", "md_atom_type": "SENTENCE", "md_parent_section": "§4.4.3.2 [Interval with Uncertainty]", "md_verbatim": "where the start date/time is represented before the solidus [/], the \"Pn...\" following the solidus represents a \"duration,\" and the entire representation is known as an \"interval.\"", "score": 0.4745, "match_basis": "verbatim_token+chapter_route:ch04"}, {"md_atom_id": "md_ch04_a533", "md_file": "knowledge_base/chapters/ch04_general_assumptions.md", "md_atom_type": "SENTENCE", "md_parent_section": "§4.4.2 [Date/Time Precision]", "md_verbatim": "Other uncertainty intervals may be represented by the omission of components of the date when these components are unknown or missing.", "score": 0.4469, "match_basis": "verbatim_token+chapter_route:ch04"}], "candidate_count": 5, "zero_candidate": false}
{"pdf_atom_id": "ig34_p0040_a001", "pdf_atom_type": "TABLE_HEADER", "pdf_source": "SDTMIG_v3.4", "pdf_page": 40, "pdf_parent_section": "§4.4.2 Date/Time Precision", "pdf_verbatim": "Interval of Uncertainty | ISO 8601 Date/Time", "figure_ref": null, "candidates": [{"md_atom_id": "md_ch04_a528", "md_file": "knowledge_base/chapters/ch04_general_assumptions.md", "md_atom_type": "TABLE_HEADER", "md_parent_section": "§4.4.2 [Date/Time Precision]", "md_verbatim": "| # | Interval of Uncertainty | ISO 8601 Date/Time |\n|---|------------------------|-------------------|", "score": 0.9, "match_basis": "verbatim_token+chapter_route:ch04"}, {"md_atom_id": "md_ch04_a536", "md_file": "knowledge_base/chapters/ch04_general_assumptions.md", "md_atom_type": "TABLE_HEADER", "md_parent_section": "§4.4.2 [Date/Time Precision]", "md_verbatim": "| # | Date and Time as Originally Recorded | Level of Uncertainty | ISO 8601 Date/Time |\n|---|--------------------------------------|---------------------|-------------------|", "score": 0.5462, "match_basis": "verbatim_token+chapter_route:ch04"}, {"md_atom_id": "md_ch04_a591", "md_file": "knowledge_base/chapters/ch04_general_assumptions.md", "md_atom_type": "HEADING", "md_parent_section": "§4.4.3 [Intervals of Time and Use of Duration for --DUR Variables]", "md_verbatim": "#### 4.4.3.2 Interval with Uncertainty", "score": 0.4852, "match_basis": "verbatim_token+chapter_route:ch04"}, {"md_atom_id": "md_ch04_a518", "md_file": "knowledge_base/chapters/ch04_general_assumptions.md", "md_atom_type": "TABLE_HEADER", "md_parent_section": "§4.4.2 [Date/Time Precision]", "md_verbatim": "| # | Date and Time as Originally Recorded | Precision | ISO 8601 Date/Time |\n|---|--------------------------------------|-----------|-------------------|", "score": 0.4, "match_basis": "verbatim_token+chapter_route:ch04"}, {"md_atom_id": "md_ch04_a691", "md_file": "knowledge_base/chapters/ch04_general_assumptions.md", "md_atom_type": "TABLE_ROW", "md_parent_section": "§4.4.8 [Date and Time Reported in a Domain Based on Findings]", "md_verbatim": "| Interval Collection | X | | X |", "score": 0.3641, "match_basis": "verbatim_token+chapter_route:ch04"}], "candidate_count": 5, "zero_candidate": false}
{"pdf_atom_id": "ig34_p0040_a002", "pdf_atom_type": "TABLE_ROW", "pdf_source": "SDTMIG_v3.4", "pdf_page": 40, "pdf_parent_section": "§4.4.2 Date/Time Precision", "pdf_verbatim": "1 | Between 10:00 and 10:30 on the morning of December 15, 2003 | 2003-12-15T10:00/2003-12-15T10:30", "figure_ref": null, "candidates": [{"md_atom_id": "md_ch04_a529", "md_file": "knowledge_base/chapters/ch04_general_assumptions.md", "md_atom_type": "TABLE_ROW", "md_parent_section": "§4.4.2 [Date/Time Precision]", "md_verbatim": "| 1 | Between 10:00 and 10:30 on the morning of December 15, 2003 | 2003-12-15T10:00/2003-12-15T10:30 |", "score": 0.9, "match_basis": "verbatim_token+chapter_route:ch04"}, {"md_atom_id": "md_ch04_a531", "md_file": "knowledge_base/chapters/ch04_general_assumptions.md", "md_atom_type": "TABLE_ROW", "md_parent_section": "§4.4.2 [Date/Time Precision]", "md_verbatim": "| 3 | Between the first and the tenth of December, 2003 | 2003-12-01/2003-12-10 |", "score": 0.6103, "match_basis": "verbatim_token+chapter_route:ch04"}, {"md_atom_id": "md_ch04_a520", "md_file": "knowledge_base/chapters/ch04_general_assumptions.md", "md_atom_type": "TABLE_ROW", "md_parent_section": "§4.4.2 [Date/Time Precision]", "md_verbatim": "| 2 | December 15, 2003 13:14:17 | Date/time to the nearest second | 2003-12-15T13:14:17 |", "score": 0.4784, "match_basis": "verbatim_token+chapter_route:ch04"}, {"md_atom_id": "md_ch04_a537", "md_file": "knowledge_base/chapters/ch04_general_assumptions.md", "md_atom_type": "TABLE_ROW", "md_parent_section": "§4.4.2 [Date/Time Precision]", "md_verbatim": "| 1 | December 15, 2003 13:15:17 | Date/time to the nearest second | 2003-12-15T13:15:17 |", "score": 0.4784, "match_basis": "verbatim_token+chapter_route:ch04"}, {"md_atom_id": "md_ch04_a521", "md_file": "knowledge_base/chapters/ch04_general_assumptions.md", "md_atom_type": "TABLE_ROW", "md_parent_section": "§4.4.2 [Date/Time Precision]", "md_verbatim": "| 3 | December 15, 2003 13:14 | Unknown seconds | 2003-12-15T13:14 |", "score": 0.4765, "match_basis": "verbatim_token+chapter_route:ch04"}], "candidate_count": 5, "zero_candidate": false}
{"pdf_atom_id": "ig34_p0040_a003", "pdf_atom_type": "TABLE_ROW", "pdf_source": "SDTMIG_v3.4", "pdf_page": 40, "pdf_parent_section": "§4.4.2 Date/Time Precision", "pdf_verbatim": "2 | Between the first of this year (2003) until \"now\" (February 15, 2003) | 2003-01-01/2003-02-15", "figure_ref": null, "candidates": [{"md_atom_id": "md_ch04_a530", "md_file": "knowledge_base/chapters/ch04_general_assumptions.md", "md_atom_type": "TABLE_ROW", "md_parent_section": "§4.4.2 [Date/Time Precision]", "md_verbatim": "| 2 | Between the first of this year (2003) until \"now\" (February 15, 2003) | 2003-01-01/2003-02-15 |", "score": 0.9, "match_basis": "verbatim_token+chapter_route:ch04"}, {"md_atom_id": "md_ch04_a531", "md_file": "knowledge_base/chapters/ch04_general_assumptions.md", "md_atom_type": "TABLE_ROW", "md_parent_section": "§4.4.2 [Date/Time Precision]", "md_verbatim": "| 3 | Between the first and the tenth of December, 2003 | 2003-12-01/2003-12-10 |", "score": 0.4886, "match_basis": "verbatim_token+chapter_route:ch04"}, {"md_atom_id": "md_ch04_a529", "md_file": "knowledge_base/chapters/ch04_general_assumptions.md", "md_atom_type": "TABLE_ROW", "md_parent_section": "§4.4.2 [Date/Time Precision]", "md_verbatim": "| 1 | Between 10:00 and 10:30 on the morning of December 15, 2003 | 2003-12-15T10:00/2003-12-15T10:30 |", "score": 0.42, "match_basis": "verbatim_token+chapter_route:ch04"}, {"md_atom_id": "md_ch04_a532", "md_file": "knowledge_base/chapters/ch04_general_assumptions.md", "md_atom_type": "TABLE_ROW", "md_parent_section": "§4.4.2 [Date/Time Precision]", "md_verbatim": "| 4 | Sometime in the first half of 2003 | 2003-01-01/2003-06-30 |", "score": 0.4091, "match_basis": "verbatim_token+chapter_route:ch04"}, {"md_atom_id": "md_ch04_a921", "md_file": "knowledge_base/chapters/ch04_general_assumptions.md", "md_atom_type": "TABLE_ROW", "md_parent_section": "§4.5.3.2 [Text Strings Greater than 200 Characters in Other Variables]", "md_verbatim": "| 1 | 12345 | MH | 99-123 | 6 | 1st ~200 chars of text, split between words |", "score": 0.39, "match_basis": "verbatim_token+chapter_route:ch04"}], "candidate_count": 5, "zero_candidate": false}
{"pdf_atom_id": "ig34_p0040_a004", "pdf_atom_type": "TABLE_ROW", "pdf_source": "SDTMIG_v3.4", "pdf_page": 40, "pdf_parent_section": "§4.4.2 Date/Time Precision", "pdf_verbatim": "3 | Between the first and the tenth of December, 2003 | 2003-12-01/2003-12-10", "figure_ref": null, "candidates": [{"md_atom_id": "md_ch04_a531", "md_file": "knowledge_base/chapters/ch04_general_assumptions.md", "md_atom_type": "TABLE_ROW", "md_parent_section": "§4.4.2 [Date/Time Precision]", "md_verbatim": "| 3 | Between the first and the tenth of December, 2003 | 2003-12-01/2003-12-10 |", "score": 0.9, "match_basis": "verbatim_token+chapter_route:ch04"}, {"md_atom_id": "md_ch04_a529", "md_file": "knowledge_base/chapters/ch04_general_assumptions.md", "md_atom_type": "TABLE_ROW", "md_parent_section": "§4.4.2 [Date/Time Precision]", "md_verbatim": "| 1 | Between 10:00 and 10:30 on the morning of December 15, 2003 | 2003-12-15T10:00/2003-12-15T10:30 |", "score": 0.6103, "match_basis": "verbatim_token+chapter_route:ch04"}, {"md_atom_id": "md_ch04_a530", "md_file": "knowledge_base/chapters/ch04_general_assumptions.md", "md_atom_type": "TABLE_ROW", "md_parent_section": "§4.4.2 [Date/Time Precision]", "md_verbatim": "| 2 | Between the first of this year (2003) until \"now\" (February 15, 2003) | 2003-01-01/2003-02-15 |", "score": 0.4886, "match_basis": "verbatim_token+chapter_route:ch04"}, {"md_atom_id": "md_ch04_a524", "md_file": "knowledge_base/chapters/ch04_general_assumptions.md", "md_atom_type": "TABLE_ROW", "md_parent_section": "§4.4.2 [Date/Time Precision]", "md_verbatim": "| 6 | December, 2003 | Unknown day and time | 2003-12 |", "score": 0.4862, "match_basis": "verbatim_token+chapter_route:ch04"}, {"md_atom_id": "md_ch04_a523", "md_file": "knowledge_base/chapters/ch04_general_assumptions.md", "md_atom_type": "TABLE_ROW", "md_parent_section": "§4.4.2 [Date/Time Precision]", "md_verbatim": "| 5 | December 15, 2003 | Unknown time | 2003-12-15 |", "score": 0.4714, "match_basis": "verbatim_token+chapter_route:ch04"}], "candidate_count": 5, "zero_candidate": false}
{"pdf_atom_id": "ig34_p0040_a005", "pdf_atom_type": "TABLE_ROW", "pdf_source": "SDTMIG_v3.4", "pdf_page": 40, "pdf_parent_section": "§4.4.2 Date/Time Precision", "pdf_verbatim": "4 | Sometime in the first half of 2003 | 2003-01-01/2003-06-30", "figure_ref": null, "candidates": [{"md_atom_id": "md_ch04_a532", "md_file": "knowledge_base/chapters/ch04_general_assumptions.md", "md_atom_type": "TABLE_ROW", "md_parent_section": "§4.4.2 [Date/Time Precision]", "md_verbatim": "| 4 | Sometime in the first half of 2003 | 2003-01-01/2003-06-30 |", "score": 0.9, "match_basis": "verbatim_token+chapter_route:ch04"}, {"md_atom_id": "md_ch04_a531", "md_file": "knowledge_base/chapters/ch04_general_assumptions.md", "md_atom_type": "TABLE_ROW", "md_parent_section": "§4.4.2 [Date/Time Precision]", "md_verbatim": "| 3 | Between the first and the tenth of December, 2003 | 2003-12-01/2003-12-10 |", "score": 0.4241, "match_basis": "verbatim_token+chapter_route:ch04"}, {"md_atom_id": "md_ch04_a540", "md_file": "knowledge_base/chapters/ch04_general_assumptions.md", "md_atom_type": "TABLE_ROW", "md_parent_section": "§4.4.2 [Date/Time Precision]", "md_verbatim": "| 4 | The 15th of some month in 2003, time not collected | Unknown month and time with known year and day | 2003---15 |", "score": 0.4105, "match_basis": "verbatim_token+chapter_route:ch04"}, {"md_atom_id": "md_ch04_a530", "md_file": "knowledge_base/chapters/ch04_general_assumptions.md", "md_atom_type": "TABLE_ROW", "md_parent_section": "§4.4.2 [Date/Time Precision]", "md_verbatim": "| 2 | Between the first of this year (2003) until \"now\" (February 15, 2003) | 2003-01-01/2003-02-15 |", "score": 0.4091, "match_basis": "verbatim_token+chapter_route:ch04"}, {"md_atom_id": "md_ch04_a525", "md_file": "knowledge_base/chapters/ch04_general_assumptions.md", "md_atom_type": "TABLE_ROW", "md_parent_section": "§4.4.2 [Date/Time Precision]", "md_verbatim": "| 7 | 2003 | Unknown month, day, and time | 2003 |", "score": 0.4, "match_basis": "verbatim_token+chapter_route:ch04"}], "candidate_count": 5, "zero_candidate": false}
{"pdf_atom_id": "ig34_p0040_a006", "pdf_atom_type": "SENTENCE", "pdf_source": "SDTMIG_v3.4", "pdf_page": 40, "pdf_parent_section": "§4.4.2 Date/Time Precision", "pdf_verbatim": "Other uncertainty intervals may be represented by the omission of components of the date when these components are unknown or missing.", "figure_ref": null, "candidates": [{"md_atom_id": "md_ch04_a533", "md_file": "knowledge_base/chapters/ch04_general_assumptions.md", "md_atom_type": "SENTENCE", "md_parent_section": "§4.4.2 [Date/Time Precision]", "md_verbatim": "Other uncertainty intervals may be represented by the omission of components of the date when these components are unknown or missing.", "score": 0.9, "match_basis": "verbatim_token+chapter_route:ch04"}, {"md_atom_id": "md_ch04_a512", "md_file": "knowledge_base/chapters/ch04_general_assumptions.md", "md_atom_type": "SENTENCE", "md_parent_section": "§4.4.2 [Date/Time Precision]", "md_verbatim": "Missing components are represented by right truncation or a hyphen (for intermediate components that are missing).", "score": 0.527, "match_basis": "verbatim_token+chapter_route:ch04"}, {"md_atom_id": "md_ch04_a534", "md_file": "knowledge_base/chapters/ch04_general_assumptions.md", "md_atom_type": "SENTENCE", "md_parent_section": "§4.4.2 [Date/Time Precision]", "md_verbatim": "ISO 8601 represents missing intermediate components through the use of a hyphen where the missing component would normally be represented.", "score": 0.5074, "match_basis": "verbatim_token+chapter_route:ch04"}, {"md_atom_id": "md_ch04_a594", "md_file": "knowledge_base/chapters/ch04_general_assumptions.md", "md_atom_type": "SENTENCE", "md_parent_section": "§4.4.3.2 [Interval with Uncertainty]", "md_verbatim": "where the start date/time is represented before the solidus [/], the \"Pn...\" following the solidus represents a \"duration,\" and the entire representation is known as an \"interval.\"", "score": 0.4765, "match_basis": "verbatim_token+chapter_route:ch04"}, {"md_atom_id": "md_ch04_a573", "md_file": "knowledge_base/chapters/ch04_general_assumptions.md", "md_atom_type": "SENTENCE", "md_parent_section": "§4.4.3.1 [Intervals of Time and Use of Duration]", "md_verbatim": "As is the case with the date/time representation in --DTC, --STDTC, or --ENDTC, only the components of duration that are known or collected need to be represented.", "score": 0.4735, "match_basis": "verbatim_token+chapter_route:ch04"}], "candidate_count": 5, "zero_candidate": false}
{"pdf_atom_id": "ig34_p0040_a007", "pdf_atom_type": "SENTENCE", "pdf_source": "SDTMIG_v3.4", "pdf_page": 40, "pdf_parent_section": "§4.4.2 Date/Time Precision", "pdf_verbatim": "As previously mentioned, ISO 8601 represents missing intermediate components through the use of a hyphen where the missing component would normally be represented.", "figure_ref": null, "candidates": [{"md_atom_id": "md_ch04_a534", "md_file": "knowledge_base/chapters/ch04_general_assumptions.md", "md_atom_type": "SENTENCE", "md_parent_section": "§4.4.2 [Date/Time Precision]", "md_verbatim": "ISO 8601 represents missing intermediate components through the use of a hyphen where the missing component would normally be represented.", "score": 0.7941, "match_basis": "verbatim_token+chapter_route:ch04"}, {"md_atom_id": "md_ch04_a512", "md_file": "knowledge_base/chapters/ch04_general_assumptions.md", "md_atom_type": "SENTENCE", "md_parent_section": "§4.4.2 [Date/Time Precision]", "md_verbatim": "Missing components are represented by right truncation or a hyphen (for intermediate components that are missing).", "score": 0.5667, "match_basis": "verbatim_token+chapter_route:ch04"}, {"md_atom_id": "md_ch04_a533", "md_file": "knowledge_base/chapters/ch04_general_assumptions.md", "md_atom_type": "SENTENCE", "md_parent_section": "§4.4.2 [Date/Time Precision]", "md_verbatim": "Other uncertainty intervals may be represented by the omission of components of the date when these components are unknown or missing.", "score": 0.4891, "match_basis": "verbatim_token+chapter_route:ch04"}, {"md_atom_id": "md_ch04_a575", "md_file": "knowledge_base/chapters/ch04_general_assumptions.md", "md_atom_type": "SENTENCE", "md_parent_section": "§4.4.3.1 [Intervals of Time and Use of Duration]", "md_verbatim": "ISO 8601 also allows that the \"lowest-order components\" of duration being represented may be represented in decimal format.", "score": 0.4723, "match_basis": "verbatim_token+chapter_route:ch04"}, {"md_atom_id": "md_ch04_a517", "md_file": "knowledge_base/chapters/ch04_general_assumptions.md", "md_atom_type": "SENTENCE", "md_parent_section": "§4.4.2 [Date/Time Precision]", "md_verbatim": "Note that if no time component is represented, the [T] time designator (in addition to the missing time) must be omitted in ISO 8601 representation.", "score": 0.4642, "match_basis": "verbatim_token+chapter_route:ch04"}], "candidate_count": 5, "zero_candidate": false}
{"pdf_atom_id": "ig34_p0040_a008", "pdf_atom_type": "SENTENCE", "pdf_source": "SDTMIG_v3.4", "pdf_page": 40, "pdf_parent_section": "§4.4.2 Date/Time Precision", "pdf_verbatim": "This may be used in addition to \"appropriate right truncations\" for incomplete date/time representations.", "figure_ref": null, "candidates": [{"md_atom_id": "md_ch04_a516", "md_file": "knowledge_base/chapters/ch04_general_assumptions.md", "md_atom_type": "SENTENCE", "md_parent_section": "§4.4.2 [Date/Time Precision]", "md_verbatim": "The following table provides examples of ISO 8601 representations of complete and truncated date/time values.", "score": 0.5175, "match_basis": "verbatim_token+chapter_route:ch04"}, {"md_atom_id": "md_ch04_a512", "md_file": "knowledge_base/chapters/ch04_general_assumptions.md", "md_atom_type": "SENTENCE", "md_parent_section": "§4.4.2 [Date/Time Precision]", "md_verbatim": "Missing components are represented by right truncation or a hyphen (for intermediate components that are missing).", "score": 0.4792, "match_basis": "verbatim_token+chapter_route:ch04"}, {"md_atom_id": "md_ch04_a482", "md_file": "knowledge_base/chapters/ch04_general_assumptions.md", "md_atom_type": "SENTENCE", "md_parent_section": "§4.4.1 [Formats for Date/Time Variables]", "md_verbatim": "An SDTM DTC variable may include data that is represented in ISO 8601 format as a complete date/time, a partial date/time, or an incomplete date/time.", "score": 0.4671, "match_basis": "verbatim_token+chapter_route:ch04"}, {"md_atom_id": "md_ch04_a595", "md_file": "knowledge_base/chapters/ch04_general_assumptions.md", "md_atom_type": "SENTENCE", "md_parent_section": "§4.4.3.2 [Interval with Uncertainty]", "md_verbatim": "Note that this is the recommended representation of elapsed time, given a start date/time and the duration elapsed.", "score": 0.4538, "match_basis": "verbatim_token+chapter_route:ch04"}, {"md_atom_id": "md_ch04_a480", "md_file": "knowledge_base/chapters/ch04_general_assumptions.md", "md_atom_type": "SENTENCE", "md_parent_section": "§4.4 [Actual and Relative Time Assumptions]", "md_verbatim": "ISO 8601 provides a text-based representation of dates and/or times, intervals of time, and durations of time.", "score": 0.45, "match_basis": "verbatim_token+chapter_route:ch04"}], "candidate_count": 5, "zero_candidate": false}
{"pdf_atom_id": "ig34_p0040_a009", "pdf_atom_type": "SENTENCE", "pdf_source": "SDTMIG_v3.4", "pdf_page": 40, "pdf_parent_section": "§4.4.2 Date/Time Precision", "pdf_verbatim": "When components are omitted, the expected delimiters must still be kept in place and only a single hyphen is to be used to indicate an omitted component.", "figure_ref": null, "candidates": [{"md_atom_id": "md_ch04_a535", "md_file": "knowledge_base/chapters/ch04_general_assumptions.md", "md_atom_type": "SENTENCE", "md_parent_section": "§4.4.2 [Date/Time Precision]", "md_verbatim": "When components are omitted, the expected delimiters must still be kept in place and only a single hyphen is to be used to indicate an omitted component.", "score": 0.9, "match_basis": "verbatim_token+chapter_route:ch04"}, {"md_atom_id": "md_ch04_a493", "md_file": "knowledge_base/chapters/ch04_general_assumptions.md", "md_atom_type": "SENTENCE", "md_parent_section": "§4.4.1 [Formats for Date/Time Variables]", "md_verbatim": "The last two components, indicated in the format pattern with a question mark, are optional:", "score": 0.45, "match_basis": "verbatim_token+chapter_route:ch04"}, {"md_atom_id": "md_ch04_a512", "md_file": "knowledge_base/chapters/ch04_general_assumptions.md", "md_atom_type": "SENTENCE", "md_parent_section": "§4.4.2 [Date/Time Precision]", "md_verbatim": "Missing components are represented by right truncation or a hyphen (for intermediate components that are missing).", "score": 0.431, "match_basis": "verbatim_token+chapter_route:ch04"}, {"md_atom_id": "md_ch04_a534", "md_file": "knowledge_base/chapters/ch04_general_assumptions.md", "md_atom_type": "SENTENCE", "md_parent_section": "§4.4.2 [Date/Time Precision]", "md_verbatim": "ISO 8601 represents missing intermediate components through the use of a hyphen where the missing component would normally be represented.", "score": 0.429, "match_basis": "verbatim_token+chapter_route:ch04"}, {"md_atom_id": "md_ch04_a533", "md_file": "knowledge_base/chapters/ch04_general_assumptions.md", "md_atom_type": "SENTENCE", "md_parent_section": "§4.4.2 [Date/Time Precision]", "md_verbatim": "Other uncertainty intervals may be represented by the omission of components of the date when these components are unknown or missing.", "score": 0.4174, "match_basis": "verbatim_token+chapter_route:ch04"}], "candidate_count": 5, "zero_candidate": false}
{"pdf_atom_id": "ig34_p0040_a010", "pdf_atom_type": "SENTENCE", "pdf_source": "SDTMIG_v3.4", "pdf_page": 40, "pdf_parent_section": "§4.4.2 Date/Time Precision", "pdf_verbatim": "Examples of this method of omitted component representation are shown in the following table.", "figure_ref": null, "candidates": [{"md_atom_id": "md_ch04_a578", "md_file": "knowledge_base/chapters/ch04_general_assumptions.md", "md_atom_type": "SENTENCE", "md_parent_section": "§4.4.3.1 [Intervals of Time and Use of Duration]", "md_verbatim": "The following table provides some examples of ISO 8601-compliant representations of durations.", "score": 0.5696, "match_basis": "verbatim_token+chapter_route:ch04"}, {"md_atom_id": "md_ch04_a516", "md_file": "knowledge_base/chapters/ch04_general_assumptions.md", "md_atom_type": "SENTENCE", "md_parent_section": "§4.4.2 [Date/Time Precision]", "md_verbatim": "The following table provides examples of ISO 8601 representations of complete and truncated date/time values.", "score": 0.5526, "match_basis": "verbatim_token+chapter_route:ch04"}, {"md_atom_id": "md_ch04_a574", "md_file": "knowledge_base/chapters/ch04_general_assumptions.md", "md_atom_type": "SENTENCE", "md_parent_section": "§4.4.3.1 [Intervals of Time and Use of Duration]", "md_verbatim": "If no time component is represented, the [T] time designator must be omitted in ISO 8601 representation.", "score": 0.5182, "match_basis": "verbatim_token+chapter_route:ch04"}, {"md_atom_id": "md_ch04_a517", "md_file": "knowledge_base/chapters/ch04_general_assumptions.md", "md_atom_type": "SENTENCE", "md_parent_section": "§4.4.2 [Date/Time Precision]", "md_verbatim": "Note that if no time component is represented, the [T] time designator (in addition to the missing time) must be omitted in ISO 8601 representation.", "score": 0.4923, "match_basis": "verbatim_token+chapter_route:ch04"}, {"md_atom_id": "md_ch04_a577", "md_file": "knowledge_base/chapters/ch04_general_assumptions.md", "md_atom_type": "SENTENCE", "md_parent_section": "§4.4.3.1 [Intervals of Time and Use of Duration]", "md_verbatim": "This is ONLY allowed in the lowest-order (right-most) component in any ISO 8601 duration representation.", "score": 0.4917, "match_basis": "verbatim_token+chapter_route:ch04"}], "candidate_count": 5, "zero_candidate": false}
{"pdf_atom_id": "ig34_p0040_a011", "pdf_atom_type": "TABLE_HEADER", "pdf_source": "SDTMIG_v3.4", "pdf_page": 40, "pdf_parent_section": "§4.4.2 Date/Time Precision", "pdf_verbatim": "Date and Time as Originally Recorded | Level of Uncertainty | ISO 8601 Date/Time", "figure_ref": null, "candidates": [{"md_atom_id": "md_ch04_a536", "md_file": "knowledge_base/chapters/ch04_general_assumptions.md", "md_atom_type": "TABLE_HEADER", "md_parent_section": "§4.4.2 [Date/Time Precision]", "md_verbatim": "| # | Date and Time as Originally Recorded | Level of Uncertainty | ISO 8601 Date/Time |\n|---|--------------------------------------|---------------------|-------------------|", "score": 0.9, "match_basis": "verbatim_token+chapter_route:ch04"}, {"md_atom_id": "md_ch04_a518", "md_file": "knowledge_base/chapters/ch04_general_assumptions.md", "md_atom_type": "TABLE_HEADER", "md_parent_section": "§4.4.2 [Date/Time Precision]", "md_verbatim": "| # | Date and Time as Originally Recorded | Precision | ISO 8601 Date/Time |\n|---|--------------------------------------|-----------|-------------------|", "score": 0.63, "match_basis": "verbatim_token+chapter_route:ch04"}, {"md_atom_id": "md_ch04_a579", "md_file": "knowledge_base/chapters/ch04_general_assumptions.md", "md_atom_type": "TABLE_HEADER", "md_parent_section": "§4.4.3.1 [Intervals of Time and Use of Duration]", "md_verbatim": "| Duration as originally recorded | ISO 8601 Duration |\n|---------------------------------|-------------------|", "score": 0.555, "match_basis": "verbatim_token+chapter_route:ch04"}, {"md_atom_id": "md_ch04_a528", "md_file": "knowledge_base/chapters/ch04_general_assumptions.md", "md_atom_type": "TABLE_HEADER", "md_parent_section": "§4.4.2 [Date/Time Precision]", "md_verbatim": "| # | Interval of Uncertainty | ISO 8601 Date/Time |\n|---|------------------------|-------------------|", "score": 0.5462, "match_basis": "verbatim_token+chapter_route:ch04"}, {"md_atom_id": "md_ch04_a461", "md_file": "knowledge_base/chapters/ch04_general_assumptions.md", "md_atom_type": "TABLE_HEADER", "md_parent_section": "§4.3.6 [Storing Topic Variables for General Domain Models]", "md_verbatim": "| Domain | Original Verbatim | Modified Verbatim | Standardized Value |\n|--------|-------------------|-------------------|--------------------|", "score": 0.39, "match_basis": "verbatim_token+chapter_route:ch04"}], "candidate_count": 5, "zero_candidate": false}
{"pdf_atom_id": "ig34_p0040_a012", "pdf_atom_type": "TABLE_ROW", "pdf_source": "SDTMIG_v3.4", "pdf_page": 40, "pdf_parent_section": "§4.4.2 Date/Time Precision", "pdf_verbatim": "1 | December 15, 2003 13:15:17 | Date/time to the nearest second | 2003-12-15T13:15:17", "figure_ref": null, "candidates": [{"md_atom_id": "md_ch04_a520", "md_file": "knowledge_base/chapters/ch04_general_assumptions.md", "md_atom_type": "TABLE_ROW", "md_parent_section": "§4.4.2 [Date/Time Precision]", "md_verbatim": "| 2 | December 15, 2003 13:14:17 | Date/time to the nearest second | 2003-12-15T13:14:17 |", "score": 0.9, "match_basis": "verbatim_token+chapter_route:ch04"}, {"md_atom_id": "md_ch04_a537", "md_file": "knowledge_base/chapters/ch04_general_assumptions.md", "md_atom_type": "TABLE_ROW", "md_parent_section": "§4.4.2 [Date/Time Precision]", "md_verbatim": "| 1 | December 15, 2003 13:15:17 | Date/time to the nearest second | 2003-12-15T13:15:17 |", "score": 0.9, "match_basis": "verbatim_token+chapter_route:ch04"}, {"md_atom_id": "md_ch04_a521", "md_file": "knowledge_base/chapters/ch04_general_assumptions.md", "md_atom_type": "TABLE_ROW", "md_parent_section": "§4.4.2 [Date/Time Precision]", "md_verbatim": "| 3 | December 15, 2003 13:14 | Unknown seconds | 2003-12-15T13:14 |", "score": 0.5903, "match_basis": "verbatim_token+chapter_route:ch04"}, {"md_atom_id": "md_ch04_a519", "md_file": "knowledge_base/chapters/ch04_general_assumptions.md", "md_atom_type": "TABLE_ROW", "md_parent_section": "§4.4.2 [Date/Time Precision]", "md_verbatim": "| 1 | December 15, 2003 13:14:17.123 | Date/time, including fractional seconds | 2003-12-15T13:14:17.123 |", "score": 0.5714, "match_basis": "verbatim_token+chapter_route:ch04"}, {"md_atom_id": "md_ch04_a522", "md_file": "knowledge_base/chapters/ch04_general_assumptions.md", "md_atom_type": "TABLE_ROW", "md_parent_section": "§4.4.2 [Date/Time Precision]", "md_verbatim": "| 4 | December 15, 2003 13 | Unknown minutes and seconds | 2003-12-15T13 |", "score": 0.5432, "match_basis": "verbatim_token+chapter_route:ch04"}], "candidate_count": 5, "zero_candidate": false}
{"pdf_atom_id": "ig34_p0040_a013", "pdf_atom_type": "TABLE_ROW", "pdf_source": "SDTMIG_v3.4", "pdf_page": 40, "pdf_parent_section": "§4.4.2 Date/Time Precision", "pdf_verbatim": "2 | December 15, 2003 ??:15 | Unknown hour with known minutes | 2003-12-15T-:15", "figure_ref": null, "candidates": [{"md_atom_id": "md_ch04_a538", "md_file": "knowledge_base/chapters/ch04_general_assumptions.md", "md_atom_type": "TABLE_ROW", "md_parent_section": "§4.4.2 [Date/Time Precision]", "md_verbatim": "| 2 | December 15, 2003 ??:15 | Unknown hour with known minutes | 2003-12-15T--:15 |", "score": 0.9, "match_basis": "verbatim_token+chapter_route:ch04"}, {"md_atom_id": "md_ch04_a539", "md_file": "knowledge_base/chapters/ch04_general_assumptions.md", "md_atom_type": "TABLE_ROW", "md_parent_section": "§4.4.2 [Date/Time Precision]", "md_verbatim": "| 3 | December 15, 2003 13:??:17 | Unknown minutes with known date, hours, and seconds | 2003-12-15T13:--:17 |", "score": 0.7059, "match_basis": "verbatim_token+chapter_route:ch04"}, {"md_atom_id": "md_ch04_a522", "md_file": "knowledge_base/chapters/ch04_general_assumptions.md", "md_atom_type": "TABLE_ROW", "md_parent_section": "§4.4.2 [Date/Time Precision]", "md_verbatim": "| 4 | December 15, 2003 13 | Unknown minutes and seconds | 2003-12-15T13 |", "score": 0.6677, "match_basis": "verbatim_token+chapter_route:ch04"}, {"md_atom_id": "md_ch04_a523", "md_file": "knowledge_base/chapters/ch04_general_assumptions.md", "md_atom_type": "TABLE_ROW", "md_parent_section": "§4.4.2 [Date/Time Precision]", "md_verbatim": "| 5 | December 15, 2003 | Unknown time | 2003-12-15 |", "score": 0.612, "match_basis": "verbatim_token+chapter_route:ch04"}, {"md_atom_id": "md_ch04_a524", "md_file": "knowledge_base/chapters/ch04_general_assumptions.md", "md_atom_type": "TABLE_ROW", "md_parent_section": "§4.4.2 [Date/Time Precision]", "md_verbatim": "| 6 | December, 2003 | Unknown day and time | 2003-12 |", "score": 0.5889, "match_basis": "verbatim_token+chapter_route:ch04"}], "candidate_count": 5, "zero_candidate": false}
{"pdf_atom_id": "ig34_p0040_a014", "pdf_atom_type": "TABLE_ROW", "pdf_source": "SDTMIG_v3.4", "pdf_page": 40, "pdf_parent_section": "§4.4.2 Date/Time Precision", "pdf_verbatim": "3 | December 15, 2003 13:??:17 | Unknown minutes with known date, hours, and seconds | 2003-12-15T13:-:17", "figure_ref": null, "candidates": [{"md_atom_id": "md_ch04_a539", "md_file": "knowledge_base/chapters/ch04_general_assumptions.md", "md_atom_type": "TABLE_ROW", "md_parent_section": "§4.4.2 [Date/Time Precision]", "md_verbatim": "| 3 | December 15, 2003 13:??:17 | Unknown minutes with known date, hours, and seconds | 2003-12-15T13:--:17 |", "score": 0.9, "match_basis": "verbatim_token+chapter_route:ch04"}, {"md_atom_id": "md_ch04_a522", "md_file": "knowledge_base/chapters/ch04_general_assumptions.md", "md_atom_type": "TABLE_ROW", "md_parent_section": "§4.4.2 [Date/Time Precision]", "md_verbatim": "| 4 | December 15, 2003 13 | Unknown minutes and seconds | 2003-12-15T13 |", "score": 0.7765, "match_basis": "verbatim_token+chapter_route:ch04"}, {"md_atom_id": "md_ch04_a538", "md_file": "knowledge_base/chapters/ch04_general_assumptions.md", "md_atom_type": "TABLE_ROW", "md_parent_section": "§4.4.2 [Date/Time Precision]", "md_verbatim": "| 2 | December 15, 2003 ??:15 | Unknown hour with known minutes | 2003-12-15T--:15 |", "score": 0.7059, "match_basis": "verbatim_token+chapter_route:ch04"}, {"md_atom_id": "md_ch04_a521", "md_file": "knowledge_base/chapters/ch04_general_assumptions.md", "md_atom_type": "TABLE_ROW", "md_parent_section": "§4.4.2 [Date/Time Precision]", "md_verbatim": "| 3 | December 15, 2003 13:14 | Unknown seconds | 2003-12-15T13:14 |", "score": 0.6706, "match_basis": "verbatim_token+chapter_route:ch04"}, {"md_atom_id": "md_ch04_a542", "md_file": "knowledge_base/chapters/ch04_general_assumptions.md", "md_atom_type": "TABLE_ROW", "md_parent_section": "§4.4.2 [Date/Time Precision]", "md_verbatim": "| 6 | 7:15 of some unknown date | Unknown date with known hour and minute | -----T07:15 |", "score": 0.5595, "match_basis": "verbatim_token+chapter_route:ch04"}], "candidate_count": 5, "zero_candidate": false}
{"pdf_atom_id": "ig34_p0040_a015", "pdf_atom_type": "TABLE_ROW", "pdf_source": "SDTMIG_v3.4", "pdf_page": 40, "pdf_parent_section": "§4.4.2 Date/Time Precision", "pdf_verbatim": "4 | The 15th of some month in 2003, time not collected | Unknown month and time with known year and day | 2003---15", "figure_ref": null, "candidates": [{"md_atom_id": "md_ch04_a540", "md_file": "knowledge_base/chapters/ch04_general_assumptions.md", "md_atom_type": "TABLE_ROW", "md_parent_section": "§4.4.2 [Date/Time Precision]", "md_verbatim": "| 4 | The 15th of some month in 2003, time not collected | Unknown month and time with known year and day | 2003---15 |", "score": 0.9, "match_basis": "verbatim_token+chapter_route:ch04"}, {"md_atom_id": "md_ch04_a541", "md_file": "knowledge_base/chapters/ch04_general_assumptions.md", "md_atom_type": "TABLE_ROW", "md_parent_section": "§4.4.2 [Date/Time Precision]", "md_verbatim": "| 5 | December 15, but can't remember the year, time not collected | Unknown year with known month and day | --12-15 |", "score": 0.6571, "match_basis": "verbatim_token+chapter_route:ch04"}, {"md_atom_id": "md_ch04_a525", "md_file": "knowledge_base/chapters/ch04_general_assumptions.md", "md_atom_type": "TABLE_ROW", "md_parent_section": "§4.4.2 [Date/Time Precision]", "md_verbatim": "| 7 | 2003 | Unknown month, day, and time | 2003 |", "score": 0.571, "match_basis": "verbatim_token+chapter_route:ch04"}, {"md_atom_id": "md_ch04_a524", "md_file": "knowledge_base/chapters/ch04_general_assumptions.md", "md_atom_type": "TABLE_ROW", "md_parent_section": "§4.4.2 [Date/Time Precision]", "md_verbatim": "| 6 | December, 2003 | Unknown day and time | 2003-12 |", "score": 0.4784, "match_basis": "verbatim_token+chapter_route:ch04"}, {"md_atom_id": "md_ch04_a542", "md_file": "knowledge_base/chapters/ch04_general_assumptions.md", "md_atom_type": "TABLE_ROW", "md_parent_section": "§4.4.2 [Date/Time Precision]", "md_verbatim": "| 6 | 7:15 of some unknown date | Unknown date with known hour and minute | -----T07:15 |", "score": 0.45, "match_basis": "verbatim_token+chapter_route:ch04"}], "candidate_count": 5, "zero_candidate": false}
{"pdf_atom_id": "ig34_p0040_a016", "pdf_atom_type": "TABLE_ROW", "pdf_source": "SDTMIG_v3.4", "pdf_page": 40, "pdf_parent_section": "§4.4.2 Date/Time Precision", "pdf_verbatim": "5 | December 15, but can't remember the year, time not collected | Unknown year with known month and day | --12-15", "figure_ref": null, "candidates": [{"md_atom_id": "md_ch04_a541", "md_file": "knowledge_base/chapters/ch04_general_assumptions.md", "md_atom_type": "TABLE_ROW", "md_parent_section": "§4.4.2 [Date/Time Precision]", "md_verbatim": "| 5 | December 15, but can't remember the year, time not collected | Unknown year with known month and day | --12-15 |", "score": 0.9, "match_basis": "verbatim_token+chapter_route:ch04"}, {"md_atom_id": "md_ch04_a540", "md_file": "knowledge_base/chapters/ch04_general_assumptions.md", "md_atom_type": "TABLE_ROW", "md_parent_section": "§4.4.2 [Date/Time Precision]", "md_verbatim": "| 4 | The 15th of some month in 2003, time not collected | Unknown month and time with known year and day | 2003---15 |", "score": 0.6571, "match_basis": "verbatim_token+chapter_route:ch04"}, {"md_atom_id": "md_ch04_a524", "md_file": "knowledge_base/chapters/ch04_general_assumptions.md", "md_atom_type": "TABLE_ROW", "md_parent_section": "§4.4.2 [Date/Time Precision]", "md_verbatim": "| 6 | December, 2003 | Unknown day and time | 2003-12 |", "score": 0.5368, "match_basis": "verbatim_token+chapter_route:ch04"}, {"md_atom_id": "md_ch04_a523", "md_file": "knowledge_base/chapters/ch04_general_assumptions.md", "md_atom_type": "TABLE_ROW", "md_parent_section": "§4.4.2 [Date/Time Precision]", "md_verbatim": "| 5 | December 15, 2003 | Unknown time | 2003-12-15 |", "score": 0.5053, "match_basis": "verbatim_token+chapter_route:ch04"}, {"md_atom_id": "md_ch04_a525", "md_file": "knowledge_base/chapters/ch04_general_assumptions.md", "md_atom_type": "TABLE_ROW", "md_parent_section": "§4.4.2 [Date/Time Precision]", "md_verbatim": "| 7 | 2003 | Unknown month, day, and time | 2003 |", "score": 0.4895, "match_basis": "verbatim_token+chapter_route:ch04"}], "candidate_count": 5, "zero_candidate": false}
{"pdf_atom_id": "ig34_p0040_a017", "pdf_atom_type": "TABLE_ROW", "pdf_source": "SDTMIG_v3.4", "pdf_page": 40, "pdf_parent_section": "§4.4.2 Date/Time Precision", "pdf_verbatim": "6 | 7:15 of some unknown date | Unknown date with known hour and minute | -----T07:15", "figure_ref": null, "candidates": [{"md_atom_id": "md_ch04_a542", "md_file": "knowledge_base/chapters/ch04_general_assumptions.md", "md_atom_type": "TABLE_ROW", "md_parent_section": "§4.4.2 [Date/Time Precision]", "md_verbatim": "| 6 | 7:15 of some unknown date | Unknown date with known hour and minute | -----T07:15 |", "score": 0.9, "match_basis": "verbatim_token+chapter_route:ch04"}, {"md_atom_id": "md_ch04_a538", "md_file": "knowledge_base/chapters/ch04_general_assumptions.md", "md_atom_type": "TABLE_ROW", "md_parent_section": "§4.4.2 [Date/Time Precision]", "md_verbatim": "| 2 | December 15, 2003 ??:15 | Unknown hour with known minutes | 2003-12-15T--:15 |", "score": 0.569, "match_basis": "verbatim_token+chapter_route:ch04"}, {"md_atom_id": "md_ch04_a539", "md_file": "knowledge_base/chapters/ch04_general_assumptions.md", "md_atom_type": "TABLE_ROW", "md_parent_section": "§4.4.2 [Date/Time Precision]", "md_verbatim": "| 3 | December 15, 2003 13:??:17 | Unknown minutes with known date, hours, and seconds | 2003-12-15T13:--:17 |", "score": 0.5595, "match_basis": "verbatim_token+chapter_route:ch04"}, {"md_atom_id": "md_ch04_a522", "md_file": "knowledge_base/chapters/ch04_general_assumptions.md", "md_atom_type": "TABLE_ROW", "md_parent_section": "§4.4.2 [Date/Time Precision]", "md_verbatim": "| 4 | December 15, 2003 13 | Unknown minutes and seconds | 2003-12-15T13 |", "score": 0.4667, "match_basis": "verbatim_token+chapter_route:ch04"}, {"md_atom_id": "md_ch04_a540", "md_file": "knowledge_base/chapters/ch04_general_assumptions.md", "md_atom_type": "TABLE_ROW", "md_parent_section": "§4.4.2 [Date/Time Precision]", "md_verbatim": "| 4 | The 15th of some month in 2003, time not collected | Unknown month and time with known year and day | 2003---15 |", "score": 0.45, "match_basis": "verbatim_token+chapter_route:ch04"}], "candidate_count": 5, "zero_candidate": false}
{"pdf_atom_id": "ig34_p0040_a018", "pdf_atom_type": "SENTENCE", "pdf_source": "SDTMIG_v3.4", "pdf_page": 40, "pdf_parent_section": "§4.4.2 Date/Time Precision", "pdf_verbatim": "Note that row 6, where a time is reported with no date information, represents a very unusual situation.", "figure_ref": null, "candidates": [{"md_atom_id": "md_ch04_a543", "md_file": "knowledge_base/chapters/ch04_general_assumptions.md", "md_atom_type": "SENTENCE", "md_parent_section": "§4.4.2 [Date/Time Precision]", "md_verbatim": "Note that row 6, where a time is reported with no date information, represents a very unusual situation.", "score": 0.9, "match_basis": "verbatim_token+chapter_route:ch04"}, {"md_atom_id": "md_ch04_a551", "md_file": "knowledge_base/chapters/ch04_general_assumptions.md", "md_atom_type": "SENTENCE", "md_parent_section": "§4.4.3.1 [Intervals of Time and Use of Duration]", "md_verbatim": "One representation, shown below, uses 2 dates in the format:", "score": 0.46, "match_basis": "verbatim_token+chapter_route:ch04"}, {"md_atom_id": "md_ch04_a573", "md_file": "knowledge_base/chapters/ch04_general_assumptions.md", "md_atom_type": "SENTENCE", "md_parent_section": "§4.4.3.1 [Intervals of Time and Use of Duration]", "md_verbatim": "As is the case with the date/time representation in --DTC, --STDTC, or --ENDTC, only the components of duration that are known or collected need to be represented.", "score": 0.4481, "match_basis": "verbatim_token+chapter_route:ch04"}, {"md_atom_id": "md_ch04_a594", "md_file": "knowledge_base/chapters/ch04_general_assumptions.md", "md_atom_type": "SENTENCE", "md_parent_section": "§4.4.3.2 [Interval with Uncertainty]", "md_verbatim": "where the start date/time is represented before the solidus [/], the \"Pn...\" following the solidus represents a \"duration,\" and the entire representation is known as an \"interval.\"", "score": 0.4429, "match_basis": "verbatim_token+chapter_route:ch04"}, {"md_atom_id": "md_ch04_a595", "md_file": "knowledge_base/chapters/ch04_general_assumptions.md", "md_atom_type": "SENTENCE", "md_parent_section": "§4.4.3.2 [Interval with Uncertainty]", "md_verbatim": "Note that this is the recommended representation of elapsed time, given a start date/time and the duration elapsed.", "score": 0.4421, "match_basis": "verbatim_token+chapter_route:ch04"}], "candidate_count": 5, "zero_candidate": false}
{"pdf_atom_id": "ig34_p0040_a019", "pdf_atom_type": "SENTENCE", "pdf_source": "SDTMIG_v3.4", "pdf_page": 40, "pdf_parent_section": "§4.4.2 Date/Time Precision", "pdf_verbatim": "Because most data are collected as part of a visit, when only a time appears on a CRF, it is expected that the date of the visit would usually be used as the date of collection.", "figure_ref": null, "candidates": [{"md_atom_id": "md_ch04_a544", "md_file": "knowledge_base/chapters/ch04_general_assumptions.md", "md_atom_type": "SENTENCE", "md_parent_section": "§4.4.2 [Date/Time Precision]", "md_verbatim": "Because most data are collected as part of a visit, when only a time appears on a CRF, it is expected that the date of the visit would usually be used as the date of collection.", "score": 0.9, "match_basis": "verbatim_token+chapter_route:ch04"}, {"md_atom_id": "md_ch04_a478", "md_file": "knowledge_base/chapters/ch04_general_assumptions.md", "md_atom_type": "SENTENCE", "md_parent_section": "§4.4 [Actual and Relative Time Assumptions]", "md_verbatim": "In the Findings observation class, where data are usually collected at multiple visits, at least 1 timing variable must be used.", "score": 0.4648, "match_basis": "verbatim_token+chapter_route:ch04"}, {"md_atom_id": "md_ch04_a608", "md_file": "knowledge_base/chapters/ch04_general_assumptions.md", "md_atom_type": "SENTENCE", "md_parent_section": "§4.4.5 [Clinical Encounters and Visits]", "md_verbatim": "In the Findings observation class, where data are usually collected at multiple visits, at least 1 timing variable must be used.", "score": 0.4648, "match_basis": "verbatim_token+chapter_route:ch04"}, {"md_atom_id": "md_ch04_a681", "md_file": "knowledge_base/chapters/ch04_general_assumptions.md", "md_atom_type": "SENTENCE", "md_parent_section": "§4.4.8 [Date and Time Reported in a Domain Based on Findings]", "md_verbatim": "When the date/time of collection is reported in any domain, the date/time should go into the --DTC field (e.g., EGDTC for Date/Time of ECG).", "score": 0.444, "match_basis": "verbatim_token+chapter_route:ch04"}, {"md_atom_id": "md_ch04_a573", "md_file": "knowledge_base/chapters/ch04_general_assumptions.md", "md_atom_type": "SENTENCE", "md_parent_section": "§4.4.3.1 [Intervals of Time and Use of Duration]", "md_verbatim": "As is the case with the date/time representation in --DTC, --STDTC, or --ENDTC, only the components of duration that are known or collected need to be represented.", "score": 0.4295, "match_basis": "verbatim_token+chapter_route:ch04"}], "candidate_count": 5, "zero_candidate": false}
{"pdf_atom_id": "ig34_p0040_a020", "pdf_atom_type": "SENTENCE", "pdf_source": "SDTMIG_v3.4", "pdf_page": 40, "pdf_parent_section": "§4.4.2 Date/Time Precision", "pdf_verbatim": "Using a character-based data type to implement the ISO 8601 date/time standard will ensure that the date/time information will be machine- and human-readable without the need for further manipulation, and will be platform- and software-independent.", "figure_ref": null, "candidates": [{"md_atom_id": "md_ch04_a545", "md_file": "knowledge_base/chapters/ch04_general_assumptions.md", "md_atom_type": "SENTENCE", "md_parent_section": "§4.4.2 [Date/Time Precision]", "md_verbatim": "Using a character-based data type to implement the ISO 8601 date/time standard will ensure that the date/time information will be machine- and human-readable without the need for further manipulation, and will be platform- and software-independent.", "score": 0.9, "match_basis": "verbatim_token+chapter_route:ch04"}, {"md_atom_id": "md_ch04_a507", "md_file": "knowledge_base/chapters/ch04_general_assumptions.md", "md_atom_type": "SENTENCE", "md_parent_section": "§4.4.1 [Formats for Date/Time Variables]", "md_verbatim": "Implementation of the ISO 8601 standard means that date/time variables are character/text data types.", "score": 0.5053, "match_basis": "verbatim_token+chapter_route:ch04"}, {"md_atom_id": "md_ch04_a496", "md_file": "knowledge_base/chapters/ch04_general_assumptions.md", "md_atom_type": "SENTENCE", "md_parent_section": "§4.4.1 [Formats for Date/Time Variables]", "md_verbatim": "Other characters defined for use within the ISO 8601 standard are:", "score": 0.4321, "match_basis": "verbatim_token+chapter_route:ch04"}, {"md_atom_id": "md_ch04_a957", "md_file": "knowledge_base/chapters/ch04_general_assumptions.md", "md_atom_type": "SENTENCE", "md_parent_section": "§4.5.4 [Evaluators in the Interventions and Events Observation Classes]", "md_verbatim": "In cases where the standard domain variable name is already 8 characters in length, sponsors should replace the last character with a \"1\" (incremented for each additional attribution).", "score": 0.4177, "match_basis": "verbatim_token+chapter_route:ch04"}, {"md_atom_id": "md_ch04_a262", "md_file": "knowledge_base/chapters/ch04_general_assumptions.md", "md_atom_type": "SENTENCE", "md_parent_section": "§4.2.7.1 [\"Specify\" Values for Non-Result Qualifier Variables]", "md_verbatim": "When free-text information is collected to supplement a standard non-result qualifier field, the free-text value should be placed in the SUPP-- dataset described in Section 8.4, Relating Non-standard Variable Values to a Parent Domain.", "score": 0.4171, "match_basis": "verbatim_token+chapter_route:ch04"}], "candidate_count": 5, "zero_candidate": false}
{"pdf_atom_id": "ig34_p0040_a021", "pdf_atom_type": "HEADING", "pdf_source": "SDTMIG_v3.4", "pdf_page": 40, "pdf_parent_section": "§4.4.3 Intervals of Time and Use of Duration for --DUR Variables", "pdf_verbatim": "4.4.3 Intervals of Time and Use of Duration for --DUR Variables", "figure_ref": null, "candidates": [{"md_atom_id": "md_ch04_a546", "md_file": "knowledge_base/chapters/ch04_general_assumptions.md", "md_atom_type": "HEADING", "md_parent_section": "§4.4 [Actual and Relative Time Assumptions]", "md_verbatim": "### 4.4.3 Intervals of Time and Use of Duration for --DUR Variables", "score": 0.9, "match_basis": "verbatim_token+chapter_route:ch04"}, {"md_atom_id": "md_ch04_a547", "md_file": "knowledge_base/chapters/ch04_general_assumptions.md", "md_atom_type": "HEADING", "md_parent_section": "§4.4.3 [Intervals of Time and Use of Duration for --DUR Variables]", "md_verbatim": "#### 4.4.3.1 Intervals of Time and Use of Duration", "score": 0.708, "match_basis": "verbatim_token+chapter_route:ch04"}, {"md_atom_id": "md_ch04_a347", "md_file": "knowledge_base/chapters/ch04_general_assumptions.md", "md_atom_type": "HEADING", "md_parent_section": "§4.2.8 [Multiple Values for a Variable]", "md_verbatim": "#### 4.2.8.1 Multiple Values for an Intervention or Event Topic Variable", "score": 0.5, "match_basis": "verbatim_token+chapter_route:ch04"}, {"md_atom_id": "md_ch04_a481", "md_file": "knowledge_base/chapters/ch04_general_assumptions.md", "md_atom_type": "HEADING", "md_parent_section": "§4.4 [Actual and Relative Time Assumptions]", "md_verbatim": "### 4.4.1 Formats for Date/Time Variables", "score": 0.4935, "match_basis": "verbatim_token+chapter_route:ch04"}, {"md_atom_id": "md_ch04_a627", "md_file": "knowledge_base/chapters/ch04_general_assumptions.md", "md_atom_type": "HEADING", "md_parent_section": "§4.4 [Actual and Relative Time Assumptions]", "md_verbatim": "### 4.4.7 Use of Relative Timing Variables", "score": 0.4818, "match_basis": "verbatim_token+chapter_route:ch04"}], "candidate_count": 5, "zero_candidate": false}
{"pdf_atom_id": "ig34_p0040_a022", "pdf_atom_type": "HEADING", "pdf_source": "SDTMIG_v3.4", "pdf_page": 40, "pdf_parent_section": "§4.4.3.1 Intervals of Time and Use of Duration", "pdf_verbatim": "4.4.3.1  Intervals of Time and Use of Duration", "figure_ref": null, "candidates": [{"md_atom_id": "md_ch04_a547", "md_file": "knowledge_base/chapters/ch04_general_assumptions.md", "md_atom_type": "HEADING", "md_parent_section": "§4.4.3 [Intervals of Time and Use of Duration for --DUR Variables]", "md_verbatim": "#### 4.4.3.1 Intervals of Time and Use of Duration", "score": 0.9, "match_basis": "verbatim_token+chapter_route:ch04"}, {"md_atom_id": "md_ch04_a546", "md_file": "knowledge_base/chapters/ch04_general_assumptions.md", "md_atom_type": "HEADING", "md_parent_section": "§4.4 [Actual and Relative Time Assumptions]", "md_verbatim": "### 4.4.3 Intervals of Time and Use of Duration for --DUR Variables", "score": 0.708, "match_basis": "verbatim_token+chapter_route:ch04"}, {"md_atom_id": "md_ch04_a951", "md_file": "knowledge_base/chapters/ch04_general_assumptions.md", "md_atom_type": "HEADING", "md_parent_section": "§4.5 [Other Assumptions]", "md_verbatim": "### 4.5.4 Evaluators in the Interventions and Events Observation Classes", "score": 0.4463, "match_basis": "verbatim_token+chapter_route:ch04"}, {"md_atom_id": "md_ch04_a186", "md_file": "knowledge_base/chapters/ch04_general_assumptions.md", "md_atom_type": "HEADING", "md_parent_section": "§4.2.1 [Variable-Naming Conventions]", "md_verbatim": "#### 4.2.1.2 --TRT Conventions (Interventions)", "score": 0.4385, "match_basis": "verbatim_token+chapter_route:ch04"}, {"md_atom_id": "md_ch04_a591", "md_file": "knowledge_base/chapters/ch04_general_assumptions.md", "md_atom_type": "HEADING", "md_parent_section": "§4.4.3 [Intervals of Time and Use of Duration for --DUR Variables]", "md_verbatim": "#### 4.4.3.2 Interval with Uncertainty", "score": 0.4333, "match_basis": "verbatim_token+chapter_route:ch04"}], "candidate_count": 5, "zero_candidate": false}
{"pdf_atom_id": "ig34_p0040_a023", "pdf_atom_type": "SENTENCE", "pdf_source": "SDTMIG_v3.4", "pdf_page": 40, "pdf_parent_section": "§4.4.3.1 Intervals of Time and Use of Duration", "pdf_verbatim": "As defined by ISO 8601, an interval of time is the part of a time axis, limited by 2 time \"instants\" such as the times represented in SDTM by the variables --STDTC and --ENDTC.", "figure_ref": null, "candidates": [{"md_atom_id": "md_ch04_a548", "md_file": "knowledge_base/chapters/ch04_general_assumptions.md", "md_atom_type": "SENTENCE", "md_parent_section": "§4.4.3.1 [Intervals of Time and Use of Duration]", "md_verbatim": "As defined by ISO 8601, an interval of time is the part of a time axis, limited by 2 time \"instants\" such as the times represented in SDTM by the variables --STDTC and --ENDTC.", "score": 0.9, "match_basis": "verbatim_token+chapter_route:ch04"}, {"md_atom_id": "md_ch04_a549", "md_file": "knowledge_base/chapters/ch04_general_assumptions.md", "md_atom_type": "SENTENCE", "md_parent_section": "§4.4.3.1 [Intervals of Time and Use of Duration]", "md_verbatim": "These variables represent the 2 instants that bound an interval of time; the duration is the quantity of time that is equal to the difference between these time points.", "score": 0.4912, "match_basis": "verbatim_token+chapter_route:ch04"}, {"md_atom_id": "md_ch04_a482", "md_file": "knowledge_base/chapters/ch04_general_assumptions.md", "md_atom_type": "SENTENCE", "md_parent_section": "§4.4.1 [Formats for Date/Time Variables]", "md_verbatim": "An SDTM DTC variable may include data that is represented in ISO 8601 format as a complete date/time, a partial date/time, or an incomplete date/time.", "score": 0.4829, "match_basis": "verbatim_token+chapter_route:ch04"}, {"md_atom_id": "md_ch04_a705", "md_file": "knowledge_base/chapters/ch04_general_assumptions.md", "md_atom_type": "SENTENCE", "md_parent_section": "§4.4.10 [Representing Time Points]", "md_verbatim": "Time points can be represented using the time point variables --TPT, --TPTNUM, --ELTM, and the time-point anchors --TPTREF (text description) and --RFTDTC (date/time).", "score": 0.4565, "match_basis": "verbatim_token+chapter_route:ch04"}, {"md_atom_id": "md_ch04_a480", "md_file": "knowledge_base/chapters/ch04_general_assumptions.md", "md_atom_type": "SENTENCE", "md_parent_section": "§4.4 [Actual and Relative Time Assumptions]", "md_verbatim": "ISO 8601 provides a text-based representation of dates and/or times, intervals of time, and durations of time.", "score": 0.4481, "match_basis": "verbatim_token+chapter_route:ch04"}], "candidate_count": 5, "zero_candidate": false}
{"pdf_atom_id": "ig34_p0040_a024", "pdf_atom_type": "SENTENCE", "pdf_source": "SDTMIG_v3.4", "pdf_page": 40, "pdf_parent_section": "§4.4.3.1 Intervals of Time and Use of Duration", "pdf_verbatim": "These variables represent the 2 instants that bound an interval of time; the duration is the value of an interval that is equal to the difference between these time points.", "figure_ref": null, "candidates": [{"md_atom_id": "md_ch04_a549", "md_file": "knowledge_base/chapters/ch04_general_assumptions.md", "md_atom_type": "SENTENCE", "md_parent_section": "§4.4.3.1 [Intervals of Time and Use of Duration]", "md_verbatim": "These variables represent the 2 instants that bound an interval of time; the duration is the quantity of time that is equal to the difference between these time points.", "score": 0.8446, "match_basis": "verbatim_token+chapter_route:ch04"}, {"md_atom_id": "md_ch04_a553", "md_file": "knowledge_base/chapters/ch04_general_assumptions.md", "md_atom_type": "SENTENCE", "md_parent_section": "§4.4.3.1 [Intervals of Time and Use of Duration]", "md_verbatim": "Although this example represents the interval (by providing the start date/time and end date/time to bound the interval of time), it does not provide the value of the duration (the quantity of time).", "score": 0.4958, "match_basis": "verbatim_token+chapter_route:ch04"}, {"md_atom_id": "md_ch04_a548", "md_file": "knowledge_base/chapters/ch04_general_assumptions.md", "md_atom_type": "SENTENCE", "md_parent_section": "§4.4.3.1 [Intervals of Time and Use of Duration]", "md_verbatim": "As defined by ISO 8601, an interval of time is the part of a time axis, limited by 2 time \"instants\" such as the times represented in SDTM by the variables --STDTC and --ENDTC.", "score": 0.4955, "match_basis": "verbatim_token+chapter_route:ch04"}, {"md_atom_id": "md_ch04_a977", "md_file": "knowledge_base/chapters/ch04_general_assumptions.md", "md_atom_type": "SENTENCE", "md_parent_section": "§4.5.6 [Supplemental Reason Variables]", "md_verbatim": "For Events and Interventions domains where prespecified occurrences have a reason for the \"Y\" or \"N\" value of --OCCUR, the reason can be represented with the variable --REASOC.", "score": 0.4758, "match_basis": "verbatim_token+chapter_route:ch04"}, {"md_atom_id": "md_ch04_a594", "md_file": "knowledge_base/chapters/ch04_general_assumptions.md", "md_atom_type": "SENTENCE", "md_parent_section": "§4.4.3.2 [Interval with Uncertainty]", "md_verbatim": "where the start date/time is represented before the solidus [/], the \"Pn...\" following the solidus represents a \"duration,\" and the entire representation is known as an \"interval.\"", "score": 0.4613, "match_basis": "verbatim_token+chapter_route:ch04"}], "candidate_count": 5, "zero_candidate": false}
{"pdf_atom_id": "ig34_p0040_a025", "pdf_atom_type": "SENTENCE", "pdf_source": "SDTMIG_v3.4", "pdf_page": 40, "pdf_parent_section": "§4.4.3.1 Intervals of Time and Use of Duration", "pdf_verbatim": "ISO 8601 allows an interval to be represented in multiple ways.", "figure_ref": null, "candidates": [{"md_atom_id": "md_ch04_a550", "md_file": "knowledge_base/chapters/ch04_general_assumptions.md", "md_atom_type": "SENTENCE", "md_parent_section": "§4.4.3.1 [Intervals of Time and Use of Duration]", "md_verbatim": "ISO 8601 allows an interval to be represented in multiple ways.", "score": 0.9, "match_basis": "verbatim_token+chapter_route:ch04"}, {"md_atom_id": "md_ch04_a480", "md_file": "knowledge_base/chapters/ch04_general_assumptions.md", "md_atom_type": "SENTENCE", "md_parent_section": "§4.4 [Actual and Relative Time Assumptions]", "md_verbatim": "ISO 8601 provides a text-based representation of dates and/or times, intervals of time, and durations of time.", "score": 0.4684, "match_basis": "verbatim_token+chapter_route:ch04"}, {"md_atom_id": "md_ch04_a420", "md_file": "knowledge_base/chapters/ch04_general_assumptions.md", "md_atom_type": "SENTENCE", "md_parent_section": "§4.3.1 [Controlled Terms, Codelist or Format Column]", "md_verbatim": "As of SDTMIG v3.3, controlled terminology is represented in the following ways:", "score": 0.4556, "match_basis": "verbatim_token+chapter_route:ch04"}, {"md_atom_id": "md_ch04_a548", "md_file": "knowledge_base/chapters/ch04_general_assumptions.md", "md_atom_type": "SENTENCE", "md_parent_section": "§4.4.3.1 [Intervals of Time and Use of Duration]", "md_verbatim": "As defined by ISO 8601, an interval of time is the part of a time axis, limited by 2 time \"instants\" such as the times represented in SDTM by the variables --STDTC and --ENDTC.", "score": 0.4478, "match_basis": "verbatim_token+chapter_route:ch04"}, {"md_atom_id": "md_ch04_a575", "md_file": "knowledge_base/chapters/ch04_general_assumptions.md", "md_atom_type": "SENTENCE", "md_parent_section": "§4.4.3.1 [Intervals of Time and Use of Duration]", "md_verbatim": "ISO 8601 also allows that the \"lowest-order components\" of duration being represented may be represented in decimal format.", "score": 0.4455, "match_basis": "verbatim_token+chapter_route:ch04"}], "candidate_count": 5, "zero_candidate": false}
{"pdf_atom_id": "ig34_p0040_a026", "pdf_atom_type": "SENTENCE", "pdf_source": "SDTMIG_v3.4", "pdf_page": 40, "pdf_parent_section": "§4.4.3.1 Intervals of Time and Use of Duration", "pdf_verbatim": "One representation, shown below, uses 2 dates in the format:", "figure_ref": null, "candidates": [{"md_atom_id": "md_ch04_a551", "md_file": "knowledge_base/chapters/ch04_general_assumptions.md", "md_atom_type": "SENTENCE", "md_parent_section": "§4.4.3.1 [Intervals of Time and Use of Duration]", "md_verbatim": "One representation, shown below, uses 2 dates in the format:", "score": 0.9, "match_basis": "verbatim_token+chapter_route:ch04"}, {"md_atom_id": "md_ch04_a598", "md_file": "knowledge_base/chapters/ch04_general_assumptions.md", "md_atom_type": "SENTENCE", "md_parent_section": "§4.4.3.2 [Interval with Uncertainty]", "md_verbatim": "where the duration \"Pn...\" is represented before the solidus [/], the end date/time is represented following the solidus, and the entire representation is known as an \"interval.\"", "score": 0.4662, "match_basis": "verbatim_token+chapter_route:ch04"}, {"md_atom_id": "md_ch04_a543", "md_file": "knowledge_base/chapters/ch04_general_assumptions.md", "md_atom_type": "SENTENCE", "md_parent_section": "§4.4.2 [Date/Time Precision]", "md_verbatim": "Note that row 6, where a time is reported with no date information, represents a very unusual situation.", "score": 0.46, "match_basis": "verbatim_token+chapter_route:ch04"}, {"md_atom_id": "md_ch04_a594", "md_file": "knowledge_base/chapters/ch04_general_assumptions.md", "md_atom_type": "SENTENCE", "md_parent_section": "§4.4.3.2 [Interval with Uncertainty]", "md_verbatim": "where the start date/time is represented before the solidus [/], the \"Pn...\" following the solidus represents a \"duration,\" and the entire representation is known as an \"interval.\"", "score": 0.4588, "match_basis": "verbatim_token+chapter_route:ch04"}, {"md_atom_id": "md_ch04_a575", "md_file": "knowledge_base/chapters/ch04_general_assumptions.md", "md_atom_type": "SENTENCE", "md_parent_section": "§4.4.3.1 [Intervals of Time and Use of Duration]", "md_verbatim": "ISO 8601 also allows that the \"lowest-order components\" of duration being represented may be represented in decimal format.", "score": 0.4569, "match_basis": "verbatim_token+chapter_route:ch04"}], "candidate_count": 5, "zero_candidate": false}
{"pdf_atom_id": "ig34_p0040_a027", "pdf_atom_type": "CODE_LITERAL", "pdf_source": "SDTMIG_v3.4", "pdf_page": 40, "pdf_parent_section": "§4.4.3.1 Intervals of Time and Use of Duration", "pdf_verbatim": "YYYY-MM-DDThh:mm:ss/YYYY-MM-DDThh:mm:ss", "figure_ref": null, "candidates": [{"md_atom_id": "md_ch04_a484", "md_file": "knowledge_base/chapters/ch04_general_assumptions.md", "md_atom_type": "CODE_LITERAL", "md_parent_section": "§4.4.1 [Formats for Date/Time Variables]", "md_verbatim": "`YYYY-MM-DDThh:mm:ss(.n+)?(((+|-)hh:mm)|Z)?`", "score": 0.69, "match_basis": "verbatim_token+chapter_route:ch04"}, {"md_atom_id": "md_ch04_a552", "md_file": "knowledge_base/chapters/ch04_general_assumptions.md", "md_atom_type": "CODE_LITERAL", "md_parent_section": "§4.4.3.1 [Intervals of Time and Use of Duration]", "md_verbatim": "`YYYY-MM-DDThh:mm:ss/YYYY-MM-DDThh:mm:ss`", "score": 0.69, "match_basis": "verbatim_token+chapter_route:ch04"}, {"md_atom_id": "md_ch04_a593", "md_file": "knowledge_base/chapters/ch04_general_assumptions.md", "md_atom_type": "CODE_LITERAL", "md_parent_section": "§4.4.3.2 [Interval with Uncertainty]", "md_verbatim": "`YYYY-MM-DDThh:mm:ss/PnYnMnDTnHnMnS`", "score": 0.25, "match_basis": "verbatim_token+chapter_route:ch04"}, {"md_atom_id": "md_ch04_a597", "md_file": "knowledge_base/chapters/ch04_general_assumptions.md", "md_atom_type": "CODE_LITERAL", "md_parent_section": "§4.4.3.2 [Interval with Uncertainty]", "md_verbatim": "`PnYnMnDTnHnMnS/YYYY-MM-DDThh:mm:ss`", "score": 0.25, "match_basis": "verbatim_token+chapter_route:ch04"}, {"md_atom_id": "md_ch04_a486", "md_file": "knowledge_base/chapters/ch04_general_assumptions.md", "md_atom_type": "LIST_ITEM", "md_parent_section": "§4.4.1 [Formats for Date/Time Variables]", "md_verbatim": "- [YYYY] = four-digit year", "score": 0.1445, "match_basis": "verbatim_token+chapter_route:ch04"}, {"md_atom_id": "md_ch04_a506", "md_file": "knowledge_base/chapters/ch04_general_assumptions.md", "md_atom_type": "LIST_ITEM", "md_parent_section": "§4.4.1 [Formats for Date/Time Variables]", "md_verbatim": "- When a date is stored with a time in the same variable (as a date/time), the date is written in front of the time and the time is preceded with \"T\" using the notation YYYY-MM-DDThh:mm:ss (e.g., 2001-12-26T00:00:01).", "score": 0.1344, "match_basis": "verbatim_token+chapter_route:ch04"}, {"md_atom_id": "md_ch04_a503", "md_file": "knowledge_base/chapters/ch04_general_assumptions.md", "md_atom_type": "LIST_ITEM", "md_parent_section": "§4.4.1 [Formats for Date/Time Variables]", "md_verbatim": "- ISO 8601 represents dates as a text string using the notation YYYY-MM-DD.", "score": 0.1082, "match_basis": "verbatim_token+chapter_route:ch04"}, {"md_atom_id": "md_ch04_a1025", "md_file": "knowledge_base/chapters/ch04_general_assumptions.md", "md_atom_type": "LIST_ITEM", "md_parent_section": "§4.5.8 [Accounting for Long-term Follow-up]", "md_verbatim": "4. If the subject's survival status is \"dead\", the Demographics (DM) variables DTHDTC and DTHFL must be appropriately populated.", "score": 0.0995, "match_basis": "verbatim_token+chapter_route:ch04"}, {"md_atom_id": "md_ch04_a001", "md_file": "knowledge_base/chapters/ch04_general_assumptions.md", "md_atom_type": "HEADING", "md_parent_section": "§4 [Assumptions for Domain Models]", "md_verbatim": "# SDTMIG v3.4 — Chapter 4: Assumptions for Domain Models", "score": 0.09, "match_basis": "verbatim_token+chapter_route:ch04"}, {"md_atom_id": "md_ch04_a002", "md_file": "knowledge_base/chapters/ch04_general_assumptions.md", "md_atom_type": "SENTENCE", "md_parent_section": "§4 [Assumptions for Domain Models]", "md_verbatim": "Source: SDTMIG v3.4, Section 4 (Pages 22-59)", "score": 0.09, "match_basis": "verbatim_token+chapter_route:ch04"}], "candidate_count": 10, "zero_candidate": false}
{"pdf_atom_id": "ig34_p0040_a028", "pdf_atom_type": "SENTENCE", "pdf_source": "SDTMIG_v3.4", "pdf_page": 40, "pdf_parent_section": "§4.4.3.1 Intervals of Time and Use of Duration", "pdf_verbatim": "Although this example represents the interval (by providing the start date/time and end date/time to bound the interval of time), it does not provide the value of the duration (the quantity of time).", "figure_ref": null, "candidates": [{"md_atom_id": "md_ch04_a553", "md_file": "knowledge_base/chapters/ch04_general_assumptions.md", "md_atom_type": "SENTENCE", "md_parent_section": "§4.4.3.1 [Intervals of Time and Use of Duration]", "md_verbatim": "Although this example represents the interval (by providing the start date/time and end date/time to bound the interval of time), it does not provide the value of the duration (the quantity of time).", "score": 0.9, "match_basis": "verbatim_token+chapter_route:ch04"}, {"md_atom_id": "md_ch04_a480", "md_file": "knowledge_base/chapters/ch04_general_assumptions.md", "md_atom_type": "SENTENCE", "md_parent_section": "§4.4 [Actual and Relative Time Assumptions]", "md_verbatim": "ISO 8601 provides a text-based representation of dates and/or times, intervals of time, and durations of time.", "score": 0.5175, "match_basis": "verbatim_token+chapter_route:ch04"}, {"md_atom_id": "md_ch04_a549", "md_file": "knowledge_base/chapters/ch04_general_assumptions.md", "md_atom_type": "SENTENCE", "md_parent_section": "§4.4.3.1 [Intervals of Time and Use of Duration]", "md_verbatim": "These variables represent the 2 instants that bound an interval of time; the duration is the quantity of time that is equal to the difference between these time points.", "score": 0.5084, "match_basis": "verbatim_token+chapter_route:ch04"}, {"md_atom_id": "md_ch04_a594", "md_file": "knowledge_base/chapters/ch04_general_assumptions.md", "md_atom_type": "SENTENCE", "md_parent_section": "§4.4.3.2 [Interval with Uncertainty]", "md_verbatim": "where the start date/time is represented before the solidus [/], the \"Pn...\" following the solidus represents a \"duration,\" and the entire representation is known as an \"interval.\"", "score": 0.5044, "match_basis": "verbatim_token+chapter_route:ch04"}, {"md_atom_id": "md_ch04_a516", "md_file": "knowledge_base/chapters/ch04_general_assumptions.md", "md_atom_type": "SENTENCE", "md_parent_section": "§4.4.2 [Date/Time Precision]", "md_verbatim": "The following table provides examples of ISO 8601 representations of complete and truncated date/time values.", "score": 0.4935, "match_basis": "verbatim_token+chapter_route:ch04"}], "candidate_count": 5, "zero_candidate": false}
{"pdf_atom_id": "ig34_p0040_a029", "pdf_atom_type": "SENTENCE", "pdf_source": "SDTMIG_v3.4", "pdf_page": 40, "pdf_parent_section": "§4.4.3.1 Intervals of Time and Use of Duration", "pdf_verbatim": "Duration is frequently used during a review; however, the duration timing variable (--DUR) should generally be used in a domain if it was collected in lieu of a start date/time (--STDTC) and end date/time (--ENDTC).", "figure_ref": null, "candidates": [{"md_atom_id": "md_ch04_a554", "md_file": "knowledge_base/chapters/ch04_general_assumptions.md", "md_atom_type": "SENTENCE", "md_parent_section": "§4.4.3.1 [Intervals of Time and Use of Duration]", "md_verbatim": "Duration is frequently used during a review; however, the duration timing variable (--DUR) should generally be used in a domain if it was collected in lieu of a start date/time (--STDTC) and end date/time (--ENDTC).", "score": 0.9, "match_basis": "verbatim_token+chapter_route:ch04"}, {"md_atom_id": "md_ch04_a476", "md_file": "knowledge_base/chapters/ch04_general_assumptions.md", "md_atom_type": "SENTENCE", "md_parent_section": "§4.4 [Actual and Relative Time Assumptions]", "md_verbatim": "In general, all domains based on the 3 general observation classes should have at least 1 timing variable.", "score": 0.4851, "match_basis": "verbatim_token+chapter_route:ch04"}, {"md_atom_id": "md_ch04_a606", "md_file": "knowledge_base/chapters/ch04_general_assumptions.md", "md_atom_type": "SENTENCE", "md_parent_section": "§4.4.5 [Clinical Encounters and Visits]", "md_verbatim": "All domains based on the 3 general observation classes should have at least 1 timing variable.", "score": 0.4851, "match_basis": "verbatim_token+chapter_route:ch04"}, {"md_atom_id": "md_ch04_a688", "md_file": "knowledge_base/chapters/ch04_general_assumptions.md", "md_atom_type": "SENTENCE", "md_parent_section": "§4.4.8 [Date and Time Reported in a Domain Based on Findings]", "md_verbatim": "**Collection type and variable usage (--STDTC should not be used in Findings):**", "score": 0.4655, "match_basis": "verbatim_token+chapter_route:ch04"}, {"md_atom_id": "md_ch04_a018", "md_file": "knowledge_base/chapters/ch04_general_assumptions.md", "md_atom_type": "SENTENCE", "md_parent_section": "§4.1.3.1 [EPOCH Variable Guidance]", "md_verbatim": "For observations in Interventions or Events class domains, EPOCH should be based on the --STDTC variable, since this is the start of the intervention or event.", "score": 0.4558, "match_basis": "verbatim_token+chapter_route:ch04"}], "candidate_count": 5, "zero_candidate": false}
{"pdf_atom_id": "ig34_p0040_a030", "pdf_atom_type": "SENTENCE", "pdf_source": "SDTMIG_v3.4", "pdf_page": 40, "pdf_parent_section": "§4.4.3.1 Intervals of Time and Use of Duration", "pdf_verbatim": "If both --STDTC and --ENDTC are collected, durations can be calculated by the difference in these 2 values, and need not be in the submission dataset.", "figure_ref": null, "candidates": [{"md_atom_id": "md_ch04_a555", "md_file": "knowledge_base/chapters/ch04_general_assumptions.md", "md_atom_type": "SENTENCE", "md_parent_section": "§4.4.3.1 [Intervals of Time and Use of Duration]", "md_verbatim": "If both --STDTC and --ENDTC are collected, durations can be calculated by the difference in these 2 values, and need not be in the submission dataset.", "score": 0.9, "match_basis": "verbatim_token+chapter_route:ch04"}, {"md_atom_id": "md_ch04_a573", "md_file": "knowledge_base/chapters/ch04_general_assumptions.md", "md_atom_type": "SENTENCE", "md_parent_section": "§4.4.3.1 [Intervals of Time and Use of Duration]", "md_verbatim": "As is the case with the date/time representation in --DTC, --STDTC, or --ENDTC, only the components of duration that are known or collected need to be represented.", "score": 0.4753, "match_basis": "verbatim_token+chapter_route:ch04"}, {"md_atom_id": "md_ch04_a132", "md_file": "knowledge_base/chapters/ch04_general_assumptions.md", "md_atom_type": "SENTENCE", "md_parent_section": "§4.1.8.2 [Origin Metadata for Records]", "md_verbatim": "In some cases, both collected and derived values may be reported in the same field.", "score": 0.4185, "match_basis": "verbatim_token+chapter_route:ch04"}, {"md_atom_id": "md_ch04_a554", "md_file": "knowledge_base/chapters/ch04_general_assumptions.md", "md_atom_type": "SENTENCE", "md_parent_section": "§4.4.3.1 [Intervals of Time and Use of Duration]", "md_verbatim": "Duration is frequently used during a review; however, the duration timing variable (--DUR) should generally be used in a domain if it was collected in lieu of a start date/time (--STDTC) and end date/time (--ENDTC).", "score": 0.4158, "match_basis": "verbatim_token+chapter_route:ch04"}, {"md_atom_id": "md_ch04_a238", "md_file": "knowledge_base/chapters/ch04_general_assumptions.md", "md_atom_type": "SENTENCE", "md_parent_section": "§4.2.6 [Grouping Variables and Categorization]", "md_verbatim": "Unlike --CAT and --SCAT, --GRPID values are not intended to have any meaning across subjects and are usually assigned during or after data collection.", "score": 0.4121, "match_basis": "verbatim_token+chapter_route:ch04"}], "candidate_count": 5, "zero_candidate": false}
{"pdf_atom_id": "ig34_p0040_a031", "pdf_atom_type": "SENTENCE", "pdf_source": "SDTMIG_v3.4", "pdf_page": 40, "pdf_parent_section": "§4.4.3.1 Intervals of Time and Use of Duration", "pdf_verbatim": "Both duration and duration units can be provided in the single --DUR variable, in accordance with the ISO 8601 standard.", "figure_ref": null, "candidates": [{"md_atom_id": "md_ch04_a556", "md_file": "knowledge_base/chapters/ch04_general_assumptions.md", "md_atom_type": "SENTENCE", "md_parent_section": "§4.4.3.1 [Intervals of Time and Use of Duration]", "md_verbatim": "Both duration and duration units can be provided in the single --DUR variable, in accordance with the ISO 8601 standard.", "score": 0.9, "match_basis": "verbatim_token+chapter_route:ch04"}, {"md_atom_id": "md_ch04_a557", "md_file": "knowledge_base/chapters/ch04_general_assumptions.md", "md_atom_type": "SENTENCE", "md_parent_section": "§4.4.3.1 [Intervals of Time and Use of Duration]", "md_verbatim": "The values provided in --DUR should follow 1 of the following ISO 8601 duration formats:", "score": 0.4522, "match_basis": "verbatim_token+chapter_route:ch04"}, {"md_atom_id": "md_ch04_a507", "md_file": "knowledge_base/chapters/ch04_general_assumptions.md", "md_atom_type": "SENTENCE", "md_parent_section": "§4.4.1 [Formats for Date/Time Variables]", "md_verbatim": "Implementation of the ISO 8601 standard means that date/time variables are character/text data types.", "score": 0.4407, "match_basis": "verbatim_token+chapter_route:ch04"}, {"md_atom_id": "md_ch04_a961", "md_file": "knowledge_base/chapters/ch04_general_assumptions.md", "md_atom_type": "SENTENCE", "md_parent_section": "§4.5.4 [Evaluators in the Interventions and Events Observation Classes]", "md_verbatim": "See Section 8.4, Relating Non-standard Variable Values to a Parent Domain.", "score": 0.4391, "match_basis": "verbatim_token+chapter_route:ch04"}, {"md_atom_id": "md_ch04_a578", "md_file": "knowledge_base/chapters/ch04_general_assumptions.md", "md_atom_type": "SENTENCE", "md_parent_section": "§4.4.3.1 [Intervals of Time and Use of Duration]", "md_verbatim": "The following table provides some examples of ISO 8601-compliant representations of durations.", "score": 0.435, "match_basis": "verbatim_token+chapter_route:ch04"}], "candidate_count": 5, "zero_candidate": false}
{"pdf_atom_id": "ig34_p0040_a032", "pdf_atom_type": "SENTENCE", "pdf_source": "SDTMIG_v3.4", "pdf_page": 40, "pdf_parent_section": "§4.4.3.1 Intervals of Time and Use of Duration", "pdf_verbatim": "The values provided in --DUR should follow 1 of the following ISO 8601 duration formats:", "figure_ref": null, "candidates": [{"md_atom_id": "md_ch04_a557", "md_file": "knowledge_base/chapters/ch04_general_assumptions.md", "md_atom_type": "SENTENCE", "md_parent_section": "§4.4.3.1 [Intervals of Time and Use of Duration]", "md_verbatim": "The values provided in --DUR should follow 1 of the following ISO 8601 duration formats:", "score": 0.9, "match_basis": "verbatim_token+chapter_route:ch04"}, {"md_atom_id": "md_ch04_a578", "md_file": "knowledge_base/chapters/ch04_general_assumptions.md", "md_atom_type": "SENTENCE", "md_parent_section": "§4.4.3.1 [Intervals of Time and Use of Duration]", "md_verbatim": "The following table provides some examples of ISO 8601-compliant representations of durations.", "score": 0.5062, "match_basis": "verbatim_token+chapter_route:ch04"}, {"md_atom_id": "md_ch04_a516", "md_file": "knowledge_base/chapters/ch04_general_assumptions.md", "md_atom_type": "SENTENCE", "md_parent_section": "§4.4.2 [Date/Time Precision]", "md_verbatim": "The following table provides examples of ISO 8601 representations of complete and truncated date/time values.", "score": 0.4944, "match_basis": "verbatim_token+chapter_route:ch04"}, {"md_atom_id": "md_ch04_a556", "md_file": "knowledge_base/chapters/ch04_general_assumptions.md", "md_atom_type": "SENTENCE", "md_parent_section": "§4.4.3.1 [Intervals of Time and Use of Duration]", "md_verbatim": "Both duration and duration units can be provided in the single --DUR variable, in accordance with the ISO 8601 standard.", "score": 0.4522, "match_basis": "verbatim_token+chapter_route:ch04"}, {"md_atom_id": "md_ch04_a569", "md_file": "knowledge_base/chapters/ch04_general_assumptions.md", "md_atom_type": "SENTENCE", "md_parent_section": "§4.4.3.1 [Intervals of Time and Use of Duration]", "md_verbatim": "The letter \"P\" must precede other values in the ISO 8601 representation of duration.", "score": 0.4474, "match_basis": "verbatim_token+chapter_route:ch04"}], "candidate_count": 5, "zero_candidate": false}
{"pdf_atom_id": "ig34_p0040_a033", "pdf_atom_type": "CODE_LITERAL", "pdf_source": "SDTMIG_v3.4", "pdf_page": 40, "pdf_parent_section": "§4.4.3.1 Intervals of Time and Use of Duration", "pdf_verbatim": "PnYnMnDTnHnMnS", "figure_ref": null, "candidates": [{"md_atom_id": "md_ch04_a558", "md_file": "knowledge_base/chapters/ch04_general_assumptions.md", "md_atom_type": "CODE_LITERAL", "md_parent_section": "§4.4.3.1 [Intervals of Time and Use of Duration]", "md_verbatim": "`PnYnMnDTnHnMnS` *- or -* `PnW`", "score": 0.64, "match_basis": "verbatim_token+chapter_route:ch04"}, {"md_atom_id": "md_ch04_a593", "md_file": "knowledge_base/chapters/ch04_general_assumptions.md", "md_atom_type": "CODE_LITERAL", "md_parent_section": "§4.4.3.2 [Interval with Uncertainty]", "md_verbatim": "`YYYY-MM-DDThh:mm:ss/PnYnMnDTnHnMnS`", "score": 0.53, "match_basis": "verbatim_token+chapter_route:ch04"}, {"md_atom_id": "md_ch04_a597", "md_file": "knowledge_base/chapters/ch04_general_assumptions.md", "md_atom_type": "CODE_LITERAL", "md_parent_section": "§4.4.3.2 [Interval with Uncertainty]", "md_verbatim": "`PnYnMnDTnHnMnS/YYYY-MM-DDThh:mm:ss`", "score": 0.53, "match_basis": "verbatim_token+chapter_route:ch04"}, {"md_atom_id": "md_ch04_a667", "md_file": "knowledge_base/chapters/ch04_general_assumptions.md", "md_atom_type": "LIST_ITEM", "md_parent_section": "§4.4.7 [Use of Relative Timing Variables]", "md_verbatim": "- CMENDTC is null", "score": 0.1253, "match_basis": "verbatim_token+chapter_route:ch04"}, {"md_atom_id": "md_ch04_a677", "md_file": "knowledge_base/chapters/ch04_general_assumptions.md", "md_atom_type": "LIST_ITEM", "md_parent_section": "§4.4.7 [Use of Relative Timing Variables]", "md_verbatim": "- AEENDTC is null", "score": 0.1253, "match_basis": "verbatim_token+chapter_route:ch04"}], "candidate_count": 5, "zero_candidate": false}
{"pdf_atom_id": "ig34_p0040_a034", "pdf_atom_type": "CODE_LITERAL", "pdf_source": "SDTMIG_v3.4", "pdf_page": 40, "pdf_parent_section": "§4.4.3.1 Intervals of Time and Use of Duration", "pdf_verbatim": "PnW", "figure_ref": null, "candidates": [{"md_atom_id": "md_ch04_a558", "md_file": "knowledge_base/chapters/ch04_general_assumptions.md", "md_atom_type": "CODE_LITERAL", "md_parent_section": "§4.4.3.1 [Intervals of Time and Use of Duration]", "md_verbatim": "`PnYnMnDTnHnMnS` *- or -* `PnW`", "score": 0.14, "match_basis": "verbatim_token+chapter_route:ch04"}, {"md_atom_id": "md_ch04_a001", "md_file": "knowledge_base/chapters/ch04_general_assumptions.md", "md_atom_type": "HEADING", "md_parent_section": "§4 [Assumptions for Domain Models]", "md_verbatim": "# SDTMIG v3.4 — Chapter 4: Assumptions for Domain Models", "score": 0.09, "match_basis": "verbatim_token+chapter_route:ch04"}, {"md_atom_id": "md_ch04_a002", "md_file": "knowledge_base/chapters/ch04_general_assumptions.md", "md_atom_type": "SENTENCE", "md_parent_section": "§4 [Assumptions for Domain Models]", "md_verbatim": "Source: SDTMIG v3.4, Section 4 (Pages 22-59)", "score": 0.09, "match_basis": "verbatim_token+chapter_route:ch04"}, {"md_atom_id": "md_ch04_a003", "md_file": "knowledge_base/chapters/ch04_general_assumptions.md", "md_atom_type": "HEADING", "md_parent_section": "§4 [Assumptions for Domain Models]", "md_verbatim": "## Overview", "score": 0.09, "match_basis": "verbatim_token+chapter_route:ch04"}, {"md_atom_id": "md_ch04_a004", "md_file": "knowledge_base/chapters/ch04_general_assumptions.md", "md_atom_type": "SENTENCE", "md_parent_section": "§4.0 [Overview]", "md_verbatim": "This section describes basic concepts, business rules, and assumptions that should be taken into consideration before applying the domain models.", "score": 0.09, "match_basis": "verbatim_token+chapter_route:ch04"}, {"md_atom_id": "md_ch04_a005", "md_file": "knowledge_base/chapters/ch04_general_assumptions.md", "md_atom_type": "SENTENCE", "md_parent_section": "§4.0 [Overview]", "md_verbatim": "It covers general domain assumptions, general variable assumptions, coding and controlled terminology assumptions, actual and relative time assumptions, and other assumptions.", "score": 0.09, "match_basis": "verbatim_token+chapter_route:ch04"}, {"md_atom_id": "md_ch04_a006", "md_file": "knowledge_base/chapters/ch04_general_assumptions.md", "md_atom_type": "HEADING", "md_parent_section": "§4 [Assumptions for Domain Models]", "md_verbatim": "## 4.1 General Domain Assumptions", "score": 0.09, "match_basis": "verbatim_token+chapter_route:ch04"}, {"md_atom_id": "md_ch04_a007", "md_file": "knowledge_base/chapters/ch04_general_assumptions.md", "md_atom_type": "HEADING", "md_parent_section": "§4.1 [General Domain Assumptions]", "md_verbatim": "### 4.1.1 Review Study Data Tabulation Model and Implementation Guide", "score": 0.09, "match_basis": "verbatim_token+chapter_route:ch04"}, {"md_atom_id": "md_ch04_a008", "md_file": "knowledge_base/chapters/ch04_general_assumptions.md", "md_atom_type": "SENTENCE", "md_parent_section": "§4.1.1 [Review Study Data Tabulation Model and Implementation Guide]", "md_verbatim": "Review the SDTM as well as this complete implementation guide before attempting to use any of the individual domain models.", "score": 0.09, "match_basis": "verbatim_token+chapter_route:ch04"}, {"md_atom_id": "md_ch04_a009", "md_file": "knowledge_base/chapters/ch04_general_assumptions.md", "md_atom_type": "SENTENCE", "md_parent_section": "§4.1.1 [Review Study Data Tabulation Model and Implementation Guide]", "md_verbatim": "The SDTM describes the general conceptual framework, including the general observation classes (Interventions, Events, Findings), special-purpose domains, trial design model datasets, relationship datasets, and study references.", "score": 0.09, "match_basis": "verbatim_token+chapter_route:ch04"}], "candidate_count": 10, "zero_candidate": false}
{"pdf_atom_id": "ig34_p0040_a035", "pdf_atom_type": "SENTENCE", "pdf_source": "SDTMIG_v3.4", "pdf_page": 40, "pdf_parent_section": "§4.4.3.1 Intervals of Time and Use of Duration", "pdf_verbatim": "where the letter designation is defined as:", "figure_ref": null, "candidates": [{"md_atom_id": "md_ch04_a559", "md_file": "knowledge_base/chapters/ch04_general_assumptions.md", "md_atom_type": "SENTENCE", "md_parent_section": "§4.4.3.1 [Intervals of Time and Use of Duration]", "md_verbatim": "where the letter designation is defined as:", "score": 0.9, "match_basis": "verbatim_token+chapter_route:ch04"}, {"md_atom_id": "md_ch04_a574", "md_file": "knowledge_base/chapters/ch04_general_assumptions.md", "md_atom_type": "SENTENCE", "md_parent_section": "§4.4.3.1 [Intervals of Time and Use of Duration]", "md_verbatim": "If no time component is represented, the [T] time designator must be omitted in ISO 8601 representation.", "score": 0.4294, "match_basis": "verbatim_token+chapter_route:ch04"}, {"md_atom_id": "md_ch04_a152", "md_file": "knowledge_base/chapters/ch04_general_assumptions.md", "md_atom_type": "SENTENCE", "md_parent_section": "§4.1.9 [Assigning Natural Keys in the Metadata]", "md_verbatim": "The natural key is then defined as follows:", "score": 0.4273, "match_basis": "verbatim_token+chapter_route:ch04"}, {"md_atom_id": "md_ch04_a125", "md_file": "knowledge_base/chapters/ch04_general_assumptions.md", "md_atom_type": "SENTENCE", "md_parent_section": "§4.1.8.1 [Origin Metadata for Variables]", "md_verbatim": "The origin element in the Define-XML file is used to indicate where the data originated.", "score": 0.4174, "match_basis": "verbatim_token+chapter_route:ch04"}, {"md_atom_id": "md_ch04_a569", "md_file": "knowledge_base/chapters/ch04_general_assumptions.md", "md_atom_type": "SENTENCE", "md_parent_section": "§4.4.3.1 [Intervals of Time and Use of Duration]", "md_verbatim": "The letter \"P\" must precede other values in the ISO 8601 representation of duration.", "score": 0.4125, "match_basis": "verbatim_token+chapter_route:ch04"}], "candidate_count": 5, "zero_candidate": false}
{"pdf_atom_id": "ig34_p0040_a036", "pdf_atom_type": "LIST_ITEM", "pdf_source": "SDTMIG_v3.4", "pdf_page": 40, "pdf_parent_section": "§4.4.3.1 Intervals of Time and Use of Duration", "pdf_verbatim": "[P] (duration designator): precedes the alphanumeric text string that represents the duration. Note that the use of the character \"P\" is based on the historical use of the term \"period\" for duration.", "figure_ref": null, "candidates": [{"md_atom_id": "md_ch04_a560", "md_file": "knowledge_base/chapters/ch04_general_assumptions.md", "md_atom_type": "LIST_ITEM", "md_parent_section": "§4.4.3.1 [Intervals of Time and Use of Duration]", "md_verbatim": "- [P] (duration designator): precedes the alphanumeric text string that represents the duration. Note that the use of the character \"P\" is based on the historical use of the term \"period\" for duration.", "score": 0.9, "match_basis": "verbatim_token+chapter_route:ch04"}, {"md_atom_id": "md_ch04_a500", "md_file": "knowledge_base/chapters/ch04_general_assumptions.md", "md_atom_type": "LIST_ITEM", "md_parent_section": "§4.4.1 [Formats for Date/Time Variables]", "md_verbatim": "- [P] (duration designator): precedes the components that represent the duration", "score": 0.532, "match_basis": "verbatim_token+chapter_route:ch04"}, {"md_atom_id": "md_ch04_a568", "md_file": "knowledge_base/chapters/ch04_general_assumptions.md", "md_atom_type": "LIST_ITEM", "md_parent_section": "§4.4.3.1 [Intervals of Time and Use of Duration]", "md_verbatim": "- [W] is used as week designator, preceding a data element that represents the number of calendar weeks (e.g., P6W represents 6 weeks of calendar time).", "score": 0.478, "match_basis": "verbatim_token+chapter_route:ch04"}, {"md_atom_id": "md_ch04_a504", "md_file": "knowledge_base/chapters/ch04_general_assumptions.md", "md_atom_type": "LIST_ITEM", "md_parent_section": "§4.4.1 [Formats for Date/Time Variables]", "md_verbatim": "- ISO 8601 represents times as a text string using the notation hh:mm:ss(.n+)?(((+|-)hh:mm)|Z)?.", "score": 0.4443, "match_basis": "verbatim_token+chapter_route:ch04"}, {"md_atom_id": "md_ch04_a503", "md_file": "knowledge_base/chapters/ch04_general_assumptions.md", "md_atom_type": "LIST_ITEM", "md_parent_section": "§4.4.1 [Formats for Date/Time Variables]", "md_verbatim": "- ISO 8601 represents dates as a text string using the notation YYYY-MM-DD.", "score": 0.4425, "match_basis": "verbatim_token+chapter_route:ch04"}], "candidate_count": 5, "zero_candidate": false}
{"pdf_atom_id": "ig34_p0041_a001", "pdf_atom_type": "LIST_ITEM", "pdf_source": "SDTMIG_v3.4", "pdf_page": 41, "pdf_parent_section": "§4.4.3.1 [Duration]", "pdf_verbatim": "[n] represents a positive number or zero.", "figure_ref": null, "candidates": [{"md_atom_id": "md_ch04_a561", "md_file": "knowledge_base/chapters/ch04_general_assumptions.md", "md_atom_type": "LIST_ITEM", "md_parent_section": "§4.4.3.1 [Intervals of Time and Use of Duration]", "md_verbatim": "- [n] represents a positive number or zero.", "score": 0.9, "match_basis": "verbatim_token+chapter_route:ch04"}, {"md_atom_id": "md_ch04_a188", "md_file": "knowledge_base/chapters/ch04_general_assumptions.md", "md_atom_type": "LIST_ITEM", "md_parent_section": "§4.2.1.2 [--TRT Conventions (Interventions)]", "md_verbatim": "- Should represent the name as reported on the CRF", "score": 0.4273, "match_basis": "verbatim_token+chapter_route:ch04"}, {"md_atom_id": "md_ch04_a191", "md_file": "knowledge_base/chapters/ch04_general_assumptions.md", "md_atom_type": "LIST_ITEM", "md_parent_section": "§4.2.1.3 [--TERM Conventions (Events)]", "md_verbatim": "- Should represent the term as reported on the CRF", "score": 0.4273, "match_basis": "verbatim_token+chapter_route:ch04"}, {"md_atom_id": "md_ch04_a568", "md_file": "knowledge_base/chapters/ch04_general_assumptions.md", "md_atom_type": "LIST_ITEM", "md_parent_section": "§4.4.3.1 [Intervals of Time and Use of Duration]", "md_verbatim": "- [W] is used as week designator, preceding a data element that represents the number of calendar weeks (e.g., P6W represents 6 weeks of calendar time).", "score": 0.4263, "match_basis": "verbatim_token+chapter_route:ch04"}, {"md_atom_id": "md_ch04_a504", "md_file": "knowledge_base/chapters/ch04_general_assumptions.md", "md_atom_type": "LIST_ITEM", "md_parent_section": "§4.4.1 [Formats for Date/Time Variables]", "md_verbatim": "- ISO 8601 represents times as a text string using the notation hh:mm:ss(.n+)?(((+|-)hh:mm)|Z)?.", "score": 0.4171, "match_basis": "verbatim_token+chapter_route:ch04"}], "candidate_count": 5, "zero_candidate": false}
{"pdf_atom_id": "ig34_p0041_a002", "pdf_atom_type": "LIST_ITEM", "pdf_source": "SDTMIG_v3.4", "pdf_page": 41, "pdf_parent_section": "§4.4.3.1 [Duration]", "pdf_verbatim": "[W] is used as week designator, preceding a data element that represents the number of calendar weeks within the calendar year (e.g., P6W represents 6 weeks of calendar time).", "figure_ref": null, "candidates": [{"md_atom_id": "md_ch04_a568", "md_file": "knowledge_base/chapters/ch04_general_assumptions.md", "md_atom_type": "LIST_ITEM", "md_parent_section": "§4.4.3.1 [Intervals of Time and Use of Duration]", "md_verbatim": "- [W] is used as week designator, preceding a data element that represents the number of calendar weeks (e.g., P6W represents 6 weeks of calendar time).", "score": 0.8345, "match_basis": "verbatim_token+chapter_route:ch04"}, {"md_atom_id": "md_ch04_a500", "md_file": "knowledge_base/chapters/ch04_general_assumptions.md", "md_atom_type": "LIST_ITEM", "md_parent_section": "§4.4.1 [Formats for Date/Time Variables]", "md_verbatim": "- [P] (duration designator): precedes the components that represent the duration", "score": 0.4941, "match_basis": "verbatim_token+chapter_route:ch04"}, {"md_atom_id": "md_ch04_a560", "md_file": "knowledge_base/chapters/ch04_general_assumptions.md", "md_atom_type": "LIST_ITEM", "md_parent_section": "§4.4.3.1 [Intervals of Time and Use of Duration]", "md_verbatim": "- [P] (duration designator): precedes the alphanumeric text string that represents the duration. Note that the use of the character \"P\" is based on the historical use of the term \"period\" for duration.", "score": 0.467, "match_basis": "verbatim_token+chapter_route:ch04"}, {"md_atom_id": "md_ch04_a497", "md_file": "knowledge_base/chapters/ch04_general_assumptions.md", "md_atom_type": "LIST_ITEM", "md_parent_section": "§4.4.1 [Formats for Date/Time Variables]", "md_verbatim": "- [-] (hyphen): to separate the time elements \"year\" from \"month\" and \"month\" from \"day\" and to represent missing date components", "score": 0.439, "match_basis": "verbatim_token+chapter_route:ch04"}, {"md_atom_id": "md_ch04_a562", "md_file": "knowledge_base/chapters/ch04_general_assumptions.md", "md_atom_type": "LIST_ITEM", "md_parent_section": "§4.4.3.1 [Intervals of Time and Use of Duration]", "md_verbatim": "- [Y] is used as year designator.", "score": 0.4309, "match_basis": "verbatim_token+chapter_route:ch04"}], "candidate_count": 5, "zero_candidate": false}
{"pdf_atom_id": "ig34_p0041_a003", "pdf_atom_type": "SENTENCE", "pdf_source": "SDTMIG_v3.4", "pdf_page": 41, "pdf_parent_section": "§4.4.3.1 [Duration]", "pdf_verbatim": "The letter \"P\" must precede other values in the ISO 8601 representation of duration.", "figure_ref": null, "candidates": [{"md_atom_id": "md_ch04_a569", "md_file": "knowledge_base/chapters/ch04_general_assumptions.md", "md_atom_type": "SENTENCE", "md_parent_section": "§4.4.3.1 [Intervals of Time and Use of Duration]", "md_verbatim": "The letter \"P\" must precede other values in the ISO 8601 representation of duration.", "score": 0.9, "match_basis": "verbatim_token+chapter_route:ch04"}, {"md_atom_id": "md_ch04_a574", "md_file": "knowledge_base/chapters/ch04_general_assumptions.md", "md_atom_type": "SENTENCE", "md_parent_section": "§4.4.3.1 [Intervals of Time and Use of Duration]", "md_verbatim": "If no time component is represented, the [T] time designator must be omitted in ISO 8601 representation.", "score": 0.5036, "match_basis": "verbatim_token+chapter_route:ch04"}, {"md_atom_id": "md_ch04_a480", "md_file": "knowledge_base/chapters/ch04_general_assumptions.md", "md_atom_type": "SENTENCE", "md_parent_section": "§4.4 [Actual and Relative Time Assumptions]", "md_verbatim": "ISO 8601 provides a text-based representation of dates and/or times, intervals of time, and durations of time.", "score": 0.5034, "match_basis": "verbatim_token+chapter_route:ch04"}, {"md_atom_id": "md_ch04_a577", "md_file": "knowledge_base/chapters/ch04_general_assumptions.md", "md_atom_type": "SENTENCE", "md_parent_section": "§4.4.3.1 [Intervals of Time and Use of Duration]", "md_verbatim": "This is ONLY allowed in the lowest-order (right-most) component in any ISO 8601 duration representation.", "score": 0.4869, "match_basis": "verbatim_token+chapter_route:ch04"}, {"md_atom_id": "md_ch04_a516", "md_file": "knowledge_base/chapters/ch04_general_assumptions.md", "md_atom_type": "SENTENCE", "md_parent_section": "§4.4.2 [Date/Time Precision]", "md_verbatim": "The following table provides examples of ISO 8601 representations of complete and truncated date/time values.", "score": 0.475, "match_basis": "verbatim_token+chapter_route:ch04"}], "candidate_count": 5, "zero_candidate": false}
{"pdf_atom_id": "ig34_p0041_a004", "pdf_atom_type": "SENTENCE", "pdf_source": "SDTMIG_v3.4", "pdf_page": 41, "pdf_parent_section": "§4.4.3.1 [Duration]", "pdf_verbatim": "The \"n\" preceding each letter represents the number of years, months, days, hours, minutes, seconds, or the number of weeks.", "figure_ref": null, "candidates": [{"md_atom_id": "md_ch04_a570", "md_file": "knowledge_base/chapters/ch04_general_assumptions.md", "md_atom_type": "SENTENCE", "md_parent_section": "§4.4.3.1 [Intervals of Time and Use of Duration]", "md_verbatim": "The \"n\" preceding each letter represents the number of years, months, days, hours, minutes, seconds, or the number of weeks.", "score": 0.9, "match_basis": "verbatim_token+chapter_route:ch04"}, {"md_atom_id": "md_ch04_a515", "md_file": "knowledge_base/chapters/ch04_general_assumptions.md", "md_atom_type": "SENTENCE", "md_parent_section": "§4.4.2 [Date/Time Precision]", "md_verbatim": "Years are represented as 4 digits; for all other components, 1-digit numbers are always padded with a leading zero.", "score": 0.439, "match_basis": "verbatim_token+chapter_route:ch04"}, {"md_atom_id": "md_ch04_a047", "md_file": "knowledge_base/chapters/ch04_general_assumptions.md", "md_atom_type": "SENTENCE", "md_parent_section": "§4.1.6 [Additional Guidance on Dataset Naming]", "md_verbatim": "Any letter or number may be used in the second position.", "score": 0.43, "match_basis": "verbatim_token+chapter_route:ch04"}, {"md_atom_id": "md_ch04_a569", "md_file": "knowledge_base/chapters/ch04_general_assumptions.md", "md_atom_type": "SENTENCE", "md_parent_section": "§4.4.3.1 [Intervals of Time and Use of Duration]", "md_verbatim": "The letter \"P\" must precede other values in the ISO 8601 representation of duration.", "score": 0.4286, "match_basis": "verbatim_token+chapter_route:ch04"}, {"md_atom_id": "md_ch04_a420", "md_file": "knowledge_base/chapters/ch04_general_assumptions.md", "md_atom_type": "SENTENCE", "md_parent_section": "§4.3.1 [Controlled Terms, Codelist or Format Column]", "md_verbatim": "As of SDTMIG v3.3, controlled terminology is represented in the following ways:", "score": 0.412, "match_basis": "verbatim_token+chapter_route:ch04"}], "candidate_count": 5, "zero_candidate": false}
{"pdf_atom_id": "ig34_p0041_a005", "pdf_atom_type": "SENTENCE", "pdf_source": "SDTMIG_v3.4", "pdf_page": 41, "pdf_parent_section": "§4.4.3.1 [Duration]", "pdf_verbatim": "As with the date/time format, \"T\" is used to separate the date components from time components.", "figure_ref": null, "candidates": [{"md_atom_id": "md_ch04_a571", "md_file": "knowledge_base/chapters/ch04_general_assumptions.md", "md_atom_type": "SENTENCE", "md_parent_section": "§4.4.3.1 [Intervals of Time and Use of Duration]", "md_verbatim": "As with the date/time format, \"T\" is used to separate the date components from time components.", "score": 0.9, "match_basis": "verbatim_token+chapter_route:ch04"}, {"md_atom_id": "md_ch04_a565", "md_file": "knowledge_base/chapters/ch04_general_assumptions.md", "md_atom_type": "LIST_ITEM", "md_parent_section": "§4.4.3.1 [Intervals of Time and Use of Duration]", "md_verbatim": "- [T] is used as the date/time format separator.", "score": 0.53, "match_basis": "verbatim_token+chapter_route:ch04"}, {"md_atom_id": "md_ch04_a493", "md_file": "knowledge_base/chapters/ch04_general_assumptions.md", "md_atom_type": "SENTENCE", "md_parent_section": "§4.4.1 [Formats for Date/Time Variables]", "md_verbatim": "The last two components, indicated in the format pattern with a question mark, are optional:", "score": 0.4745, "match_basis": "verbatim_token+chapter_route:ch04"}, {"md_atom_id": "md_ch04_a572", "md_file": "knowledge_base/chapters/ch04_general_assumptions.md", "md_atom_type": "SENTENCE", "md_parent_section": "§4.4.3.1 [Intervals of Time and Use of Duration]", "md_verbatim": "Note that weeks cannot be mixed with any other date/time components such as days or months in duration expressions.", "score": 0.4477, "match_basis": "verbatim_token+chapter_route:ch04"}, {"md_atom_id": "md_ch04_a573", "md_file": "knowledge_base/chapters/ch04_general_assumptions.md", "md_atom_type": "SENTENCE", "md_parent_section": "§4.4.3.1 [Intervals of Time and Use of Duration]", "md_verbatim": "As is the case with the date/time representation in --DTC, --STDTC, or --ENDTC, only the components of duration that are known or collected need to be represented.", "score": 0.4455, "match_basis": "verbatim_token+chapter_route:ch04"}], "candidate_count": 5, "zero_candidate": false}
{"pdf_atom_id": "ig34_p0041_a006", "pdf_atom_type": "NOTE", "pdf_source": "SDTMIG_v3.4", "pdf_page": 41, "pdf_parent_section": "§4.4.3.1 [Duration]", "pdf_verbatim": "Note that weeks cannot be mixed with any other date/time components such as days or months in duration expressions.", "figure_ref": null, "candidates": [{"md_atom_id": "md_ch04_a572", "md_file": "knowledge_base/chapters/ch04_general_assumptions.md", "md_atom_type": "SENTENCE", "md_parent_section": "§4.4.3.1 [Intervals of Time and Use of Duration]", "md_verbatim": "Note that weeks cannot be mixed with any other date/time components such as days or months in duration expressions.", "score": 0.81, "match_basis": "verbatim_token+chapter_route:ch04"}, {"md_atom_id": "md_ch04_a573", "md_file": "knowledge_base/chapters/ch04_general_assumptions.md", "md_atom_type": "SENTENCE", "md_parent_section": "§4.4.3.1 [Intervals of Time and Use of Duration]", "md_verbatim": "As is the case with the date/time representation in --DTC, --STDTC, or --ENDTC, only the components of duration that are known or collected need to be represented.", "score": 0.3929, "match_basis": "verbatim_token+chapter_route:ch04"}, {"md_atom_id": "md_ch04_a726", "md_file": "knowledge_base/chapters/ch04_general_assumptions.md", "md_atom_type": "NOTE", "md_parent_section": "§4.4.10 [Representing Time Points]", "md_verbatim": "> Note that the value in LBELTM represents the end of the specimen collection interval.", "score": 0.3889, "match_basis": "verbatim_token+chapter_route:ch04"}, {"md_atom_id": "md_ch04_a501", "md_file": "knowledge_base/chapters/ch04_general_assumptions.md", "md_atom_type": "NOTE", "md_parent_section": "§4.4.1 [Formats for Date/Time Variables]", "md_verbatim": "> **Spaces are not allowed in any ISO 8601 representations.**", "score": 0.375, "match_basis": "verbatim_token+chapter_route:ch04"}, {"md_atom_id": "md_ch04_a649", "md_file": "knowledge_base/chapters/ch04_general_assumptions.md", "md_atom_type": "NOTE", "md_parent_section": "§4.4.7 [Use of Relative Timing Variables]", "md_verbatim": "**Note:** \"DURING\" and \"DURING/AFTER\" are in the STENRF codelist but describe timing relative to an interval of time rather than a point in time, so are **not allowable for use with --STRTPT and --ENRTPT** variables.", "score": 0.3637, "match_basis": "verbatim_token+chapter_route:ch04"}], "candidate_count": 5, "zero_candidate": false}
{"pdf_atom_id": "ig34_p0041_a007", "pdf_atom_type": "SENTENCE", "pdf_source": "SDTMIG_v3.4", "pdf_page": 41, "pdf_parent_section": "§4.4.3.1 [Duration]", "pdf_verbatim": "As is the case with the date/time representation in --DTC, --STDTC, or --ENDTC, only the components of duration that are known or collected need to be represented.", "figure_ref": null, "candidates": [{"md_atom_id": "md_ch04_a573", "md_file": "knowledge_base/chapters/ch04_general_assumptions.md", "md_atom_type": "SENTENCE", "md_parent_section": "§4.4.3.1 [Intervals of Time and Use of Duration]", "md_verbatim": "As is the case with the date/time representation in --DTC, --STDTC, or --ENDTC, only the components of duration that are known or collected need to be represented.", "score": 0.9, "match_basis": "verbatim_token+chapter_route:ch04"}, {"md_atom_id": "md_ch04_a598", "md_file": "knowledge_base/chapters/ch04_general_assumptions.md", "md_atom_type": "SENTENCE", "md_parent_section": "§4.4.3.2 [Interval with Uncertainty]", "md_verbatim": "where the duration \"Pn...\" is represented before the solidus [/], the end date/time is represented following the solidus, and the entire representation is known as an \"interval.\"", "score": 0.5, "match_basis": "verbatim_token+chapter_route:ch04"}, {"md_atom_id": "md_ch04_a574", "md_file": "knowledge_base/chapters/ch04_general_assumptions.md", "md_atom_type": "SENTENCE", "md_parent_section": "§4.4.3.1 [Intervals of Time and Use of Duration]", "md_verbatim": "If no time component is represented, the [T] time designator must be omitted in ISO 8601 representation.", "score": 0.4944, "match_basis": "verbatim_token+chapter_route:ch04"}, {"md_atom_id": "md_ch04_a594", "md_file": "knowledge_base/chapters/ch04_general_assumptions.md", "md_atom_type": "SENTENCE", "md_parent_section": "§4.4.3.2 [Interval with Uncertainty]", "md_verbatim": "where the start date/time is represented before the solidus [/], the \"Pn...\" following the solidus represents a \"duration,\" and the entire representation is known as an \"interval.\"", "score": 0.4929, "match_basis": "verbatim_token+chapter_route:ch04"}, {"md_atom_id": "md_ch04_a577", "md_file": "knowledge_base/chapters/ch04_general_assumptions.md", "md_atom_type": "SENTENCE", "md_parent_section": "§4.4.3.1 [Intervals of Time and Use of Duration]", "md_verbatim": "This is ONLY allowed in the lowest-order (right-most) component in any ISO 8601 duration representation.", "score": 0.492, "match_basis": "verbatim_token+chapter_route:ch04"}], "candidate_count": 5, "zero_candidate": false}
{"pdf_atom_id": "ig34_p0041_a008", "pdf_atom_type": "SENTENCE", "pdf_source": "SDTMIG_v3.4", "pdf_page": 41, "pdf_parent_section": "§4.4.3.1 [Duration]", "pdf_verbatim": "As is the case with the date/time representation, if no time component is represented, the [T] time designator (in addition to the missing time) must be omitted in ISO 8601 representation.", "figure_ref": null, "candidates": [{"md_atom_id": "md_ch04_a517", "md_file": "knowledge_base/chapters/ch04_general_assumptions.md", "md_atom_type": "SENTENCE", "md_parent_section": "§4.4.2 [Date/Time Precision]", "md_verbatim": "Note that if no time component is represented, the [T] time designator (in addition to the missing time) must be omitted in ISO 8601 representation.", "score": 0.7983, "match_basis": "verbatim_token+chapter_route:ch04"}, {"md_atom_id": "md_ch04_a574", "md_file": "knowledge_base/chapters/ch04_general_assumptions.md", "md_atom_type": "SENTENCE", "md_parent_section": "§4.4.3.1 [Intervals of Time and Use of Duration]", "md_verbatim": "If no time component is represented, the [T] time designator must be omitted in ISO 8601 representation.", "score": 0.7364, "match_basis": "verbatim_token+chapter_route:ch04"}, {"md_atom_id": "md_ch04_a573", "md_file": "knowledge_base/chapters/ch04_general_assumptions.md", "md_atom_type": "SENTENCE", "md_parent_section": "§4.4.3.1 [Intervals of Time and Use of Duration]", "md_verbatim": "As is the case with the date/time representation in --DTC, --STDTC, or --ENDTC, only the components of duration that are known or collected need to be represented.", "score": 0.5175, "match_basis": "verbatim_token+chapter_route:ch04"}, {"md_atom_id": "md_ch04_a533", "md_file": "knowledge_base/chapters/ch04_general_assumptions.md", "md_atom_type": "SENTENCE", "md_parent_section": "§4.4.2 [Date/Time Precision]", "md_verbatim": "Other uncertainty intervals may be represented by the omission of components of the date when these components are unknown or missing.", "score": 0.4807, "match_basis": "verbatim_token+chapter_route:ch04"}, {"md_atom_id": "md_ch04_a512", "md_file": "knowledge_base/chapters/ch04_general_assumptions.md", "md_atom_type": "SENTENCE", "md_parent_section": "§4.4.2 [Date/Time Precision]", "md_verbatim": "Missing components are represented by right truncation or a hyphen (for intermediate components that are missing).", "score": 0.48, "match_basis": "verbatim_token+chapter_route:ch04"}], "candidate_count": 5, "zero_candidate": false}
{"pdf_atom_id": "ig34_p0041_a009", "pdf_atom_type": "SENTENCE", "pdf_source": "SDTMIG_v3.4", "pdf_page": 41, "pdf_parent_section": "§4.4.3.1 [Duration]", "pdf_verbatim": "ISO 8601 also allows that the \"lowest-order components\" of duration being represented may be represented in decimal format.", "figure_ref": null, "candidates": [{"md_atom_id": "md_ch04_a575", "md_file": "knowledge_base/chapters/ch04_general_assumptions.md", "md_atom_type": "SENTENCE", "md_parent_section": "§4.4.3.1 [Intervals of Time and Use of Duration]", "md_verbatim": "ISO 8601 also allows that the \"lowest-order components\" of duration being represented may be represented in decimal format.", "score": 0.9, "match_basis": "verbatim_token+chapter_route:ch04"}, {"md_atom_id": "md_ch04_a577", "md_file": "knowledge_base/chapters/ch04_general_assumptions.md", "md_atom_type": "SENTENCE", "md_parent_section": "§4.4.3.1 [Intervals of Time and Use of Duration]", "md_verbatim": "This is ONLY allowed in the lowest-order (right-most) component in any ISO 8601 duration representation.", "score": 0.5909, "match_basis": "verbatim_token+chapter_route:ch04"}, {"md_atom_id": "md_ch04_a574", "md_file": "knowledge_base/chapters/ch04_general_assumptions.md", "md_atom_type": "SENTENCE", "md_parent_section": "§4.4.3.1 [Intervals of Time and Use of Duration]", "md_verbatim": "If no time component is represented, the [T] time designator must be omitted in ISO 8601 representation.", "score": 0.4859, "match_basis": "verbatim_token+chapter_route:ch04"}, {"md_atom_id": "md_ch04_a517", "md_file": "knowledge_base/chapters/ch04_general_assumptions.md", "md_atom_type": "SENTENCE", "md_parent_section": "§4.4.2 [Date/Time Precision]", "md_verbatim": "Note that if no time component is represented, the [T] time designator (in addition to the missing time) must be omitted in ISO 8601 representation.", "score": 0.4852, "match_basis": "verbatim_token+chapter_route:ch04"}, {"md_atom_id": "md_ch04_a573", "md_file": "knowledge_base/chapters/ch04_general_assumptions.md", "md_atom_type": "SENTENCE", "md_parent_section": "§4.4.3.1 [Intervals of Time and Use of Duration]", "md_verbatim": "As is the case with the date/time representation in --DTC, --STDTC, or --ENDTC, only the components of duration that are known or collected need to be represented.", "score": 0.4829, "match_basis": "verbatim_token+chapter_route:ch04"}], "candidate_count": 5, "zero_candidate": false}
{"pdf_atom_id": "ig34_p0041_a010", "pdf_atom_type": "SENTENCE", "pdf_source": "SDTMIG_v3.4", "pdf_page": 41, "pdf_parent_section": "§4.4.3.1 [Duration]", "pdf_verbatim": "This may be useful if data are collected in formats such as \"one and one-half years\", \"two and a half weeks\", \"half a week\" or \"quarter of an hour\" and the sponsor wishes to represent this \"precision\" (or lack of precision) in ISO 8601 format.", "figure_ref": null, "candidates": [{"md_atom_id": "md_ch04_a576", "md_file": "knowledge_base/chapters/ch04_general_assumptions.md", "md_atom_type": "SENTENCE", "md_parent_section": "§4.4.3.1 [Intervals of Time and Use of Duration]", "md_verbatim": "This may be useful if data are collected in formats such as \"one and one-half years\", \"two and a half weeks\", \"half a week\" or \"quarter of an hour\" and the sponsor wishes to represent this \"precision\" (or lack of precision) in ISO 8601 representation.", "score": 0.8676, "match_basis": "verbatim_token+chapter_route:ch04"}, {"md_atom_id": "md_ch04_a629", "md_file": "knowledge_base/chapters/ch04_general_assumptions.md", "md_atom_type": "SENTENCE", "md_parent_section": "§4.4.7 [Use of Relative Timing Variables]", "md_verbatim": "The variables --STRF and --ENRF represent the timing of an observation relative to the sponsor-defined study reference period, when information such as \"BEFORE\", \"PRIOR\", \"ONGOING\", or \"CONTINUING\" is collected in lieu of a date and this collected information is in relation to the sponsor-defined study reference period.", "score": 0.4329, "match_basis": "verbatim_token+chapter_route:ch04"}, {"md_atom_id": "md_ch04_a510", "md_file": "knowledge_base/chapters/ch04_general_assumptions.md", "md_atom_type": "SENTENCE", "md_parent_section": "§4.4.2 [Date/Time Precision]", "md_verbatim": "The concept of representing date/time precision is handled through use of the ISO 8601 standard.", "score": 0.4263, "match_basis": "verbatim_token+chapter_route:ch04"}, {"md_atom_id": "md_ch04_a575", "md_file": "knowledge_base/chapters/ch04_general_assumptions.md", "md_atom_type": "SENTENCE", "md_parent_section": "§4.4.3.1 [Intervals of Time and Use of Duration]", "md_verbatim": "ISO 8601 also allows that the \"lowest-order components\" of duration being represented may be represented in decimal format.", "score": 0.4235, "match_basis": "verbatim_token+chapter_route:ch04"}, {"md_atom_id": "md_ch04_a592", "md_file": "knowledge_base/chapters/ch04_general_assumptions.md", "md_atom_type": "SENTENCE", "md_parent_section": "§4.4.3.2 [Interval with Uncertainty]", "md_verbatim": "When an interval of time is an amount of time (duration) following an event whose start date/time is recorded (with some level of precision), the correct ISO 8601 usage to represent this interval is:", "score": 0.422, "match_basis": "verbatim_token+chapter_route:ch04"}], "candidate_count": 5, "zero_candidate": false}
{"pdf_atom_id": "ig34_p0041_a011", "pdf_atom_type": "SENTENCE", "pdf_source": "SDTMIG_v3.4", "pdf_page": 41, "pdf_parent_section": "§4.4.3.1 [Duration]", "pdf_verbatim": "This is ONLY allowed in the lowest-order (right-most) component in any duration representation.", "figure_ref": null, "candidates": [{"md_atom_id": "md_ch04_a577", "md_file": "knowledge_base/chapters/ch04_general_assumptions.md", "md_atom_type": "SENTENCE", "md_parent_section": "§4.4.3.1 [Intervals of Time and Use of Duration]", "md_verbatim": "This is ONLY allowed in the lowest-order (right-most) component in any ISO 8601 duration representation.", "score": 0.86, "match_basis": "verbatim_token+chapter_route:ch04"}, {"md_atom_id": "md_ch04_a575", "md_file": "knowledge_base/chapters/ch04_general_assumptions.md", "md_atom_type": "SENTENCE", "md_parent_section": "§4.4.3.1 [Intervals of Time and Use of Duration]", "md_verbatim": "ISO 8601 also allows that the \"lowest-order components\" of duration being represented may be represented in decimal format.", "score": 0.5636, "match_basis": "verbatim_token+chapter_route:ch04"}, {"md_atom_id": "md_ch04_a573", "md_file": "knowledge_base/chapters/ch04_general_assumptions.md", "md_atom_type": "SENTENCE", "md_parent_section": "§4.4.3.1 [Intervals of Time and Use of Duration]", "md_verbatim": "As is the case with the date/time representation in --DTC, --STDTC, or --ENDTC, only the components of duration that are known or collected need to be represented.", "score": 0.5, "match_basis": "verbatim_token+chapter_route:ch04"}, {"md_atom_id": "md_ch04_a574", "md_file": "knowledge_base/chapters/ch04_general_assumptions.md", "md_atom_type": "SENTENCE", "md_parent_section": "§4.4.3.1 [Intervals of Time and Use of Duration]", "md_verbatim": "If no time component is represented, the [T] time designator must be omitted in ISO 8601 representation.", "score": 0.481, "match_basis": "verbatim_token+chapter_route:ch04"}, {"md_atom_id": "md_ch04_a578", "md_file": "knowledge_base/chapters/ch04_general_assumptions.md", "md_atom_type": "SENTENCE", "md_parent_section": "§4.4.3.1 [Intervals of Time and Use of Duration]", "md_verbatim": "The following table provides some examples of ISO 8601-compliant representations of durations.", "score": 0.4667, "match_basis": "verbatim_token+chapter_route:ch04"}], "candidate_count": 5, "zero_candidate": false}
{"pdf_atom_id": "ig34_p0041_a012", "pdf_atom_type": "SENTENCE", "pdf_source": "SDTMIG_v3.4", "pdf_page": 41, "pdf_parent_section": "§4.4.3.1 [Duration]", "pdf_verbatim": "The following table provides some examples of ISO 8601-compliant representations of durations.", "figure_ref": null, "candidates": [{"md_atom_id": "md_ch04_a578", "md_file": "knowledge_base/chapters/ch04_general_assumptions.md", "md_atom_type": "SENTENCE", "md_parent_section": "§4.4.3.1 [Intervals of Time and Use of Duration]", "md_verbatim": "The following table provides some examples of ISO 8601-compliant representations of durations.", "score": 0.9, "match_basis": "verbatim_token+chapter_route:ch04"}, {"md_atom_id": "md_ch04_a516", "md_file": "knowledge_base/chapters/ch04_general_assumptions.md", "md_atom_type": "SENTENCE", "md_parent_section": "§4.4.2 [Date/Time Precision]", "md_verbatim": "The following table provides examples of ISO 8601 representations of complete and truncated date/time values.", "score": 0.6672, "match_basis": "verbatim_token+chapter_route:ch04"}, {"md_atom_id": "md_ch04_a480", "md_file": "knowledge_base/chapters/ch04_general_assumptions.md", "md_atom_type": "SENTENCE", "md_parent_section": "§4.4 [Actual and Relative Time Assumptions]", "md_verbatim": "ISO 8601 provides a text-based representation of dates and/or times, intervals of time, and durations of time.", "score": 0.5174, "match_basis": "verbatim_token+chapter_route:ch04"}, {"md_atom_id": "md_ch04_a557", "md_file": "knowledge_base/chapters/ch04_general_assumptions.md", "md_atom_type": "SENTENCE", "md_parent_section": "§4.4.3.1 [Intervals of Time and Use of Duration]", "md_verbatim": "The values provided in --DUR should follow 1 of the following ISO 8601 duration formats:", "score": 0.5062, "match_basis": "verbatim_token+chapter_route:ch04"}, {"md_atom_id": "md_ch04_a577", "md_file": "knowledge_base/chapters/ch04_general_assumptions.md", "md_atom_type": "SENTENCE", "md_parent_section": "§4.4.3.1 [Intervals of Time and Use of Duration]", "md_verbatim": "This is ONLY allowed in the lowest-order (right-most) component in any ISO 8601 duration representation.", "score": 0.4917, "match_basis": "verbatim_token+chapter_route:ch04"}], "candidate_count": 5, "zero_candidate": false}
{"pdf_atom_id": "ig34_p0041_a013", "pdf_atom_type": "TABLE_HEADER", "pdf_source": "SDTMIG_v3.4", "pdf_page": 41, "pdf_parent_section": "§4.4.3.1 [Duration]", "pdf_verbatim": "Duration as originally recorded | ISO 8601 Duration", "figure_ref": null, "candidates": [{"md_atom_id": "md_ch04_a579", "md_file": "knowledge_base/chapters/ch04_general_assumptions.md", "md_atom_type": "TABLE_HEADER", "md_parent_section": "§4.4.3.1 [Intervals of Time and Use of Duration]", "md_verbatim": "| Duration as originally recorded | ISO 8601 Duration |\n|---------------------------------|-------------------|", "score": 0.9, "match_basis": "verbatim_token+chapter_route:ch04"}, {"md_atom_id": "md_ch04_a518", "md_file": "knowledge_base/chapters/ch04_general_assumptions.md", "md_atom_type": "TABLE_HEADER", "md_parent_section": "§4.4.2 [Date/Time Precision]", "md_verbatim": "| # | Date and Time as Originally Recorded | Precision | ISO 8601 Date/Time |\n|---|--------------------------------------|-----------|-------------------|", "score": 0.6273, "match_basis": "verbatim_token+chapter_route:ch04"}, {"md_atom_id": "md_ch04_a536", "md_file": "knowledge_base/chapters/ch04_general_assumptions.md", "md_atom_type": "TABLE_HEADER", "md_parent_section": "§4.4.2 [Date/Time Precision]", "md_verbatim": "| # | Date and Time as Originally Recorded | Level of Uncertainty | ISO 8601 Date/Time |\n|---|--------------------------------------|---------------------|-------------------|", "score": 0.555, "match_basis": "verbatim_token+chapter_route:ch04"}, {"md_atom_id": "md_ch04_a461", "md_file": "knowledge_base/chapters/ch04_general_assumptions.md", "md_atom_type": "TABLE_HEADER", "md_parent_section": "§4.3.6 [Storing Topic Variables for General Domain Models]", "md_verbatim": "| Domain | Original Verbatim | Modified Verbatim | Standardized Value |\n|--------|-------------------|-------------------|--------------------|", "score": 0.3824, "match_basis": "verbatim_token+chapter_route:ch04"}, {"md_atom_id": "md_ch04_a278", "md_file": "knowledge_base/chapters/ch04_general_assumptions.md", "md_atom_type": "TABLE_HEADER", "md_parent_section": "§4.2.7.1 [\"Specify\" Values for Non-Result Qualifier Variables]", "md_verbatim": "| Indication for analgesic | Options                        |\n|--------------------------|--------------------------------|", "score": 0.3632, "match_basis": "verbatim_token+chapter_route:ch04"}], "candidate_count": 5, "zero_candidate": false}
{"pdf_atom_id": "ig34_p0041_a014", "pdf_atom_type": "TABLE_ROW", "pdf_source": "SDTMIG_v3.4", "pdf_page": 41, "pdf_parent_section": "§4.4.3.1 [Duration]", "pdf_verbatim": "2 years | P2Y", "figure_ref": null, "candidates": [{"md_atom_id": "md_ch04_a580", "md_file": "knowledge_base/chapters/ch04_general_assumptions.md", "md_atom_type": "TABLE_ROW", "md_parent_section": "§4.4.3.1 [Intervals of Time and Use of Duration]", "md_verbatim": "| 2 years | P2Y |", "score": 0.9, "match_basis": "verbatim_token+chapter_route:ch04"}, {"md_atom_id": "md_ch04_a530", "md_file": "knowledge_base/chapters/ch04_general_assumptions.md", "md_atom_type": "TABLE_ROW", "md_parent_section": "§4.4.2 [Date/Time Precision]", "md_verbatim": "| 2 | Between the first of this year (2003) until \"now\" (February 15, 2003) | 2003-01-01/2003-02-15 |", "score": 0.3444, "match_basis": "verbatim_token+chapter_route:ch04"}, {"md_atom_id": "md_ch04_a540", "md_file": "knowledge_base/chapters/ch04_general_assumptions.md", "md_atom_type": "TABLE_ROW", "md_parent_section": "§4.4.2 [Date/Time Precision]", "md_verbatim": "| 4 | The 15th of some month in 2003, time not collected | Unknown month and time with known year and day | 2003---15 |", "score": 0.3364, "match_basis": "verbatim_token+chapter_route:ch04"}, {"md_atom_id": "md_ch04_a541", "md_file": "knowledge_base/chapters/ch04_general_assumptions.md", "md_atom_type": "TABLE_ROW", "md_parent_section": "§4.4.2 [Date/Time Precision]", "md_verbatim": "| 5 | December 15, but can't remember the year, time not collected | Unknown year with known month and day | --12-15 |", "score": 0.3316, "match_basis": "verbatim_token+chapter_route:ch04"}, {"md_atom_id": "md_ch04_a921", "md_file": "knowledge_base/chapters/ch04_general_assumptions.md", "md_atom_type": "TABLE_ROW", "md_parent_section": "§4.5.3.2 [Text Strings Greater than 200 Characters in Other Variables]", "md_verbatim": "| 1 | 12345 | MH | 99-123 | 6 | 1st ~200 chars of text, split between words |", "score": 0.325, "match_basis": "verbatim_token+chapter_route:ch04"}, {"md_atom_id": "md_ch04_a520", "md_file": "knowledge_base/chapters/ch04_general_assumptions.md", "md_atom_type": "TABLE_ROW", "md_parent_section": "§4.4.2 [Date/Time Precision]", "md_verbatim": "| 2 | December 15, 2003 13:14:17 | Date/time to the nearest second | 2003-12-15T13:14:17 |", "score": 0.3214, "match_basis": "verbatim_token+chapter_route:ch04"}, {"md_atom_id": "md_ch04_a537", "md_file": "knowledge_base/chapters/ch04_general_assumptions.md", "md_atom_type": "TABLE_ROW", "md_parent_section": "§4.4.2 [Date/Time Precision]", "md_verbatim": "| 1 | December 15, 2003 13:15:17 | Date/time to the nearest second | 2003-12-15T13:15:17 |", "score": 0.3214, "match_basis": "verbatim_token+chapter_route:ch04"}, {"md_atom_id": "md_ch04_a931", "md_file": "knowledge_base/chapters/ch04_general_assumptions.md", "md_atom_type": "TABLE_ROW", "md_parent_section": "§4.5.3.2 [Text Strings Greater than 200 Characters in Other Variables]", "md_verbatim": "| 1 | 12345 | AE | 99-123 | 4 | HEART FAILURE | 1st ~200 characters of text, split between words |", "score": 0.3162, "match_basis": "verbatim_token+chapter_route:ch04"}, {"md_atom_id": "md_ch04_a925", "md_file": "knowledge_base/chapters/ch04_general_assumptions.md", "md_atom_type": "TABLE_ROW", "md_parent_section": "§4.5.3.2 [Text Strings Greater than 200 Characters in Other Variables]", "md_verbatim": "| 2 | 12345 | MH | 99-123 | MHSEQ | 6 | MHTERM2 | Reported Term for the Medical History | last 100 or more chars of text | CRF |", "score": 0.314, "match_basis": "verbatim_token+chapter_route:ch04"}, {"md_atom_id": "md_ch04_a924", "md_file": "knowledge_base/chapters/ch04_general_assumptions.md", "md_atom_type": "TABLE_ROW", "md_parent_section": "§4.5.3.2 [Text Strings Greater than 200 Characters in Other Variables]", "md_verbatim": "| 1 | 12345 | MH | 99-123 | MHSEQ | 6 | MHTERM1 | Reported Term for the Medical History | 2nd ~200 chars of text, split between words | CRF |", "score": 0.3118, "match_basis": "verbatim_token+chapter_route:ch04"}], "candidate_count": 10, "zero_candidate": false}
{"pdf_atom_id": "ig34_p0041_a015", "pdf_atom_type": "CODE_LITERAL", "pdf_source": "SDTMIG_v3.4", "pdf_page": 41, "pdf_parent_section": "§4.4.3.1 [Duration]", "pdf_verbatim": "P2Y", "figure_ref": null, "candidates": [{"md_atom_id": "md_ch04_a580", "md_file": "knowledge_base/chapters/ch04_general_assumptions.md", "md_atom_type": "TABLE_ROW", "md_parent_section": "§4.4.3.1 [Intervals of Time and Use of Duration]", "md_verbatim": "| 2 years | P2Y |", "score": 0.24, "match_basis": "verbatim_token+chapter_route:ch04"}, {"md_atom_id": "md_ch04_a001", "md_file": "knowledge_base/chapters/ch04_general_assumptions.md", "md_atom_type": "HEADING", "md_parent_section": "§4 [Assumptions for Domain Models]", "md_verbatim": "# SDTMIG v3.4 — Chapter 4: Assumptions for Domain Models", "score": 0.09, "match_basis": "verbatim_token+chapter_route:ch04"}, {"md_atom_id": "md_ch04_a002", "md_file": "knowledge_base/chapters/ch04_general_assumptions.md", "md_atom_type": "SENTENCE", "md_parent_section": "§4 [Assumptions for Domain Models]", "md_verbatim": "Source: SDTMIG v3.4, Section 4 (Pages 22-59)", "score": 0.09, "match_basis": "verbatim_token+chapter_route:ch04"}, {"md_atom_id": "md_ch04_a003", "md_file": "knowledge_base/chapters/ch04_general_assumptions.md", "md_atom_type": "HEADING", "md_parent_section": "§4 [Assumptions for Domain Models]", "md_verbatim": "## Overview", "score": 0.09, "match_basis": "verbatim_token+chapter_route:ch04"}, {"md_atom_id": "md_ch04_a004", "md_file": "knowledge_base/chapters/ch04_general_assumptions.md", "md_atom_type": "SENTENCE", "md_parent_section": "§4.0 [Overview]", "md_verbatim": "This section describes basic concepts, business rules, and assumptions that should be taken into consideration before applying the domain models.", "score": 0.09, "match_basis": "verbatim_token+chapter_route:ch04"}, {"md_atom_id": "md_ch04_a005", "md_file": "knowledge_base/chapters/ch04_general_assumptions.md", "md_atom_type": "SENTENCE", "md_parent_section": "§4.0 [Overview]", "md_verbatim": "It covers general domain assumptions, general variable assumptions, coding and controlled terminology assumptions, actual and relative time assumptions, and other assumptions.", "score": 0.09, "match_basis": "verbatim_token+chapter_route:ch04"}, {"md_atom_id": "md_ch04_a006", "md_file": "knowledge_base/chapters/ch04_general_assumptions.md", "md_atom_type": "HEADING", "md_parent_section": "§4 [Assumptions for Domain Models]", "md_verbatim": "## 4.1 General Domain Assumptions", "score": 0.09, "match_basis": "verbatim_token+chapter_route:ch04"}, {"md_atom_id": "md_ch04_a007", "md_file": "knowledge_base/chapters/ch04_general_assumptions.md", "md_atom_type": "HEADING", "md_parent_section": "§4.1 [General Domain Assumptions]", "md_verbatim": "### 4.1.1 Review Study Data Tabulation Model and Implementation Guide", "score": 0.09, "match_basis": "verbatim_token+chapter_route:ch04"}, {"md_atom_id": "md_ch04_a008", "md_file": "knowledge_base/chapters/ch04_general_assumptions.md", "md_atom_type": "SENTENCE", "md_parent_section": "§4.1.1 [Review Study Data Tabulation Model and Implementation Guide]", "md_verbatim": "Review the SDTM as well as this complete implementation guide before attempting to use any of the individual domain models.", "score": 0.09, "match_basis": "verbatim_token+chapter_route:ch04"}, {"md_atom_id": "md_ch04_a009", "md_file": "knowledge_base/chapters/ch04_general_assumptions.md", "md_atom_type": "SENTENCE", "md_parent_section": "§4.1.1 [Review Study Data Tabulation Model and Implementation Guide]", "md_verbatim": "The SDTM describes the general conceptual framework, including the general observation classes (Interventions, Events, Findings), special-purpose domains, trial design model datasets, relationship datasets, and study references.", "score": 0.09, "match_basis": "verbatim_token+chapter_route:ch04"}], "candidate_count": 10, "zero_candidate": false}
{"pdf_atom_id": "ig34_p0041_a016", "pdf_atom_type": "TABLE_ROW", "pdf_source": "SDTMIG_v3.4", "pdf_page": 41, "pdf_parent_section": "§4.4.3.1 [Duration]", "pdf_verbatim": "10 weeks | P10W", "figure_ref": null, "candidates": [{"md_atom_id": "md_ch04_a581", "md_file": "knowledge_base/chapters/ch04_general_assumptions.md", "md_atom_type": "TABLE_ROW", "md_parent_section": "§4.4.3.1 [Intervals of Time and Use of Duration]", "md_verbatim": "| 10 weeks | P10W |", "score": 0.9, "match_basis": "verbatim_token+chapter_route:ch04"}, {"md_atom_id": "md_ch04_a589", "md_file": "knowledge_base/chapters/ch04_general_assumptions.md", "md_atom_type": "TABLE_ROW", "md_parent_section": "§4.4.3.1 [Intervals of Time and Use of Duration]", "md_verbatim": "| 4 1/2 weeks | P4.5W |", "score": 0.66, "match_basis": "verbatim_token+chapter_route:ch04"}, {"md_atom_id": "md_ch04_a621", "md_file": "knowledge_base/chapters/ch04_general_assumptions.md", "md_atom_type": "TABLE_ROW", "md_parent_section": "§4.4.5 [Clinical Encounters and Visits]", "md_verbatim": "| 001 | Week 1 | 2 | | |", "score": 0.5, "match_basis": "verbatim_token+chapter_route:ch04"}, {"md_atom_id": "md_ch04_a622", "md_file": "knowledge_base/chapters/ch04_general_assumptions.md", "md_atom_type": "TABLE_ROW", "md_parent_section": "§4.4.5 [Clinical Encounters and Visits]", "md_verbatim": "| 001 | Week 2 | 3 | 14 | 13 |", "score": 0.5, "match_basis": "verbatim_token+chapter_route:ch04"}, {"md_atom_id": "md_ch04_a623", "md_file": "knowledge_base/chapters/ch04_general_assumptions.md", "md_atom_type": "TABLE_ROW", "md_parent_section": "§4.4.5 [Clinical Encounters and Visits]", "md_verbatim": "| 001 | Week 2 Unscheduled | 3.1 | | 17 |", "score": 0.38, "match_basis": "verbatim_token+chapter_route:ch04"}, {"md_atom_id": "md_ch04_a076", "md_file": "knowledge_base/chapters/ch04_general_assumptions.md", "md_atom_type": "TABLE_ROW", "md_parent_section": "§4.1.7.1 [Example of Splitting Questionnaires]", "md_verbatim": "| 2 | CDISC01 | QS | CDISC01.100008 | 2 | CGI0201 | CGI02-Severity | CGI | Mild | 3 | 3 | | 2 | WEEK 2 | 7 | 2003-04-21 | 7 |", "score": 0.3429, "match_basis": "verbatim_token+chapter_route:ch04"}, {"md_atom_id": "md_ch04_a080", "md_file": "knowledge_base/chapters/ch04_general_assumptions.md", "md_atom_type": "TABLE_ROW", "md_parent_section": "§4.1.7.1 [Example of Splitting Questionnaires]", "md_verbatim": "| 6 | CDISC01 | QS | CDISC01.100014 | 2 | CGI0201 | CGI02-Severity | CGI | Mild | 3 | 3 | | 2 | WEEK 2 | 7 | 2003-04-21 | 7 |", "score": 0.3414, "match_basis": "verbatim_token+chapter_route:ch04"}, {"md_atom_id": "md_ch04_a075", "md_file": "knowledge_base/chapters/ch04_general_assumptions.md", "md_atom_type": "TABLE_ROW", "md_parent_section": "§4.1.7.1 [Example of Splitting Questionnaires]", "md_verbatim": "| 1 | CDISC01 | QS | CDISC01.100008 | 1 | CGI0201 | CGI02-Severity | CGI | Moderate | 4 | 4 | | 1 | WEEK 1 | 7 | 2003-04-15 | 1 |", "score": 0.3375, "match_basis": "verbatim_token+chapter_route:ch04"}, {"md_atom_id": "md_ch04_a079", "md_file": "knowledge_base/chapters/ch04_general_assumptions.md", "md_atom_type": "TABLE_ROW", "md_parent_section": "§4.1.7.1 [Example of Splitting Questionnaires]", "md_verbatim": "| 5 | CDISC01 | QS | CDISC01.100014 | 1 | CGI0201 | CGI02-Severity | CGI | Moderate | 4 | 4 | | 1 | WEEK 1 | 7 | 2003-04-15 | 1 |", "score": 0.3364, "match_basis": "verbatim_token+chapter_route:ch04"}, {"md_atom_id": "md_ch04_a077", "md_file": "knowledge_base/chapters/ch04_general_assumptions.md", "md_atom_type": "TABLE_ROW", "md_parent_section": "§4.1.7.1 [Example of Splitting Questionnaires]", "md_verbatim": "| 3 | CDISC01 | QS | CDISC01.100008 | 3 | CGI0202 | CGI02-Change | CGI | Minimally Improved | 3 | 3 | | 2 | WEEK 2 | 7 | 2003-04-21 | 7 |", "score": 0.3324, "match_basis": "verbatim_token+chapter_route:ch04"}], "candidate_count": 10, "zero_candidate": false}
{"pdf_atom_id": "ig34_p0041_a017", "pdf_atom_type": "CODE_LITERAL", "pdf_source": "SDTMIG_v3.4", "pdf_page": 41, "pdf_parent_section": "§4.4.3.1 [Duration]", "pdf_verbatim": "P10W", "figure_ref": null, "candidates": [{"md_atom_id": "md_ch04_a581", "md_file": "knowledge_base/chapters/ch04_general_assumptions.md", "md_atom_type": "TABLE_ROW", "md_parent_section": "§4.4.3.1 [Intervals of Time and Use of Duration]", "md_verbatim": "| 10 weeks | P10W |", "score": 0.33, "match_basis": "verbatim_token+chapter_route:ch04"}, {"md_atom_id": "md_ch04_a001", "md_file": "knowledge_base/chapters/ch04_general_assumptions.md", "md_atom_type": "HEADING", "md_parent_section": "§4 [Assumptions for Domain Models]", "md_verbatim": "# SDTMIG v3.4 — Chapter 4: Assumptions for Domain Models", "score": 0.09, "match_basis": "verbatim_token+chapter_route:ch04"}, {"md_atom_id": "md_ch04_a002", "md_file": "knowledge_base/chapters/ch04_general_assumptions.md", "md_atom_type": "SENTENCE", "md_parent_section": "§4 [Assumptions for Domain Models]", "md_verbatim": "Source: SDTMIG v3.4, Section 4 (Pages 22-59)", "score": 0.09, "match_basis": "verbatim_token+chapter_route:ch04"}, {"md_atom_id": "md_ch04_a003", "md_file": "knowledge_base/chapters/ch04_general_assumptions.md", "md_atom_type": "HEADING", "md_parent_section": "§4 [Assumptions for Domain Models]", "md_verbatim": "## Overview", "score": 0.09, "match_basis": "verbatim_token+chapter_route:ch04"}, {"md_atom_id": "md_ch04_a004", "md_file": "knowledge_base/chapters/ch04_general_assumptions.md", "md_atom_type": "SENTENCE", "md_parent_section": "§4.0 [Overview]", "md_verbatim": "This section describes basic concepts, business rules, and assumptions that should be taken into consideration before applying the domain models.", "score": 0.09, "match_basis": "verbatim_token+chapter_route:ch04"}, {"md_atom_id": "md_ch04_a005", "md_file": "knowledge_base/chapters/ch04_general_assumptions.md", "md_atom_type": "SENTENCE", "md_parent_section": "§4.0 [Overview]", "md_verbatim": "It covers general domain assumptions, general variable assumptions, coding and controlled terminology assumptions, actual and relative time assumptions, and other assumptions.", "score": 0.09, "match_basis": "verbatim_token+chapter_route:ch04"}, {"md_atom_id": "md_ch04_a006", "md_file": "knowledge_base/chapters/ch04_general_assumptions.md", "md_atom_type": "HEADING", "md_parent_section": "§4 [Assumptions for Domain Models]", "md_verbatim": "## 4.1 General Domain Assumptions", "score": 0.09, "match_basis": "verbatim_token+chapter_route:ch04"}, {"md_atom_id": "md_ch04_a007", "md_file": "knowledge_base/chapters/ch04_general_assumptions.md", "md_atom_type": "HEADING", "md_parent_section": "§4.1 [General Domain Assumptions]", "md_verbatim": "### 4.1.1 Review Study Data Tabulation Model and Implementation Guide", "score": 0.09, "match_basis": "verbatim_token+chapter_route:ch04"}, {"md_atom_id": "md_ch04_a008", "md_file": "knowledge_base/chapters/ch04_general_assumptions.md", "md_atom_type": "SENTENCE", "md_parent_section": "§4.1.1 [Review Study Data Tabulation Model and Implementation Guide]", "md_verbatim": "Review the SDTM as well as this complete implementation guide before attempting to use any of the individual domain models.", "score": 0.09, "match_basis": "verbatim_token+chapter_route:ch04"}, {"md_atom_id": "md_ch04_a009", "md_file": "knowledge_base/chapters/ch04_general_assumptions.md", "md_atom_type": "SENTENCE", "md_parent_section": "§4.1.1 [Review Study Data Tabulation Model and Implementation Guide]", "md_verbatim": "The SDTM describes the general conceptual framework, including the general observation classes (Interventions, Events, Findings), special-purpose domains, trial design model datasets, relationship datasets, and study references.", "score": 0.09, "match_basis": "verbatim_token+chapter_route:ch04"}], "candidate_count": 10, "zero_candidate": false}
{"pdf_atom_id": "ig34_p0041_a018", "pdf_atom_type": "TABLE_ROW", "pdf_source": "SDTMIG_v3.4", "pdf_page": 41, "pdf_parent_section": "§4.4.3.1 [Duration]", "pdf_verbatim": "3 months 14 days | P3M14D", "figure_ref": null, "candidates": [{"md_atom_id": "md_ch04_a582", "md_file": "knowledge_base/chapters/ch04_general_assumptions.md", "md_atom_type": "TABLE_ROW", "md_parent_section": "§4.4.3.1 [Intervals of Time and Use of Duration]", "md_verbatim": "| 3 months 14 days | P3M14D |", "score": 0.9, "match_basis": "verbatim_token+chapter_route:ch04"}, {"md_atom_id": "md_ch04_a584", "md_file": "knowledge_base/chapters/ch04_general_assumptions.md", "md_atom_type": "TABLE_ROW", "md_parent_section": "§4.4.3.1 [Intervals of Time and Use of Duration]", "md_verbatim": "| 6 months 17 days 3 hours | P6M17DT3H |", "score": 0.48, "match_basis": "verbatim_token+chapter_route:ch04"}, {"md_atom_id": "md_ch04_a525", "md_file": "knowledge_base/chapters/ch04_general_assumptions.md", "md_atom_type": "TABLE_ROW", "md_parent_section": "§4.4.2 [Date/Time Precision]", "md_verbatim": "| 7 | 2003 | Unknown month, day, and time | 2003 |", "score": 0.42, "match_basis": "verbatim_token+chapter_route:ch04"}, {"md_atom_id": "md_ch04_a583", "md_file": "knowledge_base/chapters/ch04_general_assumptions.md", "md_atom_type": "TABLE_ROW", "md_parent_section": "§4.4.3.1 [Intervals of Time and Use of Duration]", "md_verbatim": "| 3 days | P3D |", "score": 0.4091, "match_basis": "verbatim_token+chapter_route:ch04"}, {"md_atom_id": "md_ch04_a585", "md_file": "knowledge_base/chapters/ch04_general_assumptions.md", "md_atom_type": "TABLE_ROW", "md_parent_section": "§4.4.3.1 [Intervals of Time and Use of Duration]", "md_verbatim": "| 14 days 2 hours 57 minutes | P14DT2H57M |", "score": 0.372, "match_basis": "verbatim_token+chapter_route:ch04"}], "candidate_count": 5, "zero_candidate": false}
{"pdf_atom_id": "ig34_p0041_a019", "pdf_atom_type": "CODE_LITERAL", "pdf_source": "SDTMIG_v3.4", "pdf_page": 41, "pdf_parent_section": "§4.4.3.1 [Duration]", "pdf_verbatim": "P3M14D", "figure_ref": null, "candidates": [{"md_atom_id": "md_ch04_a582", "md_file": "knowledge_base/chapters/ch04_general_assumptions.md", "md_atom_type": "TABLE_ROW", "md_parent_section": "§4.4.3.1 [Intervals of Time and Use of Duration]", "md_verbatim": "| 3 months 14 days | P3M14D |", "score": 0.33, "match_basis": "verbatim_token+chapter_route:ch04"}, {"md_atom_id": "md_ch04_a585", "md_file": "knowledge_base/chapters/ch04_general_assumptions.md", "md_atom_type": "TABLE_ROW", "md_parent_section": "§4.4.3.1 [Intervals of Time and Use of Duration]", "md_verbatim": "| 14 days 2 hours 57 minutes | P14DT2H57M |", "score": 0.1186, "match_basis": "verbatim_token+chapter_route:ch04"}, {"md_atom_id": "md_ch04_a001", "md_file": "knowledge_base/chapters/ch04_general_assumptions.md", "md_atom_type": "HEADING", "md_parent_section": "§4 [Assumptions for Domain Models]", "md_verbatim": "# SDTMIG v3.4 — Chapter 4: Assumptions for Domain Models", "score": 0.09, "match_basis": "verbatim_token+chapter_route:ch04"}, {"md_atom_id": "md_ch04_a002", "md_file": "knowledge_base/chapters/ch04_general_assumptions.md", "md_atom_type": "SENTENCE", "md_parent_section": "§4 [Assumptions for Domain Models]", "md_verbatim": "Source: SDTMIG v3.4, Section 4 (Pages 22-59)", "score": 0.09, "match_basis": "verbatim_token+chapter_route:ch04"}, {"md_atom_id": "md_ch04_a003", "md_file": "knowledge_base/chapters/ch04_general_assumptions.md", "md_atom_type": "HEADING", "md_parent_section": "§4 [Assumptions for Domain Models]", "md_verbatim": "## Overview", "score": 0.09, "match_basis": "verbatim_token+chapter_route:ch04"}, {"md_atom_id": "md_ch04_a004", "md_file": "knowledge_base/chapters/ch04_general_assumptions.md", "md_atom_type": "SENTENCE", "md_parent_section": "§4.0 [Overview]", "md_verbatim": "This section describes basic concepts, business rules, and assumptions that should be taken into consideration before applying the domain models.", "score": 0.09, "match_basis": "verbatim_token+chapter_route:ch04"}, {"md_atom_id": "md_ch04_a005", "md_file": "knowledge_base/chapters/ch04_general_assumptions.md", "md_atom_type": "SENTENCE", "md_parent_section": "§4.0 [Overview]", "md_verbatim": "It covers general domain assumptions, general variable assumptions, coding and controlled terminology assumptions, actual and relative time assumptions, and other assumptions.", "score": 0.09, "match_basis": "verbatim_token+chapter_route:ch04"}, {"md_atom_id": "md_ch04_a006", "md_file": "knowledge_base/chapters/ch04_general_assumptions.md", "md_atom_type": "HEADING", "md_parent_section": "§4 [Assumptions for Domain Models]", "md_verbatim": "## 4.1 General Domain Assumptions", "score": 0.09, "match_basis": "verbatim_token+chapter_route:ch04"}, {"md_atom_id": "md_ch04_a007", "md_file": "knowledge_base/chapters/ch04_general_assumptions.md", "md_atom_type": "HEADING", "md_parent_section": "§4.1 [General Domain Assumptions]", "md_verbatim": "### 4.1.1 Review Study Data Tabulation Model and Implementation Guide", "score": 0.09, "match_basis": "verbatim_token+chapter_route:ch04"}, {"md_atom_id": "md_ch04_a008", "md_file": "knowledge_base/chapters/ch04_general_assumptions.md", "md_atom_type": "SENTENCE", "md_parent_section": "§4.1.1 [Review Study Data Tabulation Model and Implementation Guide]", "md_verbatim": "Review the SDTM as well as this complete implementation guide before attempting to use any of the individual domain models.", "score": 0.09, "match_basis": "verbatim_token+chapter_route:ch04"}], "candidate_count": 10, "zero_candidate": false}
{"pdf_atom_id": "ig34_p0041_a020", "pdf_atom_type": "TABLE_ROW", "pdf_source": "SDTMIG_v3.4", "pdf_page": 41, "pdf_parent_section": "§4.4.3.1 [Duration]", "pdf_verbatim": "3 days | P3D", "figure_ref": null, "candidates": [{"md_atom_id": "md_ch04_a583", "md_file": "knowledge_base/chapters/ch04_general_assumptions.md", "md_atom_type": "TABLE_ROW", "md_parent_section": "§4.4.3.1 [Intervals of Time and Use of Duration]", "md_verbatim": "| 3 days | P3D |", "score": 0.9, "match_basis": "verbatim_token+chapter_route:ch04"}, {"md_atom_id": "md_ch04_a582", "md_file": "knowledge_base/chapters/ch04_general_assumptions.md", "md_atom_type": "TABLE_ROW", "md_parent_section": "§4.4.3.1 [Intervals of Time and Use of Duration]", "md_verbatim": "| 3 months 14 days | P3M14D |", "score": 0.4091, "match_basis": "verbatim_token+chapter_route:ch04"}, {"md_atom_id": "md_ch04_a588", "md_file": "knowledge_base/chapters/ch04_general_assumptions.md", "md_atom_type": "TABLE_ROW", "md_parent_section": "§4.4.3.1 [Intervals of Time and Use of Duration]", "md_verbatim": "| 5 days 12 1/4 hours | P5DT12.25H |", "score": 0.4091, "match_basis": "verbatim_token+chapter_route:ch04"}, {"md_atom_id": "md_ch04_a740", "md_file": "knowledge_base/chapters/ch04_general_assumptions.md", "md_atom_type": "TABLE_ROW", "md_parent_section": "§4.4.10 [Representing Time Points]", "md_verbatim": "| | | PRE-DOSE | 1 | DAY 1, PM DOSE |", "score": 0.4, "match_basis": "verbatim_token+chapter_route:ch04"}, {"md_atom_id": "md_ch04_a743", "md_file": "knowledge_base/chapters/ch04_general_assumptions.md", "md_atom_type": "TABLE_ROW", "md_parent_section": "§4.4.10 [Representing Time Points]", "md_verbatim": "| | | PRE-DOSE | 1 | DAY 5, AM DOSE |", "score": 0.4, "match_basis": "verbatim_token+chapter_route:ch04"}, {"md_atom_id": "md_ch04_a746", "md_file": "knowledge_base/chapters/ch04_general_assumptions.md", "md_atom_type": "TABLE_ROW", "md_parent_section": "§4.4.10 [Representing Time Points]", "md_verbatim": "| | | PRE-DOSE | 1 | DAY 5, PM DOSE |", "score": 0.4, "match_basis": "verbatim_token+chapter_route:ch04"}, {"md_atom_id": "md_ch04_a752", "md_file": "knowledge_base/chapters/ch04_general_assumptions.md", "md_atom_type": "TABLE_ROW", "md_parent_section": "§4.4.10 [Representing Time Points]", "md_verbatim": "| | | PRE-DOSE | 1 | DAY 1, PM DOSE |", "score": 0.4, "match_basis": "verbatim_token+chapter_route:ch04"}, {"md_atom_id": "md_ch04_a584", "md_file": "knowledge_base/chapters/ch04_general_assumptions.md", "md_atom_type": "TABLE_ROW", "md_parent_section": "§4.4.3.1 [Intervals of Time and Use of Duration]", "md_verbatim": "| 6 months 17 days 3 hours | P6M17DT3H |", "score": 0.3706, "match_basis": "verbatim_token+chapter_route:ch04"}, {"md_atom_id": "md_ch04_a585", "md_file": "knowledge_base/chapters/ch04_general_assumptions.md", "md_atom_type": "TABLE_ROW", "md_parent_section": "§4.4.3.1 [Intervals of Time and Use of Duration]", "md_verbatim": "| 14 days 2 hours 57 minutes | P14DT2H57M |", "score": 0.3632, "match_basis": "verbatim_token+chapter_route:ch04"}, {"md_atom_id": "md_ch04_a737", "md_file": "knowledge_base/chapters/ch04_general_assumptions.md", "md_atom_type": "TABLE_ROW", "md_parent_section": "§4.4.10 [Representing Time Points]", "md_verbatim": "| PERIOD 1 | 3 | PRE-DOSE | 1 | DAY 1, AM DOSE |", "score": 0.36, "match_basis": "verbatim_token+chapter_route:ch04"}], "candidate_count": 10, "zero_candidate": false}
{"pdf_atom_id": "ig34_p0041_a021", "pdf_atom_type": "CODE_LITERAL", "pdf_source": "SDTMIG_v3.4", "pdf_page": 41, "pdf_parent_section": "§4.4.3.1 [Duration]", "pdf_verbatim": "P3D", "figure_ref": null, "candidates": [{"md_atom_id": "md_ch04_a583", "md_file": "knowledge_base/chapters/ch04_general_assumptions.md", "md_atom_type": "TABLE_ROW", "md_parent_section": "§4.4.3.1 [Intervals of Time and Use of Duration]", "md_verbatim": "| 3 days | P3D |", "score": 0.29, "match_basis": "verbatim_token+chapter_route:ch04"}, {"md_atom_id": "md_ch04_a001", "md_file": "knowledge_base/chapters/ch04_general_assumptions.md", "md_atom_type": "HEADING", "md_parent_section": "§4 [Assumptions for Domain Models]", "md_verbatim": "# SDTMIG v3.4 — Chapter 4: Assumptions for Domain Models", "score": 0.09, "match_basis": "verbatim_token+chapter_route:ch04"}, {"md_atom_id": "md_ch04_a002", "md_file": "knowledge_base/chapters/ch04_general_assumptions.md", "md_atom_type": "SENTENCE", "md_parent_section": "§4 [Assumptions for Domain Models]", "md_verbatim": "Source: SDTMIG v3.4, Section 4 (Pages 22-59)", "score": 0.09, "match_basis": "verbatim_token+chapter_route:ch04"}, {"md_atom_id": "md_ch04_a003", "md_file": "knowledge_base/chapters/ch04_general_assumptions.md", "md_atom_type": "HEADING", "md_parent_section": "§4 [Assumptions for Domain Models]", "md_verbatim": "## Overview", "score": 0.09, "match_basis": "verbatim_token+chapter_route:ch04"}, {"md_atom_id": "md_ch04_a004", "md_file": "knowledge_base/chapters/ch04_general_assumptions.md", "md_atom_type": "SENTENCE", "md_parent_section": "§4.0 [Overview]", "md_verbatim": "This section describes basic concepts, business rules, and assumptions that should be taken into consideration before applying the domain models.", "score": 0.09, "match_basis": "verbatim_token+chapter_route:ch04"}, {"md_atom_id": "md_ch04_a005", "md_file": "knowledge_base/chapters/ch04_general_assumptions.md", "md_atom_type": "SENTENCE", "md_parent_section": "§4.0 [Overview]", "md_verbatim": "It covers general domain assumptions, general variable assumptions, coding and controlled terminology assumptions, actual and relative time assumptions, and other assumptions.", "score": 0.09, "match_basis": "verbatim_token+chapter_route:ch04"}, {"md_atom_id": "md_ch04_a006", "md_file": "knowledge_base/chapters/ch04_general_assumptions.md", "md_atom_type": "HEADING", "md_parent_section": "§4 [Assumptions for Domain Models]", "md_verbatim": "## 4.1 General Domain Assumptions", "score": 0.09, "match_basis": "verbatim_token+chapter_route:ch04"}, {"md_atom_id": "md_ch04_a007", "md_file": "knowledge_base/chapters/ch04_general_assumptions.md", "md_atom_type": "HEADING", "md_parent_section": "§4.1 [General Domain Assumptions]", "md_verbatim": "### 4.1.1 Review Study Data Tabulation Model and Implementation Guide", "score": 0.09, "match_basis": "verbatim_token+chapter_route:ch04"}, {"md_atom_id": "md_ch04_a008", "md_file": "knowledge_base/chapters/ch04_general_assumptions.md", "md_atom_type": "SENTENCE", "md_parent_section": "§4.1.1 [Review Study Data Tabulation Model and Implementation Guide]", "md_verbatim": "Review the SDTM as well as this complete implementation guide before attempting to use any of the individual domain models.", "score": 0.09, "match_basis": "verbatim_token+chapter_route:ch04"}, {"md_atom_id": "md_ch04_a009", "md_file": "knowledge_base/chapters/ch04_general_assumptions.md", "md_atom_type": "SENTENCE", "md_parent_section": "§4.1.1 [Review Study Data Tabulation Model and Implementation Guide]", "md_verbatim": "The SDTM describes the general conceptual framework, including the general observation classes (Interventions, Events, Findings), special-purpose domains, trial design model datasets, relationship datasets, and study references.", "score": 0.09, "match_basis": "verbatim_token+chapter_route:ch04"}], "candidate_count": 10, "zero_candidate": false}
{"pdf_atom_id": "ig34_p0041_a022", "pdf_atom_type": "TABLE_ROW", "pdf_source": "SDTMIG_v3.4", "pdf_page": 41, "pdf_parent_section": "§4.4.3.1 [Duration]", "pdf_verbatim": "6 months 17 days 3 hours | P6M17DT3H", "figure_ref": null, "candidates": [{"md_atom_id": "md_ch04_a584", "md_file": "knowledge_base/chapters/ch04_general_assumptions.md", "md_atom_type": "TABLE_ROW", "md_parent_section": "§4.4.3.1 [Intervals of Time and Use of Duration]", "md_verbatim": "| 6 months 17 days 3 hours | P6M17DT3H |", "score": 0.9, "match_basis": "verbatim_token+chapter_route:ch04"}, {"md_atom_id": "md_ch04_a582", "md_file": "knowledge_base/chapters/ch04_general_assumptions.md", "md_atom_type": "TABLE_ROW", "md_parent_section": "§4.4.3.1 [Intervals of Time and Use of Duration]", "md_verbatim": "| 3 months 14 days | P3M14D |", "score": 0.48, "match_basis": "verbatim_token+chapter_route:ch04"}, {"md_atom_id": "md_ch04_a588", "md_file": "knowledge_base/chapters/ch04_general_assumptions.md", "md_atom_type": "TABLE_ROW", "md_parent_section": "§4.4.3.1 [Intervals of Time and Use of Duration]", "md_verbatim": "| 5 days 12 1/4 hours | P5DT12.25H |", "score": 0.4429, "match_basis": "verbatim_token+chapter_route:ch04"}, {"md_atom_id": "md_ch04_a585", "md_file": "knowledge_base/chapters/ch04_general_assumptions.md", "md_atom_type": "TABLE_ROW", "md_parent_section": "§4.4.3.1 [Intervals of Time and Use of Duration]", "md_verbatim": "| 14 days 2 hours 57 minutes | P14DT2H57M |", "score": 0.4034, "match_basis": "verbatim_token+chapter_route:ch04"}, {"md_atom_id": "md_ch04_a525", "md_file": "knowledge_base/chapters/ch04_general_assumptions.md", "md_atom_type": "TABLE_ROW", "md_parent_section": "§4.4.2 [Date/Time Precision]", "md_verbatim": "| 7 | 2003 | Unknown month, day, and time | 2003 |", "score": 0.3923, "match_basis": "verbatim_token+chapter_route:ch04"}], "candidate_count": 5, "zero_candidate": false}
{"pdf_atom_id": "ig34_p0041_a023", "pdf_atom_type": "CODE_LITERAL", "pdf_source": "SDTMIG_v3.4", "pdf_page": 41, "pdf_parent_section": "§4.4.3.1 [Duration]", "pdf_verbatim": "P6M17DT3H", "figure_ref": null, "candidates": [{"md_atom_id": "md_ch04_a584", "md_file": "knowledge_base/chapters/ch04_general_assumptions.md", "md_atom_type": "TABLE_ROW", "md_parent_section": "§4.4.3.1 [Intervals of Time and Use of Duration]", "md_verbatim": "| 6 months 17 days 3 hours | P6M17DT3H |", "score": 0.3525, "match_basis": "verbatim_token+chapter_route:ch04"}, {"md_atom_id": "md_ch04_a001", "md_file": "knowledge_base/chapters/ch04_general_assumptions.md", "md_atom_type": "HEADING", "md_parent_section": "§4 [Assumptions for Domain Models]", "md_verbatim": "# SDTMIG v3.4 — Chapter 4: Assumptions for Domain Models", "score": 0.09, "match_basis": "verbatim_token+chapter_route:ch04"}, {"md_atom_id": "md_ch04_a002", "md_file": "knowledge_base/chapters/ch04_general_assumptions.md", "md_atom_type": "SENTENCE", "md_parent_section": "§4 [Assumptions for Domain Models]", "md_verbatim": "Source: SDTMIG v3.4, Section 4 (Pages 22-59)", "score": 0.09, "match_basis": "verbatim_token+chapter_route:ch04"}, {"md_atom_id": "md_ch04_a003", "md_file": "knowledge_base/chapters/ch04_general_assumptions.md", "md_atom_type": "HEADING", "md_parent_section": "§4 [Assumptions for Domain Models]", "md_verbatim": "## Overview", "score": 0.09, "match_basis": "verbatim_token+chapter_route:ch04"}, {"md_atom_id": "md_ch04_a004", "md_file": "knowledge_base/chapters/ch04_general_assumptions.md", "md_atom_type": "SENTENCE", "md_parent_section": "§4.0 [Overview]", "md_verbatim": "This section describes basic concepts, business rules, and assumptions that should be taken into consideration before applying the domain models.", "score": 0.09, "match_basis": "verbatim_token+chapter_route:ch04"}], "candidate_count": 5, "zero_candidate": false}
{"pdf_atom_id": "ig34_p0041_a024", "pdf_atom_type": "TABLE_ROW", "pdf_source": "SDTMIG_v3.4", "pdf_page": 41, "pdf_parent_section": "§4.4.3.1 [Duration]", "pdf_verbatim": "14 days 7 hours 57 minutes | P14DT7H57M", "figure_ref": null, "candidates": [{"md_atom_id": "md_ch04_a585", "md_file": "knowledge_base/chapters/ch04_general_assumptions.md", "md_atom_type": "TABLE_ROW", "md_parent_section": "§4.4.3.1 [Intervals of Time and Use of Duration]", "md_verbatim": "| 14 days 2 hours 57 minutes | P14DT2H57M |", "score": 0.7286, "match_basis": "verbatim_token+chapter_route:ch04"}, {"md_atom_id": "md_ch04_a588", "md_file": "knowledge_base/chapters/ch04_general_assumptions.md", "md_atom_type": "TABLE_ROW", "md_parent_section": "§4.4.3.1 [Intervals of Time and Use of Duration]", "md_verbatim": "| 5 days 12 1/4 hours | P5DT12.25H |", "score": 0.4304, "match_basis": "verbatim_token+chapter_route:ch04"}, {"md_atom_id": "md_ch04_a538", "md_file": "knowledge_base/chapters/ch04_general_assumptions.md", "md_atom_type": "TABLE_ROW", "md_parent_section": "§4.4.2 [Date/Time Precision]", "md_verbatim": "| 2 | December 15, 2003 ??:15 | Unknown hour with known minutes | 2003-12-15T--:15 |", "score": 0.4235, "match_basis": "verbatim_token+chapter_route:ch04"}, {"md_atom_id": "md_ch04_a542", "md_file": "knowledge_base/chapters/ch04_general_assumptions.md", "md_atom_type": "TABLE_ROW", "md_parent_section": "§4.4.2 [Date/Time Precision]", "md_verbatim": "| 6 | 7:15 of some unknown date | Unknown date with known hour and minute | -----T07:15 |", "score": 0.4161, "match_basis": "verbatim_token+chapter_route:ch04"}, {"md_atom_id": "md_ch04_a539", "md_file": "knowledge_base/chapters/ch04_general_assumptions.md", "md_atom_type": "TABLE_ROW", "md_parent_section": "§4.4.2 [Date/Time Precision]", "md_verbatim": "| 3 | December 15, 2003 13:??:17 | Unknown minutes with known date, hours, and seconds | 2003-12-15T13:--:17 |", "score": 0.4091, "match_basis": "verbatim_token+chapter_route:ch04"}], "candidate_count": 5, "zero_candidate": false}
{"pdf_atom_id": "ig34_p0041_a025", "pdf_atom_type": "CODE_LITERAL", "pdf_source": "SDTMIG_v3.4", "pdf_page": 41, "pdf_parent_section": "§4.4.3.1 [Duration]", "pdf_verbatim": "P14DT7H57M", "figure_ref": null, "candidates": [{"md_atom_id": "md_ch04_a585", "md_file": "knowledge_base/chapters/ch04_general_assumptions.md", "md_atom_type": "TABLE_ROW", "md_parent_section": "§4.4.3.1 [Intervals of Time and Use of Duration]", "md_verbatim": "| 14 days 2 hours 57 minutes | P14DT2H57M |", "score": 0.2329, "match_basis": "verbatim_token+chapter_route:ch04"}, {"md_atom_id": "md_ch04_a582", "md_file": "knowledge_base/chapters/ch04_general_assumptions.md", "md_atom_type": "TABLE_ROW", "md_parent_section": "§4.4.3.1 [Intervals of Time and Use of Duration]", "md_verbatim": "| 3 months 14 days | P3M14D |", "score": 0.1253, "match_basis": "verbatim_token+chapter_route:ch04"}, {"md_atom_id": "md_ch04_a001", "md_file": "knowledge_base/chapters/ch04_general_assumptions.md", "md_atom_type": "HEADING", "md_parent_section": "§4 [Assumptions for Domain Models]", "md_verbatim": "# SDTMIG v3.4 — Chapter 4: Assumptions for Domain Models", "score": 0.09, "match_basis": "verbatim_token+chapter_route:ch04"}, {"md_atom_id": "md_ch04_a002", "md_file": "knowledge_base/chapters/ch04_general_assumptions.md", "md_atom_type": "SENTENCE", "md_parent_section": "§4 [Assumptions for Domain Models]", "md_verbatim": "Source: SDTMIG v3.4, Section 4 (Pages 22-59)", "score": 0.09, "match_basis": "verbatim_token+chapter_route:ch04"}, {"md_atom_id": "md_ch04_a003", "md_file": "knowledge_base/chapters/ch04_general_assumptions.md", "md_atom_type": "HEADING", "md_parent_section": "§4 [Assumptions for Domain Models]", "md_verbatim": "## Overview", "score": 0.09, "match_basis": "verbatim_token+chapter_route:ch04"}], "candidate_count": 5, "zero_candidate": false}
{"pdf_atom_id": "ig34_p0041_a026", "pdf_atom_type": "TABLE_ROW", "pdf_source": "SDTMIG_v3.4", "pdf_page": 41, "pdf_parent_section": "§4.4.3.1 [Duration]", "pdf_verbatim": "42 minutes 18 seconds | PT42M18S", "figure_ref": null, "candidates": [{"md_atom_id": "md_ch04_a586", "md_file": "knowledge_base/chapters/ch04_general_assumptions.md", "md_atom_type": "TABLE_ROW", "md_parent_section": "§4.4.3.1 [Intervals of Time and Use of Duration]", "md_verbatim": "| 42 minutes 18 seconds | PT42M18S |", "score": 0.9, "match_basis": "verbatim_token+chapter_route:ch04"}, {"md_atom_id": "md_ch04_a522", "md_file": "knowledge_base/chapters/ch04_general_assumptions.md", "md_atom_type": "TABLE_ROW", "md_parent_section": "§4.4.2 [Date/Time Precision]", "md_verbatim": "| 4 | December 15, 2003 13 | Unknown minutes and seconds | 2003-12-15T13 |", "score": 0.4818, "match_basis": "verbatim_token+chapter_route:ch04"}, {"md_atom_id": "md_ch04_a539", "md_file": "knowledge_base/chapters/ch04_general_assumptions.md", "md_atom_type": "TABLE_ROW", "md_parent_section": "§4.4.2 [Date/Time Precision]", "md_verbatim": "| 3 | December 15, 2003 13:??:17 | Unknown minutes with known date, hours, and seconds | 2003-12-15T13:--:17 |", "score": 0.45, "match_basis": "verbatim_token+chapter_route:ch04"}, {"md_atom_id": "md_ch04_a585", "md_file": "knowledge_base/chapters/ch04_general_assumptions.md", "md_atom_type": "TABLE_ROW", "md_parent_section": "§4.4.3.1 [Intervals of Time and Use of Duration]", "md_verbatim": "| 14 days 2 hours 57 minutes | P14DT2H57M |", "score": 0.4034, "match_basis": "verbatim_token+chapter_route:ch04"}, {"md_atom_id": "md_ch04_a521", "md_file": "knowledge_base/chapters/ch04_general_assumptions.md", "md_atom_type": "TABLE_ROW", "md_parent_section": "§4.4.2 [Date/Time Precision]", "md_verbatim": "| 3 | December 15, 2003 13:14 | Unknown seconds | 2003-12-15T13:14 |", "score": 0.3937, "match_basis": "verbatim_token+chapter_route:ch04"}], "candidate_count": 5, "zero_candidate": false}
{"pdf_atom_id": "ig34_p0041_a027", "pdf_atom_type": "CODE_LITERAL", "pdf_source": "SDTMIG_v3.4", "pdf_page": 41, "pdf_parent_section": "§4.4.3.1 [Duration]", "pdf_verbatim": "PT42M18S", "figure_ref": null, "candidates": [{"md_atom_id": "md_ch04_a586", "md_file": "knowledge_base/chapters/ch04_general_assumptions.md", "md_atom_type": "TABLE_ROW", "md_parent_section": "§4.4.3.1 [Intervals of Time and Use of Duration]", "md_verbatim": "| 42 minutes 18 seconds | PT42M18S |", "score": 0.315, "match_basis": "verbatim_token+chapter_route:ch04"}, {"md_atom_id": "md_ch04_a001", "md_file": "knowledge_base/chapters/ch04_general_assumptions.md", "md_atom_type": "HEADING", "md_parent_section": "§4 [Assumptions for Domain Models]", "md_verbatim": "# SDTMIG v3.4 — Chapter 4: Assumptions for Domain Models", "score": 0.09, "match_basis": "verbatim_token+chapter_route:ch04"}, {"md_atom_id": "md_ch04_a002", "md_file": "knowledge_base/chapters/ch04_general_assumptions.md", "md_atom_type": "SENTENCE", "md_parent_section": "§4 [Assumptions for Domain Models]", "md_verbatim": "Source: SDTMIG v3.4, Section 4 (Pages 22-59)", "score": 0.09, "match_basis": "verbatim_token+chapter_route:ch04"}, {"md_atom_id": "md_ch04_a003", "md_file": "knowledge_base/chapters/ch04_general_assumptions.md", "md_atom_type": "HEADING", "md_parent_section": "§4 [Assumptions for Domain Models]", "md_verbatim": "## Overview", "score": 0.09, "match_basis": "verbatim_token+chapter_route:ch04"}, {"md_atom_id": "md_ch04_a004", "md_file": "knowledge_base/chapters/ch04_general_assumptions.md", "md_atom_type": "SENTENCE", "md_parent_section": "§4.0 [Overview]", "md_verbatim": "This section describes basic concepts, business rules, and assumptions that should be taken into consideration before applying the domain models.", "score": 0.09, "match_basis": "verbatim_token+chapter_route:ch04"}], "candidate_count": 5, "zero_candidate": false}
{"pdf_atom_id": "ig34_p0041_a028", "pdf_atom_type": "TABLE_ROW", "pdf_source": "SDTMIG_v3.4", "pdf_page": 41, "pdf_parent_section": "§4.4.3.1 [Duration]", "pdf_verbatim": "One-half hour | PT0.5H", "figure_ref": null, "candidates": [{"md_atom_id": "md_ch04_a587", "md_file": "knowledge_base/chapters/ch04_general_assumptions.md", "md_atom_type": "TABLE_ROW", "md_parent_section": "§4.4.3.1 [Intervals of Time and Use of Duration]", "md_verbatim": "| One-half hour | PT0.5H |", "score": 0.9, "match_basis": "verbatim_token+chapter_route:ch04"}, {"md_atom_id": "md_ch04_a588", "md_file": "knowledge_base/chapters/ch04_general_assumptions.md", "md_atom_type": "TABLE_ROW", "md_parent_section": "§4.4.3.1 [Intervals of Time and Use of Duration]", "md_verbatim": "| 5 days 12 1/4 hours | P5DT12.25H |", "score": 0.3857, "match_basis": "verbatim_token+chapter_route:ch04"}, {"md_atom_id": "md_ch04_a532", "md_file": "knowledge_base/chapters/ch04_general_assumptions.md", "md_atom_type": "TABLE_ROW", "md_parent_section": "§4.4.2 [Date/Time Precision]", "md_verbatim": "| 4 | Sometime in the first half of 2003 | 2003-01-01/2003-06-30 |", "score": 0.3667, "match_basis": "verbatim_token+chapter_route:ch04"}, {"md_atom_id": "md_ch04_a584", "md_file": "knowledge_base/chapters/ch04_general_assumptions.md", "md_atom_type": "TABLE_ROW", "md_parent_section": "§4.4.3.1 [Intervals of Time and Use of Duration]", "md_verbatim": "| 6 months 17 days 3 hours | P6M17DT3H |", "score": 0.36, "match_basis": "verbatim_token+chapter_route:ch04"}, {"md_atom_id": "md_ch04_a886", "md_file": "knowledge_base/chapters/ch04_general_assumptions.md", "md_atom_type": "TABLE_ROW", "md_parent_section": "§4.5.1.3 [Examples of Original and Standard Units and Test Not Done]", "md_verbatim": "| 3 | HR | | | | | | NOT DONE | | 1 | 2016-07-18 |", "score": 0.36, "match_basis": "verbatim_token+chapter_route:ch04"}], "candidate_count": 5, "zero_candidate": false}
{"pdf_atom_id": "ig34_p0041_a029", "pdf_atom_type": "CODE_LITERAL", "pdf_source": "SDTMIG_v3.4", "pdf_page": 41, "pdf_parent_section": "§4.4.3.1 [Duration]", "pdf_verbatim": "PT0.5H", "figure_ref": null, "candidates": [{"md_atom_id": "md_ch04_a587", "md_file": "knowledge_base/chapters/ch04_general_assumptions.md", "md_atom_type": "TABLE_ROW", "md_parent_section": "§4.4.3.1 [Intervals of Time and Use of Duration]", "md_verbatim": "| One-half hour | PT0.5H |", "score": 0.19, "match_basis": "verbatim_token+chapter_route:ch04"}, {"md_atom_id": "md_ch04_a001", "md_file": "knowledge_base/chapters/ch04_general_assumptions.md", "md_atom_type": "HEADING", "md_parent_section": "§4 [Assumptions for Domain Models]", "md_verbatim": "# SDTMIG v3.4 — Chapter 4: Assumptions for Domain Models", "score": 0.09, "match_basis": "verbatim_token+chapter_route:ch04"}, {"md_atom_id": "md_ch04_a002", "md_file": "knowledge_base/chapters/ch04_general_assumptions.md", "md_atom_type": "SENTENCE", "md_parent_section": "§4 [Assumptions for Domain Models]", "md_verbatim": "Source: SDTMIG v3.4, Section 4 (Pages 22-59)", "score": 0.09, "match_basis": "verbatim_token+chapter_route:ch04"}, {"md_atom_id": "md_ch04_a003", "md_file": "knowledge_base/chapters/ch04_general_assumptions.md", "md_atom_type": "HEADING", "md_parent_section": "§4 [Assumptions for Domain Models]", "md_verbatim": "## Overview", "score": 0.09, "match_basis": "verbatim_token+chapter_route:ch04"}, {"md_atom_id": "md_ch04_a004", "md_file": "knowledge_base/chapters/ch04_general_assumptions.md", "md_atom_type": "SENTENCE", "md_parent_section": "§4.0 [Overview]", "md_verbatim": "This section describes basic concepts, business rules, and assumptions that should be taken into consideration before applying the domain models.", "score": 0.09, "match_basis": "verbatim_token+chapter_route:ch04"}, {"md_atom_id": "md_ch04_a005", "md_file": "knowledge_base/chapters/ch04_general_assumptions.md", "md_atom_type": "SENTENCE", "md_parent_section": "§4.0 [Overview]", "md_verbatim": "It covers general domain assumptions, general variable assumptions, coding and controlled terminology assumptions, actual and relative time assumptions, and other assumptions.", "score": 0.09, "match_basis": "verbatim_token+chapter_route:ch04"}, {"md_atom_id": "md_ch04_a006", "md_file": "knowledge_base/chapters/ch04_general_assumptions.md", "md_atom_type": "HEADING", "md_parent_section": "§4 [Assumptions for Domain Models]", "md_verbatim": "## 4.1 General Domain Assumptions", "score": 0.09, "match_basis": "verbatim_token+chapter_route:ch04"}, {"md_atom_id": "md_ch04_a007", "md_file": "knowledge_base/chapters/ch04_general_assumptions.md", "md_atom_type": "HEADING", "md_parent_section": "§4.1 [General Domain Assumptions]", "md_verbatim": "### 4.1.1 Review Study Data Tabulation Model and Implementation Guide", "score": 0.09, "match_basis": "verbatim_token+chapter_route:ch04"}, {"md_atom_id": "md_ch04_a008", "md_file": "knowledge_base/chapters/ch04_general_assumptions.md", "md_atom_type": "SENTENCE", "md_parent_section": "§4.1.1 [Review Study Data Tabulation Model and Implementation Guide]", "md_verbatim": "Review the SDTM as well as this complete implementation guide before attempting to use any of the individual domain models.", "score": 0.09, "match_basis": "verbatim_token+chapter_route:ch04"}, {"md_atom_id": "md_ch04_a009", "md_file": "knowledge_base/chapters/ch04_general_assumptions.md", "md_atom_type": "SENTENCE", "md_parent_section": "§4.1.1 [Review Study Data Tabulation Model and Implementation Guide]", "md_verbatim": "The SDTM describes the general conceptual framework, including the general observation classes (Interventions, Events, Findings), special-purpose domains, trial design model datasets, relationship datasets, and study references.", "score": 0.09, "match_basis": "verbatim_token+chapter_route:ch04"}], "candidate_count": 10, "zero_candidate": false}
{"pdf_atom_id": "ig34_p0041_a030", "pdf_atom_type": "TABLE_ROW", "pdf_source": "SDTMIG_v3.4", "pdf_page": 41, "pdf_parent_section": "§4.4.3.1 [Duration]", "pdf_verbatim": "5 days 12¼ hours | P5DT12.25H", "figure_ref": null, "candidates": [{"md_atom_id": "md_ch04_a588", "md_file": "knowledge_base/chapters/ch04_general_assumptions.md", "md_atom_type": "TABLE_ROW", "md_parent_section": "§4.4.3.1 [Intervals of Time and Use of Duration]", "md_verbatim": "| 5 days 12 1/4 hours | P5DT12.25H |", "score": 0.9, "match_basis": "verbatim_token+chapter_route:ch04"}, {"md_atom_id": "md_ch04_a584", "md_file": "knowledge_base/chapters/ch04_general_assumptions.md", "md_atom_type": "TABLE_ROW", "md_parent_section": "§4.4.3.1 [Intervals of Time and Use of Duration]", "md_verbatim": "| 6 months 17 days 3 hours | P6M17DT3H |", "score": 0.4429, "match_basis": "verbatim_token+chapter_route:ch04"}, {"md_atom_id": "md_ch04_a585", "md_file": "knowledge_base/chapters/ch04_general_assumptions.md", "md_atom_type": "TABLE_ROW", "md_parent_section": "§4.4.3.1 [Intervals of Time and Use of Duration]", "md_verbatim": "| 14 days 2 hours 57 minutes | P14DT2H57M |", "score": 0.4304, "match_basis": "verbatim_token+chapter_route:ch04"}, {"md_atom_id": "md_ch04_a583", "md_file": "knowledge_base/chapters/ch04_general_assumptions.md", "md_atom_type": "TABLE_ROW", "md_parent_section": "§4.4.3.1 [Intervals of Time and Use of Duration]", "md_verbatim": "| 3 days | P3D |", "score": 0.4091, "match_basis": "verbatim_token+chapter_route:ch04"}, {"md_atom_id": "md_ch04_a587", "md_file": "knowledge_base/chapters/ch04_general_assumptions.md", "md_atom_type": "TABLE_ROW", "md_parent_section": "§4.4.3.1 [Intervals of Time and Use of Duration]", "md_verbatim": "| One-half hour | PT0.5H |", "score": 0.3857, "match_basis": "verbatim_token+chapter_route:ch04"}], "candidate_count": 5, "zero_candidate": false}
{"pdf_atom_id": "ig34_p0041_a031", "pdf_atom_type": "CODE_LITERAL", "pdf_source": "SDTMIG_v3.4", "pdf_page": 41, "pdf_parent_section": "§4.4.3.1 [Duration]", "pdf_verbatim": "P5DT12.25H", "figure_ref": null, "candidates": [{"md_atom_id": "md_ch04_a588", "md_file": "knowledge_base/chapters/ch04_general_assumptions.md", "md_atom_type": "TABLE_ROW", "md_parent_section": "§4.4.3.1 [Intervals of Time and Use of Duration]", "md_verbatim": "| 5 days 12 1/4 hours | P5DT12.25H |", "score": 0.39, "match_basis": "verbatim_token+chapter_route:ch04"}, {"md_atom_id": "md_ch04_a724", "md_file": "knowledge_base/chapters/ch04_general_assumptions.md", "md_atom_type": "TABLE_ROW", "md_parent_section": "§4.4.10 [Representing Time Points]", "md_verbatim": "| 2 | 0-12 HOURS | PT12H | DOSE ADMINISTRATION | 2006-08-01T08:00 | 2006-08-01T20:35 |", "score": 0.1094, "match_basis": "verbatim_token+chapter_route:ch04"}, {"md_atom_id": "md_ch04_a001", "md_file": "knowledge_base/chapters/ch04_general_assumptions.md", "md_atom_type": "HEADING", "md_parent_section": "§4 [Assumptions for Domain Models]", "md_verbatim": "# SDTMIG v3.4 — Chapter 4: Assumptions for Domain Models", "score": 0.09, "match_basis": "verbatim_token+chapter_route:ch04"}, {"md_atom_id": "md_ch04_a002", "md_file": "knowledge_base/chapters/ch04_general_assumptions.md", "md_atom_type": "SENTENCE", "md_parent_section": "§4 [Assumptions for Domain Models]", "md_verbatim": "Source: SDTMIG v3.4, Section 4 (Pages 22-59)", "score": 0.09, "match_basis": "verbatim_token+chapter_route:ch04"}, {"md_atom_id": "md_ch04_a003", "md_file": "knowledge_base/chapters/ch04_general_assumptions.md", "md_atom_type": "HEADING", "md_parent_section": "§4 [Assumptions for Domain Models]", "md_verbatim": "## Overview", "score": 0.09, "match_basis": "verbatim_token+chapter_route:ch04"}, {"md_atom_id": "md_ch04_a004", "md_file": "knowledge_base/chapters/ch04_general_assumptions.md", "md_atom_type": "SENTENCE", "md_parent_section": "§4.0 [Overview]", "md_verbatim": "This section describes basic concepts, business rules, and assumptions that should be taken into consideration before applying the domain models.", "score": 0.09, "match_basis": "verbatim_token+chapter_route:ch04"}, {"md_atom_id": "md_ch04_a005", "md_file": "knowledge_base/chapters/ch04_general_assumptions.md", "md_atom_type": "SENTENCE", "md_parent_section": "§4.0 [Overview]", "md_verbatim": "It covers general domain assumptions, general variable assumptions, coding and controlled terminology assumptions, actual and relative time assumptions, and other assumptions.", "score": 0.09, "match_basis": "verbatim_token+chapter_route:ch04"}, {"md_atom_id": "md_ch04_a006", "md_file": "knowledge_base/chapters/ch04_general_assumptions.md", "md_atom_type": "HEADING", "md_parent_section": "§4 [Assumptions for Domain Models]", "md_verbatim": "## 4.1 General Domain Assumptions", "score": 0.09, "match_basis": "verbatim_token+chapter_route:ch04"}, {"md_atom_id": "md_ch04_a007", "md_file": "knowledge_base/chapters/ch04_general_assumptions.md", "md_atom_type": "HEADING", "md_parent_section": "§4.1 [General Domain Assumptions]", "md_verbatim": "### 4.1.1 Review Study Data Tabulation Model and Implementation Guide", "score": 0.09, "match_basis": "verbatim_token+chapter_route:ch04"}, {"md_atom_id": "md_ch04_a008", "md_file": "knowledge_base/chapters/ch04_general_assumptions.md", "md_atom_type": "SENTENCE", "md_parent_section": "§4.1.1 [Review Study Data Tabulation Model and Implementation Guide]", "md_verbatim": "Review the SDTM as well as this complete implementation guide before attempting to use any of the individual domain models.", "score": 0.09, "match_basis": "verbatim_token+chapter_route:ch04"}], "candidate_count": 10, "zero_candidate": false}
