{"pdf_atom_id": "ig34_p0356_a007", "pdf_atom_type": "TABLE_ROW", "pdf_source": "SDTMIG_v3.4", "pdf_page": 356, "pdf_parent_section": "§6.3.12.3 Tumor Identification/Tumor Results Examples", "pdf_verbatim": "| 2 | ABC | TR | | TRLNKID | | MANY | 1 |", "figure_ref": null, "candidates": [{"md_atom_id": "md_dmTR_ex_a047", "md_file": "knowledge_base/domains/TR/examples.md", "md_atom_type": "TABLE_ROW", "md_parent_section": "§TR.1 [Example 2 (continued from TU)]", "md_verbatim": "| 2 | ABC | TR | | TRLNKID | | MANY | 1 |", "score": 0.9, "match_basis": "verbatim_token+global_search"}, {"md_atom_id": "md_dmEX_ex_a065", "md_file": "knowledge_base/domains/EX/examples.md", "md_atom_type": "TABLE_ROW", "md_parent_section": "§EX.2 [Example 2]", "md_verbatim": "| 1 | ABC | EC | | ECLNKID | | MANY | 1 |", "score": 0.66, "match_basis": "verbatim_token+global_search"}, {"md_atom_id": "md_ch08_a119", "md_file": "knowledge_base/chapters/ch08_relationships.md", "md_atom_type": "TABLE_ROW", "md_parent_section": "§8.3.1 [RELREC Dataset Relationship Example]", "md_verbatim": "| 2 | EFC1234 | TR | | TRLNKID | | MANY | 1 |", "score": 0.6231, "match_basis": "verbatim_token+global_search"}, {"md_atom_id": "md_dmRELREC_ex_a039", "md_file": "knowledge_base/domains/RELREC/examples.md", "md_atom_type": "TABLE_ROW", "md_parent_section": "§RELREC.2.1 [Example 1]", "md_verbatim": "| 2 | EFC1234 | TR | | TRLNKID | | MANY | 1 |", "score": 0.6231, "match_basis": "verbatim_token+global_search"}, {"md_atom_id": "md_dmNV_ex_a036", "md_file": "knowledge_base/domains/NV/examples.md", "md_atom_type": "TABLE_ROW", "md_parent_section": "§NV.1 [Example 1]", "md_verbatim": "| 4 | ABC123 | NV | | NVLNKID | | MANY | 7 |", "score": 0.5769, "match_basis": "verbatim_token+global_search"}], "candidate_count": 5, "zero_candidate": false}
{"pdf_atom_id": "ig34_p0356_a008", "pdf_atom_type": "HEADING", "pdf_source": "SDTMIG_v3.4", "pdf_page": 356, "pdf_parent_section": "§6.3.12.3 Tumor Identification/Tumor Results Examples", "pdf_verbatim": "Example 3", "figure_ref": null, "candidates": [{"md_atom_id": "md_dmCM_ex_a002", "md_file": "knowledge_base/domains/CM/examples.md", "md_atom_type": "HEADING", "md_parent_section": "§CM.1 [Example 1]", "md_verbatim": "## Example 1", "score": 0.9, "match_basis": "verbatim_token+global_search"}, {"md_atom_id": "md_dmCM_ex_a022", "md_file": "knowledge_base/domains/CM/examples.md", "md_atom_type": "HEADING", "md_parent_section": "§CM.2 [Example 2]", "md_verbatim": "## Example 2", "score": 0.9, "match_basis": "verbatim_token+global_search"}, {"md_atom_id": "md_dmCM_ex_a029", "md_file": "knowledge_base/domains/CM/examples.md", "md_atom_type": "HEADING", "md_parent_section": "§CM.3 [Example 3]", "md_verbatim": "## Example 3", "score": 0.9, "match_basis": "verbatim_token+global_search"}, {"md_atom_id": "md_dmCM_ex_a047", "md_file": "knowledge_base/domains/CM/examples.md", "md_atom_type": "HEADING", "md_parent_section": "§CM.4 [Example 4]", "md_verbatim": "## Example 4", "score": 0.9, "match_basis": "verbatim_token+global_search"}, {"md_atom_id": "md_dmCM_ex_a060", "md_file": "knowledge_base/domains/CM/examples.md", "md_atom_type": "HEADING", "md_parent_section": "§CM.5 [Example 5]", "md_verbatim": "## Example 5", "score": 0.9, "match_basis": "verbatim_token+global_search"}, {"md_atom_id": "md_ch08_a292", "md_file": "knowledge_base/chapters/ch08_relationships.md", "md_atom_type": "HEADING", "md_parent_section": "§8.7 [Related Subjects (RELSUB)]", "md_verbatim": "### Example", "score": 0.9, "match_basis": "verbatim_token+global_search"}, {"md_atom_id": "md_ch08_a331", "md_file": "knowledge_base/chapters/ch08_relationships.md", "md_atom_type": "HEADING", "md_parent_section": "§8.8 [Related Specimens (RELSPEC)]", "md_verbatim": "### Example", "score": 0.9, "match_basis": "verbatim_token+global_search"}, {"md_atom_id": "md_dmAE_ex_a002", "md_file": "knowledge_base/domains/AE/examples.md", "md_atom_type": "HEADING", "md_parent_section": "§AE.1 [Example 1]", "md_verbatim": "## Example 1", "score": 0.9, "match_basis": "verbatim_token+global_search"}, {"md_atom_id": "md_dmAE_ex_a020", "md_file": "knowledge_base/domains/AE/examples.md", "md_atom_type": "HEADING", "md_parent_section": "§AE.2 [Example 2]", "md_verbatim": "## Example 2", "score": 0.9, "match_basis": "verbatim_token+global_search"}, {"md_atom_id": "md_dmAE_ex_a035", "md_file": "knowledge_base/domains/AE/examples.md", "md_atom_type": "HEADING", "md_parent_section": "§AE.3 [Example 3]", "md_verbatim": "## Example 3", "score": 0.9, "match_basis": "verbatim_token+global_search"}], "candidate_count": 10, "zero_candidate": false}
{"pdf_atom_id": "ig34_p0356_a009", "pdf_atom_type": "SENTENCE", "pdf_source": "SDTMIG_v3.4", "pdf_page": 356, "pdf_parent_section": "§6.3.12.3 Tumor Identification/Tumor Results Examples", "pdf_verbatim": "This is an example of tumors identified and tracked following RECIST 1.1 criteria, with an additional opinion provided by an independent assessor.", "figure_ref": null, "candidates": [{"md_atom_id": "md_dmTU_ex_a051", "md_file": "knowledge_base/domains/TU/examples.md", "md_atom_type": "SENTENCE", "md_parent_section": "§TU.3 [Example 3]", "md_verbatim": "This is an example of tumors identified and tracked following RECIST 1.1 criteria, with an additional opinion provided by an independent assessor.", "score": 0.9, "match_basis": "verbatim_token+global_search"}, {"md_atom_id": "md_dmTU_ex_a028", "md_file": "knowledge_base/domains/TU/examples.md", "md_atom_type": "SENTENCE", "md_parent_section": "§TU.2 [Example 2]", "md_verbatim": "This is an example of tumors identified and tracked using RECIST 1.1 criteria.", "score": 0.588, "match_basis": "verbatim_token+global_search"}, {"md_atom_id": "md_dmTU_assn_a004", "md_file": "knowledge_base/domains/TU/assumptions.md", "md_atom_type": "SENTENCE", "md_parent_section": "§TU [TU — Assumptions]", "md_verbatim": "Commonly, tumors/lesions/locations of interest are identified by an investigator and/or independent assessor and classified according to the disease assessment criteria.", "score": 0.4686, "match_basis": "verbatim_token+global_search"}, {"md_atom_id": "md_dmTU_assn_a005", "md_file": "knowledge_base/domains/TU/assumptions.md", "md_atom_type": "SENTENCE", "md_parent_section": "§TU [TU — Assumptions]", "md_verbatim": "For example, an oncology study using RECIST criteria would identify target, non-target, and new tumors.", "score": 0.4642, "match_basis": "verbatim_token+global_search"}, {"md_atom_id": "md_dmRS_ex_a019", "md_file": "knowledge_base/domains/RS/examples.md", "md_atom_type": "SENTENCE", "md_parent_section": "§RS.1.2 [Example 2]", "md_verbatim": "**Rows 1-4:** Show the target response, non-target response, and the overall response by the independent assessor Radiologist 1 using RECIST 1.1 at the week 6 visit. At this week 6 visit, an equivocal new lesion was identified.", "score": 0.4438, "match_basis": "verbatim_token+global_search"}], "candidate_count": 5, "zero_candidate": false}
{"pdf_atom_id": "ig34_p0356_a010", "pdf_atom_type": "SENTENCE", "pdf_source": "SDTMIG_v3.4", "pdf_page": 356, "pdf_parent_section": "§6.3.12.3 Tumor Identification/Tumor Results Examples", "pdf_verbatim": "TU shows the target and non-target tumors identified by a radiologist at a screening visit. It also shows that the radiologist identified 2 new tumors: 1 at the week 6 visit and 1 at the week 12 visit.", "figure_ref": null, "candidates": [{"md_atom_id": "md_dmTU_ex_a052", "md_file": "knowledge_base/domains/TU/examples.md", "md_atom_type": "SENTENCE", "md_parent_section": "§TU.3 [Example 3]", "md_verbatim": "TU shows the target and non-target tumors identified by a radiologist at a screening visit.", "score": 0.8125, "match_basis": "verbatim_token+global_search"}, {"md_atom_id": "md_dmTU_ex_a053", "md_file": "knowledge_base/domains/TU/examples.md", "md_atom_type": "SENTENCE", "md_parent_section": "§TU.3 [Example 3]", "md_verbatim": "It also shows that the radiologist identified 2 new tumors: 1 at the week 6 visit and 1 at the week 12 visit.", "score": 0.75, "match_basis": "verbatim_token+global_search"}, {"md_atom_id": "md_dmTU_ex_a029", "md_file": "knowledge_base/domains/TU/examples.md", "md_atom_type": "SENTENCE", "md_parent_section": "§TU.2 [Example 2]", "md_verbatim": "TU shows the target and non-target tumors identified by an investigator at a screening visit and also shows that the investigator determined at the week 6 visit that 1 of the previously identified tumors had split.", "score": 0.5923, "match_basis": "verbatim_token+global_search"}, {"md_atom_id": "md_dmTU_ex_a054", "md_file": "knowledge_base/domains/TU/examples.md", "md_atom_type": "NOTE", "md_parent_section": "§TU.3 [Example 3]", "md_verbatim": "**Rows 1-5:** Show the target and non-target tumors identified at screening by the independent assessor, Radiologist 1.", "score": 0.5838, "match_basis": "verbatim_token+global_search"}, {"md_atom_id": "md_dmTU_assn_a018", "md_file": "knowledge_base/domains/TU/assumptions.md", "md_atom_type": "SENTENCE", "md_parent_section": "§TU [TU — Assumptions]", "md_verbatim": "Example target tumor T04, identified at the screening visit, splits into 2 at week 16.", "score": 0.58, "match_basis": "verbatim_token+global_search"}], "candidate_count": 5, "zero_candidate": false}
{"pdf_atom_id": "ig34_p0356_a011", "pdf_atom_type": "LIST_ITEM", "pdf_source": "SDTMIG_v3.4", "pdf_page": 356, "pdf_parent_section": "§6.3.12.3 Tumor Identification/Tumor Results Examples", "pdf_verbatim": "Rows 1-5:    Show the target and non-target tumors identified at screening by the independent assessor, Radiologist 1.", "figure_ref": null, "candidates": [{"md_atom_id": "md_dmTU_ex_a054", "md_file": "knowledge_base/domains/TU/examples.md", "md_atom_type": "NOTE", "md_parent_section": "§TU.3 [Example 3]", "md_verbatim": "**Rows 1-5:** Show the target and non-target tumors identified at screening by the independent assessor, Radiologist 1.", "score": 0.75, "match_basis": "verbatim_token+global_search"}, {"md_atom_id": "md_dmTU_ex_a052", "md_file": "knowledge_base/domains/TU/examples.md", "md_atom_type": "SENTENCE", "md_parent_section": "§TU.3 [Example 3]", "md_verbatim": "TU shows the target and non-target tumors identified by a radiologist at a screening visit.", "score": 0.6322, "match_basis": "verbatim_token+global_search"}, {"md_atom_id": "md_dmTR_ex_a050", "md_file": "knowledge_base/domains/TR/examples.md", "md_atom_type": "NOTE", "md_parent_section": "§TR.2 [Example 3 (continued from TU)]", "md_verbatim": "**Rows 1-7:** Show the measurements of the target tumors and other assessments of the target and non-target tumors at the screening visit by the independent assessor, Radiologist 1.", "score": 0.553, "match_basis": "verbatim_token+global_search"}, {"md_atom_id": "md_dmTU_ex_a055", "md_file": "knowledge_base/domains/TU/examples.md", "md_atom_type": "NOTE", "md_parent_section": "§TU.3 [Example 3]", "md_verbatim": "**Row 6:** Shows that a new tumor was identified at week 6 by the independent assessor, Radiologist 1.", "score": 0.5395, "match_basis": "verbatim_token+global_search"}, {"md_atom_id": "md_dmTU_ex_a056", "md_file": "knowledge_base/domains/TU/examples.md", "md_atom_type": "NOTE", "md_parent_section": "§TU.3 [Example 3]", "md_verbatim": "**Row 7:** Shows that another new tumor was identified at week 12 by the independent assessor, Radiologist 1.", "score": 0.5139, "match_basis": "verbatim_token+global_search"}], "candidate_count": 5, "zero_candidate": false}
{"pdf_atom_id": "ig34_p0356_a012", "pdf_atom_type": "LIST_ITEM", "pdf_source": "SDTMIG_v3.4", "pdf_page": 356, "pdf_parent_section": "§6.3.12.3 Tumor Identification/Tumor Results Examples", "pdf_verbatim": "Row 6:    Shows that a new tumor was identified at week 6 by the independent assessor, Radiologist 1.", "figure_ref": null, "candidates": [{"md_atom_id": "md_dmTU_ex_a055", "md_file": "knowledge_base/domains/TU/examples.md", "md_atom_type": "NOTE", "md_parent_section": "§TU.3 [Example 3]", "md_verbatim": "**Row 6:** Shows that a new tumor was identified at week 6 by the independent assessor, Radiologist 1.", "score": 0.75, "match_basis": "verbatim_token+global_search"}, {"md_atom_id": "md_dmTU_ex_a056", "md_file": "knowledge_base/domains/TU/examples.md", "md_atom_type": "NOTE", "md_parent_section": "§TU.3 [Example 3]", "md_verbatim": "**Row 7:** Shows that another new tumor was identified at week 12 by the independent assessor, Radiologist 1.", "score": 0.6989, "match_basis": "verbatim_token+global_search"}, {"md_atom_id": "md_dmTU_ex_a053", "md_file": "knowledge_base/domains/TU/examples.md", "md_atom_type": "SENTENCE", "md_parent_section": "§TU.3 [Example 3]", "md_verbatim": "It also shows that the radiologist identified 2 new tumors: 1 at the week 6 visit and 1 at the week 12 visit.", "score": 0.558, "match_basis": "verbatim_token+global_search"}, {"md_atom_id": "md_dmTU_ex_a054", "md_file": "knowledge_base/domains/TU/examples.md", "md_atom_type": "NOTE", "md_parent_section": "§TU.3 [Example 3]", "md_verbatim": "**Rows 1-5:** Show the target and non-target tumors identified at screening by the independent assessor, Radiologist 1.", "score": 0.5395, "match_basis": "verbatim_token+global_search"}, {"md_atom_id": "md_dmRS_ex_a019", "md_file": "knowledge_base/domains/RS/examples.md", "md_atom_type": "SENTENCE", "md_parent_section": "§RS.1.2 [Example 2]", "md_verbatim": "**Rows 1-4:** Show the target response, non-target response, and the overall response by the independent assessor Radiologist 1 using RECIST 1.1 at the week 6 visit. At this week 6 visit, an equivocal new lesion was identified.", "score": 0.488, "match_basis": "verbatim_token+global_search"}], "candidate_count": 5, "zero_candidate": false}
{"pdf_atom_id": "ig34_p0356_a013", "pdf_atom_type": "LIST_ITEM", "pdf_source": "SDTMIG_v3.4", "pdf_page": 356, "pdf_parent_section": "§6.3.12.3 Tumor Identification/Tumor Results Examples", "pdf_verbatim": "Row 7:    Shows that another new tumor was identified at week 12 by the independent assessor, Radiologist 1.", "figure_ref": null, "candidates": [{"md_atom_id": "md_dmTU_ex_a056", "md_file": "knowledge_base/domains/TU/examples.md", "md_atom_type": "NOTE", "md_parent_section": "§TU.3 [Example 3]", "md_verbatim": "**Row 7:** Shows that another new tumor was identified at week 12 by the independent assessor, Radiologist 1.", "score": 0.75, "match_basis": "verbatim_token+global_search"}, {"md_atom_id": "md_dmTU_ex_a055", "md_file": "knowledge_base/domains/TU/examples.md", "md_atom_type": "NOTE", "md_parent_section": "§TU.3 [Example 3]", "md_verbatim": "**Row 6:** Shows that a new tumor was identified at week 6 by the independent assessor, Radiologist 1.", "score": 0.6989, "match_basis": "verbatim_token+global_search"}, {"md_atom_id": "md_dmTU_ex_a053", "md_file": "knowledge_base/domains/TU/examples.md", "md_atom_type": "SENTENCE", "md_parent_section": "§TU.3 [Example 3]", "md_verbatim": "It also shows that the radiologist identified 2 new tumors: 1 at the week 6 visit and 1 at the week 12 visit.", "score": 0.5322, "match_basis": "verbatim_token+global_search"}, {"md_atom_id": "md_dmTU_ex_a054", "md_file": "knowledge_base/domains/TU/examples.md", "md_atom_type": "NOTE", "md_parent_section": "§TU.3 [Example 3]", "md_verbatim": "**Rows 1-5:** Show the target and non-target tumors identified at screening by the independent assessor, Radiologist 1.", "score": 0.5139, "match_basis": "verbatim_token+global_search"}, {"md_atom_id": "md_dmRS_ex_a019", "md_file": "knowledge_base/domains/RS/examples.md", "md_atom_type": "SENTENCE", "md_parent_section": "§RS.1.2 [Example 2]", "md_verbatim": "**Rows 1-4:** Show the target response, non-target response, and the overall response by the independent assessor Radiologist 1 using RECIST 1.1 at the week 6 visit. At this week 6 visit, an equivocal new lesion was identified.", "score": 0.4751, "match_basis": "verbatim_token+global_search"}], "candidate_count": 5, "zero_candidate": false}
{"pdf_atom_id": "ig34_p0356_a014", "pdf_atom_type": "HEADING", "pdf_source": "SDTMIG_v3.4", "pdf_page": 356, "pdf_parent_section": "§6.3.12.3 Tumor Identification/Tumor Results Examples", "pdf_verbatim": "tu.xpt", "figure_ref": null, "candidates": [{"md_atom_id": "md_model01_a001", "md_file": "knowledge_base/model/01_concepts_and_terms.md", "md_atom_type": "HEADING", "md_parent_section": "§2 [SDTM v2.0 — Chapter 2: Model Concepts and Terms]", "md_verbatim": "# SDTM v2.0 — Chapter 2: Model Concepts and Terms", "score": 0.3, "match_basis": "verbatim_token+global_search"}, {"md_atom_id": "md_model01_a003", "md_file": "knowledge_base/model/01_concepts_and_terms.md", "md_atom_type": "HEADING", "md_parent_section": "§2.1 [Model Concepts and Terms — Variables]", "md_verbatim": "## 2.1 Model Concepts and Terms — Variables", "score": 0.3, "match_basis": "verbatim_token+global_search"}, {"md_atom_id": "md_model01_a012", "md_file": "knowledge_base/model/01_concepts_and_terms.md", "md_atom_type": "HEADING", "md_parent_section": "§2.1 [Model Concepts and Terms — Variables]", "md_verbatim": "### Concept Map: Relationships Between SDTM Domains", "score": 0.3, "match_basis": "verbatim_token+global_search"}, {"md_atom_id": "md_model01_a015", "md_file": "knowledge_base/model/01_concepts_and_terms.md", "md_atom_type": "HEADING", "md_parent_section": "§2.1 [Model Concepts and Terms — Variables]", "md_verbatim": "### Variable Roles", "score": 0.3, "match_basis": "verbatim_token+global_search"}, {"md_atom_id": "md_model01_a032", "md_file": "knowledge_base/model/01_concepts_and_terms.md", "md_atom_type": "HEADING", "md_parent_section": "§2.1 [Model Concepts and Terms — Variables]", "md_verbatim": "### Qualifier Variable Subclasses", "score": 0.3, "match_basis": "verbatim_token+global_search"}, {"md_atom_id": "md_model01_a040", "md_file": "knowledge_base/model/01_concepts_and_terms.md", "md_atom_type": "HEADING", "md_parent_section": "§2.1 [Model Concepts and Terms — Variables]", "md_verbatim": "### Domain Codes", "score": 0.3, "match_basis": "verbatim_token+global_search"}, {"md_atom_id": "md_model01_a058", "md_file": "knowledge_base/model/01_concepts_and_terms.md", "md_atom_type": "HEADING", "md_parent_section": "§2.2 [Table Structure]", "md_verbatim": "## 2.2 Table Structure", "score": 0.3, "match_basis": "verbatim_token+global_search"}, {"md_atom_id": "md_model04_a001", "md_file": "knowledge_base/model/04_associated_persons.md", "md_atom_type": "HEADING", "md_parent_section": "§4 [SDTM v2.0 — Chapter 4: Associated Persons Data]", "md_verbatim": "# SDTM v2.0 — Chapter 4: Associated Persons Data", "score": 0.3, "match_basis": "verbatim_token+global_search"}, {"md_atom_id": "md_model04_a003", "md_file": "knowledge_base/model/04_associated_persons.md", "md_atom_type": "HEADING", "md_parent_section": "§4 [SDTM v2.0 — Chapter 4: Associated Persons Data]", "md_verbatim": "## Overview", "score": 0.3, "match_basis": "verbatim_token+global_search"}, {"md_atom_id": "md_model04_a007", "md_file": "knowledge_base/model/04_associated_persons.md", "md_atom_type": "HEADING", "md_parent_section": "§4 [SDTM v2.0 — Chapter 4: Associated Persons Data]", "md_verbatim": "### AP Domain Rules", "score": 0.3, "match_basis": "verbatim_token+global_search"}], "candidate_count": 10, "zero_candidate": false}
{"pdf_atom_id": "ig34_p0356_a015", "pdf_atom_type": "TABLE_HEADER", "pdf_source": "SDTMIG_v3.4", "pdf_page": 356, "pdf_parent_section": "§6.3.12.3 Tumor Identification/Tumor Results Examples", "pdf_verbatim": "| Row | STUDYID | DOMAIN | USUBJID | TUSEQ | TULNKID | TUTESTCD | TUTEST | TUORRES | TUSTRESC | TULOC | TULAT | TUMETHOD | TUNAM | TUEVAL | TUEVALID | VISITNUM | VISIT | TUDTC | TUDY |", "figure_ref": null, "candidates": [{"md_atom_id": "md_dmTU_ex_a058", "md_file": "knowledge_base/domains/TU/examples.md", "md_atom_type": "TABLE_HEADER", "md_parent_section": "§TU.3 [Example 3]", "md_verbatim": "| Row | STUDYID | DOMAIN | USUBJID | TUSEQ | TULNKID | TUTESTCD | TUTEST | TUORRES | TUSTRESC | TULOC | TULAT | TUMETHOD | TUNAM | TUEVAL | TUEVALID | VISITNUM | VISIT | TUDTC |", "score": 0.9, "match_basis": "verbatim_token+global_search"}, {"md_atom_id": "md_dmTU_ex_a013", "md_file": "knowledge_base/domains/TU/examples.md", "md_atom_type": "TABLE_HEADER", "md_parent_section": "§TU.1 [Example 1]", "md_verbatim": "| Row | STUDYID | DOMAIN | USUBJID | TUSEQ | TULNKID | TUTESTCD | TUTEST | TUORRES | TUSTRESC | TULOC | TULAT | TUMETHOD | TUEVAL | VISITNUM | VISIT | TUDTC |", "score": 0.8538, "match_basis": "verbatim_token+global_search"}, {"md_atom_id": "md_dmTU_ex_a033", "md_file": "knowledge_base/domains/TU/examples.md", "md_atom_type": "TABLE_HEADER", "md_parent_section": "§TU.2 [Example 2]", "md_verbatim": "| Row | STUDYID | DOMAIN | USUBJID | TUSEQ | TUGRPID | TULNKID | TUTESTCD | TUTEST | TUORRES | TUSTRESC | TULOC | TULAT | TUMETHOD | TUEVAL | VISITNUM | VISIT | TUDTC | TUDY |", "score": 0.8143, "match_basis": "verbatim_token+global_search"}, {"md_atom_id": "md_dmTR_ex_a054", "md_file": "knowledge_base/domains/TR/examples.md", "md_atom_type": "TABLE_HEADER", "md_parent_section": "§TR.2 [Example 3 (continued from TU)]", "md_verbatim": "| Row | STUDYID | DOMAIN | USUBJID | TRSEQ | TRGRPID | TRLNKGRP | TRLNKID | TRTESTCD | TRTEST | TRORRES | TRORRESU | TRSTRESC | TRSTRESN | TRSTRESU | TRMETHOD | TRNAM | TREVAL | TREVALID | VISITNUM | VISIT | TRDTC | TRDY |", "score": 0.5967, "match_basis": "verbatim_token+global_search"}, {"md_atom_id": "md_dmOE_ex_a049", "md_file": "knowledge_base/domains/OE/examples.md", "md_atom_type": "TABLE_HEADER", "md_parent_section": "§OE.3 [Example 3]", "md_verbatim": "| Row | STUDYID | DOMAIN | USUBJID | FOCID | OESEQ | OELNKID | OETESTCD | OETEST | OEORRES | OEORRESU | OESTRESC | OESTRESN | OESTRESU | OELOC | OELAT | OEMETHOD | OEEVAL | OECLSIG | VISITNUM | VISIT | OEDTC |\n|-----|---------|--------|---------|-------|-------|---------|----------|--------|---------|----------|----------|----------|----------|-------|-------|----------|--------|---------|----------|-------|-------|", "score": 0.5901, "match_basis": "verbatim_token+global_search"}], "candidate_count": 5, "zero_candidate": false}
{"pdf_atom_id": "ig34_p0356_a016", "pdf_atom_type": "TABLE_ROW", "pdf_source": "SDTMIG_v3.4", "pdf_page": 356, "pdf_parent_section": "§6.3.12.3 Tumor Identification/Tumor Results Examples", "pdf_verbatim": "| 1 | ABC | TU | 55555 | 1 | R1-T01 | TUMIDENT | Tumor Identification | TARGET | TARGET | CERVICAL LYMPH NODE | LEFT | MRI | ACE IMAGING | INDEPENDENT ASSESSOR | RADIOLOGIST 1 | 10 | SCREEN | 2010-01-02 | -2 |", "figure_ref": null, "candidates": [{"md_atom_id": "md_dmTU_ex_a059", "md_file": "knowledge_base/domains/TU/examples.md", "md_atom_type": "TABLE_ROW", "md_parent_section": "§TU.3 [Example 3]", "md_verbatim": "| 1 | ABC | TU | 55555 | 1 | R1-T01 | TUMIDENT | Tumor Identification | TARGET | TARGET | CERVICAL LYMPH NODE | LEFT | MRI | ACE IMAGING | INDEPENDENT ASSESSOR | RADIOLOGIST 1 | 10 | SCREEN | 2010-01-02 |", "score": 0.9, "match_basis": "verbatim_token+global_search"}, {"md_atom_id": "md_dmTU_ex_a063", "md_file": "knowledge_base/domains/TU/examples.md", "md_atom_type": "TABLE_ROW", "md_parent_section": "§TU.3 [Example 3]", "md_verbatim": "| 5 | ABC | TU | 55555 | 5 | R1-NT02 | TUMIDENT | Tumor Identification | NON-TARGET | NON-TARGET | CEREBELLUM | LEFT | MRI | ACE IMAGING | INDEPENDENT ASSESSOR | RADIOLOGIST 1 | 10 | SCREEN | 2010-01-02 |", "score": 0.75, "match_basis": "verbatim_token+global_search"}, {"md_atom_id": "md_dmTU_ex_a060", "md_file": "knowledge_base/domains/TU/examples.md", "md_atom_type": "TABLE_ROW", "md_parent_section": "§TU.3 [Example 3]", "md_verbatim": "| 2 | ABC | TU | 55555 | 2 | R1-T02 | TUMIDENT | Tumor Identification | TARGET | TARGET | LIVER | | CT SCAN | ACE IMAGING | INDEPENDENT ASSESSOR | RADIOLOGIST 1 | 10 | SCREEN | 2010-01-01 |", "score": 0.7421, "match_basis": "verbatim_token+global_search"}, {"md_atom_id": "md_dmTU_ex_a062", "md_file": "knowledge_base/domains/TU/examples.md", "md_atom_type": "TABLE_ROW", "md_parent_section": "§TU.3 [Example 3]", "md_verbatim": "| 4 | ABC | TU | 55555 | 4 | R1-NT01 | TUMIDENT | Tumor Identification | NON-TARGET | NON-TARGET | KIDNEY | RIGHT | CT SCAN | ACE IMAGING | INDEPENDENT ASSESSOR | RADIOLOGIST 1 | 10 | SCREEN | 2010-01-01 | ", "score": 0.7222, "match_basis": "verbatim_token+global_search"}, {"md_atom_id": "md_dmTU_ex_a061", "md_file": "knowledge_base/domains/TU/examples.md", "md_atom_type": "TABLE_ROW", "md_parent_section": "§TU.3 [Example 3]", "md_verbatim": "| 3 | ABC | TU | 55555 | 3 | R1-T03 | TUMIDENT | Tumor Identification | TARGET | TARGET | THYROID GLAND | RIGHT | CT SCAN | ACE IMAGING | INDEPENDENT ASSESSOR | RADIOLOGIST 1 | 10 | SCREEN | 2010-01-01 |", "score": 0.7, "match_basis": "verbatim_token+global_search"}], "candidate_count": 5, "zero_candidate": false}
{"pdf_atom_id": "ig34_p0356_a017", "pdf_atom_type": "TABLE_ROW", "pdf_source": "SDTMIG_v3.4", "pdf_page": 356, "pdf_parent_section": "§6.3.12.3 Tumor Identification/Tumor Results Examples", "pdf_verbatim": "| 2 | ABC | TU | 55555 | 2 | R1-T02 | TUMIDENT | Tumor Identification | TARGET | TARGET | LIVER | | CT SCAN | ACE IMAGING | INDEPENDENT ASSESSOR | RADIOLOGIST 1 | 10 | SCREEN | 2010-01-01 | -3 |", "figure_ref": null, "candidates": [{"md_atom_id": "md_dmTU_ex_a060", "md_file": "knowledge_base/domains/TU/examples.md", "md_atom_type": "TABLE_ROW", "md_parent_section": "§TU.3 [Example 3]", "md_verbatim": "| 2 | ABC | TU | 55555 | 2 | R1-T02 | TUMIDENT | Tumor Identification | TARGET | TARGET | LIVER | | CT SCAN | ACE IMAGING | INDEPENDENT ASSESSOR | RADIOLOGIST 1 | 10 | SCREEN | 2010-01-01 |", "score": 0.9, "match_basis": "verbatim_token+global_search"}, {"md_atom_id": "md_dmTU_ex_a062", "md_file": "knowledge_base/domains/TU/examples.md", "md_atom_type": "TABLE_ROW", "md_parent_section": "§TU.3 [Example 3]", "md_verbatim": "| 4 | ABC | TU | 55555 | 4 | R1-NT01 | TUMIDENT | Tumor Identification | NON-TARGET | NON-TARGET | KIDNEY | RIGHT | CT SCAN | ACE IMAGING | INDEPENDENT ASSESSOR | RADIOLOGIST 1 | 10 | SCREEN | 2010-01-01 | ", "score": 0.7833, "match_basis": "verbatim_token+global_search"}, {"md_atom_id": "md_dmTU_ex_a061", "md_file": "knowledge_base/domains/TU/examples.md", "md_atom_type": "TABLE_ROW", "md_parent_section": "§TU.3 [Example 3]", "md_verbatim": "| 3 | ABC | TU | 55555 | 3 | R1-T03 | TUMIDENT | Tumor Identification | TARGET | TARGET | THYROID GLAND | RIGHT | CT SCAN | ACE IMAGING | INDEPENDENT ASSESSOR | RADIOLOGIST 1 | 10 | SCREEN | 2010-01-01 |", "score": 0.7703, "match_basis": "verbatim_token+global_search"}, {"md_atom_id": "md_dmTU_ex_a063", "md_file": "knowledge_base/domains/TU/examples.md", "md_atom_type": "TABLE_ROW", "md_parent_section": "§TU.3 [Example 3]", "md_verbatim": "| 5 | ABC | TU | 55555 | 5 | R1-NT02 | TUMIDENT | Tumor Identification | NON-TARGET | NON-TARGET | CEREBELLUM | LEFT | MRI | ACE IMAGING | INDEPENDENT ASSESSOR | RADIOLOGIST 1 | 10 | SCREEN | 2010-01-02 |", "score": 0.756, "match_basis": "verbatim_token+global_search"}, {"md_atom_id": "md_dmTU_ex_a059", "md_file": "knowledge_base/domains/TU/examples.md", "md_atom_type": "TABLE_ROW", "md_parent_section": "§TU.3 [Example 3]", "md_verbatim": "| 1 | ABC | TU | 55555 | 1 | R1-T01 | TUMIDENT | Tumor Identification | TARGET | TARGET | CERVICAL LYMPH NODE | LEFT | MRI | ACE IMAGING | INDEPENDENT ASSESSOR | RADIOLOGIST 1 | 10 | SCREEN | 2010-01-02 |", "score": 0.7421, "match_basis": "verbatim_token+global_search"}], "candidate_count": 5, "zero_candidate": false}
{"pdf_atom_id": "ig34_p0356_a018", "pdf_atom_type": "TABLE_ROW", "pdf_source": "SDTMIG_v3.4", "pdf_page": 356, "pdf_parent_section": "§6.3.12.3 Tumor Identification/Tumor Results Examples", "pdf_verbatim": "| 3 | ABC | TU | 55555 | 3 | R1-T03 | TUMIDENT | Tumor Identification | TARGET | TARGET | THYROID GLAND | RIGHT | CT SCAN | ACE IMAGING | INDEPENDENT ASSESSOR | RADIOLOGIST 1 | 10 | SCREEN | 2010-01-01 | -3 |", "figure_ref": null, "candidates": [{"md_atom_id": "md_dmTU_ex_a061", "md_file": "knowledge_base/domains/TU/examples.md", "md_atom_type": "TABLE_ROW", "md_parent_section": "§TU.3 [Example 3]", "md_verbatim": "| 3 | ABC | TU | 55555 | 3 | R1-T03 | TUMIDENT | Tumor Identification | TARGET | TARGET | THYROID GLAND | RIGHT | CT SCAN | ACE IMAGING | INDEPENDENT ASSESSOR | RADIOLOGIST 1 | 10 | SCREEN | 2010-01-01 |", "score": 0.9, "match_basis": "verbatim_token+global_search"}, {"md_atom_id": "md_dmTU_ex_a062", "md_file": "knowledge_base/domains/TU/examples.md", "md_atom_type": "TABLE_ROW", "md_parent_section": "§TU.3 [Example 3]", "md_verbatim": "| 4 | ABC | TU | 55555 | 4 | R1-NT01 | TUMIDENT | Tumor Identification | NON-TARGET | NON-TARGET | KIDNEY | RIGHT | CT SCAN | ACE IMAGING | INDEPENDENT ASSESSOR | RADIOLOGIST 1 | 10 | SCREEN | 2010-01-01 | ", "score": 0.7753, "match_basis": "verbatim_token+global_search"}, {"md_atom_id": "md_dmTU_ex_a060", "md_file": "knowledge_base/domains/TU/examples.md", "md_atom_type": "TABLE_ROW", "md_parent_section": "§TU.3 [Example 3]", "md_verbatim": "| 2 | ABC | TU | 55555 | 2 | R1-T02 | TUMIDENT | Tumor Identification | TARGET | TARGET | LIVER | | CT SCAN | ACE IMAGING | INDEPENDENT ASSESSOR | RADIOLOGIST 1 | 10 | SCREEN | 2010-01-01 |", "score": 0.7703, "match_basis": "verbatim_token+global_search"}, {"md_atom_id": "md_dmTU_ex_a059", "md_file": "knowledge_base/domains/TU/examples.md", "md_atom_type": "TABLE_ROW", "md_parent_section": "§TU.3 [Example 3]", "md_verbatim": "| 1 | ABC | TU | 55555 | 1 | R1-T01 | TUMIDENT | Tumor Identification | TARGET | TARGET | CERVICAL LYMPH NODE | LEFT | MRI | ACE IMAGING | INDEPENDENT ASSESSOR | RADIOLOGIST 1 | 10 | SCREEN | 2010-01-02 |", "score": 0.7, "match_basis": "verbatim_token+global_search"}, {"md_atom_id": "md_dmTU_ex_a063", "md_file": "knowledge_base/domains/TU/examples.md", "md_atom_type": "TABLE_ROW", "md_parent_section": "§TU.3 [Example 3]", "md_verbatim": "| 5 | ABC | TU | 55555 | 5 | R1-NT02 | TUMIDENT | Tumor Identification | NON-TARGET | NON-TARGET | CEREBELLUM | LEFT | MRI | ACE IMAGING | INDEPENDENT ASSESSOR | RADIOLOGIST 1 | 10 | SCREEN | 2010-01-02 |", "score": 0.7, "match_basis": "verbatim_token+global_search"}], "candidate_count": 5, "zero_candidate": false}
{"pdf_atom_id": "ig34_p0356_a019", "pdf_atom_type": "TABLE_ROW", "pdf_source": "SDTMIG_v3.4", "pdf_page": 356, "pdf_parent_section": "§6.3.12.3 Tumor Identification/Tumor Results Examples", "pdf_verbatim": "| 4 | ABC | TU | 55555 | 4 | R1-NT01 | TUMIDENT | Tumor Identification | NON-TARGET | NON-TARGET | KIDNEY | RIGHT | CT SCAN | ACE IMAGING | INDEPENDENT ASSESSOR | RADIOLOGIST 1 | 10 | SCREEN | 2010-01-01 | -3 |", "figure_ref": null, "candidates": [{"md_atom_id": "md_dmTU_ex_a062", "md_file": "knowledge_base/domains/TU/examples.md", "md_atom_type": "TABLE_ROW", "md_parent_section": "§TU.3 [Example 3]", "md_verbatim": "| 4 | ABC | TU | 55555 | 4 | R1-NT01 | TUMIDENT | Tumor Identification | NON-TARGET | NON-TARGET | KIDNEY | RIGHT | CT SCAN | ACE IMAGING | INDEPENDENT ASSESSOR | RADIOLOGIST 1 | 10 | SCREEN | 2010-01-01 | ", "score": 0.9, "match_basis": "verbatim_token+global_search"}, {"md_atom_id": "md_dmTU_ex_a060", "md_file": "knowledge_base/domains/TU/examples.md", "md_atom_type": "TABLE_ROW", "md_parent_section": "§TU.3 [Example 3]", "md_verbatim": "| 2 | ABC | TU | 55555 | 2 | R1-T02 | TUMIDENT | Tumor Identification | TARGET | TARGET | LIVER | | CT SCAN | ACE IMAGING | INDEPENDENT ASSESSOR | RADIOLOGIST 1 | 10 | SCREEN | 2010-01-01 |", "score": 0.7833, "match_basis": "verbatim_token+global_search"}, {"md_atom_id": "md_dmTU_ex_a061", "md_file": "knowledge_base/domains/TU/examples.md", "md_atom_type": "TABLE_ROW", "md_parent_section": "§TU.3 [Example 3]", "md_verbatim": "| 3 | ABC | TU | 55555 | 3 | R1-T03 | TUMIDENT | Tumor Identification | TARGET | TARGET | THYROID GLAND | RIGHT | CT SCAN | ACE IMAGING | INDEPENDENT ASSESSOR | RADIOLOGIST 1 | 10 | SCREEN | 2010-01-01 |", "score": 0.7753, "match_basis": "verbatim_token+global_search"}, {"md_atom_id": "md_dmTU_ex_a063", "md_file": "knowledge_base/domains/TU/examples.md", "md_atom_type": "TABLE_ROW", "md_parent_section": "§TU.3 [Example 3]", "md_verbatim": "| 5 | ABC | TU | 55555 | 5 | R1-NT02 | TUMIDENT | Tumor Identification | NON-TARGET | NON-TARGET | CEREBELLUM | LEFT | MRI | ACE IMAGING | INDEPENDENT ASSESSOR | RADIOLOGIST 1 | 10 | SCREEN | 2010-01-02 |", "score": 0.735, "match_basis": "verbatim_token+global_search"}, {"md_atom_id": "md_dmTU_ex_a059", "md_file": "knowledge_base/domains/TU/examples.md", "md_atom_type": "TABLE_ROW", "md_parent_section": "§TU.3 [Example 3]", "md_verbatim": "| 1 | ABC | TU | 55555 | 1 | R1-T01 | TUMIDENT | Tumor Identification | TARGET | TARGET | CERVICAL LYMPH NODE | LEFT | MRI | ACE IMAGING | INDEPENDENT ASSESSOR | RADIOLOGIST 1 | 10 | SCREEN | 2010-01-02 |", "score": 0.7222, "match_basis": "verbatim_token+global_search"}], "candidate_count": 5, "zero_candidate": false}
{"pdf_atom_id": "ig34_p0356_a020", "pdf_atom_type": "TABLE_ROW", "pdf_source": "SDTMIG_v3.4", "pdf_page": 356, "pdf_parent_section": "§6.3.12.3 Tumor Identification/Tumor Results Examples", "pdf_verbatim": "| 5 | ABC | TU | 55555 | 5 | R1-NT02 | TUMIDENT | Tumor Identification | NON-TARGET | NON-TARGET | CEREBELLUM | RIGHT | MRI | ACE IMAGING | INDEPENDENT ASSESSOR | RADIOLOGIST 1 | 10 | SCREEN | 2010-01-02 | -2 |", "figure_ref": null, "candidates": [{"md_atom_id": "md_dmTU_ex_a063", "md_file": "knowledge_base/domains/TU/examples.md", "md_atom_type": "TABLE_ROW", "md_parent_section": "§TU.3 [Example 3]", "md_verbatim": "| 5 | ABC | TU | 55555 | 5 | R1-NT02 | TUMIDENT | Tumor Identification | NON-TARGET | NON-TARGET | CEREBELLUM | LEFT | MRI | ACE IMAGING | INDEPENDENT ASSESSOR | RADIOLOGIST 1 | 10 | SCREEN | 2010-01-02 |", "score": 0.8589, "match_basis": "verbatim_token+global_search"}, {"md_atom_id": "md_dmTU_ex_a062", "md_file": "knowledge_base/domains/TU/examples.md", "md_atom_type": "TABLE_ROW", "md_parent_section": "§TU.3 [Example 3]", "md_verbatim": "| 4 | ABC | TU | 55555 | 4 | R1-NT01 | TUMIDENT | Tumor Identification | NON-TARGET | NON-TARGET | KIDNEY | RIGHT | CT SCAN | ACE IMAGING | INDEPENDENT ASSESSOR | RADIOLOGIST 1 | 10 | SCREEN | 2010-01-01 | ", "score": 0.7692, "match_basis": "verbatim_token+global_search"}, {"md_atom_id": "md_dmTU_ex_a060", "md_file": "knowledge_base/domains/TU/examples.md", "md_atom_type": "TABLE_ROW", "md_parent_section": "§TU.3 [Example 3]", "md_verbatim": "| 2 | ABC | TU | 55555 | 2 | R1-T02 | TUMIDENT | Tumor Identification | TARGET | TARGET | LIVER | | CT SCAN | ACE IMAGING | INDEPENDENT ASSESSOR | RADIOLOGIST 1 | 10 | SCREEN | 2010-01-01 |", "score": 0.75, "match_basis": "verbatim_token+global_search"}, {"md_atom_id": "md_dmTU_ex_a065", "md_file": "knowledge_base/domains/TU/examples.md", "md_atom_type": "TABLE_ROW", "md_parent_section": "§TU.3 [Example 3]", "md_verbatim": "| 7 | ABC | TU | 55555 | 7 | R1-NEW02 | TUMIDENT | Tumor Identification | NEW | NEW | CEREBELLUM | LEFT | MRI | ACE IMAGING | INDEPENDENT ASSESSOR | RADIOLOGIST 1 | 60 | WEEK 12 | 2010-04-02 |", "score": 0.7385, "match_basis": "verbatim_token+global_search"}, {"md_atom_id": "md_dmTU_ex_a061", "md_file": "knowledge_base/domains/TU/examples.md", "md_atom_type": "TABLE_ROW", "md_parent_section": "§TU.3 [Example 3]", "md_verbatim": "| 3 | ABC | TU | 55555 | 3 | R1-T03 | TUMIDENT | Tumor Identification | TARGET | TARGET | THYROID GLAND | RIGHT | CT SCAN | ACE IMAGING | INDEPENDENT ASSESSOR | RADIOLOGIST 1 | 10 | SCREEN | 2010-01-01 |", "score": 0.7317, "match_basis": "verbatim_token+global_search"}], "candidate_count": 5, "zero_candidate": false}
{"pdf_atom_id": "ig34_p0356_a021", "pdf_atom_type": "TABLE_ROW", "pdf_source": "SDTMIG_v3.4", "pdf_page": 356, "pdf_parent_section": "§6.3.12.3 Tumor Identification/Tumor Results Examples", "pdf_verbatim": "| 6 | ABC | TU | 55555 | 6 | R1-NEW01 | TUMIDENT | Tumor Identification | NEW | NEW | LUNG | | CT SCAN | ACE IMAGING | INDEPENDENT ASSESSOR | RADIOLOGIST 1 | 40 | WEEK 6 | 2010-02-20 | 48 |", "figure_ref": null, "candidates": [{"md_atom_id": "md_dmTU_ex_a064", "md_file": "knowledge_base/domains/TU/examples.md", "md_atom_type": "TABLE_ROW", "md_parent_section": "§TU.3 [Example 3]", "md_verbatim": "| 6 | ABC | TU | 55555 | 6 | R1-NEW01 | TUMIDENT | Tumor Identification | NEW | NEW | LUNG | | CT SCAN | ACE IMAGING | INDEPENDENT ASSESSOR | RADIOLOGIST 1 | 40 | WEEK 6 | 2010-02-20 |", "score": 0.9, "match_basis": "verbatim_token+global_search"}, {"md_atom_id": "md_dmTU_ex_a065", "md_file": "knowledge_base/domains/TU/examples.md", "md_atom_type": "TABLE_ROW", "md_parent_section": "§TU.3 [Example 3]", "md_verbatim": "| 7 | ABC | TU | 55555 | 7 | R1-NEW02 | TUMIDENT | Tumor Identification | NEW | NEW | CEREBELLUM | LEFT | MRI | ACE IMAGING | INDEPENDENT ASSESSOR | RADIOLOGIST 1 | 60 | WEEK 12 | 2010-04-02 |", "score": 0.7522, "match_basis": "verbatim_token+global_search"}, {"md_atom_id": "md_dmTU_ex_a060", "md_file": "knowledge_base/domains/TU/examples.md", "md_atom_type": "TABLE_ROW", "md_parent_section": "§TU.3 [Example 3]", "md_verbatim": "| 2 | ABC | TU | 55555 | 2 | R1-T02 | TUMIDENT | Tumor Identification | TARGET | TARGET | LIVER | | CT SCAN | ACE IMAGING | INDEPENDENT ASSESSOR | RADIOLOGIST 1 | 10 | SCREEN | 2010-01-01 |", "score": 0.7348, "match_basis": "verbatim_token+global_search"}, {"md_atom_id": "md_dmTU_ex_a062", "md_file": "knowledge_base/domains/TU/examples.md", "md_atom_type": "TABLE_ROW", "md_parent_section": "§TU.3 [Example 3]", "md_verbatim": "| 4 | ABC | TU | 55555 | 4 | R1-NT01 | TUMIDENT | Tumor Identification | NON-TARGET | NON-TARGET | KIDNEY | RIGHT | CT SCAN | ACE IMAGING | INDEPENDENT ASSESSOR | RADIOLOGIST 1 | 10 | SCREEN | 2010-01-01 | ", "score": 0.7, "match_basis": "verbatim_token+global_search"}, {"md_atom_id": "md_dmTU_ex_a061", "md_file": "knowledge_base/domains/TU/examples.md", "md_atom_type": "TABLE_ROW", "md_parent_section": "§TU.3 [Example 3]", "md_verbatim": "| 3 | ABC | TU | 55555 | 3 | R1-T03 | TUMIDENT | Tumor Identification | TARGET | TARGET | THYROID GLAND | RIGHT | CT SCAN | ACE IMAGING | INDEPENDENT ASSESSOR | RADIOLOGIST 1 | 10 | SCREEN | 2010-01-01 |", "score": 0.6896, "match_basis": "verbatim_token+global_search"}], "candidate_count": 5, "zero_candidate": false}
{"pdf_atom_id": "ig34_p0356_a022", "pdf_atom_type": "TABLE_ROW", "pdf_source": "SDTMIG_v3.4", "pdf_page": 356, "pdf_parent_section": "§6.3.12.3 Tumor Identification/Tumor Results Examples", "pdf_verbatim": "| 7 | ABC | TU | 55555 | 7 | R1-NEW02 | TUMIDENT | Tumor Identification | NEW | NEW | CEREBELLUM | LEFT | MRI | ACE IMAGING | INDEPENDENT ASSESSOR | RADIOLOGIST 1 | 60 | WEEK 12 | 2010-04-02 | 88 |", "figure_ref": null, "candidates": [{"md_atom_id": "md_dmTU_ex_a065", "md_file": "knowledge_base/domains/TU/examples.md", "md_atom_type": "TABLE_ROW", "md_parent_section": "§TU.3 [Example 3]", "md_verbatim": "| 7 | ABC | TU | 55555 | 7 | R1-NEW02 | TUMIDENT | Tumor Identification | NEW | NEW | CEREBELLUM | LEFT | MRI | ACE IMAGING | INDEPENDENT ASSESSOR | RADIOLOGIST 1 | 60 | WEEK 12 | 2010-04-02 |", "score": 0.9, "match_basis": "verbatim_token+global_search"}, {"md_atom_id": "md_dmTU_ex_a063", "md_file": "knowledge_base/domains/TU/examples.md", "md_atom_type": "TABLE_ROW", "md_parent_section": "§TU.3 [Example 3]", "md_verbatim": "| 5 | ABC | TU | 55555 | 5 | R1-NT02 | TUMIDENT | Tumor Identification | NON-TARGET | NON-TARGET | CEREBELLUM | LEFT | MRI | ACE IMAGING | INDEPENDENT ASSESSOR | RADIOLOGIST 1 | 10 | SCREEN | 2010-01-02 |", "score": 0.772, "match_basis": "verbatim_token+global_search"}, {"md_atom_id": "md_dmTU_ex_a064", "md_file": "knowledge_base/domains/TU/examples.md", "md_atom_type": "TABLE_ROW", "md_parent_section": "§TU.3 [Example 3]", "md_verbatim": "| 6 | ABC | TU | 55555 | 6 | R1-NEW01 | TUMIDENT | Tumor Identification | NEW | NEW | LUNG | | CT SCAN | ACE IMAGING | INDEPENDENT ASSESSOR | RADIOLOGIST 1 | 40 | WEEK 6 | 2010-02-20 |", "score": 0.7522, "match_basis": "verbatim_token+global_search"}, {"md_atom_id": "md_dmTU_ex_a059", "md_file": "knowledge_base/domains/TU/examples.md", "md_atom_type": "TABLE_ROW", "md_parent_section": "§TU.3 [Example 3]", "md_verbatim": "| 1 | ABC | TU | 55555 | 1 | R1-T01 | TUMIDENT | Tumor Identification | TARGET | TARGET | CERVICAL LYMPH NODE | LEFT | MRI | ACE IMAGING | INDEPENDENT ASSESSOR | RADIOLOGIST 1 | 10 | SCREEN | 2010-01-02 |", "score": 0.6805, "match_basis": "verbatim_token+global_search"}, {"md_atom_id": "md_dmTU_ex_a060", "md_file": "knowledge_base/domains/TU/examples.md", "md_atom_type": "TABLE_ROW", "md_parent_section": "§TU.3 [Example 3]", "md_verbatim": "| 2 | ABC | TU | 55555 | 2 | R1-T02 | TUMIDENT | Tumor Identification | TARGET | TARGET | LIVER | | CT SCAN | ACE IMAGING | INDEPENDENT ASSESSOR | RADIOLOGIST 1 | 10 | SCREEN | 2010-01-01 |", "score": 0.6692, "match_basis": "verbatim_token+global_search"}], "candidate_count": 5, "zero_candidate": false}
{"pdf_atom_id": "ig34_p0356_a023", "pdf_atom_type": "SENTENCE", "pdf_source": "SDTMIG_v3.4", "pdf_page": 356, "pdf_parent_section": "§6.3.12.3 Tumor Identification/Tumor Results Examples", "pdf_verbatim": "TR shows assessments provided by an independent assessor as opposed to the principal investigator.", "figure_ref": null, "candidates": [{"md_atom_id": "md_dmTR_ex_a049", "md_file": "knowledge_base/domains/TR/examples.md", "md_atom_type": "SENTENCE", "md_parent_section": "§TR.2 [Example 3 (continued from TU)]", "md_verbatim": "TR shows assessments provided by an independent assessor as opposed to the principal investigator.", "score": 0.9, "match_basis": "verbatim_token+global_search"}, {"md_atom_id": "md_dmTU_assn_a004", "md_file": "knowledge_base/domains/TU/assumptions.md", "md_atom_type": "SENTENCE", "md_parent_section": "§TU [TU — Assumptions]", "md_verbatim": "Commonly, tumors/lesions/locations of interest are identified by an investigator and/or independent assessor and classified according to the disease assessment criteria.", "score": 0.4689, "match_basis": "verbatim_token+global_search"}, {"md_atom_id": "md_dmOE_ex_a047", "md_file": "knowledge_base/domains/OE/examples.md", "md_atom_type": "SENTENCE", "md_parent_section": "§OE.3 [Example 3]", "md_verbatim": "**Rows 3-6:** Represent the assessments performed by an independent assessor. OEDTC represents the OCT image date.", "score": 0.4644, "match_basis": "verbatim_token+global_search"}, {"md_atom_id": "md_ch04_a952", "md_file": "knowledge_base/chapters/ch04_general_assumptions.md", "md_atom_type": "SENTENCE", "md_parent_section": "§4.5.4 [Evaluators in the Interventions and Events Observation Classes]", "md_verbatim": "Because observations may originate from more than 1 source (e.g., investigator, independent assessor), observations recorded in the Findings class include the --EVAL qualifier.", "score": 0.45, "match_basis": "verbatim_token+global_search"}, {"md_atom_id": "md_ch04_a953", "md_file": "knowledge_base/chapters/ch04_general_assumptions.md", "md_atom_type": "SENTENCE", "md_parent_section": "§4.5.4 [Evaluators in the Interventions and Events Observation Classes]", "md_verbatim": "For the Interventions and Events observation classes, which do not include the --EVAL variable, all data are assumed to be attributed to the principal investigator.", "score": 0.434, "match_basis": "verbatim_token+global_search"}], "candidate_count": 5, "zero_candidate": false}
{"pdf_atom_id": "ig34_p0356_a024", "pdf_atom_type": "LIST_ITEM", "pdf_source": "SDTMIG_v3.4", "pdf_page": 356, "pdf_parent_section": "§6.3.12.3 Tumor Identification/Tumor Results Examples", "pdf_verbatim": "Rows 1-7:    Show the measurements of the target tumors and other assessments of the target and non-target tumors at the screening visit by the independent assessor, Radiologist 1.", "figure_ref": null, "candidates": [{"md_atom_id": "md_dmTR_ex_a050", "md_file": "knowledge_base/domains/TR/examples.md", "md_atom_type": "NOTE", "md_parent_section": "§TR.2 [Example 3 (continued from TU)]", "md_verbatim": "**Rows 1-7:** Show the measurements of the target tumors and other assessments of the target and non-target tumors at the screening visit by the independent assessor, Radiologist 1.", "score": 0.75, "match_basis": "verbatim_token+global_search"}, {"md_atom_id": "md_dmTR_ex_a051", "md_file": "knowledge_base/domains/TR/examples.md", "md_atom_type": "NOTE", "md_parent_section": "§TR.2 [Example 3 (continued from TU)]", "md_verbatim": "**Rows 8-19:** Show the measurements of the target tumors and other assessments of the target and non-target tumors at the week 6 visit by the independent assessor, Radiologist 1.", "score": 0.6643, "match_basis": "verbatim_token+global_search"}, {"md_atom_id": "md_dmTR_ex_a052", "md_file": "knowledge_base/domains/TR/examples.md", "md_atom_type": "NOTE", "md_parent_section": "§TR.2 [Example 3 (continued from TU)]", "md_verbatim": "**Rows 20-32:** Show the measurements of the target tumors and other assessments of the target and non-target tumors at the week 12 visit by the independent assessor, Radiologist 1.", "score": 0.6643, "match_basis": "verbatim_token+global_search"}, {"md_atom_id": "md_dmTR_ex_a009", "md_file": "knowledge_base/domains/TR/examples.md", "md_atom_type": "NOTE", "md_parent_section": "§TR.1 [Example 2 (continued from TU)]", "md_verbatim": "**Rows 1-8:** Show the measurements of the target tumors and other assessments of the target and non-target tumors at the screening visit.", "score": 0.573, "match_basis": "verbatim_token+global_search"}, {"md_atom_id": "md_dmTU_ex_a054", "md_file": "knowledge_base/domains/TU/examples.md", "md_atom_type": "NOTE", "md_parent_section": "§TU.3 [Example 3]", "md_verbatim": "**Rows 1-5:** Show the target and non-target tumors identified at screening by the independent assessor, Radiologist 1.", "score": 0.553, "match_basis": "verbatim_token+global_search"}], "candidate_count": 5, "zero_candidate": false}
{"pdf_atom_id": "ig34_p0356_a025", "pdf_atom_type": "LIST_ITEM", "pdf_source": "SDTMIG_v3.4", "pdf_page": 356, "pdf_parent_section": "§6.3.12.3 Tumor Identification/Tumor Results Examples", "pdf_verbatim": "Rows 8-19:    Show the measurements of the target tumors and other assessments of the target and non-target tumors at the week 6 visit by the independent assessor, Radiologist 1.", "figure_ref": null, "candidates": [{"md_atom_id": "md_dmTR_ex_a051", "md_file": "knowledge_base/domains/TR/examples.md", "md_atom_type": "NOTE", "md_parent_section": "§TR.2 [Example 3 (continued from TU)]", "md_verbatim": "**Rows 8-19:** Show the measurements of the target tumors and other assessments of the target and non-target tumors at the week 6 visit by the independent assessor, Radiologist 1.", "score": 0.75, "match_basis": "verbatim_token+global_search"}, {"md_atom_id": "md_dmTR_ex_a052", "md_file": "knowledge_base/domains/TR/examples.md", "md_atom_type": "NOTE", "md_parent_section": "§TR.2 [Example 3 (continued from TU)]", "md_verbatim": "**Rows 20-32:** Show the measurements of the target tumors and other assessments of the target and non-target tumors at the week 12 visit by the independent assessor, Radiologist 1.", "score": 0.75, "match_basis": "verbatim_token+global_search"}, {"md_atom_id": "md_dmTR_ex_a050", "md_file": "knowledge_base/domains/TR/examples.md", "md_atom_type": "NOTE", "md_parent_section": "§TR.2 [Example 3 (continued from TU)]", "md_verbatim": "**Rows 1-7:** Show the measurements of the target tumors and other assessments of the target and non-target tumors at the screening visit by the independent assessor, Radiologist 1.", "score": 0.6643, "match_basis": "verbatim_token+global_search"}, {"md_atom_id": "md_dmTR_ex_a010", "md_file": "knowledge_base/domains/TR/examples.md", "md_atom_type": "NOTE", "md_parent_section": "§TR.1 [Example 2 (continued from TU)]", "md_verbatim": "**Rows 9-21:** Show the measurements of the target tumors and other assessments of the target and non-target tumors at the week 6 visit.", "score": 0.5571, "match_basis": "verbatim_token+global_search"}, {"md_atom_id": "md_dmTR_ex_a011", "md_file": "knowledge_base/domains/TR/examples.md", "md_atom_type": "NOTE", "md_parent_section": "§TR.1 [Example 2 (continued from TU)]", "md_verbatim": "**Rows 22-27:** Show the measurements of the target tumors and other assessments of the target and non-target tumors at the week 12 visit.", "score": 0.5571, "match_basis": "verbatim_token+global_search"}], "candidate_count": 5, "zero_candidate": false}
{"pdf_atom_id": "ig34_p0356_a026", "pdf_atom_type": "LIST_ITEM", "pdf_source": "SDTMIG_v3.4", "pdf_page": 356, "pdf_parent_section": "§6.3.12.3 Tumor Identification/Tumor Results Examples", "pdf_verbatim": "Rows 20-32:    Show the measurements of the target tumors and other assessments of the target and non-target tumors at the week 12 visit by the independent assessor, Radiologist 1.", "figure_ref": null, "candidates": [{"md_atom_id": "md_dmTR_ex_a051", "md_file": "knowledge_base/domains/TR/examples.md", "md_atom_type": "NOTE", "md_parent_section": "§TR.2 [Example 3 (continued from TU)]", "md_verbatim": "**Rows 8-19:** Show the measurements of the target tumors and other assessments of the target and non-target tumors at the week 6 visit by the independent assessor, Radiologist 1.", "score": 0.75, "match_basis": "verbatim_token+global_search"}, {"md_atom_id": "md_dmTR_ex_a052", "md_file": "knowledge_base/domains/TR/examples.md", "md_atom_type": "NOTE", "md_parent_section": "§TR.2 [Example 3 (continued from TU)]", "md_verbatim": "**Rows 20-32:** Show the measurements of the target tumors and other assessments of the target and non-target tumors at the week 12 visit by the independent assessor, Radiologist 1.", "score": 0.75, "match_basis": "verbatim_token+global_search"}, {"md_atom_id": "md_dmTR_ex_a050", "md_file": "knowledge_base/domains/TR/examples.md", "md_atom_type": "NOTE", "md_parent_section": "§TR.2 [Example 3 (continued from TU)]", "md_verbatim": "**Rows 1-7:** Show the measurements of the target tumors and other assessments of the target and non-target tumors at the screening visit by the independent assessor, Radiologist 1.", "score": 0.6643, "match_basis": "verbatim_token+global_search"}, {"md_atom_id": "md_dmTR_ex_a010", "md_file": "knowledge_base/domains/TR/examples.md", "md_atom_type": "NOTE", "md_parent_section": "§TR.1 [Example 2 (continued from TU)]", "md_verbatim": "**Rows 9-21:** Show the measurements of the target tumors and other assessments of the target and non-target tumors at the week 6 visit.", "score": 0.5571, "match_basis": "verbatim_token+global_search"}, {"md_atom_id": "md_dmTR_ex_a011", "md_file": "knowledge_base/domains/TR/examples.md", "md_atom_type": "NOTE", "md_parent_section": "§TR.1 [Example 2 (continued from TU)]", "md_verbatim": "**Rows 22-27:** Show the measurements of the target tumors and other assessments of the target and non-target tumors at the week 12 visit.", "score": 0.5571, "match_basis": "verbatim_token+global_search"}], "candidate_count": 5, "zero_candidate": false}
{"pdf_atom_id": "ig34_p0356_a027", "pdf_atom_type": "HEADING", "pdf_source": "SDTMIG_v3.4", "pdf_page": 356, "pdf_parent_section": "§6.3.12.3 Tumor Identification/Tumor Results Examples", "pdf_verbatim": "tr.xpt", "figure_ref": null, "candidates": [{"md_atom_id": "md_model01_a001", "md_file": "knowledge_base/model/01_concepts_and_terms.md", "md_atom_type": "HEADING", "md_parent_section": "§2 [SDTM v2.0 — Chapter 2: Model Concepts and Terms]", "md_verbatim": "# SDTM v2.0 — Chapter 2: Model Concepts and Terms", "score": 0.3, "match_basis": "verbatim_token+global_search"}, {"md_atom_id": "md_model01_a003", "md_file": "knowledge_base/model/01_concepts_and_terms.md", "md_atom_type": "HEADING", "md_parent_section": "§2.1 [Model Concepts and Terms — Variables]", "md_verbatim": "## 2.1 Model Concepts and Terms — Variables", "score": 0.3, "match_basis": "verbatim_token+global_search"}, {"md_atom_id": "md_model01_a012", "md_file": "knowledge_base/model/01_concepts_and_terms.md", "md_atom_type": "HEADING", "md_parent_section": "§2.1 [Model Concepts and Terms — Variables]", "md_verbatim": "### Concept Map: Relationships Between SDTM Domains", "score": 0.3, "match_basis": "verbatim_token+global_search"}, {"md_atom_id": "md_model01_a015", "md_file": "knowledge_base/model/01_concepts_and_terms.md", "md_atom_type": "HEADING", "md_parent_section": "§2.1 [Model Concepts and Terms — Variables]", "md_verbatim": "### Variable Roles", "score": 0.3, "match_basis": "verbatim_token+global_search"}, {"md_atom_id": "md_model01_a032", "md_file": "knowledge_base/model/01_concepts_and_terms.md", "md_atom_type": "HEADING", "md_parent_section": "§2.1 [Model Concepts and Terms — Variables]", "md_verbatim": "### Qualifier Variable Subclasses", "score": 0.3, "match_basis": "verbatim_token+global_search"}, {"md_atom_id": "md_model01_a040", "md_file": "knowledge_base/model/01_concepts_and_terms.md", "md_atom_type": "HEADING", "md_parent_section": "§2.1 [Model Concepts and Terms — Variables]", "md_verbatim": "### Domain Codes", "score": 0.3, "match_basis": "verbatim_token+global_search"}, {"md_atom_id": "md_model01_a058", "md_file": "knowledge_base/model/01_concepts_and_terms.md", "md_atom_type": "HEADING", "md_parent_section": "§2.2 [Table Structure]", "md_verbatim": "## 2.2 Table Structure", "score": 0.3, "match_basis": "verbatim_token+global_search"}, {"md_atom_id": "md_model04_a001", "md_file": "knowledge_base/model/04_associated_persons.md", "md_atom_type": "HEADING", "md_parent_section": "§4 [SDTM v2.0 — Chapter 4: Associated Persons Data]", "md_verbatim": "# SDTM v2.0 — Chapter 4: Associated Persons Data", "score": 0.3, "match_basis": "verbatim_token+global_search"}, {"md_atom_id": "md_model04_a003", "md_file": "knowledge_base/model/04_associated_persons.md", "md_atom_type": "HEADING", "md_parent_section": "§4 [SDTM v2.0 — Chapter 4: Associated Persons Data]", "md_verbatim": "## Overview", "score": 0.3, "match_basis": "verbatim_token+global_search"}, {"md_atom_id": "md_model04_a007", "md_file": "knowledge_base/model/04_associated_persons.md", "md_atom_type": "HEADING", "md_parent_section": "§4 [SDTM v2.0 — Chapter 4: Associated Persons Data]", "md_verbatim": "### AP Domain Rules", "score": 0.3, "match_basis": "verbatim_token+global_search"}], "candidate_count": 10, "zero_candidate": false}
{"pdf_atom_id": "ig34_p0356_a028", "pdf_atom_type": "TABLE_HEADER", "pdf_source": "SDTMIG_v3.4", "pdf_page": 356, "pdf_parent_section": "§6.3.12.3 Tumor Identification/Tumor Results Examples", "pdf_verbatim": "| Row | STUDYID | DOMAIN | USUBJID | TRSEQ | TRGRPID | TRLNKGRP | TRLNKID | TRTESTCD | TRTEST | TRORRES | TRORRESU | TRSTRESC | TRSTRESN | TRSTRESU | TRNAM | TRMETHOD | TREVAL | TREVALID | VISITNUM | VISIT | TRDTC | TRDY |", "figure_ref": null, "candidates": [{"md_atom_id": "md_dmTR_ex_a054", "md_file": "knowledge_base/domains/TR/examples.md", "md_atom_type": "TABLE_HEADER", "md_parent_section": "§TR.2 [Example 3 (continued from TU)]", "md_verbatim": "| Row | STUDYID | DOMAIN | USUBJID | TRSEQ | TRGRPID | TRLNKGRP | TRLNKID | TRTESTCD | TRTEST | TRORRES | TRORRESU | TRSTRESC | TRSTRESN | TRSTRESU | TRMETHOD | TRNAM | TREVAL | TREVALID | VISITNUM | VISIT | TRDTC | TRDY |", "score": 0.9, "match_basis": "verbatim_token+global_search"}, {"md_atom_id": "md_dmTR_ex_a013", "md_file": "knowledge_base/domains/TR/examples.md", "md_atom_type": "TABLE_HEADER", "md_parent_section": "§TR.1 [Example 2 (continued from TU)]", "md_verbatim": "| Row | STUDYID | DOMAIN | USUBJID | TRSEQ | TRGRPID | TRLNKGRP | TRLNKID | TRTESTCD | TRTEST | TRORRES | TRORRESU | TRSTRESC | TRSTRESN | TRSTRESU | TRSTAT | TREASND | TRMETHOD | TREVAL | VISITNUM | VISIT | TRDTC | TRDY |", "score": 0.8143, "match_basis": "verbatim_token+global_search"}, {"md_atom_id": "md_dmUR_ex_a020", "md_file": "knowledge_base/domains/UR/examples.md", "md_atom_type": "TABLE_HEADER", "md_parent_section": "§UR.2 [Example 2]", "md_verbatim": "| Row | STUDYID | DOMAIN | USUBJID | URSEQ | URTESTCD | URTEST | URORRES | URORRESU | URSTRESC | URSTRESN | URSTRESU | URLOC | URLAT | URMETHOD | VISITNUM | VISIT | URDTC |", "score": 0.6333, "match_basis": "verbatim_token+global_search"}, {"md_atom_id": "md_dmTU_ex_a033", "md_file": "knowledge_base/domains/TU/examples.md", "md_atom_type": "TABLE_HEADER", "md_parent_section": "§TU.2 [Example 2]", "md_verbatim": "| Row | STUDYID | DOMAIN | USUBJID | TUSEQ | TUGRPID | TULNKID | TUTESTCD | TUTEST | TUORRES | TUSTRESC | TULOC | TULAT | TUMETHOD | TUEVAL | VISITNUM | VISIT | TUDTC | TUDY |", "score": 0.5967, "match_basis": "verbatim_token+global_search"}, {"md_atom_id": "md_dmTU_ex_a058", "md_file": "knowledge_base/domains/TU/examples.md", "md_atom_type": "TABLE_HEADER", "md_parent_section": "§TU.3 [Example 3]", "md_verbatim": "| Row | STUDYID | DOMAIN | USUBJID | TUSEQ | TULNKID | TUTESTCD | TUTEST | TUORRES | TUSTRESC | TULOC | TULAT | TUMETHOD | TUNAM | TUEVAL | TUEVALID | VISITNUM | VISIT | TUDTC |", "score": 0.5967, "match_basis": "verbatim_token+global_search"}], "candidate_count": 5, "zero_candidate": false}
{"pdf_atom_id": "ig34_p0356_a029", "pdf_atom_type": "TABLE_ROW", "pdf_source": "SDTMIG_v3.4", "pdf_page": 356, "pdf_parent_section": "§6.3.12.3 Tumor Identification/Tumor Results Examples", "pdf_verbatim": "| 1 | ABC | TR | 55555 | | TARGET | A1 | R1-T01 | DIAMETER | Diameter | 20 | mm | 20 | | mm | ACE IMAGING | MRI | INDEPENDENT ASSESSOR | RADIOLOGIST 1 | 10 | SCREEN | 2010-01-02 | -2 |", "figure_ref": null, "candidates": [{"md_atom_id": "md_dmTR_ex_a056", "md_file": "knowledge_base/domains/TR/examples.md", "md_atom_type": "TABLE_ROW", "md_parent_section": "§TR.2 [Example 3 (continued from TU)]", "md_verbatim": "| 1 | ABC | TR | 55555 | 1 | TARGET | A1 | R1-T01 | DIAMETER | Diameter | 20 | mm | 20 | 20 | mm | MRI | ACE IMAGING | INDEPENDENT ASSESSOR | RADIOLOGIST 1 | 10 | SCREEN | 2010-01-02 | -2 |", "score": 0.9, "match_basis": "verbatim_token+global_search"}, {"md_atom_id": "md_dmTR_ex_a057", "md_file": "knowledge_base/domains/TR/examples.md", "md_atom_type": "TABLE_ROW", "md_parent_section": "§TR.2 [Example 3 (continued from TU)]", "md_verbatim": "| 2 | ABC | TR | 55555 | 2 | TARGET | A1 | R1-T02 | DIAMETER | Diameter | 15 | mm | 15 | 15 | mm | CT SCAN | ACE IMAGING | INDEPENDENT ASSESSOR | RADIOLOGIST 1 | 10 | SCREEN | 2010-01-01 | -3 |", "score": 0.8423, "match_basis": "verbatim_token+global_search"}, {"md_atom_id": "md_dmTR_ex_a058", "md_file": "knowledge_base/domains/TR/examples.md", "md_atom_type": "TABLE_ROW", "md_parent_section": "§TR.2 [Example 3 (continued from TU)]", "md_verbatim": "| 3 | ABC | TR | 55555 | 3 | TARGET | A1 | R1-T03 | DIAMETER | Diameter | 15 | mm | 15 | 15 | mm | CT SCAN | ACE IMAGING | INDEPENDENT ASSESSOR | RADIOLOGIST 1 | 10 | SCREEN | 2010-01-01 | -3 |", "score": 0.8423, "match_basis": "verbatim_token+global_search"}, {"md_atom_id": "md_dmTR_ex_a063", "md_file": "knowledge_base/domains/TR/examples.md", "md_atom_type": "TABLE_ROW", "md_parent_section": "§TR.2 [Example 3 (continued from TU)]", "md_verbatim": "| 8 | ABC | TR | 55555 | 8 | TARGET | A2 | R1-T01 | DIAMETER | Diameter | 12 | mm | 12 | 12 | mm | MRI | ACE IMAGING | INDEPENDENT ASSESSOR | RADIOLOGIST 1 | 40 | WEEK 6 | 2010-02-18 | 46 |", "score": 0.8294, "match_basis": "verbatim_token+global_search"}, {"md_atom_id": "md_dmTR_ex_a059", "md_file": "knowledge_base/domains/TR/examples.md", "md_atom_type": "TABLE_ROW", "md_parent_section": "§TR.2 [Example 3 (continued from TU)]", "md_verbatim": "| 4 | ABC | TR | 55555 | 4 | TARGET | A1 | | SUMDIAM | Sum of Diameter | 50 | mm | 50 | 50 | mm | | ACE IMAGING | INDEPENDENT ASSESSOR | RADIOLOGIST 1 | 10 | SCREEN | | |", "score": 0.8192, "match_basis": "verbatim_token+global_search"}], "candidate_count": 5, "zero_candidate": false}
{"pdf_atom_id": "ig34_p0357_a001", "pdf_atom_type": "TABLE_ROW", "pdf_source": "SDTMIG_v3.4", "pdf_page": 357, "pdf_parent_section": "§6.3.12.3 Tumor Identification/Tumor Results Examples", "pdf_verbatim": "| 2 | ABC | TR | 55555 | 2 | TARGET | A1 | R1-T02 | DIAMETER | Diameter | 15 | mm | 15 | 15 | mm | ACE IMAGING | CT SCAN | INDEPENDENT ASSESSOR | RADIOLOGIST 1 | 10 | SCREEN | 2010-01-01 | -3 |", "figure_ref": null, "candidates": [{"md_atom_id": "md_dmTR_ex_a057", "md_file": "knowledge_base/domains/TR/examples.md", "md_atom_type": "TABLE_ROW", "md_parent_section": "§TR.2 [Example 3 (continued from TU)]", "md_verbatim": "| 2 | ABC | TR | 55555 | 2 | TARGET | A1 | R1-T02 | DIAMETER | Diameter | 15 | mm | 15 | 15 | mm | CT SCAN | ACE IMAGING | INDEPENDENT ASSESSOR | RADIOLOGIST 1 | 10 | SCREEN | 2010-01-01 | -3 |", "score": 0.9, "match_basis": "verbatim_token+global_search"}, {"md_atom_id": "md_dmTR_ex_a058", "md_file": "knowledge_base/domains/TR/examples.md", "md_atom_type": "TABLE_ROW", "md_parent_section": "§TR.2 [Example 3 (continued from TU)]", "md_verbatim": "| 3 | ABC | TR | 55555 | 3 | TARGET | A1 | R1-T03 | DIAMETER | Diameter | 15 | mm | 15 | 15 | mm | CT SCAN | ACE IMAGING | INDEPENDENT ASSESSOR | RADIOLOGIST 1 | 10 | SCREEN | 2010-01-01 | -3 |", "score": 0.8765, "match_basis": "verbatim_token+global_search"}, {"md_atom_id": "md_dmTR_ex_a056", "md_file": "knowledge_base/domains/TR/examples.md", "md_atom_type": "TABLE_ROW", "md_parent_section": "§TR.2 [Example 3 (continued from TU)]", "md_verbatim": "| 1 | ABC | TR | 55555 | 1 | TARGET | A1 | R1-T01 | DIAMETER | Diameter | 20 | mm | 20 | 20 | mm | MRI | ACE IMAGING | INDEPENDENT ASSESSOR | RADIOLOGIST 1 | 10 | SCREEN | 2010-01-02 | -2 |", "score": 0.8423, "match_basis": "verbatim_token+global_search"}, {"md_atom_id": "md_dmTR_ex_a064", "md_file": "knowledge_base/domains/TR/examples.md", "md_atom_type": "TABLE_ROW", "md_parent_section": "§TR.2 [Example 3 (continued from TU)]", "md_verbatim": "| 9 | ABC | TR | 55555 | 9 | TARGET | A2 | R1-T02 | DIAMETER | Diameter | 0 | mm | 0 | 0 | mm | CT SCAN | ACE IMAGING | INDEPENDENT ASSESSOR | RADIOLOGIST 1 | 40 | WEEK 6 | 2010-02-18 | 47 |", "score": 0.8308, "match_basis": "verbatim_token+global_search"}, {"md_atom_id": "md_dmTR_ex_a077", "md_file": "knowledge_base/domains/TR/examples.md", "md_atom_type": "TABLE_ROW", "md_parent_section": "§TR.2 [Example 3 (continued from TU)]", "md_verbatim": "| 22 | ABC | TR | 55555 | 22 | TARGET | A3 | R1-T02 | DIAMETER | Diameter | 10 | mm | 10 | 10 | mm | CT SCAN | ACE IMAGING | INDEPENDENT ASSESSOR | RADIOLOGIST 1 | 60 | WEEK 12 | 2010-04-02 | 85 |", "score": 0.8308, "match_basis": "verbatim_token+global_search"}], "candidate_count": 5, "zero_candidate": false}
{"pdf_atom_id": "ig34_p0357_a002", "pdf_atom_type": "TABLE_ROW", "pdf_source": "SDTMIG_v3.4", "pdf_page": 357, "pdf_parent_section": "§6.3.12.3 Tumor Identification/Tumor Results Examples", "pdf_verbatim": "| 3 | ABC | TR | 55555 | 3 | TARGET | A1 | R1-T03 | DIAMETER | Diameter | 15 | mm | 15 | 15 | mm | ACE IMAGING | CT SCAN | INDEPENDENT ASSESSOR | RADIOLOGIST 1 | 10 | SCREEN | 2010-01-01 | -3 |", "figure_ref": null, "candidates": [{"md_atom_id": "md_dmTR_ex_a058", "md_file": "knowledge_base/domains/TR/examples.md", "md_atom_type": "TABLE_ROW", "md_parent_section": "§TR.2 [Example 3 (continued from TU)]", "md_verbatim": "| 3 | ABC | TR | 55555 | 3 | TARGET | A1 | R1-T03 | DIAMETER | Diameter | 15 | mm | 15 | 15 | mm | CT SCAN | ACE IMAGING | INDEPENDENT ASSESSOR | RADIOLOGIST 1 | 10 | SCREEN | 2010-01-01 | -3 |", "score": 0.9, "match_basis": "verbatim_token+global_search"}, {"md_atom_id": "md_dmTR_ex_a057", "md_file": "knowledge_base/domains/TR/examples.md", "md_atom_type": "TABLE_ROW", "md_parent_section": "§TR.2 [Example 3 (continued from TU)]", "md_verbatim": "| 2 | ABC | TR | 55555 | 2 | TARGET | A1 | R1-T02 | DIAMETER | Diameter | 15 | mm | 15 | 15 | mm | CT SCAN | ACE IMAGING | INDEPENDENT ASSESSOR | RADIOLOGIST 1 | 10 | SCREEN | 2010-01-01 | -3 |", "score": 0.8765, "match_basis": "verbatim_token+global_search"}, {"md_atom_id": "md_dmTR_ex_a056", "md_file": "knowledge_base/domains/TR/examples.md", "md_atom_type": "TABLE_ROW", "md_parent_section": "§TR.2 [Example 3 (continued from TU)]", "md_verbatim": "| 1 | ABC | TR | 55555 | 1 | TARGET | A1 | R1-T01 | DIAMETER | Diameter | 20 | mm | 20 | 20 | mm | MRI | ACE IMAGING | INDEPENDENT ASSESSOR | RADIOLOGIST 1 | 10 | SCREEN | 2010-01-02 | -2 |", "score": 0.8423, "match_basis": "verbatim_token+global_search"}, {"md_atom_id": "md_dmTR_ex_a065", "md_file": "knowledge_base/domains/TR/examples.md", "md_atom_type": "TABLE_ROW", "md_parent_section": "§TR.2 [Example 3 (continued from TU)]", "md_verbatim": "| 10 | ABC | TR | 55555 | 10 | TARGET | A2 | R1-T03 | DIAMETER | Diameter | 13 | mm | 13 | 13 | mm | CT SCAN | ACE IMAGING | INDEPENDENT ASSESSOR | RADIOLOGIST 1 | 40 | WEEK 6 | 2010-02-19 | 47 |", "score": 0.8308, "match_basis": "verbatim_token+global_search"}, {"md_atom_id": "md_dmTR_ex_a059", "md_file": "knowledge_base/domains/TR/examples.md", "md_atom_type": "TABLE_ROW", "md_parent_section": "§TR.2 [Example 3 (continued from TU)]", "md_verbatim": "| 4 | ABC | TR | 55555 | 4 | TARGET | A1 | | SUMDIAM | Sum of Diameter | 50 | mm | 50 | 50 | mm | | ACE IMAGING | INDEPENDENT ASSESSOR | RADIOLOGIST 1 | 10 | SCREEN | | |", "score": 0.8094, "match_basis": "verbatim_token+global_search"}], "candidate_count": 5, "zero_candidate": false}
{"pdf_atom_id": "ig34_p0357_a003", "pdf_atom_type": "TABLE_ROW", "pdf_source": "SDTMIG_v3.4", "pdf_page": 357, "pdf_parent_section": "§6.3.12.3 Tumor Identification/Tumor Results Examples", "pdf_verbatim": "| 4 | ABC | TR | 55555 | 4 | TARGET | A1 | | SUMDIAM | Sum of Diameter | 50 | mm | 50 | 50 | mm | ACE IMAGING | | INDEPENDENT ASSESSOR | RADIOLOGIST 1 | 10 | SCREEN | | |", "figure_ref": null, "candidates": [{"md_atom_id": "md_dmTR_ex_a059", "md_file": "knowledge_base/domains/TR/examples.md", "md_atom_type": "TABLE_ROW", "md_parent_section": "§TR.2 [Example 3 (continued from TU)]", "md_verbatim": "| 4 | ABC | TR | 55555 | 4 | TARGET | A1 | | SUMDIAM | Sum of Diameter | 50 | mm | 50 | 50 | mm | | ACE IMAGING | INDEPENDENT ASSESSOR | RADIOLOGIST 1 | 10 | SCREEN | | |", "score": 0.9, "match_basis": "verbatim_token+global_search"}, {"md_atom_id": "md_dmTR_ex_a066", "md_file": "knowledge_base/domains/TR/examples.md", "md_atom_type": "TABLE_ROW", "md_parent_section": "§TR.2 [Example 3 (continued from TU)]", "md_verbatim": "| 11 | ABC | TR | 55555 | 11 | TARGET | A2 | | SUMDIAM | Sum of Diameter | 25 | mm | 25 | 25 | mm | | ACE IMAGING | INDEPENDENT ASSESSOR | RADIOLOGIST 1 | 40 | WEEK 6 | | |", "score": 0.828, "match_basis": "verbatim_token+global_search"}, {"md_atom_id": "md_dmTR_ex_a078", "md_file": "knowledge_base/domains/TR/examples.md", "md_atom_type": "TABLE_ROW", "md_parent_section": "§TR.2 [Example 3 (continued from TU)]", "md_verbatim": "| 23 | ABC | TR | 55555 | 23 | TARGET | A3 | | SUMDIAM | Sum of Diameter | 37 | mm | 37 | 37 | mm | | ACE IMAGING | INDEPENDENT ASSESSOR | RADIOLOGIST 1 | 60 | WEEK 12 | | |", "score": 0.828, "match_basis": "verbatim_token+global_search"}, {"md_atom_id": "md_dmTR_ex_a056", "md_file": "knowledge_base/domains/TR/examples.md", "md_atom_type": "TABLE_ROW", "md_parent_section": "§TR.2 [Example 3 (continued from TU)]", "md_verbatim": "| 1 | ABC | TR | 55555 | 1 | TARGET | A1 | R1-T01 | DIAMETER | Diameter | 20 | mm | 20 | 20 | mm | MRI | ACE IMAGING | INDEPENDENT ASSESSOR | RADIOLOGIST 1 | 10 | SCREEN | 2010-01-02 | -2 |", "score": 0.8192, "match_basis": "verbatim_token+global_search"}, {"md_atom_id": "md_dmTR_ex_a057", "md_file": "knowledge_base/domains/TR/examples.md", "md_atom_type": "TABLE_ROW", "md_parent_section": "§TR.2 [Example 3 (continued from TU)]", "md_verbatim": "| 2 | ABC | TR | 55555 | 2 | TARGET | A1 | R1-T02 | DIAMETER | Diameter | 15 | mm | 15 | 15 | mm | CT SCAN | ACE IMAGING | INDEPENDENT ASSESSOR | RADIOLOGIST 1 | 10 | SCREEN | 2010-01-01 | -3 |", "score": 0.8094, "match_basis": "verbatim_token+global_search"}], "candidate_count": 5, "zero_candidate": false}
{"pdf_atom_id": "ig34_p0357_a004", "pdf_atom_type": "TABLE_ROW", "pdf_source": "SDTMIG_v3.4", "pdf_page": 357, "pdf_parent_section": "§6.3.12.3 Tumor Identification/Tumor Results Examples", "pdf_verbatim": "| 5 | ABC | TR | 55555 | 5 | TARGET | A1 | | SUMNLNLD | Sum Diameters of Non Lymph Node Tumors | 30 | mm | 30 | 30 | mm | ACE IMAGING | | INDEPENDENT ASSESSOR | RADIOLOGIST 1 | 10 | SCREEN | | |", "figure_ref": null, "candidates": [{"md_atom_id": "md_dmTR_ex_a060", "md_file": "knowledge_base/domains/TR/examples.md", "md_atom_type": "TABLE_ROW", "md_parent_section": "§TR.2 [Example 3 (continued from TU)]", "md_verbatim": "| 5 | ABC | TR | 55555 | 5 | TARGET | A1 | | SUMNLNLD | Sum Diameters of Non-Lymph Node Tumors | 30 | mm | 30 | 30 | mm | | ACE IMAGING | INDEPENDENT ASSESSOR | RADIOLOGIST 1 | 10 | SCREEN | | |", "score": 0.9, "match_basis": "verbatim_token+global_search"}, {"md_atom_id": "md_dmTR_ex_a067", "md_file": "knowledge_base/domains/TR/examples.md", "md_atom_type": "TABLE_ROW", "md_parent_section": "§TR.2 [Example 3 (continued from TU)]", "md_verbatim": "| 12 | ABC | TR | 55555 | 12 | TARGET | A2 | | SUMNLNLD | Sum Diameters of Non-Lymph Node Tumors | 13 | mm | 13 | 13 | mm | | ACE IMAGING | INDEPENDENT ASSESSOR | RADIOLOGIST 1 | 40 | WEEK 6 | | |", "score": 0.8438, "match_basis": "verbatim_token+global_search"}, {"md_atom_id": "md_dmTR_ex_a079", "md_file": "knowledge_base/domains/TR/examples.md", "md_atom_type": "TABLE_ROW", "md_parent_section": "§TR.2 [Example 3 (continued from TU)]", "md_verbatim": "| 24 | ABC | TR | 55555 | 24 | TARGET | A3 | | SUMNLNLD | Sum Diameters of Non-Lymph Node Tumors | 30 | mm | 30 | 30 | mm | | ACE IMAGING | INDEPENDENT ASSESSOR | RADIOLOGIST 1 | 60 | WEEK 12 | | |", "score": 0.8438, "match_basis": "verbatim_token+global_search"}, {"md_atom_id": "md_dmTR_ex_a059", "md_file": "knowledge_base/domains/TR/examples.md", "md_atom_type": "TABLE_ROW", "md_parent_section": "§TR.2 [Example 3 (continued from TU)]", "md_verbatim": "| 4 | ABC | TR | 55555 | 4 | TARGET | A1 | | SUMDIAM | Sum of Diameter | 50 | mm | 50 | 50 | mm | | ACE IMAGING | INDEPENDENT ASSESSOR | RADIOLOGIST 1 | 10 | SCREEN | | |", "score": 0.7312, "match_basis": "verbatim_token+global_search"}, {"md_atom_id": "md_dmTR_ex_a056", "md_file": "knowledge_base/domains/TR/examples.md", "md_atom_type": "TABLE_ROW", "md_parent_section": "§TR.2 [Example 3 (continued from TU)]", "md_verbatim": "| 1 | ABC | TR | 55555 | 1 | TARGET | A1 | R1-T01 | DIAMETER | Diameter | 20 | mm | 20 | 20 | mm | MRI | ACE IMAGING | INDEPENDENT ASSESSOR | RADIOLOGIST 1 | 10 | SCREEN | 2010-01-02 | -2 |", "score": 0.7091, "match_basis": "verbatim_token+global_search"}], "candidate_count": 5, "zero_candidate": false}
{"pdf_atom_id": "ig34_p0357_a005", "pdf_atom_type": "TABLE_ROW", "pdf_source": "SDTMIG_v3.4", "pdf_page": 357, "pdf_parent_section": "§6.3.12.3 Tumor Identification/Tumor Results Examples", "pdf_verbatim": "| 6 | ABC | TR | 55555 | 6 | NON-TARGET | A1 | R1-NT01 | TUMSTATE | Tumor State | PRESENT | | PRESENT | | | ACE IMAGING | CT SCAN | INDEPENDENT ASSESSOR | RADIOLOGIST 1 | 10 | SCREEN | 2010-01-02 | -2 |", "figure_ref": null, "candidates": [{"md_atom_id": "md_dmTR_ex_a061", "md_file": "knowledge_base/domains/TR/examples.md", "md_atom_type": "TABLE_ROW", "md_parent_section": "§TR.2 [Example 3 (continued from TU)]", "md_verbatim": "| 6 | ABC | TR | 55555 | 6 | NON-TARGET | A1 | R1-NT01 | TUMSTATE | Tumor State | PRESENT | | PRESENT | | | CT SCAN | ACE IMAGING | INDEPENDENT ASSESSOR | RADIOLOGIST 1 | 10 | SCREEN | 2010-01-01 | -2 |", "score": 0.9, "match_basis": "verbatim_token+global_search"}, {"md_atom_id": "md_dmTR_ex_a062", "md_file": "knowledge_base/domains/TR/examples.md", "md_atom_type": "TABLE_ROW", "md_parent_section": "§TR.2 [Example 3 (continued from TU)]", "md_verbatim": "| 7 | ABC | TR | 55555 | 7 | NON-TARGET | A1 | R1-NT02 | TUMSTATE | Tumor State | PRESENT | | PRESENT | | | MRI | ACE IMAGING | INDEPENDENT ASSESSOR | RADIOLOGIST 1 | 10 | SCREEN | 2010-01-02 | 1 |", "score": 0.85, "match_basis": "verbatim_token+global_search"}, {"md_atom_id": "md_dmTR_ex_a072", "md_file": "knowledge_base/domains/TR/examples.md", "md_atom_type": "TABLE_ROW", "md_parent_section": "§TR.2 [Example 3 (continued from TU)]", "md_verbatim": "| 17 | ABC | TR | 55555 | 17 | NON-TARGET | A2 | R1-NT01 | TUMSTATE | Tumor State | ABSENT | | ABSENT | | | CT SCAN | ACE IMAGING | INDEPENDENT ASSESSOR | RADIOLOGIST 1 | 40 | WEEK 6 | 2010-02-19 | 47 |", "score": 0.7935, "match_basis": "verbatim_token+global_search"}, {"md_atom_id": "md_dmTR_ex_a073", "md_file": "knowledge_base/domains/TR/examples.md", "md_atom_type": "TABLE_ROW", "md_parent_section": "§TR.2 [Example 3 (continued from TU)]", "md_verbatim": "| 18 | ABC | TR | 55555 | 18 | NON-TARGET | A2 | R1-NT02 | TUMSTATE | Tumor State | ABSENT | | ABSENT | | | MRI | ACE IMAGING | INDEPENDENT ASSESSOR | RADIOLOGIST 1 | 40 | WEEK 6 | 2010-02-18 | 46 |", "score": 0.75, "match_basis": "verbatim_token+global_search"}, {"md_atom_id": "md_dmTR_ex_a057", "md_file": "knowledge_base/domains/TR/examples.md", "md_atom_type": "TABLE_ROW", "md_parent_section": "§TR.2 [Example 3 (continued from TU)]", "md_verbatim": "| 2 | ABC | TR | 55555 | 2 | TARGET | A1 | R1-T02 | DIAMETER | Diameter | 15 | mm | 15 | 15 | mm | CT SCAN | ACE IMAGING | INDEPENDENT ASSESSOR | RADIOLOGIST 1 | 10 | SCREEN | 2010-01-01 | -3 |", "score": 0.6969, "match_basis": "verbatim_token+global_search"}], "candidate_count": 5, "zero_candidate": false}
{"pdf_atom_id": "ig34_p0357_a006", "pdf_atom_type": "TABLE_ROW", "pdf_source": "SDTMIG_v3.4", "pdf_page": 357, "pdf_parent_section": "§6.3.12.3 Tumor Identification/Tumor Results Examples", "pdf_verbatim": "| 7 | ABC | TR | 55555 | 7 | NON-TARGET | A1 | R1-NT02 | TUMSTATE | Tumor State | PRESENT | | PRESENT | | | ACE IMAGING | MRI | INDEPENDENT ASSESSOR | RADIOLOGIST 1 | 10 | SCREEN | 2010-01-04 | 1 |", "figure_ref": null, "candidates": [{"md_atom_id": "md_dmTR_ex_a062", "md_file": "knowledge_base/domains/TR/examples.md", "md_atom_type": "TABLE_ROW", "md_parent_section": "§TR.2 [Example 3 (continued from TU)]", "md_verbatim": "| 7 | ABC | TR | 55555 | 7 | NON-TARGET | A1 | R1-NT02 | TUMSTATE | Tumor State | PRESENT | | PRESENT | | | MRI | ACE IMAGING | INDEPENDENT ASSESSOR | RADIOLOGIST 1 | 10 | SCREEN | 2010-01-02 | 1 |", "score": 0.9, "match_basis": "verbatim_token+global_search"}, {"md_atom_id": "md_dmTR_ex_a061", "md_file": "knowledge_base/domains/TR/examples.md", "md_atom_type": "TABLE_ROW", "md_parent_section": "§TR.2 [Example 3 (continued from TU)]", "md_verbatim": "| 6 | ABC | TR | 55555 | 6 | NON-TARGET | A1 | R1-NT01 | TUMSTATE | Tumor State | PRESENT | | PRESENT | | | CT SCAN | ACE IMAGING | INDEPENDENT ASSESSOR | RADIOLOGIST 1 | 10 | SCREEN | 2010-01-01 | -2 |", "score": 0.85, "match_basis": "verbatim_token+global_search"}, {"md_atom_id": "md_dmTR_ex_a073", "md_file": "knowledge_base/domains/TR/examples.md", "md_atom_type": "TABLE_ROW", "md_parent_section": "§TR.2 [Example 3 (continued from TU)]", "md_verbatim": "| 18 | ABC | TR | 55555 | 18 | NON-TARGET | A2 | R1-NT02 | TUMSTATE | Tumor State | ABSENT | | ABSENT | | | MRI | ACE IMAGING | INDEPENDENT ASSESSOR | RADIOLOGIST 1 | 40 | WEEK 6 | 2010-02-18 | 46 |", "score": 0.7918, "match_basis": "verbatim_token+global_search"}, {"md_atom_id": "md_dmTR_ex_a072", "md_file": "knowledge_base/domains/TR/examples.md", "md_atom_type": "TABLE_ROW", "md_parent_section": "§TR.2 [Example 3 (continued from TU)]", "md_verbatim": "| 17 | ABC | TR | 55555 | 17 | NON-TARGET | A2 | R1-NT01 | TUMSTATE | Tumor State | ABSENT | | ABSENT | | | CT SCAN | ACE IMAGING | INDEPENDENT ASSESSOR | RADIOLOGIST 1 | 40 | WEEK 6 | 2010-02-19 | 47 |", "score": 0.75, "match_basis": "verbatim_token+global_search"}, {"md_atom_id": "md_dmTR_ex_a074", "md_file": "knowledge_base/domains/TR/examples.md", "md_atom_type": "TABLE_ROW", "md_parent_section": "§TR.2 [Example 3 (continued from TU)]", "md_verbatim": "| 19 | ABC | TR | 55555 | 19 | NON-TARGET | A2 | R1-NEW01 | TUMSTATE | Tumor State | EQUIVOCAL | | EQUIVOCAL | | | | ACE IMAGING | INDEPENDENT ASSESSOR | RADIOLOGIST 1 | 40 | WEEK 6 | 2010-02-18 | |", "score": 0.7, "match_basis": "verbatim_token+global_search"}], "candidate_count": 5, "zero_candidate": false}
{"pdf_atom_id": "ig34_p0357_a007", "pdf_atom_type": "TABLE_ROW", "pdf_source": "SDTMIG_v3.4", "pdf_page": 357, "pdf_parent_section": "§6.3.12.3 Tumor Identification/Tumor Results Examples", "pdf_verbatim": "| 8 | ABC | TR | 55555 | 8 | TARGET | A2 | R1-T01 | DIAMETER | Diameter | 12 | mm | 12 | 12 | mm | ACE IMAGING | MRI | INDEPENDENT ASSESSOR | RADIOLOGIST 1 | 40 | WEEK 6 | 2010-02-18 | 46 |", "figure_ref": null, "candidates": [{"md_atom_id": "md_dmTR_ex_a063", "md_file": "knowledge_base/domains/TR/examples.md", "md_atom_type": "TABLE_ROW", "md_parent_section": "§TR.2 [Example 3 (continued from TU)]", "md_verbatim": "| 8 | ABC | TR | 55555 | 8 | TARGET | A2 | R1-T01 | DIAMETER | Diameter | 12 | mm | 12 | 12 | mm | MRI | ACE IMAGING | INDEPENDENT ASSESSOR | RADIOLOGIST 1 | 40 | WEEK 6 | 2010-02-18 | 46 |", "score": 0.9, "match_basis": "verbatim_token+global_search"}, {"md_atom_id": "md_dmTR_ex_a076", "md_file": "knowledge_base/domains/TR/examples.md", "md_atom_type": "TABLE_ROW", "md_parent_section": "§TR.2 [Example 3 (continued from TU)]", "md_verbatim": "| 21 | ABC | TR | 55555 | 21 | TARGET | A3 | R1-T01 | DIAMETER | Diameter | 20 | mm | 20 | 20 | mm | CT SCAN | ACE IMAGING | INDEPENDENT ASSESSOR | RADIOLOGIST 1 | 60 | WEEK 12 | 2010-04-02 | 88 |", "score": 0.8633, "match_basis": "verbatim_token+global_search"}, {"md_atom_id": "md_dmTR_ex_a075", "md_file": "knowledge_base/domains/TR/examples.md", "md_atom_type": "TABLE_ROW", "md_parent_section": "§TR.2 [Example 3 (continued from TU)]", "md_verbatim": "| 20 | ABC | TR | 55555 | 20 | TARGET | A2 | R1-NEW01 | DIAMETER | Diameter | 7 | mm | 7 | 7 | mm | MRI | ACE IMAGING | INDEPENDENT ASSESSOR | RADIOLOGIST 1 | 40 | WEEK 6 | 2010-02-18 | 55 |", "score": 0.852, "match_basis": "verbatim_token+global_search"}, {"md_atom_id": "md_dmTR_ex_a064", "md_file": "knowledge_base/domains/TR/examples.md", "md_atom_type": "TABLE_ROW", "md_parent_section": "§TR.2 [Example 3 (continued from TU)]", "md_verbatim": "| 9 | ABC | TR | 55555 | 9 | TARGET | A2 | R1-T02 | DIAMETER | Diameter | 0 | mm | 0 | 0 | mm | CT SCAN | ACE IMAGING | INDEPENDENT ASSESSOR | RADIOLOGIST 1 | 40 | WEEK 6 | 2010-02-18 | 47 |", "score": 0.84, "match_basis": "verbatim_token+global_search"}, {"md_atom_id": "md_dmTR_ex_a065", "md_file": "knowledge_base/domains/TR/examples.md", "md_atom_type": "TABLE_ROW", "md_parent_section": "§TR.2 [Example 3 (continued from TU)]", "md_verbatim": "| 10 | ABC | TR | 55555 | 10 | TARGET | A2 | R1-T03 | DIAMETER | Diameter | 13 | mm | 13 | 13 | mm | CT SCAN | ACE IMAGING | INDEPENDENT ASSESSOR | RADIOLOGIST 1 | 40 | WEEK 6 | 2010-02-19 | 47 |", "score": 0.84, "match_basis": "verbatim_token+global_search"}], "candidate_count": 5, "zero_candidate": false}
{"pdf_atom_id": "ig34_p0357_a008", "pdf_atom_type": "TABLE_ROW", "pdf_source": "SDTMIG_v3.4", "pdf_page": 357, "pdf_parent_section": "§6.3.12.3 Tumor Identification/Tumor Results Examples", "pdf_verbatim": "| 9 | ABC | TR | 55555 | 9 | TARGET | A2 | R1-T02 | DIAMETER | Diameter | 0 | mm | 0 | 0 | mm | ACE IMAGING | CT SCAN | INDEPENDENT ASSESSOR | RADIOLOGIST 1 | 40 | WEEK 6 | 2010-02-19 | 47 |", "figure_ref": null, "candidates": [{"md_atom_id": "md_dmTR_ex_a064", "md_file": "knowledge_base/domains/TR/examples.md", "md_atom_type": "TABLE_ROW", "md_parent_section": "§TR.2 [Example 3 (continued from TU)]", "md_verbatim": "| 9 | ABC | TR | 55555 | 9 | TARGET | A2 | R1-T02 | DIAMETER | Diameter | 0 | mm | 0 | 0 | mm | CT SCAN | ACE IMAGING | INDEPENDENT ASSESSOR | RADIOLOGIST 1 | 40 | WEEK 6 | 2010-02-18 | 47 |", "score": 0.9, "match_basis": "verbatim_token+global_search"}, {"md_atom_id": "md_dmTR_ex_a077", "md_file": "knowledge_base/domains/TR/examples.md", "md_atom_type": "TABLE_ROW", "md_parent_section": "§TR.2 [Example 3 (continued from TU)]", "md_verbatim": "| 22 | ABC | TR | 55555 | 22 | TARGET | A3 | R1-T02 | DIAMETER | Diameter | 10 | mm | 10 | 10 | mm | CT SCAN | ACE IMAGING | INDEPENDENT ASSESSOR | RADIOLOGIST 1 | 60 | WEEK 12 | 2010-04-02 | 85 |", "score": 0.9, "match_basis": "verbatim_token+global_search"}, {"md_atom_id": "md_dmTR_ex_a065", "md_file": "knowledge_base/domains/TR/examples.md", "md_atom_type": "TABLE_ROW", "md_parent_section": "§TR.2 [Example 3 (continued from TU)]", "md_verbatim": "| 10 | ABC | TR | 55555 | 10 | TARGET | A2 | R1-T03 | DIAMETER | Diameter | 13 | mm | 13 | 13 | mm | CT SCAN | ACE IMAGING | INDEPENDENT ASSESSOR | RADIOLOGIST 1 | 40 | WEEK 6 | 2010-02-19 | 47 |", "score": 0.8755, "match_basis": "verbatim_token+global_search"}, {"md_atom_id": "md_dmTR_ex_a076", "md_file": "knowledge_base/domains/TR/examples.md", "md_atom_type": "TABLE_ROW", "md_parent_section": "§TR.2 [Example 3 (continued from TU)]", "md_verbatim": "| 21 | ABC | TR | 55555 | 21 | TARGET | A3 | R1-T01 | DIAMETER | Diameter | 20 | mm | 20 | 20 | mm | CT SCAN | ACE IMAGING | INDEPENDENT ASSESSOR | RADIOLOGIST 1 | 60 | WEEK 12 | 2010-04-02 | 88 |", "score": 0.8755, "match_basis": "verbatim_token+global_search"}, {"md_atom_id": "md_dmTR_ex_a063", "md_file": "knowledge_base/domains/TR/examples.md", "md_atom_type": "TABLE_ROW", "md_parent_section": "§TR.2 [Example 3 (continued from TU)]", "md_verbatim": "| 8 | ABC | TR | 55555 | 8 | TARGET | A2 | R1-T01 | DIAMETER | Diameter | 12 | mm | 12 | 12 | mm | MRI | ACE IMAGING | INDEPENDENT ASSESSOR | RADIOLOGIST 1 | 40 | WEEK 6 | 2010-02-18 | 46 |", "score": 0.84, "match_basis": "verbatim_token+global_search"}], "candidate_count": 5, "zero_candidate": false}
{"pdf_atom_id": "ig34_p0357_a009", "pdf_atom_type": "TABLE_ROW", "pdf_source": "SDTMIG_v3.4", "pdf_page": 357, "pdf_parent_section": "§6.3.12.3 Tumor Identification/Tumor Results Examples", "pdf_verbatim": "| 10 | ABC | TR | 55555 | 10 | TARGET | A2 | R1-T03 | DIAMETER | Diameter | 13 | mm | 13 | 13 | mm | ACE IMAGING | CT SCAN | INDEPENDENT ASSESSOR | RADIOLOGIST 1 | 40 | WEEK 6 | 2010-02-19 | 47 |", "figure_ref": null, "candidates": [{"md_atom_id": "md_dmTR_ex_a065", "md_file": "knowledge_base/domains/TR/examples.md", "md_atom_type": "TABLE_ROW", "md_parent_section": "§TR.2 [Example 3 (continued from TU)]", "md_verbatim": "| 10 | ABC | TR | 55555 | 10 | TARGET | A2 | R1-T03 | DIAMETER | Diameter | 13 | mm | 13 | 13 | mm | CT SCAN | ACE IMAGING | INDEPENDENT ASSESSOR | RADIOLOGIST 1 | 40 | WEEK 6 | 2010-02-19 | 47 |", "score": 0.9, "match_basis": "verbatim_token+global_search"}, {"md_atom_id": "md_dmTR_ex_a064", "md_file": "knowledge_base/domains/TR/examples.md", "md_atom_type": "TABLE_ROW", "md_parent_section": "§TR.2 [Example 3 (continued from TU)]", "md_verbatim": "| 9 | ABC | TR | 55555 | 9 | TARGET | A2 | R1-T02 | DIAMETER | Diameter | 0 | mm | 0 | 0 | mm | CT SCAN | ACE IMAGING | INDEPENDENT ASSESSOR | RADIOLOGIST 1 | 40 | WEEK 6 | 2010-02-18 | 47 |", "score": 0.8755, "match_basis": "verbatim_token+global_search"}, {"md_atom_id": "md_dmTR_ex_a076", "md_file": "knowledge_base/domains/TR/examples.md", "md_atom_type": "TABLE_ROW", "md_parent_section": "§TR.2 [Example 3 (continued from TU)]", "md_verbatim": "| 21 | ABC | TR | 55555 | 21 | TARGET | A3 | R1-T01 | DIAMETER | Diameter | 20 | mm | 20 | 20 | mm | CT SCAN | ACE IMAGING | INDEPENDENT ASSESSOR | RADIOLOGIST 1 | 60 | WEEK 12 | 2010-04-02 | 88 |", "score": 0.8755, "match_basis": "verbatim_token+global_search"}, {"md_atom_id": "md_dmTR_ex_a077", "md_file": "knowledge_base/domains/TR/examples.md", "md_atom_type": "TABLE_ROW", "md_parent_section": "§TR.2 [Example 3 (continued from TU)]", "md_verbatim": "| 22 | ABC | TR | 55555 | 22 | TARGET | A3 | R1-T02 | DIAMETER | Diameter | 10 | mm | 10 | 10 | mm | CT SCAN | ACE IMAGING | INDEPENDENT ASSESSOR | RADIOLOGIST 1 | 60 | WEEK 12 | 2010-04-02 | 85 |", "score": 0.8755, "match_basis": "verbatim_token+global_search"}, {"md_atom_id": "md_dmTR_ex_a063", "md_file": "knowledge_base/domains/TR/examples.md", "md_atom_type": "TABLE_ROW", "md_parent_section": "§TR.2 [Example 3 (continued from TU)]", "md_verbatim": "| 8 | ABC | TR | 55555 | 8 | TARGET | A2 | R1-T01 | DIAMETER | Diameter | 12 | mm | 12 | 12 | mm | MRI | ACE IMAGING | INDEPENDENT ASSESSOR | RADIOLOGIST 1 | 40 | WEEK 6 | 2010-02-18 | 46 |", "score": 0.84, "match_basis": "verbatim_token+global_search"}], "candidate_count": 5, "zero_candidate": false}
{"pdf_atom_id": "ig34_p0357_a010", "pdf_atom_type": "TABLE_ROW", "pdf_source": "SDTMIG_v3.4", "pdf_page": 357, "pdf_parent_section": "§6.3.12.3 Tumor Identification/Tumor Results Examples", "pdf_verbatim": "| 11 | ABC | TR | 55555 | 11 | TARGET | A2 | | SUMDIAM | Sum of Diameter | 25 | mm | 25 | 25 | mm | ACE IMAGING | | INDEPENDENT ASSESSOR | RADIOLOGIST 1 | 40 | WEEK 6 | | |", "figure_ref": null, "candidates": [{"md_atom_id": "md_dmTR_ex_a066", "md_file": "knowledge_base/domains/TR/examples.md", "md_atom_type": "TABLE_ROW", "md_parent_section": "§TR.2 [Example 3 (continued from TU)]", "md_verbatim": "| 11 | ABC | TR | 55555 | 11 | TARGET | A2 | | SUMDIAM | Sum of Diameter | 25 | mm | 25 | 25 | mm | | ACE IMAGING | INDEPENDENT ASSESSOR | RADIOLOGIST 1 | 40 | WEEK 6 | | |", "score": 0.9, "match_basis": "verbatim_token+global_search"}, {"md_atom_id": "md_dmTR_ex_a078", "md_file": "knowledge_base/domains/TR/examples.md", "md_atom_type": "TABLE_ROW", "md_parent_section": "§TR.2 [Example 3 (continued from TU)]", "md_verbatim": "| 23 | ABC | TR | 55555 | 23 | TARGET | A3 | | SUMDIAM | Sum of Diameter | 37 | mm | 37 | 37 | mm | | ACE IMAGING | INDEPENDENT ASSESSOR | RADIOLOGIST 1 | 60 | WEEK 12 | | |", "score": 0.9, "match_basis": "verbatim_token+global_search"}, {"md_atom_id": "md_dmTR_ex_a059", "md_file": "knowledge_base/domains/TR/examples.md", "md_atom_type": "TABLE_ROW", "md_parent_section": "§TR.2 [Example 3 (continued from TU)]", "md_verbatim": "| 4 | ABC | TR | 55555 | 4 | TARGET | A1 | | SUMDIAM | Sum of Diameter | 50 | mm | 50 | 50 | mm | | ACE IMAGING | INDEPENDENT ASSESSOR | RADIOLOGIST 1 | 10 | SCREEN | | |", "score": 0.828, "match_basis": "verbatim_token+global_search"}, {"md_atom_id": "md_dmTR_ex_a063", "md_file": "knowledge_base/domains/TR/examples.md", "md_atom_type": "TABLE_ROW", "md_parent_section": "§TR.2 [Example 3 (continued from TU)]", "md_verbatim": "| 8 | ABC | TR | 55555 | 8 | TARGET | A2 | R1-T01 | DIAMETER | Diameter | 12 | mm | 12 | 12 | mm | MRI | ACE IMAGING | INDEPENDENT ASSESSOR | RADIOLOGIST 1 | 40 | WEEK 6 | 2010-02-18 | 46 |", "score": 0.816, "match_basis": "verbatim_token+global_search"}, {"md_atom_id": "md_dmTR_ex_a064", "md_file": "knowledge_base/domains/TR/examples.md", "md_atom_type": "TABLE_ROW", "md_parent_section": "§TR.2 [Example 3 (continued from TU)]", "md_verbatim": "| 9 | ABC | TR | 55555 | 9 | TARGET | A2 | R1-T02 | DIAMETER | Diameter | 0 | mm | 0 | 0 | mm | CT SCAN | ACE IMAGING | INDEPENDENT ASSESSOR | RADIOLOGIST 1 | 40 | WEEK 6 | 2010-02-18 | 47 |", "score": 0.8059, "match_basis": "verbatim_token+global_search"}], "candidate_count": 5, "zero_candidate": false}
{"pdf_atom_id": "ig34_p0357_a011", "pdf_atom_type": "TABLE_ROW", "pdf_source": "SDTMIG_v3.4", "pdf_page": 357, "pdf_parent_section": "§6.3.12.3 Tumor Identification/Tumor Results Examples", "pdf_verbatim": "| 12 | ABC | TR | 55555 | 12 | TARGET | A2 | | SUMNLNLD | Sum Diameters of Non Lymph Node Tumors | 13 | mm | 13 | 13 | mm | ACE IMAGING | | INDEPENDENT ASSESSOR | RADIOLOGIST 1 | 40 | WEEK 6 | | |", "figure_ref": null, "candidates": [{"md_atom_id": "md_dmTR_ex_a067", "md_file": "knowledge_base/domains/TR/examples.md", "md_atom_type": "TABLE_ROW", "md_parent_section": "§TR.2 [Example 3 (continued from TU)]", "md_verbatim": "| 12 | ABC | TR | 55555 | 12 | TARGET | A2 | | SUMNLNLD | Sum Diameters of Non-Lymph Node Tumors | 13 | mm | 13 | 13 | mm | | ACE IMAGING | INDEPENDENT ASSESSOR | RADIOLOGIST 1 | 40 | WEEK 6 | | |", "score": 0.9, "match_basis": "verbatim_token+global_search"}, {"md_atom_id": "md_dmTR_ex_a079", "md_file": "knowledge_base/domains/TR/examples.md", "md_atom_type": "TABLE_ROW", "md_parent_section": "§TR.2 [Example 3 (continued from TU)]", "md_verbatim": "| 24 | ABC | TR | 55555 | 24 | TARGET | A3 | | SUMNLNLD | Sum Diameters of Non-Lymph Node Tumors | 30 | mm | 30 | 30 | mm | | ACE IMAGING | INDEPENDENT ASSESSOR | RADIOLOGIST 1 | 60 | WEEK 12 | | |", "score": 0.9, "match_basis": "verbatim_token+global_search"}, {"md_atom_id": "md_dmTR_ex_a060", "md_file": "knowledge_base/domains/TR/examples.md", "md_atom_type": "TABLE_ROW", "md_parent_section": "§TR.2 [Example 3 (continued from TU)]", "md_verbatim": "| 5 | ABC | TR | 55555 | 5 | TARGET | A1 | | SUMNLNLD | Sum Diameters of Non-Lymph Node Tumors | 30 | mm | 30 | 30 | mm | | ACE IMAGING | INDEPENDENT ASSESSOR | RADIOLOGIST 1 | 10 | SCREEN | | |", "score": 0.8438, "match_basis": "verbatim_token+global_search"}, {"md_atom_id": "md_dmTR_ex_a066", "md_file": "knowledge_base/domains/TR/examples.md", "md_atom_type": "TABLE_ROW", "md_parent_section": "§TR.2 [Example 3 (continued from TU)]", "md_verbatim": "| 11 | ABC | TR | 55555 | 11 | TARGET | A2 | | SUMDIAM | Sum of Diameter | 25 | mm | 25 | 25 | mm | | ACE IMAGING | INDEPENDENT ASSESSOR | RADIOLOGIST 1 | 40 | WEEK 6 | | |", "score": 0.7258, "match_basis": "verbatim_token+global_search"}, {"md_atom_id": "md_dmTR_ex_a078", "md_file": "knowledge_base/domains/TR/examples.md", "md_atom_type": "TABLE_ROW", "md_parent_section": "§TR.2 [Example 3 (continued from TU)]", "md_verbatim": "| 23 | ABC | TR | 55555 | 23 | TARGET | A3 | | SUMDIAM | Sum of Diameter | 37 | mm | 37 | 37 | mm | | ACE IMAGING | INDEPENDENT ASSESSOR | RADIOLOGIST 1 | 60 | WEEK 12 | | |", "score": 0.7258, "match_basis": "verbatim_token+global_search"}], "candidate_count": 5, "zero_candidate": false}
{"pdf_atom_id": "ig34_p0357_a012", "pdf_atom_type": "TABLE_ROW", "pdf_source": "SDTMIG_v3.4", "pdf_page": 357, "pdf_parent_section": "§6.3.12.3 Tumor Identification/Tumor Results Examples", "pdf_verbatim": "| 13 | ABC | TR | 55555 | 13 | TARGET | A2 | | LNSTATE | Lymph Nodes State | PATHOLOGICAL | | PATHOLOGICAL | | | ACE IMAGING | | INDEPENDENT ASSESSOR | RADIOLOGIST 1 | 40 | WEEK 6 | | |", "figure_ref": null, "candidates": [{"md_atom_id": "md_dmTR_ex_a068", "md_file": "knowledge_base/domains/TR/examples.md", "md_atom_type": "TABLE_ROW", "md_parent_section": "§TR.2 [Example 3 (continued from TU)]", "md_verbatim": "| 13 | ABC | TR | 55555 | 13 | TARGET | A2 | | LNSTATE | Lymph Nodes State | PATHOLOGICAL | | PATHOLOGICAL | | | | ACE IMAGING | INDEPENDENT ASSESSOR | RADIOLOGIST 1 | 40 | WEEK 6 | | |", "score": 0.9, "match_basis": "verbatim_token+global_search"}, {"md_atom_id": "md_dmTR_ex_a080", "md_file": "knowledge_base/domains/TR/examples.md", "md_atom_type": "TABLE_ROW", "md_parent_section": "§TR.2 [Example 3 (continued from TU)]", "md_verbatim": "| 25 | ABC | TR | 55555 | 25 | TARGET | A3 | | LNSTATE | Lymph Nodes State | NONPATHOLOGICAL | | NONPATHOLOGICAL | | | | ACE IMAGING | INDEPENDENT ASSESSOR | RADIOLOGIST 1 | 60 | WEEK 12 | | |", "score": 0.869, "match_basis": "verbatim_token+global_search"}, {"md_atom_id": "md_dmTR_ex_a073", "md_file": "knowledge_base/domains/TR/examples.md", "md_atom_type": "TABLE_ROW", "md_parent_section": "§TR.2 [Example 3 (continued from TU)]", "md_verbatim": "| 18 | ABC | TR | 55555 | 18 | NON-TARGET | A2 | R1-NT02 | TUMSTATE | Tumor State | ABSENT | | ABSENT | | | MRI | ACE IMAGING | INDEPENDENT ASSESSOR | RADIOLOGIST 1 | 40 | WEEK 6 | 2010-02-18 | 46 |", "score": 0.6478, "match_basis": "verbatim_token+global_search"}, {"md_atom_id": "md_dmTR_ex_a066", "md_file": "knowledge_base/domains/TR/examples.md", "md_atom_type": "TABLE_ROW", "md_parent_section": "§TR.2 [Example 3 (continued from TU)]", "md_verbatim": "| 11 | ABC | TR | 55555 | 11 | TARGET | A2 | | SUMDIAM | Sum of Diameter | 25 | mm | 25 | 25 | mm | | ACE IMAGING | INDEPENDENT ASSESSOR | RADIOLOGIST 1 | 40 | WEEK 6 | | |", "score": 0.6469, "match_basis": "verbatim_token+global_search"}, {"md_atom_id": "md_dmTR_ex_a078", "md_file": "knowledge_base/domains/TR/examples.md", "md_atom_type": "TABLE_ROW", "md_parent_section": "§TR.2 [Example 3 (continued from TU)]", "md_verbatim": "| 23 | ABC | TR | 55555 | 23 | TARGET | A3 | | SUMDIAM | Sum of Diameter | 37 | mm | 37 | 37 | mm | | ACE IMAGING | INDEPENDENT ASSESSOR | RADIOLOGIST 1 | 60 | WEEK 12 | | |", "score": 0.6469, "match_basis": "verbatim_token+global_search"}], "candidate_count": 5, "zero_candidate": false}
{"pdf_atom_id": "ig34_p0357_a013", "pdf_atom_type": "TABLE_ROW", "pdf_source": "SDTMIG_v3.4", "pdf_page": 357, "pdf_parent_section": "§6.3.12.3 Tumor Identification/Tumor Results Examples", "pdf_verbatim": "| 14 | ABC | TR | 55555 | 14 | TARGET | A2 | | ACNSD | Absolute Change From Nadir in Sum of Diameters | -25 | mm | -25 | -25 | mm | ACE IMAGING | | INDEPENDENT ASSESSOR | RADIOLOGIST 1 | 40 | WEEK 6 | | |", "figure_ref": null, "candidates": [{"md_atom_id": "md_dmTR_ex_a069", "md_file": "knowledge_base/domains/TR/examples.md", "md_atom_type": "TABLE_ROW", "md_parent_section": "§TR.2 [Example 3 (continued from TU)]", "md_verbatim": "| 14 | ABC | TR | 55555 | 14 | TARGET | A2 | | ACNSD | Absolute Change From Nadir in Sum of Diameters | -25 | mm | -25 | -25 | mm | | ACE IMAGING | INDEPENDENT ASSESSOR | RADIOLOGIST 1 | 40 | WEEK 6 | | |", "score": 0.9, "match_basis": "verbatim_token+global_search"}, {"md_atom_id": "md_dmTR_ex_a081", "md_file": "knowledge_base/domains/TR/examples.md", "md_atom_type": "TABLE_ROW", "md_parent_section": "§TR.2 [Example 3 (continued from TU)]", "md_verbatim": "| 26 | ABC | TR | 55555 | 26 | TARGET | A3 | | ACNSD | Absolute Change Nadir in Sum of Diameters | 17 | mm | 17 | 17 | mm | | ACE IMAGING | INDEPENDENT ASSESSOR | RADIOLOGIST 1 | 60 | WEEK 12 | | |", "score": 0.8806, "match_basis": "verbatim_token+global_search"}, {"md_atom_id": "md_dmTR_ex_a071", "md_file": "knowledge_base/domains/TR/examples.md", "md_atom_type": "TABLE_ROW", "md_parent_section": "§TR.2 [Example 3 (continued from TU)]", "md_verbatim": "| 16 | ABC | TR | 55555 | 16 | TARGET | A2 | | PCNSD | Percent Change Nadir in Sum of Diameters | -50 | % | -50 | -50 | % | | ACE IMAGING | INDEPENDENT ASSESSOR | RADIOLOGIST 1 | 40 | WEEK 6 | | |", "score": 0.7746, "match_basis": "verbatim_token+global_search"}, {"md_atom_id": "md_dmTR_ex_a083", "md_file": "knowledge_base/domains/TR/examples.md", "md_atom_type": "TABLE_ROW", "md_parent_section": "§TR.2 [Example 3 (continued from TU)]", "md_verbatim": "| 28 | ABC | TR | 55555 | 28 | TARGET | A3 | | PCNSD | Percent Change Nadir in Sum of Diameters | -50 | % | -50 | -50 | % | | ACE IMAGING | INDEPENDENT ASSESSOR | RADIOLOGIST 1 | 60 | WEEK 12 | | |", "score": 0.7746, "match_basis": "verbatim_token+global_search"}, {"md_atom_id": "md_dmTR_ex_a066", "md_file": "knowledge_base/domains/TR/examples.md", "md_atom_type": "TABLE_ROW", "md_parent_section": "§TR.2 [Example 3 (continued from TU)]", "md_verbatim": "| 11 | ABC | TR | 55555 | 11 | TARGET | A2 | | SUMDIAM | Sum of Diameter | 25 | mm | 25 | 25 | mm | | ACE IMAGING | INDEPENDENT ASSESSOR | RADIOLOGIST 1 | 40 | WEEK 6 | | |", "score": 0.7125, "match_basis": "verbatim_token+global_search"}], "candidate_count": 5, "zero_candidate": false}
{"pdf_atom_id": "ig34_p0357_a014", "pdf_atom_type": "TABLE_ROW", "pdf_source": "SDTMIG_v3.4", "pdf_page": 357, "pdf_parent_section": "§6.3.12.3 Tumor Identification/Tumor Results Examples", "pdf_verbatim": "| 15 | ABC | TR | 55555 | 15 | TARGET | A2 | | PCBSD | Percent Change From Baseline in Sum of Diameters | -50 | % | -60 | -50 | % | ACE IMAGING | | INDEPENDENT ASSESSOR | RADIOLOGIST 1 | 40 | WEEK 6 | | |", "figure_ref": null, "candidates": [{"md_atom_id": "md_dmTR_ex_a070", "md_file": "knowledge_base/domains/TR/examples.md", "md_atom_type": "TABLE_ROW", "md_parent_section": "§TR.2 [Example 3 (continued from TU)]", "md_verbatim": "| 15 | ABC | TR | 55555 | 15 | TARGET | A2 | | PCBSD | Percent Change From Baseline in Sum of Diameters | -50 | % | -50 | -50 | % | | ACE IMAGING | INDEPENDENT ASSESSOR | RADIOLOGIST 1 | 40 | WEEK 6 | | |", "score": 0.9, "match_basis": "verbatim_token+global_search"}, {"md_atom_id": "md_dmTR_ex_a082", "md_file": "knowledge_base/domains/TR/examples.md", "md_atom_type": "TABLE_ROW", "md_parent_section": "§TR.2 [Example 3 (continued from TU)]", "md_verbatim": "| 27 | ABC | TR | 55555 | 27 | TARGET | A3 | | PCBSD | Percent Change From Baseline in Sum of Diameters | -50 | % | -50 | -50 | % | | ACE IMAGING | INDEPENDENT ASSESSOR | RADIOLOGIST 1 | 60 | WEEK 12 | | |", "score": 0.9, "match_basis": "verbatim_token+global_search"}, {"md_atom_id": "md_dmTR_ex_a071", "md_file": "knowledge_base/domains/TR/examples.md", "md_atom_type": "TABLE_ROW", "md_parent_section": "§TR.2 [Example 3 (continued from TU)]", "md_verbatim": "| 16 | ABC | TR | 55555 | 16 | TARGET | A2 | | PCNSD | Percent Change Nadir in Sum of Diameters | -50 | % | -50 | -50 | % | | ACE IMAGING | INDEPENDENT ASSESSOR | RADIOLOGIST 1 | 40 | WEEK 6 | | |", "score": 0.7609, "match_basis": "verbatim_token+global_search"}, {"md_atom_id": "md_dmTR_ex_a083", "md_file": "knowledge_base/domains/TR/examples.md", "md_atom_type": "TABLE_ROW", "md_parent_section": "§TR.2 [Example 3 (continued from TU)]", "md_verbatim": "| 28 | ABC | TR | 55555 | 28 | TARGET | A3 | | PCNSD | Percent Change Nadir in Sum of Diameters | -50 | % | -50 | -50 | % | | ACE IMAGING | INDEPENDENT ASSESSOR | RADIOLOGIST 1 | 60 | WEEK 12 | | |", "score": 0.7609, "match_basis": "verbatim_token+global_search"}, {"md_atom_id": "md_dmTR_ex_a069", "md_file": "knowledge_base/domains/TR/examples.md", "md_atom_type": "TABLE_ROW", "md_parent_section": "§TR.2 [Example 3 (continued from TU)]", "md_verbatim": "| 14 | ABC | TR | 55555 | 14 | TARGET | A2 | | ACNSD | Absolute Change From Nadir in Sum of Diameters | -25 | mm | -25 | -25 | mm | | ACE IMAGING | INDEPENDENT ASSESSOR | RADIOLOGIST 1 | 40 | WEEK 6 | | |", "score": 0.708, "match_basis": "verbatim_token+global_search"}], "candidate_count": 5, "zero_candidate": false}
{"pdf_atom_id": "ig34_p0357_a015", "pdf_atom_type": "TABLE_ROW", "pdf_source": "SDTMIG_v3.4", "pdf_page": 357, "pdf_parent_section": "§6.3.12.3 Tumor Identification/Tumor Results Examples", "pdf_verbatim": "| 16 | ABC | TR | 55555 | 16 | TARGET | A2 | | PCNSD | Percent Change From Nadir in Sum of Diameters | -50 | % | -50 | -50 | % | ACE IMAGING | | INDEPENDENT ASSESSOR | RADIOLOGIST 1 | 40 | WEEK 6 | | |", "figure_ref": null, "candidates": [{"md_atom_id": "md_dmTR_ex_a071", "md_file": "knowledge_base/domains/TR/examples.md", "md_atom_type": "TABLE_ROW", "md_parent_section": "§TR.2 [Example 3 (continued from TU)]", "md_verbatim": "| 16 | ABC | TR | 55555 | 16 | TARGET | A2 | | PCNSD | Percent Change Nadir in Sum of Diameters | -50 | % | -50 | -50 | % | | ACE IMAGING | INDEPENDENT ASSESSOR | RADIOLOGIST 1 | 40 | WEEK 6 | | |", "score": 0.88, "match_basis": "verbatim_token+global_search"}, {"md_atom_id": "md_dmTR_ex_a083", "md_file": "knowledge_base/domains/TR/examples.md", "md_atom_type": "TABLE_ROW", "md_parent_section": "§TR.2 [Example 3 (continued from TU)]", "md_verbatim": "| 28 | ABC | TR | 55555 | 28 | TARGET | A3 | | PCNSD | Percent Change Nadir in Sum of Diameters | -50 | % | -50 | -50 | % | | ACE IMAGING | INDEPENDENT ASSESSOR | RADIOLOGIST 1 | 60 | WEEK 12 | | |", "score": 0.88, "match_basis": "verbatim_token+global_search"}, {"md_atom_id": "md_dmTR_ex_a069", "md_file": "knowledge_base/domains/TR/examples.md", "md_atom_type": "TABLE_ROW", "md_parent_section": "§TR.2 [Example 3 (continued from TU)]", "md_verbatim": "| 14 | ABC | TR | 55555 | 14 | TARGET | A2 | | ACNSD | Absolute Change From Nadir in Sum of Diameters | -25 | mm | -25 | -25 | mm | | ACE IMAGING | INDEPENDENT ASSESSOR | RADIOLOGIST 1 | 40 | WEEK 6 | | |", "score": 0.7925, "match_basis": "verbatim_token+global_search"}, {"md_atom_id": "md_dmTR_ex_a070", "md_file": "knowledge_base/domains/TR/examples.md", "md_atom_type": "TABLE_ROW", "md_parent_section": "§TR.2 [Example 3 (continued from TU)]", "md_verbatim": "| 15 | ABC | TR | 55555 | 15 | TARGET | A2 | | PCBSD | Percent Change From Baseline in Sum of Diameters | -50 | % | -50 | -50 | % | | ACE IMAGING | INDEPENDENT ASSESSOR | RADIOLOGIST 1 | 40 | WEEK 6 | | |", "score": 0.7783, "match_basis": "verbatim_token+global_search"}, {"md_atom_id": "md_dmTR_ex_a082", "md_file": "knowledge_base/domains/TR/examples.md", "md_atom_type": "TABLE_ROW", "md_parent_section": "§TR.2 [Example 3 (continued from TU)]", "md_verbatim": "| 27 | ABC | TR | 55555 | 27 | TARGET | A3 | | PCBSD | Percent Change From Baseline in Sum of Diameters | -50 | % | -50 | -50 | % | | ACE IMAGING | INDEPENDENT ASSESSOR | RADIOLOGIST 1 | 60 | WEEK 12 | | |", "score": 0.7783, "match_basis": "verbatim_token+global_search"}], "candidate_count": 5, "zero_candidate": false}
{"pdf_atom_id": "ig34_p0357_a016", "pdf_atom_type": "TABLE_ROW", "pdf_source": "SDTMIG_v3.4", "pdf_page": 357, "pdf_parent_section": "§6.3.12.3 Tumor Identification/Tumor Results Examples", "pdf_verbatim": "| 17 | ABC | TR | 55555 | 17 | NON-TARGET | A2 | R1-NT01 | TUMSTATE | Tumor State | ABSENT | | ABSENT | | | ACE IMAGING | CT SCAN | INDEPENDENT ASSESSOR | RADIOLOGIST 1 | 40 | WEEK 6 | 2010-02-19 | 47 |", "figure_ref": null, "candidates": [{"md_atom_id": "md_dmTR_ex_a072", "md_file": "knowledge_base/domains/TR/examples.md", "md_atom_type": "TABLE_ROW", "md_parent_section": "§TR.2 [Example 3 (continued from TU)]", "md_verbatim": "| 17 | ABC | TR | 55555 | 17 | NON-TARGET | A2 | R1-NT01 | TUMSTATE | Tumor State | ABSENT | | ABSENT | | | CT SCAN | ACE IMAGING | INDEPENDENT ASSESSOR | RADIOLOGIST 1 | 40 | WEEK 6 | 2010-02-19 | 47 |", "score": 0.9, "match_basis": "verbatim_token+global_search"}, {"md_atom_id": "md_dmTR_ex_a073", "md_file": "knowledge_base/domains/TR/examples.md", "md_atom_type": "TABLE_ROW", "md_parent_section": "§TR.2 [Example 3 (continued from TU)]", "md_verbatim": "| 18 | ABC | TR | 55555 | 18 | NON-TARGET | A2 | R1-NT02 | TUMSTATE | Tumor State | ABSENT | | ABSENT | | | MRI | ACE IMAGING | INDEPENDENT ASSESSOR | RADIOLOGIST 1 | 40 | WEEK 6 | 2010-02-18 | 46 |", "score": 0.8474, "match_basis": "verbatim_token+global_search"}, {"md_atom_id": "md_dmTR_ex_a061", "md_file": "knowledge_base/domains/TR/examples.md", "md_atom_type": "TABLE_ROW", "md_parent_section": "§TR.2 [Example 3 (continued from TU)]", "md_verbatim": "| 6 | ABC | TR | 55555 | 6 | NON-TARGET | A1 | R1-NT01 | TUMSTATE | Tumor State | PRESENT | | PRESENT | | | CT SCAN | ACE IMAGING | INDEPENDENT ASSESSOR | RADIOLOGIST 1 | 10 | SCREEN | 2010-01-01 | -2 |", "score": 0.7935, "match_basis": "verbatim_token+global_search"}, {"md_atom_id": "md_dmTR_ex_a062", "md_file": "knowledge_base/domains/TR/examples.md", "md_atom_type": "TABLE_ROW", "md_parent_section": "§TR.2 [Example 3 (continued from TU)]", "md_verbatim": "| 7 | ABC | TR | 55555 | 7 | NON-TARGET | A1 | R1-NT02 | TUMSTATE | Tumor State | PRESENT | | PRESENT | | | MRI | ACE IMAGING | INDEPENDENT ASSESSOR | RADIOLOGIST 1 | 10 | SCREEN | 2010-01-02 | 1 |", "score": 0.75, "match_basis": "verbatim_token+global_search"}, {"md_atom_id": "md_dmTR_ex_a074", "md_file": "knowledge_base/domains/TR/examples.md", "md_atom_type": "TABLE_ROW", "md_parent_section": "§TR.2 [Example 3 (continued from TU)]", "md_verbatim": "| 19 | ABC | TR | 55555 | 19 | NON-TARGET | A2 | R1-NEW01 | TUMSTATE | Tumor State | EQUIVOCAL | | EQUIVOCAL | | | | ACE IMAGING | INDEPENDENT ASSESSOR | RADIOLOGIST 1 | 40 | WEEK 6 | 2010-02-18 | |", "score": 0.7431, "match_basis": "verbatim_token+global_search"}], "candidate_count": 5, "zero_candidate": false}
{"pdf_atom_id": "ig34_p0357_a017", "pdf_atom_type": "TABLE_ROW", "pdf_source": "SDTMIG_v3.4", "pdf_page": 357, "pdf_parent_section": "§6.3.12.3 Tumor Identification/Tumor Results Examples", "pdf_verbatim": "| 18 | ABC | TR | 55555 | 18 | NON-TARGET | A2 | R1-NT02 | TUMSTATE | Tumor State | ABSENT | | ABSENT | | | ACE IMAGING | MRI | INDEPENDENT ASSESSOR | RADIOLOGIST 1 | 40 | WEEK 6 | 2010-02-18 | 46 |", "figure_ref": null, "candidates": [{"md_atom_id": "md_dmTR_ex_a073", "md_file": "knowledge_base/domains/TR/examples.md", "md_atom_type": "TABLE_ROW", "md_parent_section": "§TR.2 [Example 3 (continued from TU)]", "md_verbatim": "| 18 | ABC | TR | 55555 | 18 | NON-TARGET | A2 | R1-NT02 | TUMSTATE | Tumor State | ABSENT | | ABSENT | | | MRI | ACE IMAGING | INDEPENDENT ASSESSOR | RADIOLOGIST 1 | 40 | WEEK 6 | 2010-02-18 | 46 |", "score": 0.9, "match_basis": "verbatim_token+global_search"}, {"md_atom_id": "md_dmTR_ex_a072", "md_file": "knowledge_base/domains/TR/examples.md", "md_atom_type": "TABLE_ROW", "md_parent_section": "§TR.2 [Example 3 (continued from TU)]", "md_verbatim": "| 17 | ABC | TR | 55555 | 17 | NON-TARGET | A2 | R1-NT01 | TUMSTATE | Tumor State | ABSENT | | ABSENT | | | CT SCAN | ACE IMAGING | INDEPENDENT ASSESSOR | RADIOLOGIST 1 | 40 | WEEK 6 | 2010-02-19 | 47 |", "score": 0.8474, "match_basis": "verbatim_token+global_search"}, {"md_atom_id": "md_dmTR_ex_a062", "md_file": "knowledge_base/domains/TR/examples.md", "md_atom_type": "TABLE_ROW", "md_parent_section": "§TR.2 [Example 3 (continued from TU)]", "md_verbatim": "| 7 | ABC | TR | 55555 | 7 | NON-TARGET | A1 | R1-NT02 | TUMSTATE | Tumor State | PRESENT | | PRESENT | | | MRI | ACE IMAGING | INDEPENDENT ASSESSOR | RADIOLOGIST 1 | 10 | SCREEN | 2010-01-02 | 1 |", "score": 0.7918, "match_basis": "verbatim_token+global_search"}, {"md_atom_id": "md_dmTR_ex_a061", "md_file": "knowledge_base/domains/TR/examples.md", "md_atom_type": "TABLE_ROW", "md_parent_section": "§TR.2 [Example 3 (continued from TU)]", "md_verbatim": "| 6 | ABC | TR | 55555 | 6 | NON-TARGET | A1 | R1-NT01 | TUMSTATE | Tumor State | PRESENT | | PRESENT | | | CT SCAN | ACE IMAGING | INDEPENDENT ASSESSOR | RADIOLOGIST 1 | 10 | SCREEN | 2010-01-01 | -2 |", "score": 0.75, "match_basis": "verbatim_token+global_search"}, {"md_atom_id": "md_dmTR_ex_a074", "md_file": "knowledge_base/domains/TR/examples.md", "md_atom_type": "TABLE_ROW", "md_parent_section": "§TR.2 [Example 3 (continued from TU)]", "md_verbatim": "| 19 | ABC | TR | 55555 | 19 | NON-TARGET | A2 | R1-NEW01 | TUMSTATE | Tumor State | EQUIVOCAL | | EQUIVOCAL | | | | ACE IMAGING | INDEPENDENT ASSESSOR | RADIOLOGIST 1 | 40 | WEEK 6 | 2010-02-18 | |", "score": 0.75, "match_basis": "verbatim_token+global_search"}], "candidate_count": 5, "zero_candidate": false}
{"pdf_atom_id": "ig34_p0357_a018", "pdf_atom_type": "TABLE_ROW", "pdf_source": "SDTMIG_v3.4", "pdf_page": 357, "pdf_parent_section": "§6.3.12.3 Tumor Identification/Tumor Results Examples", "pdf_verbatim": "| 19 | ABC | TR | 55555 | 19 | NEW | A2 | R1-NEW01 | TUMSTATE | Tumor State | EQUIVOCAL | | EQUIVOCAL | | | ACE IMAGING | CT SCAN | INDEPENDENT ASSESSOR | RADIOLOGIST 1 | 40 | WEEK 6 | 2010-02-18 | 46 |", "figure_ref": null, "candidates": [{"md_atom_id": "md_dmTR_ex_a074", "md_file": "knowledge_base/domains/TR/examples.md", "md_atom_type": "TABLE_ROW", "md_parent_section": "§TR.2 [Example 3 (continued from TU)]", "md_verbatim": "| 19 | ABC | TR | 55555 | 19 | NON-TARGET | A2 | R1-NEW01 | TUMSTATE | Tumor State | EQUIVOCAL | | EQUIVOCAL | | | | ACE IMAGING | INDEPENDENT ASSESSOR | RADIOLOGIST 1 | 40 | WEEK 6 | 2010-02-18 | |", "score": 0.83, "match_basis": "verbatim_token+global_search"}, {"md_atom_id": "md_dmTR_ex_a072", "md_file": "knowledge_base/domains/TR/examples.md", "md_atom_type": "TABLE_ROW", "md_parent_section": "§TR.2 [Example 3 (continued from TU)]", "md_verbatim": "| 17 | ABC | TR | 55555 | 17 | NON-TARGET | A2 | R1-NT01 | TUMSTATE | Tumor State | ABSENT | | ABSENT | | | CT SCAN | ACE IMAGING | INDEPENDENT ASSESSOR | RADIOLOGIST 1 | 40 | WEEK 6 | 2010-02-19 | 47 |", "score": 0.7154, "match_basis": "verbatim_token+global_search"}, {"md_atom_id": "md_dmTR_ex_a073", "md_file": "knowledge_base/domains/TR/examples.md", "md_atom_type": "TABLE_ROW", "md_parent_section": "§TR.2 [Example 3 (continued from TU)]", "md_verbatim": "| 18 | ABC | TR | 55555 | 18 | NON-TARGET | A2 | R1-NT02 | TUMSTATE | Tumor State | ABSENT | | ABSENT | | | MRI | ACE IMAGING | INDEPENDENT ASSESSOR | RADIOLOGIST 1 | 40 | WEEK 6 | 2010-02-18 | 46 |", "score": 0.6909, "match_basis": "verbatim_token+global_search"}, {"md_atom_id": "md_dmTU_ex_a064", "md_file": "knowledge_base/domains/TU/examples.md", "md_atom_type": "TABLE_ROW", "md_parent_section": "§TU.3 [Example 3]", "md_verbatim": "| 6 | ABC | TU | 55555 | 6 | R1-NEW01 | TUMIDENT | Tumor Identification | NEW | NEW | LUNG | | CT SCAN | ACE IMAGING | INDEPENDENT ASSESSOR | RADIOLOGIST 1 | 40 | WEEK 6 | 2010-02-20 |", "score": 0.6739, "match_basis": "verbatim_token+global_search"}, {"md_atom_id": "md_dmTR_ex_a061", "md_file": "knowledge_base/domains/TR/examples.md", "md_atom_type": "TABLE_ROW", "md_parent_section": "§TR.2 [Example 3 (continued from TU)]", "md_verbatim": "| 6 | ABC | TR | 55555 | 6 | NON-TARGET | A1 | R1-NT01 | TUMSTATE | Tumor State | PRESENT | | PRESENT | | | CT SCAN | ACE IMAGING | INDEPENDENT ASSESSOR | RADIOLOGIST 1 | 10 | SCREEN | 2010-01-01 | -2 |", "score": 0.6686, "match_basis": "verbatim_token+global_search"}], "candidate_count": 5, "zero_candidate": false}
{"pdf_atom_id": "ig34_p0357_a019", "pdf_atom_type": "TABLE_ROW", "pdf_source": "SDTMIG_v3.4", "pdf_page": 357, "pdf_parent_section": "§6.3.12.3 Tumor Identification/Tumor Results Examples", "pdf_verbatim": "| 20 | ABC | TR | 55555 | 20 | TARGET | A3 | R1-T01 | DIAMETER | Diameter | 7 | mm | 7 | 7 | mm | ACE IMAGING | MRI | INDEPENDENT ASSESSOR | RADIOLOGIST 1 | 60 | WEEK 12 | 2010-04-02 | 88 |", "figure_ref": null, "candidates": [{"md_atom_id": "md_dmTR_ex_a063", "md_file": "knowledge_base/domains/TR/examples.md", "md_atom_type": "TABLE_ROW", "md_parent_section": "§TR.2 [Example 3 (continued from TU)]", "md_verbatim": "| 8 | ABC | TR | 55555 | 8 | TARGET | A2 | R1-T01 | DIAMETER | Diameter | 12 | mm | 12 | 12 | mm | MRI | ACE IMAGING | INDEPENDENT ASSESSOR | RADIOLOGIST 1 | 40 | WEEK 6 | 2010-02-18 | 46 |", "score": 0.9, "match_basis": "verbatim_token+global_search"}, {"md_atom_id": "md_dmTR_ex_a076", "md_file": "knowledge_base/domains/TR/examples.md", "md_atom_type": "TABLE_ROW", "md_parent_section": "§TR.2 [Example 3 (continued from TU)]", "md_verbatim": "| 21 | ABC | TR | 55555 | 21 | TARGET | A3 | R1-T01 | DIAMETER | Diameter | 20 | mm | 20 | 20 | mm | CT SCAN | ACE IMAGING | INDEPENDENT ASSESSOR | RADIOLOGIST 1 | 60 | WEEK 12 | 2010-04-02 | 88 |", "score": 0.8633, "match_basis": "verbatim_token+global_search"}, {"md_atom_id": "md_dmTR_ex_a075", "md_file": "knowledge_base/domains/TR/examples.md", "md_atom_type": "TABLE_ROW", "md_parent_section": "§TR.2 [Example 3 (continued from TU)]", "md_verbatim": "| 20 | ABC | TR | 55555 | 20 | TARGET | A2 | R1-NEW01 | DIAMETER | Diameter | 7 | mm | 7 | 7 | mm | MRI | ACE IMAGING | INDEPENDENT ASSESSOR | RADIOLOGIST 1 | 40 | WEEK 6 | 2010-02-18 | 55 |", "score": 0.852, "match_basis": "verbatim_token+global_search"}, {"md_atom_id": "md_dmTR_ex_a064", "md_file": "knowledge_base/domains/TR/examples.md", "md_atom_type": "TABLE_ROW", "md_parent_section": "§TR.2 [Example 3 (continued from TU)]", "md_verbatim": "| 9 | ABC | TR | 55555 | 9 | TARGET | A2 | R1-T02 | DIAMETER | Diameter | 0 | mm | 0 | 0 | mm | CT SCAN | ACE IMAGING | INDEPENDENT ASSESSOR | RADIOLOGIST 1 | 40 | WEEK 6 | 2010-02-18 | 47 |", "score": 0.84, "match_basis": "verbatim_token+global_search"}, {"md_atom_id": "md_dmTR_ex_a065", "md_file": "knowledge_base/domains/TR/examples.md", "md_atom_type": "TABLE_ROW", "md_parent_section": "§TR.2 [Example 3 (continued from TU)]", "md_verbatim": "| 10 | ABC | TR | 55555 | 10 | TARGET | A2 | R1-T03 | DIAMETER | Diameter | 13 | mm | 13 | 13 | mm | CT SCAN | ACE IMAGING | INDEPENDENT ASSESSOR | RADIOLOGIST 1 | 40 | WEEK 6 | 2010-02-19 | 47 |", "score": 0.84, "match_basis": "verbatim_token+global_search"}], "candidate_count": 5, "zero_candidate": false}
{"pdf_atom_id": "ig34_p0357_a020", "pdf_atom_type": "TABLE_ROW", "pdf_source": "SDTMIG_v3.4", "pdf_page": 357, "pdf_parent_section": "§6.3.12.3 Tumor Identification/Tumor Results Examples", "pdf_verbatim": "| 21 | ABC | TR | 55555 | 21 | TARGET | A3 | R1-T02 | DIAMETER | Diameter | 20 | mm | 20 | 20 | mm | ACE IMAGING | CT SCAN | INDEPENDENT ASSESSOR | RADIOLOGIST 1 | 60 | WEEK 12 | 2010-04-02 | 88 |", "figure_ref": null, "candidates": [{"md_atom_id": "md_dmTR_ex_a064", "md_file": "knowledge_base/domains/TR/examples.md", "md_atom_type": "TABLE_ROW", "md_parent_section": "§TR.2 [Example 3 (continued from TU)]", "md_verbatim": "| 9 | ABC | TR | 55555 | 9 | TARGET | A2 | R1-T02 | DIAMETER | Diameter | 0 | mm | 0 | 0 | mm | CT SCAN | ACE IMAGING | INDEPENDENT ASSESSOR | RADIOLOGIST 1 | 40 | WEEK 6 | 2010-02-18 | 47 |", "score": 0.9, "match_basis": "verbatim_token+global_search"}, {"md_atom_id": "md_dmTR_ex_a077", "md_file": "knowledge_base/domains/TR/examples.md", "md_atom_type": "TABLE_ROW", "md_parent_section": "§TR.2 [Example 3 (continued from TU)]", "md_verbatim": "| 22 | ABC | TR | 55555 | 22 | TARGET | A3 | R1-T02 | DIAMETER | Diameter | 10 | mm | 10 | 10 | mm | CT SCAN | ACE IMAGING | INDEPENDENT ASSESSOR | RADIOLOGIST 1 | 60 | WEEK 12 | 2010-04-02 | 85 |", "score": 0.9, "match_basis": "verbatim_token+global_search"}, {"md_atom_id": "md_dmTR_ex_a065", "md_file": "knowledge_base/domains/TR/examples.md", "md_atom_type": "TABLE_ROW", "md_parent_section": "§TR.2 [Example 3 (continued from TU)]", "md_verbatim": "| 10 | ABC | TR | 55555 | 10 | TARGET | A2 | R1-T03 | DIAMETER | Diameter | 13 | mm | 13 | 13 | mm | CT SCAN | ACE IMAGING | INDEPENDENT ASSESSOR | RADIOLOGIST 1 | 40 | WEEK 6 | 2010-02-19 | 47 |", "score": 0.8755, "match_basis": "verbatim_token+global_search"}, {"md_atom_id": "md_dmTR_ex_a076", "md_file": "knowledge_base/domains/TR/examples.md", "md_atom_type": "TABLE_ROW", "md_parent_section": "§TR.2 [Example 3 (continued from TU)]", "md_verbatim": "| 21 | ABC | TR | 55555 | 21 | TARGET | A3 | R1-T01 | DIAMETER | Diameter | 20 | mm | 20 | 20 | mm | CT SCAN | ACE IMAGING | INDEPENDENT ASSESSOR | RADIOLOGIST 1 | 60 | WEEK 12 | 2010-04-02 | 88 |", "score": 0.8755, "match_basis": "verbatim_token+global_search"}, {"md_atom_id": "md_dmTR_ex_a063", "md_file": "knowledge_base/domains/TR/examples.md", "md_atom_type": "TABLE_ROW", "md_parent_section": "§TR.2 [Example 3 (continued from TU)]", "md_verbatim": "| 8 | ABC | TR | 55555 | 8 | TARGET | A2 | R1-T01 | DIAMETER | Diameter | 12 | mm | 12 | 12 | mm | MRI | ACE IMAGING | INDEPENDENT ASSESSOR | RADIOLOGIST 1 | 40 | WEEK 6 | 2010-02-18 | 46 |", "score": 0.84, "match_basis": "verbatim_token+global_search"}], "candidate_count": 5, "zero_candidate": false}
{"pdf_atom_id": "ig34_p0357_a021", "pdf_atom_type": "TABLE_ROW", "pdf_source": "SDTMIG_v3.4", "pdf_page": 357, "pdf_parent_section": "§6.3.12.3 Tumor Identification/Tumor Results Examples", "pdf_verbatim": "| 22 | ABC | TR | 55555 | 22 | TARGET | A3 | R1-T03 | DIAMETER | Diameter | 10 | mm | 10 | 10 | mm | ACE IMAGING | CT SCAN | INDEPENDENT ASSESSOR | RADIOLOGIST 1 | 60 | WEEK 12 | 2010-04-02 | 88 |", "figure_ref": null, "candidates": [{"md_atom_id": "md_dmTR_ex_a065", "md_file": "knowledge_base/domains/TR/examples.md", "md_atom_type": "TABLE_ROW", "md_parent_section": "§TR.2 [Example 3 (continued from TU)]", "md_verbatim": "| 10 | ABC | TR | 55555 | 10 | TARGET | A2 | R1-T03 | DIAMETER | Diameter | 13 | mm | 13 | 13 | mm | CT SCAN | ACE IMAGING | INDEPENDENT ASSESSOR | RADIOLOGIST 1 | 40 | WEEK 6 | 2010-02-19 | 47 |", "score": 0.9, "match_basis": "verbatim_token+global_search"}, {"md_atom_id": "md_dmTR_ex_a064", "md_file": "knowledge_base/domains/TR/examples.md", "md_atom_type": "TABLE_ROW", "md_parent_section": "§TR.2 [Example 3 (continued from TU)]", "md_verbatim": "| 9 | ABC | TR | 55555 | 9 | TARGET | A2 | R1-T02 | DIAMETER | Diameter | 0 | mm | 0 | 0 | mm | CT SCAN | ACE IMAGING | INDEPENDENT ASSESSOR | RADIOLOGIST 1 | 40 | WEEK 6 | 2010-02-18 | 47 |", "score": 0.8755, "match_basis": "verbatim_token+global_search"}, {"md_atom_id": "md_dmTR_ex_a076", "md_file": "knowledge_base/domains/TR/examples.md", "md_atom_type": "TABLE_ROW", "md_parent_section": "§TR.2 [Example 3 (continued from TU)]", "md_verbatim": "| 21 | ABC | TR | 55555 | 21 | TARGET | A3 | R1-T01 | DIAMETER | Diameter | 20 | mm | 20 | 20 | mm | CT SCAN | ACE IMAGING | INDEPENDENT ASSESSOR | RADIOLOGIST 1 | 60 | WEEK 12 | 2010-04-02 | 88 |", "score": 0.8755, "match_basis": "verbatim_token+global_search"}, {"md_atom_id": "md_dmTR_ex_a077", "md_file": "knowledge_base/domains/TR/examples.md", "md_atom_type": "TABLE_ROW", "md_parent_section": "§TR.2 [Example 3 (continued from TU)]", "md_verbatim": "| 22 | ABC | TR | 55555 | 22 | TARGET | A3 | R1-T02 | DIAMETER | Diameter | 10 | mm | 10 | 10 | mm | CT SCAN | ACE IMAGING | INDEPENDENT ASSESSOR | RADIOLOGIST 1 | 60 | WEEK 12 | 2010-04-02 | 85 |", "score": 0.8755, "match_basis": "verbatim_token+global_search"}, {"md_atom_id": "md_dmTR_ex_a063", "md_file": "knowledge_base/domains/TR/examples.md", "md_atom_type": "TABLE_ROW", "md_parent_section": "§TR.2 [Example 3 (continued from TU)]", "md_verbatim": "| 8 | ABC | TR | 55555 | 8 | TARGET | A2 | R1-T01 | DIAMETER | Diameter | 12 | mm | 12 | 12 | mm | MRI | ACE IMAGING | INDEPENDENT ASSESSOR | RADIOLOGIST 1 | 40 | WEEK 6 | 2010-02-18 | 46 |", "score": 0.84, "match_basis": "verbatim_token+global_search"}], "candidate_count": 5, "zero_candidate": false}
{"pdf_atom_id": "ig34_p0357_a022", "pdf_atom_type": "TABLE_ROW", "pdf_source": "SDTMIG_v3.4", "pdf_page": 357, "pdf_parent_section": "§6.3.12.3 Tumor Identification/Tumor Results Examples", "pdf_verbatim": "| 23 | ABC | TR | 55555 | 23 | TARGET | A3 | | SUMDIAM | Sum of Diameter | 37 | mm | 37 | 37 | mm | ACE IMAGING | | INDEPENDENT ASSESSOR | RADIOLOGIST 1 | 60 | WEEK 12 | | |", "figure_ref": null, "candidates": [{"md_atom_id": "md_dmTR_ex_a066", "md_file": "knowledge_base/domains/TR/examples.md", "md_atom_type": "TABLE_ROW", "md_parent_section": "§TR.2 [Example 3 (continued from TU)]", "md_verbatim": "| 11 | ABC | TR | 55555 | 11 | TARGET | A2 | | SUMDIAM | Sum of Diameter | 25 | mm | 25 | 25 | mm | | ACE IMAGING | INDEPENDENT ASSESSOR | RADIOLOGIST 1 | 40 | WEEK 6 | | |", "score": 0.9, "match_basis": "verbatim_token+global_search"}, {"md_atom_id": "md_dmTR_ex_a078", "md_file": "knowledge_base/domains/TR/examples.md", "md_atom_type": "TABLE_ROW", "md_parent_section": "§TR.2 [Example 3 (continued from TU)]", "md_verbatim": "| 23 | ABC | TR | 55555 | 23 | TARGET | A3 | | SUMDIAM | Sum of Diameter | 37 | mm | 37 | 37 | mm | | ACE IMAGING | INDEPENDENT ASSESSOR | RADIOLOGIST 1 | 60 | WEEK 12 | | |", "score": 0.9, "match_basis": "verbatim_token+global_search"}, {"md_atom_id": "md_dmTR_ex_a059", "md_file": "knowledge_base/domains/TR/examples.md", "md_atom_type": "TABLE_ROW", "md_parent_section": "§TR.2 [Example 3 (continued from TU)]", "md_verbatim": "| 4 | ABC | TR | 55555 | 4 | TARGET | A1 | | SUMDIAM | Sum of Diameter | 50 | mm | 50 | 50 | mm | | ACE IMAGING | INDEPENDENT ASSESSOR | RADIOLOGIST 1 | 10 | SCREEN | | |", "score": 0.828, "match_basis": "verbatim_token+global_search"}, {"md_atom_id": "md_dmTR_ex_a063", "md_file": "knowledge_base/domains/TR/examples.md", "md_atom_type": "TABLE_ROW", "md_parent_section": "§TR.2 [Example 3 (continued from TU)]", "md_verbatim": "| 8 | ABC | TR | 55555 | 8 | TARGET | A2 | R1-T01 | DIAMETER | Diameter | 12 | mm | 12 | 12 | mm | MRI | ACE IMAGING | INDEPENDENT ASSESSOR | RADIOLOGIST 1 | 40 | WEEK 6 | 2010-02-18 | 46 |", "score": 0.816, "match_basis": "verbatim_token+global_search"}, {"md_atom_id": "md_dmTR_ex_a064", "md_file": "knowledge_base/domains/TR/examples.md", "md_atom_type": "TABLE_ROW", "md_parent_section": "§TR.2 [Example 3 (continued from TU)]", "md_verbatim": "| 9 | ABC | TR | 55555 | 9 | TARGET | A2 | R1-T02 | DIAMETER | Diameter | 0 | mm | 0 | 0 | mm | CT SCAN | ACE IMAGING | INDEPENDENT ASSESSOR | RADIOLOGIST 1 | 40 | WEEK 6 | 2010-02-18 | 47 |", "score": 0.8059, "match_basis": "verbatim_token+global_search"}], "candidate_count": 5, "zero_candidate": false}
{"pdf_atom_id": "ig34_p0357_a023", "pdf_atom_type": "TABLE_ROW", "pdf_source": "SDTMIG_v3.4", "pdf_page": 357, "pdf_parent_section": "§6.3.12.3 Tumor Identification/Tumor Results Examples", "pdf_verbatim": "| 24 | ABC | TR | 55555 | 24 | TARGET | A3 | | SUMNLNLD | Sum Diameters of Non Lymph Node Tumors | 30 | mm | 30 | 30 | mm | ACE IMAGING | | INDEPENDENT ASSESSOR | RADIOLOGIST 1 | 60 | WEEK 12 | | |", "figure_ref": null, "candidates": [{"md_atom_id": "md_dmTR_ex_a067", "md_file": "knowledge_base/domains/TR/examples.md", "md_atom_type": "TABLE_ROW", "md_parent_section": "§TR.2 [Example 3 (continued from TU)]", "md_verbatim": "| 12 | ABC | TR | 55555 | 12 | TARGET | A2 | | SUMNLNLD | Sum Diameters of Non-Lymph Node Tumors | 13 | mm | 13 | 13 | mm | | ACE IMAGING | INDEPENDENT ASSESSOR | RADIOLOGIST 1 | 40 | WEEK 6 | | |", "score": 0.9, "match_basis": "verbatim_token+global_search"}, {"md_atom_id": "md_dmTR_ex_a079", "md_file": "knowledge_base/domains/TR/examples.md", "md_atom_type": "TABLE_ROW", "md_parent_section": "§TR.2 [Example 3 (continued from TU)]", "md_verbatim": "| 24 | ABC | TR | 55555 | 24 | TARGET | A3 | | SUMNLNLD | Sum Diameters of Non-Lymph Node Tumors | 30 | mm | 30 | 30 | mm | | ACE IMAGING | INDEPENDENT ASSESSOR | RADIOLOGIST 1 | 60 | WEEK 12 | | |", "score": 0.9, "match_basis": "verbatim_token+global_search"}, {"md_atom_id": "md_dmTR_ex_a060", "md_file": "knowledge_base/domains/TR/examples.md", "md_atom_type": "TABLE_ROW", "md_parent_section": "§TR.2 [Example 3 (continued from TU)]", "md_verbatim": "| 5 | ABC | TR | 55555 | 5 | TARGET | A1 | | SUMNLNLD | Sum Diameters of Non-Lymph Node Tumors | 30 | mm | 30 | 30 | mm | | ACE IMAGING | INDEPENDENT ASSESSOR | RADIOLOGIST 1 | 10 | SCREEN | | |", "score": 0.8438, "match_basis": "verbatim_token+global_search"}, {"md_atom_id": "md_dmTR_ex_a066", "md_file": "knowledge_base/domains/TR/examples.md", "md_atom_type": "TABLE_ROW", "md_parent_section": "§TR.2 [Example 3 (continued from TU)]", "md_verbatim": "| 11 | ABC | TR | 55555 | 11 | TARGET | A2 | | SUMDIAM | Sum of Diameter | 25 | mm | 25 | 25 | mm | | ACE IMAGING | INDEPENDENT ASSESSOR | RADIOLOGIST 1 | 40 | WEEK 6 | | |", "score": 0.7258, "match_basis": "verbatim_token+global_search"}, {"md_atom_id": "md_dmTR_ex_a078", "md_file": "knowledge_base/domains/TR/examples.md", "md_atom_type": "TABLE_ROW", "md_parent_section": "§TR.2 [Example 3 (continued from TU)]", "md_verbatim": "| 23 | ABC | TR | 55555 | 23 | TARGET | A3 | | SUMDIAM | Sum of Diameter | 37 | mm | 37 | 37 | mm | | ACE IMAGING | INDEPENDENT ASSESSOR | RADIOLOGIST 1 | 60 | WEEK 12 | | |", "score": 0.7258, "match_basis": "verbatim_token+global_search"}], "candidate_count": 5, "zero_candidate": false}
{"pdf_atom_id": "ig34_p0357_a024", "pdf_atom_type": "TABLE_ROW", "pdf_source": "SDTMIG_v3.4", "pdf_page": 357, "pdf_parent_section": "§6.3.12.3 Tumor Identification/Tumor Results Examples", "pdf_verbatim": "| 25 | ABC | TR | 55555 | 25 | TARGET | A3 | | LNSTATE | Lymph Nodes State | NONPATHOLOGICAL | | NONPATHOLOGICAL | | | ACE IMAGING | | INDEPENDENT ASSESSOR | RADIOLOGIST 1 | 60 | WEEK 12 | | |", "figure_ref": null, "candidates": [{"md_atom_id": "md_dmTR_ex_a080", "md_file": "knowledge_base/domains/TR/examples.md", "md_atom_type": "TABLE_ROW", "md_parent_section": "§TR.2 [Example 3 (continued from TU)]", "md_verbatim": "| 25 | ABC | TR | 55555 | 25 | TARGET | A3 | | LNSTATE | Lymph Nodes State | NONPATHOLOGICAL | | NONPATHOLOGICAL | | | | ACE IMAGING | INDEPENDENT ASSESSOR | RADIOLOGIST 1 | 60 | WEEK 12 | | |", "score": 0.9, "match_basis": "verbatim_token+global_search"}, {"md_atom_id": "md_dmTR_ex_a068", "md_file": "knowledge_base/domains/TR/examples.md", "md_atom_type": "TABLE_ROW", "md_parent_section": "§TR.2 [Example 3 (continued from TU)]", "md_verbatim": "| 13 | ABC | TR | 55555 | 13 | TARGET | A2 | | LNSTATE | Lymph Nodes State | PATHOLOGICAL | | PATHOLOGICAL | | | | ACE IMAGING | INDEPENDENT ASSESSOR | RADIOLOGIST 1 | 40 | WEEK 6 | | |", "score": 0.869, "match_basis": "verbatim_token+global_search"}, {"md_atom_id": "md_dmTR_ex_a073", "md_file": "knowledge_base/domains/TR/examples.md", "md_atom_type": "TABLE_ROW", "md_parent_section": "§TR.2 [Example 3 (continued from TU)]", "md_verbatim": "| 18 | ABC | TR | 55555 | 18 | NON-TARGET | A2 | R1-NT02 | TUMSTATE | Tumor State | ABSENT | | ABSENT | | | MRI | ACE IMAGING | INDEPENDENT ASSESSOR | RADIOLOGIST 1 | 40 | WEEK 6 | 2010-02-18 | 46 |", "score": 0.6465, "match_basis": "verbatim_token+global_search"}, {"md_atom_id": "md_dmTR_ex_a067", "md_file": "knowledge_base/domains/TR/examples.md", "md_atom_type": "TABLE_ROW", "md_parent_section": "§TR.2 [Example 3 (continued from TU)]", "md_verbatim": "| 12 | ABC | TR | 55555 | 12 | TARGET | A2 | | SUMNLNLD | Sum Diameters of Non-Lymph Node Tumors | 13 | mm | 13 | 13 | mm | | ACE IMAGING | INDEPENDENT ASSESSOR | RADIOLOGIST 1 | 40 | WEEK 6 | | |", "score": 0.644, "match_basis": "verbatim_token+global_search"}, {"md_atom_id": "md_dmTR_ex_a079", "md_file": "knowledge_base/domains/TR/examples.md", "md_atom_type": "TABLE_ROW", "md_parent_section": "§TR.2 [Example 3 (continued from TU)]", "md_verbatim": "| 24 | ABC | TR | 55555 | 24 | TARGET | A3 | | SUMNLNLD | Sum Diameters of Non-Lymph Node Tumors | 30 | mm | 30 | 30 | mm | | ACE IMAGING | INDEPENDENT ASSESSOR | RADIOLOGIST 1 | 60 | WEEK 12 | | |", "score": 0.644, "match_basis": "verbatim_token+global_search"}], "candidate_count": 5, "zero_candidate": false}
{"pdf_atom_id": "ig34_p0357_a025", "pdf_atom_type": "TABLE_ROW", "pdf_source": "SDTMIG_v3.4", "pdf_page": 357, "pdf_parent_section": "§6.3.12.3 Tumor Identification/Tumor Results Examples", "pdf_verbatim": "| 26 | ABC | TR | 55555 | 26 | TARGET | A3 | | ACNSD | Absolute Change Nadir | 17 | mm | 17 | 17 | mm | ACE IMAGING | | INDEPENDENT ASSESSOR | RADIOLOGIST 1 | 60 | WEEK 12 | | |", "figure_ref": null, "candidates": [{"md_atom_id": "md_dmTR_ex_a081", "md_file": "knowledge_base/domains/TR/examples.md", "md_atom_type": "TABLE_ROW", "md_parent_section": "§TR.2 [Example 3 (continued from TU)]", "md_verbatim": "| 26 | ABC | TR | 55555 | 26 | TARGET | A3 | | ACNSD | Absolute Change Nadir in Sum of Diameters | 17 | mm | 17 | 17 | mm | | ACE IMAGING | INDEPENDENT ASSESSOR | RADIOLOGIST 1 | 60 | WEEK 12 | | |", "score": 0.82, "match_basis": "verbatim_token+global_search"}, {"md_atom_id": "md_dmTR_ex_a069", "md_file": "knowledge_base/domains/TR/examples.md", "md_atom_type": "TABLE_ROW", "md_parent_section": "§TR.2 [Example 3 (continued from TU)]", "md_verbatim": "| 14 | ABC | TR | 55555 | 14 | TARGET | A2 | | ACNSD | Absolute Change From Nadir in Sum of Diameters | -25 | mm | -25 | -25 | mm | | ACE IMAGING | INDEPENDENT ASSESSOR | RADIOLOGIST 1 | 40 | WEEK 6 | | |", "score": 0.8032, "match_basis": "verbatim_token+global_search"}, {"md_atom_id": "md_dmTR_ex_a071", "md_file": "knowledge_base/domains/TR/examples.md", "md_atom_type": "TABLE_ROW", "md_parent_section": "§TR.2 [Example 3 (continued from TU)]", "md_verbatim": "| 16 | ABC | TR | 55555 | 16 | TARGET | A2 | | PCNSD | Percent Change Nadir in Sum of Diameters | -50 | % | -50 | -50 | % | | ACE IMAGING | INDEPENDENT ASSESSOR | RADIOLOGIST 1 | 40 | WEEK 6 | | |", "score": 0.7154, "match_basis": "verbatim_token+global_search"}, {"md_atom_id": "md_dmTR_ex_a083", "md_file": "knowledge_base/domains/TR/examples.md", "md_atom_type": "TABLE_ROW", "md_parent_section": "§TR.2 [Example 3 (continued from TU)]", "md_verbatim": "| 28 | ABC | TR | 55555 | 28 | TARGET | A3 | | PCNSD | Percent Change Nadir in Sum of Diameters | -50 | % | -50 | -50 | % | | ACE IMAGING | INDEPENDENT ASSESSOR | RADIOLOGIST 1 | 60 | WEEK 12 | | |", "score": 0.7154, "match_basis": "verbatim_token+global_search"}, {"md_atom_id": "md_dmTR_ex_a066", "md_file": "knowledge_base/domains/TR/examples.md", "md_atom_type": "TABLE_ROW", "md_parent_section": "§TR.2 [Example 3 (continued from TU)]", "md_verbatim": "| 11 | ABC | TR | 55555 | 11 | TARGET | A2 | | SUMDIAM | Sum of Diameter | 25 | mm | 25 | 25 | mm | | ACE IMAGING | INDEPENDENT ASSESSOR | RADIOLOGIST 1 | 40 | WEEK 6 | | |", "score": 0.6639, "match_basis": "verbatim_token+global_search"}], "candidate_count": 5, "zero_candidate": false}
{"pdf_atom_id": "ig34_p0358_a001", "pdf_atom_type": "TABLE_ROW", "pdf_source": "SDTMIG_v3.4", "pdf_page": 358, "pdf_parent_section": "§6.3.12.3 Tumor Identification/Tumor Results Examples", "pdf_verbatim": "| 27 | ABC | TR | 55555 | 27 | TARGET | A3 | | PCBSD | Percent Change Baseline in Sum of Diam | -26 | % | -26 | -26 | % | ACE IMAGING | | INDEPENDENT ASSESSOR | RADIOLOGIST 1 | 60 | WEEK 12 | | |", "figure_ref": null, "candidates": [{"md_atom_id": "md_dmTR_ex_a070", "md_file": "knowledge_base/domains/TR/examples.md", "md_atom_type": "TABLE_ROW", "md_parent_section": "§TR.2 [Example 3 (continued from TU)]", "md_verbatim": "| 15 | ABC | TR | 55555 | 15 | TARGET | A2 | | PCBSD | Percent Change From Baseline in Sum of Diameters | -50 | % | -50 | -50 | % | | ACE IMAGING | INDEPENDENT ASSESSOR | RADIOLOGIST 1 | 40 | WEEK 6 | | |", "score": 0.8344, "match_basis": "verbatim_token+global_search"}, {"md_atom_id": "md_dmTR_ex_a082", "md_file": "knowledge_base/domains/TR/examples.md", "md_atom_type": "TABLE_ROW", "md_parent_section": "§TR.2 [Example 3 (continued from TU)]", "md_verbatim": "| 27 | ABC | TR | 55555 | 27 | TARGET | A3 | | PCBSD | Percent Change From Baseline in Sum of Diameters | -50 | % | -50 | -50 | % | | ACE IMAGING | INDEPENDENT ASSESSOR | RADIOLOGIST 1 | 60 | WEEK 12 | | |", "score": 0.8344, "match_basis": "verbatim_token+global_search"}, {"md_atom_id": "md_dmTR_ex_a071", "md_file": "knowledge_base/domains/TR/examples.md", "md_atom_type": "TABLE_ROW", "md_parent_section": "§TR.2 [Example 3 (continued from TU)]", "md_verbatim": "| 16 | ABC | TR | 55555 | 16 | TARGET | A2 | | PCNSD | Percent Change Nadir in Sum of Diameters | -50 | % | -50 | -50 | % | | ACE IMAGING | INDEPENDENT ASSESSOR | RADIOLOGIST 1 | 40 | WEEK 6 | | |", "score": 0.7299, "match_basis": "verbatim_token+global_search"}, {"md_atom_id": "md_dmTR_ex_a083", "md_file": "knowledge_base/domains/TR/examples.md", "md_atom_type": "TABLE_ROW", "md_parent_section": "§TR.2 [Example 3 (continued from TU)]", "md_verbatim": "| 28 | ABC | TR | 55555 | 28 | TARGET | A3 | | PCNSD | Percent Change Nadir in Sum of Diameters | -50 | % | -50 | -50 | % | | ACE IMAGING | INDEPENDENT ASSESSOR | RADIOLOGIST 1 | 60 | WEEK 12 | | |", "score": 0.7299, "match_basis": "verbatim_token+global_search"}, {"md_atom_id": "md_dmTR_ex_a066", "md_file": "knowledge_base/domains/TR/examples.md", "md_atom_type": "TABLE_ROW", "md_parent_section": "§TR.2 [Example 3 (continued from TU)]", "md_verbatim": "| 11 | ABC | TR | 55555 | 11 | TARGET | A2 | | SUMDIAM | Sum of Diameter | 25 | mm | 25 | 25 | mm | | ACE IMAGING | INDEPENDENT ASSESSOR | RADIOLOGIST 1 | 40 | WEEK 6 | | |", "score": 0.681, "match_basis": "verbatim_token+global_search"}], "candidate_count": 5, "zero_candidate": false}
{"pdf_atom_id": "ig34_p0358_a002", "pdf_atom_type": "TABLE_ROW", "pdf_source": "SDTMIG_v3.4", "pdf_page": 358, "pdf_parent_section": "§6.3.12.3 Tumor Identification/Tumor Results Examples", "pdf_verbatim": "| 28 | ABC | TR | 55555 | 28 | TARGET | A3 | | PCNSD | Percent Change Nadir in Sum of Diam | 48 | % | 48 | 48 | % | ACE IMAGING | | INDEPENDENT ASSESSOR | RADIOLOGIST 1 | 60 | WEEK 12 | | |", "figure_ref": null, "candidates": [{"md_atom_id": "md_dmTR_ex_a071", "md_file": "knowledge_base/domains/TR/examples.md", "md_atom_type": "TABLE_ROW", "md_parent_section": "§TR.2 [Example 3 (continued from TU)]", "md_verbatim": "| 16 | ABC | TR | 55555 | 16 | TARGET | A2 | | PCNSD | Percent Change Nadir in Sum of Diameters | -50 | % | -50 | -50 | % | | ACE IMAGING | INDEPENDENT ASSESSOR | RADIOLOGIST 1 | 40 | WEEK 6 | | |", "score": 0.8483, "match_basis": "verbatim_token+global_search"}, {"md_atom_id": "md_dmTR_ex_a083", "md_file": "knowledge_base/domains/TR/examples.md", "md_atom_type": "TABLE_ROW", "md_parent_section": "§TR.2 [Example 3 (continued from TU)]", "md_verbatim": "| 28 | ABC | TR | 55555 | 28 | TARGET | A3 | | PCNSD | Percent Change Nadir in Sum of Diameters | -50 | % | -50 | -50 | % | | ACE IMAGING | INDEPENDENT ASSESSOR | RADIOLOGIST 1 | 60 | WEEK 12 | | |", "score": 0.8483, "match_basis": "verbatim_token+global_search"}, {"md_atom_id": "md_dmTR_ex_a081", "md_file": "knowledge_base/domains/TR/examples.md", "md_atom_type": "TABLE_ROW", "md_parent_section": "§TR.2 [Example 3 (continued from TU)]", "md_verbatim": "| 26 | ABC | TR | 55555 | 26 | TARGET | A3 | | ACNSD | Absolute Change Nadir in Sum of Diameters | 17 | mm | 17 | 17 | mm | | ACE IMAGING | INDEPENDENT ASSESSOR | RADIOLOGIST 1 | 60 | WEEK 12 | | |", "score": 0.7431, "match_basis": "verbatim_token+global_search"}, {"md_atom_id": "md_dmTR_ex_a069", "md_file": "knowledge_base/domains/TR/examples.md", "md_atom_type": "TABLE_ROW", "md_parent_section": "§TR.2 [Example 3 (continued from TU)]", "md_verbatim": "| 14 | ABC | TR | 55555 | 14 | TARGET | A2 | | ACNSD | Absolute Change From Nadir in Sum of Diameters | -25 | mm | -25 | -25 | mm | | ACE IMAGING | INDEPENDENT ASSESSOR | RADIOLOGIST 1 | 40 | WEEK 6 | | |", "score": 0.7299, "match_basis": "verbatim_token+global_search"}, {"md_atom_id": "md_dmTR_ex_a070", "md_file": "knowledge_base/domains/TR/examples.md", "md_atom_type": "TABLE_ROW", "md_parent_section": "§TR.2 [Example 3 (continued from TU)]", "md_verbatim": "| 15 | ABC | TR | 55555 | 15 | TARGET | A2 | | PCBSD | Percent Change From Baseline in Sum of Diameters | -50 | % | -50 | -50 | % | | ACE IMAGING | INDEPENDENT ASSESSOR | RADIOLOGIST 1 | 40 | WEEK 6 | | |", "score": 0.7174, "match_basis": "verbatim_token+global_search"}], "candidate_count": 5, "zero_candidate": false}
{"pdf_atom_id": "ig34_p0358_a003", "pdf_atom_type": "TABLE_ROW", "pdf_source": "SDTMIG_v3.4", "pdf_page": 358, "pdf_parent_section": "§6.3.12.3 Tumor Identification/Tumor Results Examples", "pdf_verbatim": "| 29 | ABC | TR | 55555 | 29 | NON-TARGET | A3 | R1-NT01 | TUMSTATE | Tumor State | ABSENT | | ABSENT | | | ACE IMAGING | CT SCAN | INDEPENDENT ASSESSOR | RADIOLOGIST 1 | 60 | WEEK 12 | 2010-04-02 | 88 |", "figure_ref": null, "candidates": [{"md_atom_id": "md_dmTR_ex_a072", "md_file": "knowledge_base/domains/TR/examples.md", "md_atom_type": "TABLE_ROW", "md_parent_section": "§TR.2 [Example 3 (continued from TU)]", "md_verbatim": "| 17 | ABC | TR | 55555 | 17 | NON-TARGET | A2 | R1-NT01 | TUMSTATE | Tumor State | ABSENT | | ABSENT | | | CT SCAN | ACE IMAGING | INDEPENDENT ASSESSOR | RADIOLOGIST 1 | 40 | WEEK 6 | 2010-02-19 | 47 |", "score": 0.9, "match_basis": "verbatim_token+global_search"}, {"md_atom_id": "md_dmTR_ex_a073", "md_file": "knowledge_base/domains/TR/examples.md", "md_atom_type": "TABLE_ROW", "md_parent_section": "§TR.2 [Example 3 (continued from TU)]", "md_verbatim": "| 18 | ABC | TR | 55555 | 18 | NON-TARGET | A2 | R1-NT02 | TUMSTATE | Tumor State | ABSENT | | ABSENT | | | MRI | ACE IMAGING | INDEPENDENT ASSESSOR | RADIOLOGIST 1 | 40 | WEEK 6 | 2010-02-18 | 46 |", "score": 0.8474, "match_basis": "verbatim_token+global_search"}, {"md_atom_id": "md_dmTR_ex_a061", "md_file": "knowledge_base/domains/TR/examples.md", "md_atom_type": "TABLE_ROW", "md_parent_section": "§TR.2 [Example 3 (continued from TU)]", "md_verbatim": "| 6 | ABC | TR | 55555 | 6 | NON-TARGET | A1 | R1-NT01 | TUMSTATE | Tumor State | PRESENT | | PRESENT | | | CT SCAN | ACE IMAGING | INDEPENDENT ASSESSOR | RADIOLOGIST 1 | 10 | SCREEN | 2010-01-01 | -2 |", "score": 0.7935, "match_basis": "verbatim_token+global_search"}, {"md_atom_id": "md_dmTR_ex_a062", "md_file": "knowledge_base/domains/TR/examples.md", "md_atom_type": "TABLE_ROW", "md_parent_section": "§TR.2 [Example 3 (continued from TU)]", "md_verbatim": "| 7 | ABC | TR | 55555 | 7 | NON-TARGET | A1 | R1-NT02 | TUMSTATE | Tumor State | PRESENT | | PRESENT | | | MRI | ACE IMAGING | INDEPENDENT ASSESSOR | RADIOLOGIST 1 | 10 | SCREEN | 2010-01-02 | 1 |", "score": 0.75, "match_basis": "verbatim_token+global_search"}, {"md_atom_id": "md_dmTR_ex_a074", "md_file": "knowledge_base/domains/TR/examples.md", "md_atom_type": "TABLE_ROW", "md_parent_section": "§TR.2 [Example 3 (continued from TU)]", "md_verbatim": "| 19 | ABC | TR | 55555 | 19 | NON-TARGET | A2 | R1-NEW01 | TUMSTATE | Tumor State | EQUIVOCAL | | EQUIVOCAL | | | | ACE IMAGING | INDEPENDENT ASSESSOR | RADIOLOGIST 1 | 40 | WEEK 6 | 2010-02-18 | |", "score": 0.7431, "match_basis": "verbatim_token+global_search"}], "candidate_count": 5, "zero_candidate": false}
{"pdf_atom_id": "ig34_p0358_a004", "pdf_atom_type": "TABLE_ROW", "pdf_source": "SDTMIG_v3.4", "pdf_page": 358, "pdf_parent_section": "§6.3.12.3 Tumor Identification/Tumor Results Examples", "pdf_verbatim": "| 30 | ABC | TR | 55555 | 30 | NON-TARGET | A3 | R1-NT02 | TUMSTATE | Tumor State | ABSENT | | ABSENT | | | ACE IMAGING | MRI | INDEPENDENT ASSESSOR | RADIOLOGIST 1 | 60 | WEEK 12 | 2010-04-02 | 88 |", "figure_ref": null, "candidates": [{"md_atom_id": "md_dmTR_ex_a073", "md_file": "knowledge_base/domains/TR/examples.md", "md_atom_type": "TABLE_ROW", "md_parent_section": "§TR.2 [Example 3 (continued from TU)]", "md_verbatim": "| 18 | ABC | TR | 55555 | 18 | NON-TARGET | A2 | R1-NT02 | TUMSTATE | Tumor State | ABSENT | | ABSENT | | | MRI | ACE IMAGING | INDEPENDENT ASSESSOR | RADIOLOGIST 1 | 40 | WEEK 6 | 2010-02-18 | 46 |", "score": 0.9, "match_basis": "verbatim_token+global_search"}, {"md_atom_id": "md_dmTR_ex_a072", "md_file": "knowledge_base/domains/TR/examples.md", "md_atom_type": "TABLE_ROW", "md_parent_section": "§TR.2 [Example 3 (continued from TU)]", "md_verbatim": "| 17 | ABC | TR | 55555 | 17 | NON-TARGET | A2 | R1-NT01 | TUMSTATE | Tumor State | ABSENT | | ABSENT | | | CT SCAN | ACE IMAGING | INDEPENDENT ASSESSOR | RADIOLOGIST 1 | 40 | WEEK 6 | 2010-02-19 | 47 |", "score": 0.8474, "match_basis": "verbatim_token+global_search"}, {"md_atom_id": "md_dmTR_ex_a062", "md_file": "knowledge_base/domains/TR/examples.md", "md_atom_type": "TABLE_ROW", "md_parent_section": "§TR.2 [Example 3 (continued from TU)]", "md_verbatim": "| 7 | ABC | TR | 55555 | 7 | NON-TARGET | A1 | R1-NT02 | TUMSTATE | Tumor State | PRESENT | | PRESENT | | | MRI | ACE IMAGING | INDEPENDENT ASSESSOR | RADIOLOGIST 1 | 10 | SCREEN | 2010-01-02 | 1 |", "score": 0.7918, "match_basis": "verbatim_token+global_search"}, {"md_atom_id": "md_dmTR_ex_a061", "md_file": "knowledge_base/domains/TR/examples.md", "md_atom_type": "TABLE_ROW", "md_parent_section": "§TR.2 [Example 3 (continued from TU)]", "md_verbatim": "| 6 | ABC | TR | 55555 | 6 | NON-TARGET | A1 | R1-NT01 | TUMSTATE | Tumor State | PRESENT | | PRESENT | | | CT SCAN | ACE IMAGING | INDEPENDENT ASSESSOR | RADIOLOGIST 1 | 10 | SCREEN | 2010-01-01 | -2 |", "score": 0.75, "match_basis": "verbatim_token+global_search"}, {"md_atom_id": "md_dmTR_ex_a074", "md_file": "knowledge_base/domains/TR/examples.md", "md_atom_type": "TABLE_ROW", "md_parent_section": "§TR.2 [Example 3 (continued from TU)]", "md_verbatim": "| 19 | ABC | TR | 55555 | 19 | NON-TARGET | A2 | R1-NEW01 | TUMSTATE | Tumor State | EQUIVOCAL | | EQUIVOCAL | | | | ACE IMAGING | INDEPENDENT ASSESSOR | RADIOLOGIST 1 | 40 | WEEK 6 | 2010-02-18 | |", "score": 0.75, "match_basis": "verbatim_token+global_search"}], "candidate_count": 5, "zero_candidate": false}
{"pdf_atom_id": "ig34_p0358_a005", "pdf_atom_type": "TABLE_ROW", "pdf_source": "SDTMIG_v3.4", "pdf_page": 358, "pdf_parent_section": "§6.3.12.3 Tumor Identification/Tumor Results Examples", "pdf_verbatim": "| 31 | ABC | TR | 55555 | 31 | NEW | A3 | R1-NEW01 | TUMSTATE | Tumor State | EQUIVOCAL | | EQUIVOCAL | | | ACE IMAGING | CT SCAN | INDEPENDENT ASSESSOR | RADIOLOGIST 1 | 60 | WEEK 12 | 2010-04-02 | 88 |", "figure_ref": null, "candidates": [{"md_atom_id": "md_dmTR_ex_a074", "md_file": "knowledge_base/domains/TR/examples.md", "md_atom_type": "TABLE_ROW", "md_parent_section": "§TR.2 [Example 3 (continued from TU)]", "md_verbatim": "| 19 | ABC | TR | 55555 | 19 | NON-TARGET | A2 | R1-NEW01 | TUMSTATE | Tumor State | EQUIVOCAL | | EQUIVOCAL | | | | ACE IMAGING | INDEPENDENT ASSESSOR | RADIOLOGIST 1 | 40 | WEEK 6 | 2010-02-18 | |", "score": 0.83, "match_basis": "verbatim_token+global_search"}, {"md_atom_id": "md_dmTR_ex_a072", "md_file": "knowledge_base/domains/TR/examples.md", "md_atom_type": "TABLE_ROW", "md_parent_section": "§TR.2 [Example 3 (continued from TU)]", "md_verbatim": "| 17 | ABC | TR | 55555 | 17 | NON-TARGET | A2 | R1-NT01 | TUMSTATE | Tumor State | ABSENT | | ABSENT | | | CT SCAN | ACE IMAGING | INDEPENDENT ASSESSOR | RADIOLOGIST 1 | 40 | WEEK 6 | 2010-02-19 | 47 |", "score": 0.7154, "match_basis": "verbatim_token+global_search"}, {"md_atom_id": "md_dmTR_ex_a073", "md_file": "knowledge_base/domains/TR/examples.md", "md_atom_type": "TABLE_ROW", "md_parent_section": "§TR.2 [Example 3 (continued from TU)]", "md_verbatim": "| 18 | ABC | TR | 55555 | 18 | NON-TARGET | A2 | R1-NT02 | TUMSTATE | Tumor State | ABSENT | | ABSENT | | | MRI | ACE IMAGING | INDEPENDENT ASSESSOR | RADIOLOGIST 1 | 40 | WEEK 6 | 2010-02-18 | 46 |", "score": 0.6909, "match_basis": "verbatim_token+global_search"}, {"md_atom_id": "md_dmTU_ex_a064", "md_file": "knowledge_base/domains/TU/examples.md", "md_atom_type": "TABLE_ROW", "md_parent_section": "§TU.3 [Example 3]", "md_verbatim": "| 6 | ABC | TU | 55555 | 6 | R1-NEW01 | TUMIDENT | Tumor Identification | NEW | NEW | LUNG | | CT SCAN | ACE IMAGING | INDEPENDENT ASSESSOR | RADIOLOGIST 1 | 40 | WEEK 6 | 2010-02-20 |", "score": 0.6739, "match_basis": "verbatim_token+global_search"}, {"md_atom_id": "md_dmTR_ex_a061", "md_file": "knowledge_base/domains/TR/examples.md", "md_atom_type": "TABLE_ROW", "md_parent_section": "§TR.2 [Example 3 (continued from TU)]", "md_verbatim": "| 6 | ABC | TR | 55555 | 6 | NON-TARGET | A1 | R1-NT01 | TUMSTATE | Tumor State | PRESENT | | PRESENT | | | CT SCAN | ACE IMAGING | INDEPENDENT ASSESSOR | RADIOLOGIST 1 | 10 | SCREEN | 2010-01-01 | -2 |", "score": 0.6686, "match_basis": "verbatim_token+global_search"}], "candidate_count": 5, "zero_candidate": false}
{"pdf_atom_id": "ig34_p0358_a006", "pdf_atom_type": "TABLE_ROW", "pdf_source": "SDTMIG_v3.4", "pdf_page": 358, "pdf_parent_section": "§6.3.12.3 Tumor Identification/Tumor Results Examples", "pdf_verbatim": "| 32 | ABC | TR | 55555 | 32 | NEW | A3 | R1-NEW02 | TUMSTATE | Tumor State | UNEQUIVOCAL | | UNEQUIVOCAL | | | ACE IMAGING | MRI | INDEPENDENT ASSESSOR | RADIOLOGIST 1 | 60 | WEEK 12 | 2010-04-02 | 88 |", "figure_ref": null, "candidates": [{"md_atom_id": "md_dmTR_ex_a074", "md_file": "knowledge_base/domains/TR/examples.md", "md_atom_type": "TABLE_ROW", "md_parent_section": "§TR.2 [Example 3 (continued from TU)]", "md_verbatim": "| 19 | ABC | TR | 55555 | 19 | NON-TARGET | A2 | R1-NEW01 | TUMSTATE | Tumor State | EQUIVOCAL | | EQUIVOCAL | | | | ACE IMAGING | INDEPENDENT ASSESSOR | RADIOLOGIST 1 | 40 | WEEK 6 | 2010-02-18 | |", "score": 0.8032, "match_basis": "verbatim_token+global_search"}, {"md_atom_id": "md_dmTR_ex_a073", "md_file": "knowledge_base/domains/TR/examples.md", "md_atom_type": "TABLE_ROW", "md_parent_section": "§TR.2 [Example 3 (continued from TU)]", "md_verbatim": "| 18 | ABC | TR | 55555 | 18 | NON-TARGET | A2 | R1-NT02 | TUMSTATE | Tumor State | ABSENT | | ABSENT | | | MRI | ACE IMAGING | INDEPENDENT ASSESSOR | RADIOLOGIST 1 | 40 | WEEK 6 | 2010-02-18 | 46 |", "score": 0.7, "match_basis": "verbatim_token+global_search"}, {"md_atom_id": "md_dmTR_ex_a072", "md_file": "knowledge_base/domains/TR/examples.md", "md_atom_type": "TABLE_ROW", "md_parent_section": "§TR.2 [Example 3 (continued from TU)]", "md_verbatim": "| 17 | ABC | TR | 55555 | 17 | NON-TARGET | A2 | R1-NT01 | TUMSTATE | Tumor State | ABSENT | | ABSENT | | | CT SCAN | ACE IMAGING | INDEPENDENT ASSESSOR | RADIOLOGIST 1 | 40 | WEEK 6 | 2010-02-19 | 47 |", "score": 0.6794, "match_basis": "verbatim_token+global_search"}, {"md_atom_id": "md_dmRS_ex_a029", "md_file": "knowledge_base/domains/RS/examples.md", "md_atom_type": "TABLE_ROW", "md_parent_section": "§RS.1.2 [Example 2]", "md_verbatim": "| 7 | ABC | RS | 55555 | 7 | | NEWLPROG | New Lesion Progression | RECIST 1.1 | UNEQUIVOCAL | UNEQUIVOCAL | ACE IMAGING | INDEPENDENT ASSESSOR | RADIOLOGIST 1 | Y | 60 | WEEK 12 | 2010-04-02 | 88 |", "score": 0.675, "match_basis": "verbatim_token+global_search"}, {"md_atom_id": "md_dmRS_ex_a025", "md_file": "knowledge_base/domains/RS/examples.md", "md_atom_type": "TABLE_ROW", "md_parent_section": "§RS.1.2 [Example 2]", "md_verbatim": "| 3 | ABC | RS | 55555 | 3 | | NEWLPROG | New Lesion Progression | RECIST 1.1 | EQUIVOCAL | EQUIVOCAL | ACE IMAGING | INDEPENDENT ASSESSOR | RADIOLOGIST 1 | Y | 40 | WEEK 6 | 2010-02-18 | 46 |", "score": 0.6583, "match_basis": "verbatim_token+global_search"}], "candidate_count": 5, "zero_candidate": false}
{"pdf_atom_id": "ig34_p0358_a007", "pdf_atom_type": "SENTENCE", "pdf_source": "SDTMIG_v3.4", "pdf_page": 358, "pdf_parent_section": "§6.3.12.3 Tumor Identification/Tumor Results Examples", "pdf_verbatim": "The relationship between the TU and TR records is represented in RELREC.", "figure_ref": null, "candidates": [{"md_atom_id": "md_dmDS_ex_a066", "md_file": "knowledge_base/domains/DS/examples.md", "md_atom_type": "SENTENCE", "md_parent_section": "§DS.4 [Example 4]", "md_verbatim": "The relationship between the DS and AE records is represented in RELREC.", "score": 0.9, "match_basis": "verbatim_token+global_search"}, {"md_atom_id": "md_dmSR_ex_a043", "md_file": "knowledge_base/domains/SR/examples.md", "md_atom_type": "SENTENCE", "md_parent_section": "§SR.2 [Example 2]", "md_verbatim": "The relationships between SR and EX records are represented at the record level in RELREC.", "score": 0.8211, "match_basis": "verbatim_token+global_search"}, {"md_atom_id": "md_dmTR_ex_a042", "md_file": "knowledge_base/domains/TR/examples.md", "md_atom_type": "SENTENCE", "md_parent_section": "§TR.1 [Example 2 (continued from TU)]", "md_verbatim": "The relationship between the TU and TR datasets is represented in RELREC.", "score": 0.7462, "match_basis": "verbatim_token+global_search"}, {"md_atom_id": "md_dmDD_ex_a033", "md_file": "knowledge_base/domains/DD/examples.md", "md_atom_type": "SENTENCE", "md_parent_section": "§DD.2 [Example 2]", "md_verbatim": "The relationship between the DS, AE, and DD records that reflect the subject's death is represented in RELREC.", "score": 0.7213, "match_basis": "verbatim_token+global_search"}, {"md_atom_id": "md_dmEX_ex_a241", "md_file": "knowledge_base/domains/EX/examples.md", "md_atom_type": "SENTENCE", "md_parent_section": "§EX.7 [Example 7]", "md_verbatim": "The RELREC dataset represents relationships between EC, EX, and VS.", "score": 0.705, "match_basis": "verbatim_token+global_search"}], "candidate_count": 5, "zero_candidate": false}
{"pdf_atom_id": "ig34_p0358_a008", "pdf_atom_type": "HEADING", "pdf_source": "SDTMIG_v3.4", "pdf_page": 358, "pdf_parent_section": "§6.3.12.3 Tumor Identification/Tumor Results Examples", "pdf_verbatim": "relrec.xpt", "figure_ref": null, "candidates": [{"md_atom_id": "md_dmRELREC_ex_a001", "md_file": "knowledge_base/domains/RELREC/examples.md", "md_atom_type": "HEADING", "md_parent_section": "§RELREC [RELREC — Examples]", "md_verbatim": "# RELREC — Examples", "score": 0.5182, "match_basis": "verbatim_token+global_search"}, {"md_atom_id": "md_model06_a014", "md_file": "knowledge_base/model/06_relationship_datasets.md", "md_atom_type": "HEADING", "md_parent_section": "§6.1 Related Records (RELREC)", "md_verbatim": "## 6.1 Related Records (RELREC)", "score": 0.4846, "match_basis": "verbatim_token+global_search"}, {"md_atom_id": "md_ch08_a067", "md_file": "knowledge_base/chapters/ch08_relationships.md", "md_atom_type": "HEADING", "md_parent_section": "§8.2 [Relating Peer Records]", "md_verbatim": "### 8.2.1 Related Records (RELREC)", "score": 0.4846, "match_basis": "verbatim_token+global_search"}, {"md_atom_id": "md_dmRELREC_assn_a001", "md_file": "knowledge_base/domains/RELREC/assumptions.md", "md_atom_type": "HEADING", "md_parent_section": "§RELREC [RELREC — Assumptions]", "md_verbatim": "# RELREC — Assumptions", "score": 0.4714, "match_basis": "verbatim_token+global_search"}, {"md_atom_id": "md_ch08_a081", "md_file": "knowledge_base/chapters/ch08_relationships.md", "md_atom_type": "HEADING", "md_parent_section": "§8.2 [Relating Peer Records]", "md_verbatim": "### 8.2.2 RELREC Dataset Examples", "score": 0.45, "match_basis": "verbatim_token+global_search"}, {"md_atom_id": "md_ch08_a109", "md_file": "knowledge_base/chapters/ch08_relationships.md", "md_atom_type": "HEADING", "md_parent_section": "§8 [Representing Relationships and Data]", "md_verbatim": "## 8.3 Relating Datasets Using RELREC", "score": 0.4333, "match_basis": "verbatim_token+global_search"}, {"md_atom_id": "md_varindex_a1281", "md_file": "knowledge_base/VARIABLE_INDEX.md", "md_atom_type": "HEADING", "md_parent_section": "§ 二、领域专属变量（仅 1 个域，共 1499 个），按域分组", "md_verbatim": "### RELREC — Related Records (Relationship)", "score": 0.42, "match_basis": "verbatim_token+global_search"}, {"md_atom_id": "md_dmPP_ex_a081", "md_file": "knowledge_base/domains/PP/examples.md", "md_atom_type": "HEADING", "md_parent_section": "§PP [PP — Examples]", "md_verbatim": "## Shared PP Dataset for RELREC Examples", "score": 0.4143, "match_basis": "verbatim_token+global_search"}, {"md_atom_id": "md_ch08_a114", "md_file": "knowledge_base/chapters/ch08_relationships.md", "md_atom_type": "HEADING", "md_parent_section": "§8.3 [Relating Datasets Using RELREC]", "md_verbatim": "### 8.3.1 RELREC Dataset Relationship Example", "score": 0.4, "match_basis": "verbatim_token+global_search"}, {"md_atom_id": "md_dmPC_ex_a057", "md_file": "knowledge_base/domains/PC/examples.md", "md_atom_type": "HEADING", "md_parent_section": "§PC.2 [Relating PC and PP — Overview]", "md_verbatim": "### PC-PP Relating Records", "score": 0.3857, "match_basis": "verbatim_token+global_search"}], "candidate_count": 10, "zero_candidate": false}
{"pdf_atom_id": "ig34_p0358_a009", "pdf_atom_type": "TABLE_HEADER", "pdf_source": "SDTMIG_v3.4", "pdf_page": 358, "pdf_parent_section": "§6.3.12.3 Tumor Identification/Tumor Results Examples", "pdf_verbatim": "| Row | STUDYID | RDOMAIN | USUBJID | IDVAR | IDVARVAL | RELTYPE | RELID |", "figure_ref": null, "candidates": [{"md_atom_id": "md_ch04_a063", "md_file": "knowledge_base/chapters/ch04_general_assumptions.md", "md_atom_type": "TABLE_HEADER", "md_parent_section": "§4.1.7 [Splitting Domains]", "md_verbatim": "| Row | STUDYID | RDOMAIN | USUBJID | IDVAR | IDVARVAL | RELTYPE | RELID |\n|-----|---------|---------|---------|-------|----------|---------|-------|", "score": 0.9, "match_basis": "verbatim_token+global_search"}, {"md_atom_id": "md_ch08_a086", "md_file": "knowledge_base/chapters/ch08_relationships.md", "md_atom_type": "TABLE_HEADER", "md_parent_section": "§8.2.2 [RELREC Dataset Examples]", "md_verbatim": "| Row | STUDYID | RDOMAIN | USUBJID | IDVAR | IDVARVAL | RELTYPE | RELID |\n|-----|---------|---------|---------|-------|----------|---------|-------|", "score": 0.9, "match_basis": "verbatim_token+global_search"}, {"md_atom_id": "md_ch08_a095", "md_file": "knowledge_base/chapters/ch08_relationships.md", "md_atom_type": "TABLE_HEADER", "md_parent_section": "§8.2.2 [RELREC Dataset Examples]", "md_verbatim": "| Row | STUDYID | RDOMAIN | USUBJID | IDVAR | IDVARVAL | RELTYPE | RELID |\n|-----|---------|---------|---------|-------|----------|---------|-------|", "score": 0.9, "match_basis": "verbatim_token+global_search"}, {"md_atom_id": "md_ch08_a103", "md_file": "knowledge_base/chapters/ch08_relationships.md", "md_atom_type": "TABLE_HEADER", "md_parent_section": "§8.2.2 [RELREC Dataset Examples]", "md_verbatim": "| Row | STUDYID | RDOMAIN | USUBJID | IDVAR | IDVARVAL | RELTYPE | RELID |\n|-----|---------|---------|---------|-------|----------|---------|-------|", "score": 0.9, "match_basis": "verbatim_token+global_search"}, {"md_atom_id": "md_ch08_a117", "md_file": "knowledge_base/chapters/ch08_relationships.md", "md_atom_type": "TABLE_HEADER", "md_parent_section": "§8.3.1 [RELREC Dataset Relationship Example]", "md_verbatim": "| Row | STUDYID | RDOMAIN | USUBJID | IDVAR | IDVARVAL | RELTYPE | RELID |\n|-----|---------|---------|---------|-------|----------|---------|-------|", "score": 0.9, "match_basis": "verbatim_token+global_search"}], "candidate_count": 5, "zero_candidate": false}
{"pdf_atom_id": "ig34_p0358_a010", "pdf_atom_type": "TABLE_ROW", "pdf_source": "SDTMIG_v3.4", "pdf_page": 358, "pdf_parent_section": "§6.3.12.3 Tumor Identification/Tumor Results Examples", "pdf_verbatim": "| 1 | ABC | TU | | TULNKID | | ONE | 1 |", "figure_ref": null, "candidates": [{"md_atom_id": "md_dmTR_ex_a046", "md_file": "knowledge_base/domains/TR/examples.md", "md_atom_type": "TABLE_ROW", "md_parent_section": "§TR.1 [Example 2 (continued from TU)]", "md_verbatim": "| 1 | ABC | TU | | TULNKID | | ONE | 1 |", "score": 0.9, "match_basis": "verbatim_token+global_search"}, {"md_atom_id": "md_dmEX_ex_a032", "md_file": "knowledge_base/domains/EX/examples.md", "md_atom_type": "TABLE_ROW", "md_parent_section": "§EX.1 [Example 1]", "md_verbatim": "| 1 | ABC | EC | | ECLNKID | | ONE | 1 |", "score": 0.6333, "match_basis": "verbatim_token+global_search"}, {"md_atom_id": "md_dmEX_ex_a033", "md_file": "knowledge_base/domains/EX/examples.md", "md_atom_type": "TABLE_ROW", "md_parent_section": "§EX.1 [Example 1]", "md_verbatim": "| 2 | ABC | EX | | EXLNKID | | ONE | 1 |", "score": 0.6333, "match_basis": "verbatim_token+global_search"}, {"md_atom_id": "md_dmEX_ex_a066", "md_file": "knowledge_base/domains/EX/examples.md", "md_atom_type": "TABLE_ROW", "md_parent_section": "§EX.2 [Example 2]", "md_verbatim": "| 2 | ABC | EX | | EXLNKID | | ONE | 1 |", "score": 0.6333, "match_basis": "verbatim_token+global_search"}, {"md_atom_id": "md_dmEX_ex_a143", "md_file": "knowledge_base/domains/EX/examples.md", "md_atom_type": "TABLE_ROW", "md_parent_section": "§EX.5 [Example 5]", "md_verbatim": "| 1 | ABC | EC | | ECLNKID | | ONE | 1 |", "score": 0.6333, "match_basis": "verbatim_token+global_search"}], "candidate_count": 5, "zero_candidate": false}
{"pdf_atom_id": "ig34_p0358_a011", "pdf_atom_type": "TABLE_ROW", "pdf_source": "SDTMIG_v3.4", "pdf_page": 358, "pdf_parent_section": "§6.3.12.3 Tumor Identification/Tumor Results Examples", "pdf_verbatim": "| 2 | ABC | TR | | TRLNKID | | MANY | 1 |", "figure_ref": null, "candidates": [{"md_atom_id": "md_dmTR_ex_a047", "md_file": "knowledge_base/domains/TR/examples.md", "md_atom_type": "TABLE_ROW", "md_parent_section": "§TR.1 [Example 2 (continued from TU)]", "md_verbatim": "| 2 | ABC | TR | | TRLNKID | | MANY | 1 |", "score": 0.9, "match_basis": "verbatim_token+global_search"}, {"md_atom_id": "md_dmEX_ex_a065", "md_file": "knowledge_base/domains/EX/examples.md", "md_atom_type": "TABLE_ROW", "md_parent_section": "§EX.2 [Example 2]", "md_verbatim": "| 1 | ABC | EC | | ECLNKID | | MANY | 1 |", "score": 0.66, "match_basis": "verbatim_token+global_search"}, {"md_atom_id": "md_ch08_a119", "md_file": "knowledge_base/chapters/ch08_relationships.md", "md_atom_type": "TABLE_ROW", "md_parent_section": "§8.3.1 [RELREC Dataset Relationship Example]", "md_verbatim": "| 2 | EFC1234 | TR | | TRLNKID | | MANY | 1 |", "score": 0.6231, "match_basis": "verbatim_token+global_search"}, {"md_atom_id": "md_dmRELREC_ex_a039", "md_file": "knowledge_base/domains/RELREC/examples.md", "md_atom_type": "TABLE_ROW", "md_parent_section": "§RELREC.2.1 [Example 1]", "md_verbatim": "| 2 | EFC1234 | TR | | TRLNKID | | MANY | 1 |", "score": 0.6231, "match_basis": "verbatim_token+global_search"}, {"md_atom_id": "md_dmNV_ex_a036", "md_file": "knowledge_base/domains/NV/examples.md", "md_atom_type": "TABLE_ROW", "md_parent_section": "§NV.1 [Example 1]", "md_verbatim": "| 4 | ABC123 | NV | | NVLNKID | | MANY | 7 |", "score": 0.5769, "match_basis": "verbatim_token+global_search"}], "candidate_count": 5, "zero_candidate": false}
{"pdf_atom_id": "ig34_p0358_a012", "pdf_atom_type": "HEADING", "pdf_source": "SDTMIG_v3.4", "pdf_page": 358, "pdf_parent_section": "§6.3 [MODELS FOR FINDINGS DOMAINS]", "pdf_verbatim": "6.3.13    Vital Signs (VS)", "figure_ref": null, "candidates": [{"md_atom_id": "md_varindex_a1630", "md_file": "knowledge_base/VARIABLE_INDEX.md", "md_atom_type": "HEADING", "md_parent_section": "§ 二、领域专属变量（仅 1 个域，共 1499 个），按域分组", "md_verbatim": "### VS — Vital Signs (Findings)", "score": 0.6, "match_basis": "verbatim_token+global_search"}, {"md_atom_id": "md_varindex_a1501", "md_file": "knowledge_base/VARIABLE_INDEX.md", "md_atom_type": "HEADING", "md_parent_section": "§ 二、领域专属变量（仅 1 个域，共 1499 个），按域分组", "md_verbatim": "### TA — Trial Arms (Trial Design)", "score": 0.3923, "match_basis": "verbatim_token+global_search"}, {"md_atom_id": "md_model05_a005", "md_file": "knowledge_base/model/05_study_level_data.md", "md_atom_type": "HEADING", "md_parent_section": "§ 5.1 Trial Design Model", "md_verbatim": "## 5.1 Trial Design Model", "score": 0.3857, "match_basis": "verbatim_token+global_search"}, {"md_atom_id": "md_varindex_a1589", "md_file": "knowledge_base/VARIABLE_INDEX.md", "md_atom_type": "HEADING", "md_parent_section": "§ 二、领域专属变量（仅 1 个域，共 1499 个），按域分组", "md_verbatim": "### TV — Trial Visits (Trial Design)", "score": 0.38, "match_basis": "verbatim_token+global_search"}, {"md_atom_id": "md_index_a087", "md_file": "knowledge_base/INDEX.md", "md_atom_type": "HEADING", "md_parent_section": "§ Domains (63 domains)", "md_verbatim": "### Trial Design Domains", "score": 0.375, "match_basis": "verbatim_token+global_search"}], "candidate_count": 5, "zero_candidate": false}
{"pdf_atom_id": "ig34_p0358_a013", "pdf_atom_type": "HEADING", "pdf_source": "SDTMIG_v3.4", "pdf_page": 358, "pdf_parent_section": "§6.3.13 Vital Signs (VS)", "pdf_verbatim": "VS – Description/Overview", "figure_ref": null, "candidates": [{"md_atom_id": "md_dmVS_assn_a001", "md_file": "knowledge_base/domains/VS/assumptions.md", "md_atom_type": "HEADING", "md_parent_section": "§VS [VS — Assumptions]", "md_verbatim": "# VS — Assumptions", "score": 0.4857, "match_basis": "verbatim_token+domain_route:VS"}, {"md_atom_id": "md_dmVS_ex_a001", "md_file": "knowledge_base/domains/VS/examples.md", "md_atom_type": "HEADING", "md_parent_section": "§VS [VS — Examples]", "md_verbatim": "# VS — Examples", "score": 0.4, "match_basis": "verbatim_token+domain_route:VS"}, {"md_atom_id": "md_dmVS_ex_a002", "md_file": "knowledge_base/domains/VS/examples.md", "md_atom_type": "HEADING", "md_parent_section": "§VS [VS — Examples]", "md_verbatim": "## Example 1", "score": 0.4, "match_basis": "verbatim_token+domain_route:VS"}], "candidate_count": 3, "zero_candidate": false}
{"pdf_atom_id": "ig34_p0358_a014", "pdf_atom_type": "SENTENCE", "pdf_source": "SDTMIG_v3.4", "pdf_page": 358, "pdf_parent_section": "VS – Description/Overview", "pdf_verbatim": "A findings domain that contains measurements including but not limited to blood pressure, temperature, respiration, body surface area, body mass index, height and weight.", "figure_ref": null, "candidates": [{"md_atom_id": "md_dmVS_ex_a003", "md_file": "knowledge_base/domains/VS/examples.md", "md_atom_type": "SENTENCE", "md_parent_section": "§VS.1 [Example 1]", "md_verbatim": "This example shows results for 1 subject from 2 visits (i.e., baseline, visit 2).", "score": 0.4054, "match_basis": "verbatim_token+domain_route:VS"}, {"md_atom_id": "md_dmVS_ex_a006", "md_file": "knowledge_base/domains/VS/examples.md", "md_atom_type": "NOTE", "md_parent_section": "§VS.1 [Example 1]", "md_verbatim": "**Rows 10-11:** Show blood pressure observations obtained at visit 2.", "score": 0.3966, "match_basis": "verbatim_token+domain_route:VS"}, {"md_atom_id": "md_dmVS_ex_a005", "md_file": "knowledge_base/domains/VS/examples.md", "md_atom_type": "NOTE", "md_parent_section": "§VS.1 [Example 1]", "md_verbatim": "**Rows 2, 4-5, 7-9:** VSLOBXFL=\"Y\" indicates that the observation was used as the last observation before exposure measurement.", "score": 0.3957, "match_basis": "verbatim_token+domain_route:VS"}, {"md_atom_id": "md_dmVS_assn_a005", "md_file": "knowledge_base/domains/VS/assumptions.md", "md_atom_type": "LIST_ITEM", "md_parent_section": "§VS [VS — Assumptions]", "md_verbatim": "4. Any Identifiers, Timing variables, or Findings general observation class qualifiers may be added to the VS domain, but the following qualifiers would not generally be used: --BODSYS, --XFN, --SPEC, --SPCCND, --FAST.", "score": 0.3939, "match_basis": "verbatim_token+domain_route:VS"}, {"md_atom_id": "md_dmVS_ex_a004", "md_file": "knowledge_base/domains/VS/examples.md", "md_atom_type": "NOTE", "md_parent_section": "§VS.1 [Example 1]", "md_verbatim": "**Rows 1-4, 6-7:** VSTPT and VSTPTNUM are populated because more than 1 measurement was taken at this visit.", "score": 0.3809, "match_basis": "verbatim_token+domain_route:VS"}], "candidate_count": 5, "zero_candidate": false}
{"pdf_atom_id": "ig34_p0358_a015", "pdf_atom_type": "HEADING", "pdf_source": "SDTMIG_v3.4", "pdf_page": 358, "pdf_parent_section": "§6.3.13 Vital Signs (VS)", "pdf_verbatim": "VS – Specification", "figure_ref": null, "candidates": [{"md_atom_id": "md_dmVS_assn_a001", "md_file": "knowledge_base/domains/VS/assumptions.md", "md_atom_type": "HEADING", "md_parent_section": "§VS [VS — Assumptions]", "md_verbatim": "# VS — Assumptions", "score": 0.4667, "match_basis": "verbatim_token+domain_route:VS"}, {"md_atom_id": "md_dmVS_ex_a001", "md_file": "knowledge_base/domains/VS/examples.md", "md_atom_type": "HEADING", "md_parent_section": "§VS [VS — Examples]", "md_verbatim": "# VS — Examples", "score": 0.4, "match_basis": "verbatim_token+domain_route:VS"}, {"md_atom_id": "md_dmVS_ex_a002", "md_file": "knowledge_base/domains/VS/examples.md", "md_atom_type": "HEADING", "md_parent_section": "§VS [VS — Examples]", "md_verbatim": "## Example 1", "score": 0.4, "match_basis": "verbatim_token+domain_route:VS"}], "candidate_count": 3, "zero_candidate": false}
{"pdf_atom_id": "ig34_p0358_a016", "pdf_atom_type": "SENTENCE", "pdf_source": "SDTMIG_v3.4", "pdf_page": 358, "pdf_parent_section": "VS – Specification", "pdf_verbatim": "vs.xpt, Vital Signs — Findings. One record per vital sign measurement per time point per visit per subject, Tabulation.", "figure_ref": null, "candidates": [{"md_atom_id": "md_dmVS_ex_a003", "md_file": "knowledge_base/domains/VS/examples.md", "md_atom_type": "SENTENCE", "md_parent_section": "§VS.1 [Example 1]", "md_verbatim": "This example shows results for 1 subject from 2 visits (i.e., baseline, visit 2).", "score": 0.4649, "match_basis": "verbatim_token+domain_route:VS"}, {"md_atom_id": "md_dmVS_ex_a004", "md_file": "knowledge_base/domains/VS/examples.md", "md_atom_type": "NOTE", "md_parent_section": "§VS.1 [Example 1]", "md_verbatim": "**Rows 1-4, 6-7:** VSTPT and VSTPTNUM are populated because more than 1 measurement was taken at this visit.", "score": 0.4163, "match_basis": "verbatim_token+domain_route:VS"}, {"md_atom_id": "md_dmVS_ex_a005", "md_file": "knowledge_base/domains/VS/examples.md", "md_atom_type": "NOTE", "md_parent_section": "§VS.1 [Example 1]", "md_verbatim": "**Rows 2, 4-5, 7-9:** VSLOBXFL=\"Y\" indicates that the observation was used as the last observation before exposure measurement.", "score": 0.41, "match_basis": "verbatim_token+domain_route:VS"}, {"md_atom_id": "md_dmVS_assn_a002", "md_file": "knowledge_base/domains/VS/assumptions.md", "md_atom_type": "LIST_ITEM", "md_parent_section": "§VS [VS — Assumptions]", "md_verbatim": "1. In cases where the LOINC dictionary is used for vital sign tests, the permissible variable VSLOINC may be used. Sponsors are expected to provide the dictionary name and version used to map terms using the external codelist element in the Define-XML document.", "score": 0.3762, "match_basis": "verbatim_token+domain_route:VS"}, {"md_atom_id": "md_dmVS_ex_a006", "md_file": "knowledge_base/domains/VS/examples.md", "md_atom_type": "NOTE", "md_parent_section": "§VS.1 [Example 1]", "md_verbatim": "**Rows 10-11:** Show blood pressure observations obtained at visit 2.", "score": 0.3758, "match_basis": "verbatim_token+domain_route:VS"}], "candidate_count": 5, "zero_candidate": false}
{"pdf_atom_id": "ig34_p0358_a017", "pdf_atom_type": "TABLE_HEADER", "pdf_source": "SDTMIG_v3.4", "pdf_page": 358, "pdf_parent_section": "VS – Specification", "pdf_verbatim": "| Variable Name | Variable Label | Type | Controlled Terms, Codelist or Format¹ | Role | CDISC Notes | Core |", "figure_ref": null, "candidates": [{"md_atom_id": "md_dmVS_ex_a010", "md_file": "knowledge_base/domains/VS/examples.md", "md_atom_type": "TABLE_HEADER", "md_parent_section": "§VS.1 [Example 1]", "md_verbatim": "| Row | STUDYID | DOMAIN | USUBJID | VSSEQ | VSTESTCD | VSTEST | VSPOS | VSORRES | VSORRESU | VSSTRESC | VSSTRESN | VSSTRESU | VSSTAT | VSREASND | VSLOC | VSLAT | VSLOBXFL | VISITNUM | VISIT | VISITDY | VSDTC | VSDY | VSTPT | VSTPTNUM |", "score": 0.4054, "match_basis": "verbatim_token+domain_route:VS"}, {"md_atom_id": "md_dmVS_ex_a011", "md_file": "knowledge_base/domains/VS/examples.md", "md_atom_type": "TABLE_HEADER", "md_parent_section": "§VS.1 [Example 1]", "md_verbatim": "|-----|---------|--------|---------|-------|----------|--------|-------|---------|----------|----------|----------|----------|--------|----------|-------|-------|----------|----------|-------|---------|-------|------|-------|----------|", "score": 0.4, "match_basis": "verbatim_token+domain_route:VS"}, {"md_atom_id": "md_dmVS_ex_a014", "md_file": "knowledge_base/domains/VS/examples.md", "md_atom_type": "TABLE_ROW", "md_parent_section": "§VS.1 [Example 1]", "md_verbatim": "| 3 | ABC | VS | ABC-001-001 | 3 | DIABP | Diastolic Blood Pressure | SITTING | 44 | mmHg | 44 | 44 | mmHg | | | ARM | LEFT | | 1 | Baseline | 1 | 1999-06-19T08:45 | 1 | BASELINE | 1 |", "score": 0.3546, "match_basis": "verbatim_token+domain_route:VS"}, {"md_atom_id": "md_dmVS_ex_a015", "md_file": "knowledge_base/domains/VS/examples.md", "md_atom_type": "TABLE_ROW", "md_parent_section": "§VS.1 [Example 1]", "md_verbatim": "| 4 | ABC | VS | ABC-001-001 | 4 | DIABP | Diastolic Blood Pressure | SITTING | 48 | mmHg | 48 | 48 | mmHg | | | ARM | LEFT | Y | 1 | Baseline | 1 | 1999-06-19T09:00 | 1 | BASELINE | 2 |", "score": 0.3546, "match_basis": "verbatim_token+domain_route:VS"}, {"md_atom_id": "md_dmVS_ex_a019", "md_file": "knowledge_base/domains/VS/examples.md", "md_atom_type": "TABLE_ROW", "md_parent_section": "§VS.1 [Example 1]", "md_verbatim": "| 8 | ABC | VS | ABC-001-001 | 8 | WEIGHT | Weight | STANDING | 90.5 | kg | 90.5 | 90.5 | kg | | | | | Y | 1 | Baseline | 1 | 1999-06-19 | 1 | | |", "score": 0.3497, "match_basis": "verbatim_token+domain_route:VS"}], "candidate_count": 5, "zero_candidate": false}
{"pdf_atom_id": "ig34_p0358_a018", "pdf_atom_type": "TABLE_ROW", "pdf_source": "SDTMIG_v3.4", "pdf_page": 358, "pdf_parent_section": "VS – Specification", "pdf_verbatim": "| STUDYID | Study Identifier | Char | | Identifier | Unique identifier for a study. | Req |", "figure_ref": null, "candidates": [{"md_atom_id": "md_dmVS_ex_a012", "md_file": "knowledge_base/domains/VS/examples.md", "md_atom_type": "TABLE_ROW", "md_parent_section": "§VS.1 [Example 1]", "md_verbatim": "| 1 | ABC | VS | ABC-001-001 | 1 | SYSBP | Systolic Blood Pressure | SITTING | 154 | mmHg | 154 | 154 | mmHg | | | ARM | LEFT | | 1 | Baseline | 1 | 1999-06-19T08:45 | 1 | BASELINE | 1 |", "score": 0.4, "match_basis": "verbatim_token+domain_route:VS"}, {"md_atom_id": "md_dmVS_ex_a013", "md_file": "knowledge_base/domains/VS/examples.md", "md_atom_type": "TABLE_ROW", "md_parent_section": "§VS.1 [Example 1]", "md_verbatim": "| 2 | ABC | VS | ABC-001-001 | 2 | SYSBP | Systolic Blood Pressure | SITTING | 152 | mmHg | 152 | 152 | mmHg | | | ARM | LEFT | Y | 1 | Baseline | 1 | 1999-06-19T09:00 | 1 | BASELINE | 2 |", "score": 0.4, "match_basis": "verbatim_token+domain_route:VS"}, {"md_atom_id": "md_dmVS_ex_a014", "md_file": "knowledge_base/domains/VS/examples.md", "md_atom_type": "TABLE_ROW", "md_parent_section": "§VS.1 [Example 1]", "md_verbatim": "| 3 | ABC | VS | ABC-001-001 | 3 | DIABP | Diastolic Blood Pressure | SITTING | 44 | mmHg | 44 | 44 | mmHg | | | ARM | LEFT | | 1 | Baseline | 1 | 1999-06-19T08:45 | 1 | BASELINE | 1 |", "score": 0.4, "match_basis": "verbatim_token+domain_route:VS"}, {"md_atom_id": "md_dmVS_ex_a015", "md_file": "knowledge_base/domains/VS/examples.md", "md_atom_type": "TABLE_ROW", "md_parent_section": "§VS.1 [Example 1]", "md_verbatim": "| 4 | ABC | VS | ABC-001-001 | 4 | DIABP | Diastolic Blood Pressure | SITTING | 48 | mmHg | 48 | 48 | mmHg | | | ARM | LEFT | Y | 1 | Baseline | 1 | 1999-06-19T09:00 | 1 | BASELINE | 2 |", "score": 0.4, "match_basis": "verbatim_token+domain_route:VS"}, {"md_atom_id": "md_dmVS_ex_a016", "md_file": "knowledge_base/domains/VS/examples.md", "md_atom_type": "TABLE_ROW", "md_parent_section": "§VS.1 [Example 1]", "md_verbatim": "| 5 | ABC | VS | ABC-001-001 | 5 | PULSE | Pulse Rate | SITTING | 72 | beats/min | 72 | 72 | beats/min | | | ARM | LEFT | Y | 1 | Baseline | 1 | 1999-06-19 | 1 | | |", "score": 0.4, "match_basis": "verbatim_token+domain_route:VS"}], "candidate_count": 5, "zero_candidate": false}
{"pdf_atom_id": "ig34_p0358_a019", "pdf_atom_type": "TABLE_ROW", "pdf_source": "SDTMIG_v3.4", "pdf_page": 358, "pdf_parent_section": "VS – Specification", "pdf_verbatim": "| DOMAIN | Domain Abbreviation | Char | VS | Identifier | Two-character abbreviation for the domain. | Req |", "figure_ref": null, "candidates": [{"md_atom_id": "md_dmVS_ex_a023", "md_file": "knowledge_base/domains/VS/examples.md", "md_atom_type": "TABLE_ROW", "md_parent_section": "§VS.1 [Example 1]", "md_verbatim": "| 12 | ABC | VS | ABC-001-001 | 12 | TEMP | Temperature | | 97.16 | F | 38.2 | 36.2 | C | | | SUBLINGUAL REGION | | | 2 | Visit 2 | 35 | 1999-07-21 | 33 | | |", "score": 0.41, "match_basis": "verbatim_token+domain_route:VS"}, {"md_atom_id": "md_dmVS_ex_a017", "md_file": "knowledge_base/domains/VS/examples.md", "md_atom_type": "TABLE_ROW", "md_parent_section": "§VS.1 [Example 1]", "md_verbatim": "| 6 | ABC | VS | ABC-001-001 | 6 | TEMP | Temperature | | 34.7 | C | 34.7 | 34.7 | C | | | SUBLINGUAL REGION | | | 1 | Baseline | 1 | 1999-06-19T08:45 | 1 | BASELINE | 1 |", "score": 0.4092, "match_basis": "verbatim_token+domain_route:VS"}, {"md_atom_id": "md_dmVS_ex_a018", "md_file": "knowledge_base/domains/VS/examples.md", "md_atom_type": "TABLE_ROW", "md_parent_section": "§VS.1 [Example 1]", "md_verbatim": "| 7 | ABC | VS | ABC-001-001 | 7 | TEMP | Temperature | | 38.2 | C | 38.2 | 38.2 | C | | | SUBLINGUAL REGION | | Y | 1 | Baseline | 1 | 1999-06-19T09:00 | 1 | BASELINE | 2 |", "score": 0.4092, "match_basis": "verbatim_token+domain_route:VS"}, {"md_atom_id": "md_dmVS_ex_a012", "md_file": "knowledge_base/domains/VS/examples.md", "md_atom_type": "TABLE_ROW", "md_parent_section": "§VS.1 [Example 1]", "md_verbatim": "| 1 | ABC | VS | ABC-001-001 | 1 | SYSBP | Systolic Blood Pressure | SITTING | 154 | mmHg | 154 | 154 | mmHg | | | ARM | LEFT | | 1 | Baseline | 1 | 1999-06-19T08:45 | 1 | BASELINE | 1 |", "score": 0.4, "match_basis": "verbatim_token+domain_route:VS"}, {"md_atom_id": "md_dmVS_ex_a013", "md_file": "knowledge_base/domains/VS/examples.md", "md_atom_type": "TABLE_ROW", "md_parent_section": "§VS.1 [Example 1]", "md_verbatim": "| 2 | ABC | VS | ABC-001-001 | 2 | SYSBP | Systolic Blood Pressure | SITTING | 152 | mmHg | 152 | 152 | mmHg | | | ARM | LEFT | Y | 1 | Baseline | 1 | 1999-06-19T09:00 | 1 | BASELINE | 2 |", "score": 0.4, "match_basis": "verbatim_token+domain_route:VS"}], "candidate_count": 5, "zero_candidate": false}
{"pdf_atom_id": "ig34_p0358_a020", "pdf_atom_type": "TABLE_ROW", "pdf_source": "SDTMIG_v3.4", "pdf_page": 358, "pdf_parent_section": "VS – Specification", "pdf_verbatim": "| USUBJID | Unique Subject Identifier | Char | | Identifier | Identifier used to uniquely identify a subject across all studies for all applications or submissions involving the product. | Req |", "figure_ref": null, "candidates": [{"md_atom_id": "md_dmVS_ex_a024", "md_file": "knowledge_base/domains/VS/examples.md", "md_atom_type": "TABLE_ROW", "md_parent_section": "§VS.1 [Example 1]", "md_verbatim": "| 13 | ABC | VS | ABC-001-001 | 13 | WEIGHT | Weight | | | | | | | NOT DONE | SUBJECT REFUSED | | | | 2 | Visit 2 | 35 | 1999-07-21 | 33 | | |", "score": 0.4494, "match_basis": "verbatim_token+domain_route:VS"}, {"md_atom_id": "md_dmVS_ex_a023", "md_file": "knowledge_base/domains/VS/examples.md", "md_atom_type": "TABLE_ROW", "md_parent_section": "§VS.1 [Example 1]", "md_verbatim": "| 12 | ABC | VS | ABC-001-001 | 12 | TEMP | Temperature | | 97.16 | F | 38.2 | 36.2 | C | | | SUBLINGUAL REGION | | | 2 | Visit 2 | 35 | 1999-07-21 | 33 | | |", "score": 0.4194, "match_basis": "verbatim_token+domain_route:VS"}, {"md_atom_id": "md_dmVS_ex_a017", "md_file": "knowledge_base/domains/VS/examples.md", "md_atom_type": "TABLE_ROW", "md_parent_section": "§VS.1 [Example 1]", "md_verbatim": "| 6 | ABC | VS | ABC-001-001 | 6 | TEMP | Temperature | | 34.7 | C | 34.7 | 34.7 | C | | | SUBLINGUAL REGION | | | 1 | Baseline | 1 | 1999-06-19T08:45 | 1 | BASELINE | 1 |", "score": 0.4184, "match_basis": "verbatim_token+domain_route:VS"}, {"md_atom_id": "md_dmVS_ex_a018", "md_file": "knowledge_base/domains/VS/examples.md", "md_atom_type": "TABLE_ROW", "md_parent_section": "§VS.1 [Example 1]", "md_verbatim": "| 7 | ABC | VS | ABC-001-001 | 7 | TEMP | Temperature | | 38.2 | C | 38.2 | 38.2 | C | | | SUBLINGUAL REGION | | Y | 1 | Baseline | 1 | 1999-06-19T09:00 | 1 | BASELINE | 2 |", "score": 0.4184, "match_basis": "verbatim_token+domain_route:VS"}, {"md_atom_id": "md_dmVS_ex_a021", "md_file": "knowledge_base/domains/VS/examples.md", "md_atom_type": "TABLE_ROW", "md_parent_section": "§VS.1 [Example 1]", "md_verbatim": "| 10 | ABC | VS | ABC-001-001 | 10 | SYSBP | Systolic Blood Pressure | SITTING | 95 | mmHg | 95 | 95 | mmHg | | | ARM | LEFT | | 2 | Visit 2 | 35 | 1999-07-21 | 33 | | |", "score": 0.4121, "match_basis": "verbatim_token+domain_route:VS"}], "candidate_count": 5, "zero_candidate": false}
{"pdf_atom_id": "ig34_p0358_a021", "pdf_atom_type": "TABLE_ROW", "pdf_source": "SDTMIG_v3.4", "pdf_page": 358, "pdf_parent_section": "VS – Specification", "pdf_verbatim": "| VSSEQ | Sequence Number | Num | | Identifier | Sequence number given to ensure uniqueness of subject records within a domain. May be any valid number. | Req |", "figure_ref": null, "candidates": [{"md_atom_id": "md_dmVS_ex_a024", "md_file": "knowledge_base/domains/VS/examples.md", "md_atom_type": "TABLE_ROW", "md_parent_section": "§VS.1 [Example 1]", "md_verbatim": "| 13 | ABC | VS | ABC-001-001 | 13 | WEIGHT | Weight | | | | | | | NOT DONE | SUBJECT REFUSED | | | | 2 | Visit 2 | 35 | 1999-07-21 | 33 | | |", "score": 0.4395, "match_basis": "verbatim_token+domain_route:VS"}, {"md_atom_id": "md_dmVS_ex_a021", "md_file": "knowledge_base/domains/VS/examples.md", "md_atom_type": "TABLE_ROW", "md_parent_section": "§VS.1 [Example 1]", "md_verbatim": "| 10 | ABC | VS | ABC-001-001 | 10 | SYSBP | Systolic Blood Pressure | SITTING | 95 | mmHg | 95 | 95 | mmHg | | | ARM | LEFT | | 2 | Visit 2 | 35 | 1999-07-21 | 33 | | |", "score": 0.4207, "match_basis": "verbatim_token+domain_route:VS"}, {"md_atom_id": "md_dmVS_ex_a022", "md_file": "knowledge_base/domains/VS/examples.md", "md_atom_type": "TABLE_ROW", "md_parent_section": "§VS.1 [Example 1]", "md_verbatim": "| 11 | ABC | VS | ABC-001-001 | 11 | DIABP | Diastolic Blood Pressure | SITTING | 44 | mmHg | 44 | 44 | mmHg | | | ARM | LEFT | | 2 | Visit 2 | 35 | 1999-07-21 | 33 | | |", "score": 0.4205, "match_basis": "verbatim_token+domain_route:VS"}, {"md_atom_id": "md_dmVS_ex_a012", "md_file": "knowledge_base/domains/VS/examples.md", "md_atom_type": "TABLE_ROW", "md_parent_section": "§VS.1 [Example 1]", "md_verbatim": "| 1 | ABC | VS | ABC-001-001 | 1 | SYSBP | Systolic Blood Pressure | SITTING | 154 | mmHg | 154 | 154 | mmHg | | | ARM | LEFT | | 1 | Baseline | 1 | 1999-06-19T08:45 | 1 | BASELINE | 1 |", "score": 0.4189, "match_basis": "verbatim_token+domain_route:VS"}, {"md_atom_id": "md_dmVS_ex_a013", "md_file": "knowledge_base/domains/VS/examples.md", "md_atom_type": "TABLE_ROW", "md_parent_section": "§VS.1 [Example 1]", "md_verbatim": "| 2 | ABC | VS | ABC-001-001 | 2 | SYSBP | Systolic Blood Pressure | SITTING | 152 | mmHg | 152 | 152 | mmHg | | | ARM | LEFT | Y | 1 | Baseline | 1 | 1999-06-19T09:00 | 1 | BASELINE | 2 |", "score": 0.4189, "match_basis": "verbatim_token+domain_route:VS"}], "candidate_count": 5, "zero_candidate": false}
{"pdf_atom_id": "ig34_p0358_a022", "pdf_atom_type": "TABLE_ROW", "pdf_source": "SDTMIG_v3.4", "pdf_page": 358, "pdf_parent_section": "VS – Specification", "pdf_verbatim": "| VSGRPID | Group ID | Char | | Identifier | Used to tie together a block of related records in a single domain for a subject. | Perm |", "figure_ref": null, "candidates": [{"md_atom_id": "md_dmVS_ex_a024", "md_file": "knowledge_base/domains/VS/examples.md", "md_atom_type": "TABLE_ROW", "md_parent_section": "§VS.1 [Example 1]", "md_verbatim": "| 13 | ABC | VS | ABC-001-001 | 13 | WEIGHT | Weight | | | | | | | NOT DONE | SUBJECT REFUSED | | | | 2 | Visit 2 | 35 | 1999-07-21 | 33 | | |", "score": 0.4575, "match_basis": "verbatim_token+domain_route:VS"}, {"md_atom_id": "md_dmVS_ex_a023", "md_file": "knowledge_base/domains/VS/examples.md", "md_atom_type": "TABLE_ROW", "md_parent_section": "§VS.1 [Example 1]", "md_verbatim": "| 12 | ABC | VS | ABC-001-001 | 12 | TEMP | Temperature | | 97.16 | F | 38.2 | 36.2 | C | | | SUBLINGUAL REGION | | | 2 | Visit 2 | 35 | 1999-07-21 | 33 | | |", "score": 0.4222, "match_basis": "verbatim_token+domain_route:VS"}, {"md_atom_id": "md_dmVS_ex_a017", "md_file": "knowledge_base/domains/VS/examples.md", "md_atom_type": "TABLE_ROW", "md_parent_section": "§VS.1 [Example 1]", "md_verbatim": "| 6 | ABC | VS | ABC-001-001 | 6 | TEMP | Temperature | | 34.7 | C | 34.7 | 34.7 | C | | | SUBLINGUAL REGION | | | 1 | Baseline | 1 | 1999-06-19T08:45 | 1 | BASELINE | 1 |", "score": 0.4209, "match_basis": "verbatim_token+domain_route:VS"}, {"md_atom_id": "md_dmVS_ex_a018", "md_file": "knowledge_base/domains/VS/examples.md", "md_atom_type": "TABLE_ROW", "md_parent_section": "§VS.1 [Example 1]", "md_verbatim": "| 7 | ABC | VS | ABC-001-001 | 7 | TEMP | Temperature | | 38.2 | C | 38.2 | 38.2 | C | | | SUBLINGUAL REGION | | Y | 1 | Baseline | 1 | 1999-06-19T09:00 | 1 | BASELINE | 2 |", "score": 0.4209, "match_basis": "verbatim_token+domain_route:VS"}, {"md_atom_id": "md_dmVS_ex_a016", "md_file": "knowledge_base/domains/VS/examples.md", "md_atom_type": "TABLE_ROW", "md_parent_section": "§VS.1 [Example 1]", "md_verbatim": "| 5 | ABC | VS | ABC-001-001 | 5 | PULSE | Pulse Rate | SITTING | 72 | beats/min | 72 | 72 | beats/min | | | ARM | LEFT | Y | 1 | Baseline | 1 | 1999-06-19 | 1 | | |", "score": 0.4148, "match_basis": "verbatim_token+domain_route:VS"}], "candidate_count": 5, "zero_candidate": false}
{"pdf_atom_id": "ig34_p0358_a023", "pdf_atom_type": "TABLE_ROW", "pdf_source": "SDTMIG_v3.4", "pdf_page": 358, "pdf_parent_section": "VS – Specification", "pdf_verbatim": "| VSSPID | Sponsor-Defined Identifier | Char | | Identifier | Sponsor-defined reference number. May be preprinted on the CRF as an explicit line identifier or defined in the sponsor's operational database. | Perm |", "figure_ref": null, "candidates": [{"md_atom_id": "md_dmVS_ex_a017", "md_file": "knowledge_base/domains/VS/examples.md", "md_atom_type": "TABLE_ROW", "md_parent_section": "§VS.1 [Example 1]", "md_verbatim": "| 6 | ABC | VS | ABC-001-001 | 6 | TEMP | Temperature | | 34.7 | C | 34.7 | 34.7 | C | | | SUBLINGUAL REGION | | | 1 | Baseline | 1 | 1999-06-19T08:45 | 1 | BASELINE | 1 |", "score": 0.4511, "match_basis": "verbatim_token+domain_route:VS"}, {"md_atom_id": "md_dmVS_ex_a018", "md_file": "knowledge_base/domains/VS/examples.md", "md_atom_type": "TABLE_ROW", "md_parent_section": "§VS.1 [Example 1]", "md_verbatim": "| 7 | ABC | VS | ABC-001-001 | 7 | TEMP | Temperature | | 38.2 | C | 38.2 | 38.2 | C | | | SUBLINGUAL REGION | | Y | 1 | Baseline | 1 | 1999-06-19T09:00 | 1 | BASELINE | 2 |", "score": 0.4511, "match_basis": "verbatim_token+domain_route:VS"}, {"md_atom_id": "md_dmVS_ex_a012", "md_file": "knowledge_base/domains/VS/examples.md", "md_atom_type": "TABLE_ROW", "md_parent_section": "§VS.1 [Example 1]", "md_verbatim": "| 1 | ABC | VS | ABC-001-001 | 1 | SYSBP | Systolic Blood Pressure | SITTING | 154 | mmHg | 154 | 154 | mmHg | | | ARM | LEFT | | 1 | Baseline | 1 | 1999-06-19T08:45 | 1 | BASELINE | 1 |", "score": 0.4346, "match_basis": "verbatim_token+domain_route:VS"}, {"md_atom_id": "md_dmVS_ex_a013", "md_file": "knowledge_base/domains/VS/examples.md", "md_atom_type": "TABLE_ROW", "md_parent_section": "§VS.1 [Example 1]", "md_verbatim": "| 2 | ABC | VS | ABC-001-001 | 2 | SYSBP | Systolic Blood Pressure | SITTING | 152 | mmHg | 152 | 152 | mmHg | | | ARM | LEFT | Y | 1 | Baseline | 1 | 1999-06-19T09:00 | 1 | BASELINE | 2 |", "score": 0.4346, "match_basis": "verbatim_token+domain_route:VS"}, {"md_atom_id": "md_dmVS_ex_a014", "md_file": "knowledge_base/domains/VS/examples.md", "md_atom_type": "TABLE_ROW", "md_parent_section": "§VS.1 [Example 1]", "md_verbatim": "| 3 | ABC | VS | ABC-001-001 | 3 | DIABP | Diastolic Blood Pressure | SITTING | 44 | mmHg | 44 | 44 | mmHg | | | ARM | LEFT | | 1 | Baseline | 1 | 1999-06-19T08:45 | 1 | BASELINE | 1 |", "score": 0.4346, "match_basis": "verbatim_token+domain_route:VS"}], "candidate_count": 5, "zero_candidate": false}
{"pdf_atom_id": "ig34_p0358_a024", "pdf_atom_type": "TABLE_ROW", "pdf_source": "SDTMIG_v3.4", "pdf_page": 358, "pdf_parent_section": "VS – Specification", "pdf_verbatim": "| VSTESTCD | Vital Signs Test Short Name | Char | (VSTESTCD) | Topic | Short name of the measurement, test, or examination described in VSTEST. It can be used as a column name when converting a dataset from a vertical to a horizontal format. The value in VSTESTCD cannot be longer than 8 characters, nor can it start with a number (e.g., \"1TEST\" is not valid). VSTESTCD cannot contain characters other than letters, numbers, or underscores. Examples: \"SYSBP\", \"DIABP\", \"BMI\". | Req |", "figure_ref": null, "candidates": [{"md_atom_id": "md_dmVS_ex_a012", "md_file": "knowledge_base/domains/VS/examples.md", "md_atom_type": "TABLE_ROW", "md_parent_section": "§VS.1 [Example 1]", "md_verbatim": "| 1 | ABC | VS | ABC-001-001 | 1 | SYSBP | Systolic Blood Pressure | SITTING | 154 | mmHg | 154 | 154 | mmHg | | | ARM | LEFT | | 1 | Baseline | 1 | 1999-06-19T08:45 | 1 | BASELINE | 1 |", "score": 0.4309, "match_basis": "verbatim_token+domain_route:VS"}, {"md_atom_id": "md_dmVS_ex_a013", "md_file": "knowledge_base/domains/VS/examples.md", "md_atom_type": "TABLE_ROW", "md_parent_section": "§VS.1 [Example 1]", "md_verbatim": "| 2 | ABC | VS | ABC-001-001 | 2 | SYSBP | Systolic Blood Pressure | SITTING | 152 | mmHg | 152 | 152 | mmHg | | | ARM | LEFT | Y | 1 | Baseline | 1 | 1999-06-19T09:00 | 1 | BASELINE | 2 |", "score": 0.4309, "match_basis": "verbatim_token+domain_route:VS"}, {"md_atom_id": "md_dmVS_ex_a014", "md_file": "knowledge_base/domains/VS/examples.md", "md_atom_type": "TABLE_ROW", "md_parent_section": "§VS.1 [Example 1]", "md_verbatim": "| 3 | ABC | VS | ABC-001-001 | 3 | DIABP | Diastolic Blood Pressure | SITTING | 44 | mmHg | 44 | 44 | mmHg | | | ARM | LEFT | | 1 | Baseline | 1 | 1999-06-19T08:45 | 1 | BASELINE | 1 |", "score": 0.4309, "match_basis": "verbatim_token+domain_route:VS"}, {"md_atom_id": "md_dmVS_ex_a015", "md_file": "knowledge_base/domains/VS/examples.md", "md_atom_type": "TABLE_ROW", "md_parent_section": "§VS.1 [Example 1]", "md_verbatim": "| 4 | ABC | VS | ABC-001-001 | 4 | DIABP | Diastolic Blood Pressure | SITTING | 48 | mmHg | 48 | 48 | mmHg | | | ARM | LEFT | Y | 1 | Baseline | 1 | 1999-06-19T09:00 | 1 | BASELINE | 2 |", "score": 0.4309, "match_basis": "verbatim_token+domain_route:VS"}, {"md_atom_id": "md_dmVS_ex_a021", "md_file": "knowledge_base/domains/VS/examples.md", "md_atom_type": "TABLE_ROW", "md_parent_section": "§VS.1 [Example 1]", "md_verbatim": "| 10 | ABC | VS | ABC-001-001 | 10 | SYSBP | Systolic Blood Pressure | SITTING | 95 | mmHg | 95 | 95 | mmHg | | | ARM | LEFT | | 2 | Visit 2 | 35 | 1999-07-21 | 33 | | |", "score": 0.4286, "match_basis": "verbatim_token+domain_route:VS"}], "candidate_count": 5, "zero_candidate": false}
{"pdf_atom_id": "ig34_p0358_a025", "pdf_atom_type": "TABLE_ROW", "pdf_source": "SDTMIG_v3.4", "pdf_page": 358, "pdf_parent_section": "VS – Specification", "pdf_verbatim": "| VSTEST | Vital Signs Test Name | Char | (VSTEST) | Synonym Qualifier | Verbatim name of the test or examination used to obtain the measurement or finding. The value in VSTEST cannot be longer than 40 characters. Examples: \"Systolic Blood Pressure\", \"Diastolic Blood Pressure\", \"Body Mass Index\". | Req |", "figure_ref": null, "candidates": [{"md_atom_id": "md_dmVS_ex_a022", "md_file": "knowledge_base/domains/VS/examples.md", "md_atom_type": "TABLE_ROW", "md_parent_section": "§VS.1 [Example 1]", "md_verbatim": "| 11 | ABC | VS | ABC-001-001 | 11 | DIABP | Diastolic Blood Pressure | SITTING | 44 | mmHg | 44 | 44 | mmHg | | | ARM | LEFT | | 2 | Visit 2 | 35 | 1999-07-21 | 33 | | |", "score": 0.4823, "match_basis": "verbatim_token+domain_route:VS"}, {"md_atom_id": "md_dmVS_ex_a014", "md_file": "knowledge_base/domains/VS/examples.md", "md_atom_type": "TABLE_ROW", "md_parent_section": "§VS.1 [Example 1]", "md_verbatim": "| 3 | ABC | VS | ABC-001-001 | 3 | DIABP | Diastolic Blood Pressure | SITTING | 44 | mmHg | 44 | 44 | mmHg | | | ARM | LEFT | | 1 | Baseline | 1 | 1999-06-19T08:45 | 1 | BASELINE | 1 |", "score": 0.4779, "match_basis": "verbatim_token+domain_route:VS"}, {"md_atom_id": "md_dmVS_ex_a015", "md_file": "knowledge_base/domains/VS/examples.md", "md_atom_type": "TABLE_ROW", "md_parent_section": "§VS.1 [Example 1]", "md_verbatim": "| 4 | ABC | VS | ABC-001-001 | 4 | DIABP | Diastolic Blood Pressure | SITTING | 48 | mmHg | 48 | 48 | mmHg | | | ARM | LEFT | Y | 1 | Baseline | 1 | 1999-06-19T09:00 | 1 | BASELINE | 2 |", "score": 0.4779, "match_basis": "verbatim_token+domain_route:VS"}, {"md_atom_id": "md_dmVS_ex_a021", "md_file": "knowledge_base/domains/VS/examples.md", "md_atom_type": "TABLE_ROW", "md_parent_section": "§VS.1 [Example 1]", "md_verbatim": "| 10 | ABC | VS | ABC-001-001 | 10 | SYSBP | Systolic Blood Pressure | SITTING | 95 | mmHg | 95 | 95 | mmHg | | | ARM | LEFT | | 2 | Visit 2 | 35 | 1999-07-21 | 33 | | |", "score": 0.4774, "match_basis": "verbatim_token+domain_route:VS"}, {"md_atom_id": "md_dmVS_ex_a012", "md_file": "knowledge_base/domains/VS/examples.md", "md_atom_type": "TABLE_ROW", "md_parent_section": "§VS.1 [Example 1]", "md_verbatim": "| 1 | ABC | VS | ABC-001-001 | 1 | SYSBP | Systolic Blood Pressure | SITTING | 154 | mmHg | 154 | 154 | mmHg | | | ARM | LEFT | | 1 | Baseline | 1 | 1999-06-19T08:45 | 1 | BASELINE | 1 |", "score": 0.4727, "match_basis": "verbatim_token+domain_route:VS"}], "candidate_count": 5, "zero_candidate": false}
{"pdf_atom_id": "ig34_p0358_a026", "pdf_atom_type": "TABLE_ROW", "pdf_source": "SDTMIG_v3.4", "pdf_page": 358, "pdf_parent_section": "VS – Specification", "pdf_verbatim": "| VSCAT | Category for Vital Signs | Char | * | Grouping Qualifier | Used to define a category of related records. | Perm |", "figure_ref": null, "candidates": [{"md_atom_id": "md_dmVS_ex_a017", "md_file": "knowledge_base/domains/VS/examples.md", "md_atom_type": "TABLE_ROW", "md_parent_section": "§VS.1 [Example 1]", "md_verbatim": "| 6 | ABC | VS | ABC-001-001 | 6 | TEMP | Temperature | | 34.7 | C | 34.7 | 34.7 | C | | | SUBLINGUAL REGION | | | 1 | Baseline | 1 | 1999-06-19T08:45 | 1 | BASELINE | 1 |", "score": 0.4316, "match_basis": "verbatim_token+domain_route:VS"}, {"md_atom_id": "md_dmVS_ex_a018", "md_file": "knowledge_base/domains/VS/examples.md", "md_atom_type": "TABLE_ROW", "md_parent_section": "§VS.1 [Example 1]", "md_verbatim": "| 7 | ABC | VS | ABC-001-001 | 7 | TEMP | Temperature | | 38.2 | C | 38.2 | 38.2 | C | | | SUBLINGUAL REGION | | Y | 1 | Baseline | 1 | 1999-06-19T09:00 | 1 | BASELINE | 2 |", "score": 0.4316, "match_basis": "verbatim_token+domain_route:VS"}, {"md_atom_id": "md_dmVS_ex_a016", "md_file": "knowledge_base/domains/VS/examples.md", "md_atom_type": "TABLE_ROW", "md_parent_section": "§VS.1 [Example 1]", "md_verbatim": "| 5 | ABC | VS | ABC-001-001 | 5 | PULSE | Pulse Rate | SITTING | 72 | beats/min | 72 | 72 | beats/min | | | ARM | LEFT | Y | 1 | Baseline | 1 | 1999-06-19 | 1 | | |", "score": 0.4254, "match_basis": "verbatim_token+domain_route:VS"}, {"md_atom_id": "md_dmVS_ex_a023", "md_file": "knowledge_base/domains/VS/examples.md", "md_atom_type": "TABLE_ROW", "md_parent_section": "§VS.1 [Example 1]", "md_verbatim": "| 12 | ABC | VS | ABC-001-001 | 12 | TEMP | Temperature | | 97.16 | F | 38.2 | 36.2 | C | | | SUBLINGUAL REGION | | | 2 | Visit 2 | 35 | 1999-07-21 | 33 | | |", "score": 0.425, "match_basis": "verbatim_token+domain_route:VS"}, {"md_atom_id": "md_dmVS_ex_a019", "md_file": "knowledge_base/domains/VS/examples.md", "md_atom_type": "TABLE_ROW", "md_parent_section": "§VS.1 [Example 1]", "md_verbatim": "| 8 | ABC | VS | ABC-001-001 | 8 | WEIGHT | Weight | STANDING | 90.5 | kg | 90.5 | 90.5 | kg | | | | | Y | 1 | Baseline | 1 | 1999-06-19 | 1 | | |", "score": 0.4185, "match_basis": "verbatim_token+domain_route:VS"}], "candidate_count": 5, "zero_candidate": false}
{"pdf_atom_id": "ig34_p0359_a001", "pdf_atom_type": "TABLE_ROW", "pdf_source": "SDTMIG_v3.4", "pdf_page": 359, "pdf_parent_section": "VS – Specification", "pdf_verbatim": "| VSSCAT | Subcategory for Vital Signs | Char | * | Grouping Qualifier | A further categorization of a measurement or examination. | Perm |", "figure_ref": null, "candidates": [{"md_atom_id": "md_dmVS_ex_a023", "md_file": "knowledge_base/domains/VS/examples.md", "md_atom_type": "TABLE_ROW", "md_parent_section": "§VS.1 [Example 1]", "md_verbatim": "| 12 | ABC | VS | ABC-001-001 | 12 | TEMP | Temperature | | 97.16 | F | 38.2 | 36.2 | C | | | SUBLINGUAL REGION | | | 2 | Visit 2 | 35 | 1999-07-21 | 33 | | |", "score": 0.4424, "match_basis": "verbatim_token+domain_route:VS"}, {"md_atom_id": "md_dmVS_ex_a017", "md_file": "knowledge_base/domains/VS/examples.md", "md_atom_type": "TABLE_ROW", "md_parent_section": "§VS.1 [Example 1]", "md_verbatim": "| 6 | ABC | VS | ABC-001-001 | 6 | TEMP | Temperature | | 34.7 | C | 34.7 | 34.7 | C | | | SUBLINGUAL REGION | | | 1 | Baseline | 1 | 1999-06-19T08:45 | 1 | BASELINE | 1 |", "score": 0.44, "match_basis": "verbatim_token+domain_route:VS"}, {"md_atom_id": "md_dmVS_ex_a018", "md_file": "knowledge_base/domains/VS/examples.md", "md_atom_type": "TABLE_ROW", "md_parent_section": "§VS.1 [Example 1]", "md_verbatim": "| 7 | ABC | VS | ABC-001-001 | 7 | TEMP | Temperature | | 38.2 | C | 38.2 | 38.2 | C | | | SUBLINGUAL REGION | | Y | 1 | Baseline | 1 | 1999-06-19T09:00 | 1 | BASELINE | 2 |", "score": 0.44, "match_basis": "verbatim_token+domain_route:VS"}, {"md_atom_id": "md_dmVS_ex_a016", "md_file": "knowledge_base/domains/VS/examples.md", "md_atom_type": "TABLE_ROW", "md_parent_section": "§VS.1 [Example 1]", "md_verbatim": "| 5 | ABC | VS | ABC-001-001 | 5 | PULSE | Pulse Rate | SITTING | 72 | beats/min | 72 | 72 | beats/min | | | ARM | LEFT | Y | 1 | Baseline | 1 | 1999-06-19 | 1 | | |", "score": 0.4207, "match_basis": "verbatim_token+domain_route:VS"}, {"md_atom_id": "md_dmVS_ex_a021", "md_file": "knowledge_base/domains/VS/examples.md", "md_atom_type": "TABLE_ROW", "md_parent_section": "§VS.1 [Example 1]", "md_verbatim": "| 10 | ABC | VS | ABC-001-001 | 10 | SYSBP | Systolic Blood Pressure | SITTING | 95 | mmHg | 95 | 95 | mmHg | | | ARM | LEFT | | 2 | Visit 2 | 35 | 1999-07-21 | 33 | | |", "score": 0.4194, "match_basis": "verbatim_token+domain_route:VS"}], "candidate_count": 5, "zero_candidate": false}
{"pdf_atom_id": "ig34_p0359_a002", "pdf_atom_type": "TABLE_ROW", "pdf_source": "SDTMIG_v3.4", "pdf_page": 359, "pdf_parent_section": "VS – Specification", "pdf_verbatim": "| VSPOS | Vital Signs Position of Subject | Char | (POSITION) | Record Qualifier | Position of the subject during a measurement or examination. Examples: \"SUPINE\", \"STANDING\", \"SITTING\". | Perm |", "figure_ref": null, "candidates": [{"md_atom_id": "md_dmVS_ex_a019", "md_file": "knowledge_base/domains/VS/examples.md", "md_atom_type": "TABLE_ROW", "md_parent_section": "§VS.1 [Example 1]", "md_verbatim": "| 8 | ABC | VS | ABC-001-001 | 8 | WEIGHT | Weight | STANDING | 90.5 | kg | 90.5 | 90.5 | kg | | | | | Y | 1 | Baseline | 1 | 1999-06-19 | 1 | | |", "score": 0.45, "match_basis": "verbatim_token+domain_route:VS"}, {"md_atom_id": "md_dmVS_ex_a020", "md_file": "knowledge_base/domains/VS/examples.md", "md_atom_type": "TABLE_ROW", "md_parent_section": "§VS.1 [Example 1]", "md_verbatim": "| 9 | ABC | VS | ABC-001-001 | 9 | HEIGHT | Height | STANDING | 157 | cm | 157 | 157 | cm | | | | | Y | 1 | Baseline | 1 | 1999-06-19 | 1 | | |", "score": 0.4494, "match_basis": "verbatim_token+domain_route:VS"}, {"md_atom_id": "md_dmVS_ex_a012", "md_file": "knowledge_base/domains/VS/examples.md", "md_atom_type": "TABLE_ROW", "md_parent_section": "§VS.1 [Example 1]", "md_verbatim": "| 1 | ABC | VS | ABC-001-001 | 1 | SYSBP | Systolic Blood Pressure | SITTING | 154 | mmHg | 154 | 154 | mmHg | | | ARM | LEFT | | 1 | Baseline | 1 | 1999-06-19T08:45 | 1 | BASELINE | 1 |", "score": 0.4462, "match_basis": "verbatim_token+domain_route:VS"}, {"md_atom_id": "md_dmVS_ex_a013", "md_file": "knowledge_base/domains/VS/examples.md", "md_atom_type": "TABLE_ROW", "md_parent_section": "§VS.1 [Example 1]", "md_verbatim": "| 2 | ABC | VS | ABC-001-001 | 2 | SYSBP | Systolic Blood Pressure | SITTING | 152 | mmHg | 152 | 152 | mmHg | | | ARM | LEFT | Y | 1 | Baseline | 1 | 1999-06-19T09:00 | 1 | BASELINE | 2 |", "score": 0.4462, "match_basis": "verbatim_token+domain_route:VS"}, {"md_atom_id": "md_dmVS_ex_a014", "md_file": "knowledge_base/domains/VS/examples.md", "md_atom_type": "TABLE_ROW", "md_parent_section": "§VS.1 [Example 1]", "md_verbatim": "| 3 | ABC | VS | ABC-001-001 | 3 | DIABP | Diastolic Blood Pressure | SITTING | 44 | mmHg | 44 | 44 | mmHg | | | ARM | LEFT | | 1 | Baseline | 1 | 1999-06-19T08:45 | 1 | BASELINE | 1 |", "score": 0.4462, "match_basis": "verbatim_token+domain_route:VS"}], "candidate_count": 5, "zero_candidate": false}
{"pdf_atom_id": "ig34_p0359_a003", "pdf_atom_type": "TABLE_ROW", "pdf_source": "SDTMIG_v3.4", "pdf_page": 359, "pdf_parent_section": "VS – Specification", "pdf_verbatim": "| VSORRES | Result or Finding in Original Units | Char | | Result Qualifier | Result of the vital signs measurement as originally received or collected. | Exp |", "figure_ref": null, "candidates": [{"md_atom_id": "md_dmVS_ex_a021", "md_file": "knowledge_base/domains/VS/examples.md", "md_atom_type": "TABLE_ROW", "md_parent_section": "§VS.1 [Example 1]", "md_verbatim": "| 10 | ABC | VS | ABC-001-001 | 10 | SYSBP | Systolic Blood Pressure | SITTING | 95 | mmHg | 95 | 95 | mmHg | | | ARM | LEFT | | 2 | Visit 2 | 35 | 1999-07-21 | 33 | | |", "score": 0.4261, "match_basis": "verbatim_token+domain_route:VS"}, {"md_atom_id": "md_dmVS_ex_a022", "md_file": "knowledge_base/domains/VS/examples.md", "md_atom_type": "TABLE_ROW", "md_parent_section": "§VS.1 [Example 1]", "md_verbatim": "| 11 | ABC | VS | ABC-001-001 | 11 | DIABP | Diastolic Blood Pressure | SITTING | 44 | mmHg | 44 | 44 | mmHg | | | ARM | LEFT | | 2 | Visit 2 | 35 | 1999-07-21 | 33 | | |", "score": 0.4258, "match_basis": "verbatim_token+domain_route:VS"}, {"md_atom_id": "md_dmVS_ex_a012", "md_file": "knowledge_base/domains/VS/examples.md", "md_atom_type": "TABLE_ROW", "md_parent_section": "§VS.1 [Example 1]", "md_verbatim": "| 1 | ABC | VS | ABC-001-001 | 1 | SYSBP | Systolic Blood Pressure | SITTING | 154 | mmHg | 154 | 154 | mmHg | | | ARM | LEFT | | 1 | Baseline | 1 | 1999-06-19T08:45 | 1 | BASELINE | 1 |", "score": 0.424, "match_basis": "verbatim_token+domain_route:VS"}, {"md_atom_id": "md_dmVS_ex_a013", "md_file": "knowledge_base/domains/VS/examples.md", "md_atom_type": "TABLE_ROW", "md_parent_section": "§VS.1 [Example 1]", "md_verbatim": "| 2 | ABC | VS | ABC-001-001 | 2 | SYSBP | Systolic Blood Pressure | SITTING | 152 | mmHg | 152 | 152 | mmHg | | | ARM | LEFT | Y | 1 | Baseline | 1 | 1999-06-19T09:00 | 1 | BASELINE | 2 |", "score": 0.424, "match_basis": "verbatim_token+domain_route:VS"}, {"md_atom_id": "md_dmVS_ex_a014", "md_file": "knowledge_base/domains/VS/examples.md", "md_atom_type": "TABLE_ROW", "md_parent_section": "§VS.1 [Example 1]", "md_verbatim": "| 3 | ABC | VS | ABC-001-001 | 3 | DIABP | Diastolic Blood Pressure | SITTING | 44 | mmHg | 44 | 44 | mmHg | | | ARM | LEFT | | 1 | Baseline | 1 | 1999-06-19T08:45 | 1 | BASELINE | 1 |", "score": 0.424, "match_basis": "verbatim_token+domain_route:VS"}], "candidate_count": 5, "zero_candidate": false}
