{"pdf_atom_id": "ig34_p0456_a010", "pdf_atom_type": "TABLE_ROW", "pdf_source": "SDTMIG_v3.4", "pdf_page": 456, "pdf_parent_section": "§10.E Appendix E: Revision History", "pdf_verbatim": "6.3.5.2 | Biospecimen Findings (BS) | This is newly copied from SDTMIG-PGx, with only minor corrections (e.g., typos). SDTMIG-PGx, originally published 2015-05-26, is to be deprecated with the publication of SDTMIG v3.4. Row 5 has been removed as well as the reference to the Maycox paper because these are out of date and may be incorrect. It would cause confusion to leave it in.", "figure_ref": null, "candidates": [{"md_atom_id": "md_ch10_a213", "md_file": "knowledge_base/chapters/ch10_appendices.md", "md_atom_type": "TABLE_ROW", "md_parent_section": "§10.E [Revision History]", "md_verbatim": "| 6.3.5.2 | Biospecimen Findings (BS) | Newly copied from SDTMIG-PGx with only minor corrections; Row 5 removed as well as reference to the Maycox paper |", "score": 0.6213, "match_basis": "verbatim_token+chapter_route:ch10"}, {"md_atom_id": "md_ch10_a232", "md_file": "knowledge_base/chapters/ch10_appendices.md", "md_atom_type": "TABLE_ROW", "md_parent_section": "§10.E [Revision History]", "md_verbatim": "| 8 | Representing Relationships and Data | Section 8.8 (Related Specimens) added due to BE, BS, and RELSPEC being copied in from SDTMIG-PGx, originally published 2015-05-26, to be deprecated with the publication of SDTMIG v3.4 |", "score": 0.5265, "match_basis": "verbatim_token+chapter_route:ch10"}, {"md_atom_id": "md_ch10_a239", "md_file": "knowledge_base/chapters/ch10_appendices.md", "md_atom_type": "TABLE_ROW", "md_parent_section": "§10.E [Revision History]", "md_verbatim": "| 9 | Study References | Removed \"Identifiers for pharmacogenomic/genetic biomarkers\" from the list; deleted Section 9.3 PB as it was part of SDTMIG-PGx (originally published 2015-05-26, to be deprecated with the publication of SDTMIG v3.4) |", "score": 0.4908, "match_basis": "verbatim_token+chapter_route:ch10"}, {"md_atom_id": "md_ch10_a237", "md_file": "knowledge_base/chapters/ch10_appendices.md", "md_atom_type": "TABLE_ROW", "md_parent_section": "§10.E [Revision History]", "md_verbatim": "| 8.8 | Related Specimens (RELSPEC) | This section was added to SDTMIG v3.4 in preparation for the eventual retirement of the SDTMIG-PGx, originally published 2015-05-26, to be deprecated with the publication of SDTMIG v3.4 |", "score": 0.4897, "match_basis": "verbatim_token+chapter_route:ch10"}, {"md_atom_id": "md_ch10_a199", "md_file": "knowledge_base/chapters/ch10_appendices.md", "md_atom_type": "TABLE_ROW", "md_parent_section": "§10.E [Revision History]", "md_verbatim": "| 6.2 | Models for Events Domains | BE Domain specification and examples copied from SDTMIG-PGx (originally published 2015-05-26), to be deprecated with publication of SDTMIG v3.4 |", "score": 0.488, "match_basis": "verbatim_token+chapter_route:ch10"}], "candidate_count": 5, "zero_candidate": false}
{"pdf_atom_id": "ig34_p0456_a011", "pdf_atom_type": "TABLE_ROW", "pdf_source": "SDTMIG_v3.4", "pdf_page": 456, "pdf_parent_section": "§10.E Appendix E: Revision History", "pdf_verbatim": "6.3.5.3 | Cell Phenotype Findings (CP) | This is a new domain.", "figure_ref": null, "candidates": [{"md_atom_id": "md_ch10_a214", "md_file": "knowledge_base/chapters/ch10_appendices.md", "md_atom_type": "TABLE_ROW", "md_parent_section": "§10.E [Revision History]", "md_verbatim": "| 6.3.5.3 | Cell Phenotype Findings (CP) | This is a new domain |", "score": 0.9, "match_basis": "verbatim_token+chapter_route:ch10"}, {"md_atom_id": "md_ch10_a156", "md_file": "knowledge_base/chapters/ch10_appendices.md", "md_atom_type": "TABLE_ROW", "md_parent_section": "§10.E [Revision History]", "md_verbatim": "| CP | Cell Phenotyping Findings |", "score": 0.65, "match_basis": "verbatim_token+chapter_route:ch10"}, {"md_atom_id": "md_ch10_a157", "md_file": "knowledge_base/chapters/ch10_appendices.md", "md_atom_type": "TABLE_ROW", "md_parent_section": "§10.E [Revision History]", "md_verbatim": "| GF | Genomics Findings |", "score": 0.4556, "match_basis": "verbatim_token+chapter_route:ch10"}, {"md_atom_id": "md_ch10_a155", "md_file": "knowledge_base/chapters/ch10_appendices.md", "md_atom_type": "TABLE_ROW", "md_parent_section": "§10.E [Revision History]", "md_verbatim": "| BS | Biospecimen Findings |", "score": 0.4161, "match_basis": "verbatim_token+chapter_route:ch10"}, {"md_atom_id": "md_ch10_a215", "md_file": "knowledge_base/chapters/ch10_appendices.md", "md_atom_type": "TABLE_ROW", "md_parent_section": "§10.E [Revision History]", "md_verbatim": "| 6.3.5.4 | Genomics Findings (GF) | New domain replacing the PF domain from the provisional SDTMIG-PGx; to be deprecated with publication of SDTMIG v3.4 |", "score": 0.4075, "match_basis": "verbatim_token+chapter_route:ch10"}], "candidate_count": 5, "zero_candidate": false}
{"pdf_atom_id": "ig34_p0456_a012", "pdf_atom_type": "TABLE_ROW", "pdf_source": "SDTMIG_v3.4", "pdf_page": 456, "pdf_parent_section": "§10.E Appendix E: Revision History", "pdf_verbatim": "6.3.5.4 | Genomics Findings (GF) | This is a new domain and replaces the PF domain from the provisional SDTMIG-PGx, originally published 2015-05-26, to be deprecated with the publication of SDTMIG v3.4.", "figure_ref": null, "candidates": [{"md_atom_id": "md_ch10_a215", "md_file": "knowledge_base/chapters/ch10_appendices.md", "md_atom_type": "TABLE_ROW", "md_parent_section": "§10.E [Revision History]", "md_verbatim": "| 6.3.5.4 | Genomics Findings (GF) | New domain replacing the PF domain from the provisional SDTMIG-PGx; to be deprecated with publication of SDTMIG v3.4 |", "score": 0.74, "match_basis": "verbatim_token+chapter_route:ch10"}, {"md_atom_id": "md_ch10_a199", "md_file": "knowledge_base/chapters/ch10_appendices.md", "md_atom_type": "TABLE_ROW", "md_parent_section": "§10.E [Revision History]", "md_verbatim": "| 6.2 | Models for Events Domains | BE Domain specification and examples copied from SDTMIG-PGx (originally published 2015-05-26), to be deprecated with publication of SDTMIG v3.4 |", "score": 0.5667, "match_basis": "verbatim_token+chapter_route:ch10"}, {"md_atom_id": "md_ch10_a232", "md_file": "knowledge_base/chapters/ch10_appendices.md", "md_atom_type": "TABLE_ROW", "md_parent_section": "§10.E [Revision History]", "md_verbatim": "| 8 | Representing Relationships and Data | Section 8.8 (Related Specimens) added due to BE, BS, and RELSPEC being copied in from SDTMIG-PGx, originally published 2015-05-26, to be deprecated with the publication of SDTMIG v3.4 |", "score": 0.5324, "match_basis": "verbatim_token+chapter_route:ch10"}, {"md_atom_id": "md_ch10_a207", "md_file": "knowledge_base/chapters/ch10_appendices.md", "md_atom_type": "TABLE_ROW", "md_parent_section": "§10.E [Revision History]", "md_verbatim": "| 6.3 | Models for Findings Domains | BS Domain specification and examples copied from SDTMIG-PGx (originally published 2015-05-26), to be deprecated; assumptions and examples updated where --CLSIG is promoted to standard variable |", "score": 0.5304, "match_basis": "verbatim_token+chapter_route:ch10"}, {"md_atom_id": "md_ch10_a237", "md_file": "knowledge_base/chapters/ch10_appendices.md", "md_atom_type": "TABLE_ROW", "md_parent_section": "§10.E [Revision History]", "md_verbatim": "| 8.8 | Related Specimens (RELSPEC) | This section was added to SDTMIG v3.4 in preparation for the eventual retirement of the SDTMIG-PGx, originally published 2015-05-26, to be deprecated with the publication of SDTMIG v3.4 |", "score": 0.5257, "match_basis": "verbatim_token+chapter_route:ch10"}], "candidate_count": 5, "zero_candidate": false}
{"pdf_atom_id": "ig34_p0456_a013", "pdf_atom_type": "TABLE_ROW", "pdf_source": "SDTMIG_v3.4", "pdf_page": 456, "pdf_parent_section": "§10.E Appendix E: Revision History", "pdf_verbatim": "6.3.5.5 | Immunogenicity Specimen Assessments (IS) | The domain definition has been updated. Note, however, that the definition will be finalized through the Controlled Terminology process, and the final definition may change from that shown here. Added 6 new variables: ISBDAGNT, ISMSCBCE, ISTSTOPO, ISTSTCND, ISCNDAGT, and NHOID. Added permissible variables that were previously not included in the IS domain specification. Replaced assumptions from SDTMIG v3.3. Examples 1 and 2 replaced with new content; Examples 3-11 added.", "figure_ref": null, "candidates": [{"md_atom_id": "md_ch10_a216", "md_file": "knowledge_base/chapters/ch10_appendices.md", "md_atom_type": "TABLE_ROW", "md_parent_section": "§10.E [Revision History]", "md_verbatim": "| 6.3.5.5 | Immunogenicity Specimen Assessments (IS) | Domain definition updated; 6 new variables added: ISBDAGNT, ISMSCBCE, ISTSTOPO, ISTSTCND, ISNCNDAGT, and NHOID; replaced assumptions from SDTMIG v3.3; Examples 1 and 2 replaced; Examples 3-11 added |", "score": 0.62, "match_basis": "verbatim_token+chapter_route:ch10"}, {"md_atom_id": "md_ch10_a242", "md_file": "knowledge_base/chapters/ch10_appendices.md", "md_atom_type": "TABLE_ROW", "md_parent_section": "§10.E [Revision History]", "md_verbatim": "| Appendix C | Controlled Terminology | Appendix C1 Trial Summary Codes has been removed from SDTMIG v3.4; TS Assumptions were updated to reference CDISC controlled terminology, CDISC TS codetable, and recipient (regulatory agency) implementation expectations; removed --CLSIG due to promotion as a Findings variable; added --REASOC; all references to Appendix C2 in the SDTMIG were changed to Appendix C1 |", "score": 0.4568, "match_basis": "verbatim_token+chapter_route:ch10"}, {"md_atom_id": "md_ch10_a207", "md_file": "knowledge_base/chapters/ch10_appendices.md", "md_atom_type": "TABLE_ROW", "md_parent_section": "§10.E [Revision History]", "md_verbatim": "| 6.3 | Models for Findings Domains | BS Domain specification and examples copied from SDTMIG-PGx (originally published 2015-05-26), to be deprecated; assumptions and examples updated where --CLSIG is promoted to standard variable |", "score": 0.4392, "match_basis": "verbatim_token+chapter_route:ch10"}, {"md_atom_id": "md_ch10_a201", "md_file": "knowledge_base/chapters/ch10_appendices.md", "md_atom_type": "TABLE_ROW", "md_parent_section": "§10.E [Revision History]", "md_verbatim": "| 6.2.2 | Biospecimen Events (BE) | Specification, assumptions, and examples copied from SDTMIG-PGx (published 2015-05-26); BETERM and BEDECOD updated; PF updated to GF; to be deprecated with publication of SDTMIG v3.4 |", "score": 0.427, "match_basis": "verbatim_token+chapter_route:ch10"}, {"md_atom_id": "md_ch10_a197", "md_file": "knowledge_base/chapters/ch10_appendices.md", "md_atom_type": "TABLE_ROW", "md_parent_section": "§10.E [Revision History]", "md_verbatim": "| 6.1.3 | Exposure Domains | EX assumptions updated to note that since EX includes only treatments received, --MOOD would generally not be used in EX; ECREASOC added (promoted from supplemental qualifier to standard variable); examples updated |", "score": 0.4267, "match_basis": "verbatim_token+chapter_route:ch10"}], "candidate_count": 5, "zero_candidate": false}
{"pdf_atom_id": "ig34_p0457_a001", "pdf_atom_type": "TABLE_ROW", "pdf_source": "SDTMIG_v3.4", "pdf_page": 457, "pdf_parent_section": "§10.E Appendix E: Revision History", "pdf_verbatim": "6.3.5.6 | Laboratory Test Results (LB) | Revised LBTESTCD variable label to Lab Test or Examination Short Name. Revised Core value for LBSTREFC to Perm (from Exp). Added new variables: LBTSTCND, LBBDAGNT, LBTSTOPO, LBRSLSCL, LBRESTYP, LBCOLSRT, LBLLOD, LBTMTHSN, LBCLSIG, LBPTFL, and LBPDUR. Added permissible variables that were previously not included in the LB domain specification: LBSPCUFL, LBANMETH, LBORREF, LBSTREFN. Added hyperlink to Controlled Terminology codelists . LBORREF, LBSTREFC, and LBSTREFN were removed because there is no clear use case. Updated several assumptions; added Assumption 8. Revised Examples 1-3 per changes to variables; added Examples 4 and 5 to demonstrate the use of some of the new variables.", "figure_ref": null, "candidates": [{"md_atom_id": "md_ch10_a217", "md_file": "knowledge_base/chapters/ch10_appendices.md", "md_atom_type": "TABLE_ROW", "md_parent_section": "§10.E [Revision History]", "md_verbatim": "| 6.3.5.6 | Laboratory Test Results (LB) | Revised LBTESTCD variable label to Lab Test or Examination Short Name; revised Core value for LBSTREFC to Perm (from Exp); added new variables: LBTSTCND, LBDAGNT, LBTSTOPO, LBRSLSCL, LBRESTYP, LBCOLSRT, LBLLOD, LBTMTHSN, LBCLSIG, LBPTFL, and LBPDUR; added permissible variables: LBSPCUFL, LBANMETH, LBORREF, LBSTREFN; LBORREF, LBSTREFC, and LBSTREFN removed because there is no clear use case; updated several assumptions; added Assumption 8; revised Examples 1-3; added Examples 4 and 5 |", "score": 0.7314, "match_basis": "verbatim_token+chapter_route:ch10"}, {"md_atom_id": "md_ch10_a242", "md_file": "knowledge_base/chapters/ch10_appendices.md", "md_atom_type": "TABLE_ROW", "md_parent_section": "§10.E [Revision History]", "md_verbatim": "| Appendix C | Controlled Terminology | Appendix C1 Trial Summary Codes has been removed from SDTMIG v3.4; TS Assumptions were updated to reference CDISC controlled terminology, CDISC TS codetable, and recipient (regulatory agency) implementation expectations; removed --CLSIG due to promotion as a Findings variable; added --REASOC; all references to Appendix C2 in the SDTMIG were changed to Appendix C1 |", "score": 0.4346, "match_basis": "verbatim_token+chapter_route:ch10"}, {"md_atom_id": "md_ch10_a221", "md_file": "knowledge_base/chapters/ch10_appendices.md", "md_atom_type": "TABLE_ROW", "md_parent_section": "§10.E [Revision History]", "md_verbatim": "| 6.4.4 | Findings About Events or Interventions (FA) | Core value for FADTC changed from \"Perm\" to \"Exp\"; updated FATEST and FATESTCD CDISC Notes to reference general codelists; added assumption 4a referencing CV Code table; extensive updates to examples for clarity |", "score": 0.4271, "match_basis": "verbatim_token+chapter_route:ch10"}, {"md_atom_id": "md_ch10_a230", "md_file": "knowledge_base/chapters/ch10_appendices.md", "md_atom_type": "TABLE_ROW", "md_parent_section": "§10.E [Revision History]", "md_verbatim": "| 7.4.2 | Trial Summary (TS) | Changed the CDISC Notes for TSSEQ to reflect that the sequence number is to ensure uniqueness within a parameter; revisions to most TS assumptions to remove references to Appendix C1 Trial Summary Codes (as this appendix was removed); TS assumptions replaced with ones that note recipients may specify requirements and terminology; reference added for the TS Codetable on the CDISC website; revised TS Assumption 17 to clarify value expectations for TSPARMCD = \"INDIC\"; additional assumptions revised for clarity; information added about exploratory outcome measures; Examples 1-3 revised; new Example 4 added to show use of TSGRPID for study parts and treatments |", "score": 0.4234, "match_basis": "verbatim_token+chapter_route:ch10"}, {"md_atom_id": "md_ch10_a207", "md_file": "knowledge_base/chapters/ch10_appendices.md", "md_atom_type": "TABLE_ROW", "md_parent_section": "§10.E [Revision History]", "md_verbatim": "| 6.3 | Models for Findings Domains | BS Domain specification and examples copied from SDTMIG-PGx (originally published 2015-05-26), to be deprecated; assumptions and examples updated where --CLSIG is promoted to standard variable |", "score": 0.4129, "match_basis": "verbatim_token+chapter_route:ch10"}], "candidate_count": 5, "zero_candidate": false}
{"pdf_atom_id": "ig34_p0457_a002", "pdf_atom_type": "TABLE_ROW", "pdf_source": "SDTMIG_v3.4", "pdf_page": 457, "pdf_parent_section": "§10.E Appendix E: Revision History", "pdf_verbatim": "6.4 | Findings About Events or Interventions | Added \"Events or Interventions\" to the FA domain name. Added assumption 4a, referencing the CV codetable.", "figure_ref": null, "candidates": [{"md_atom_id": "md_ch10_a218", "md_file": "knowledge_base/chapters/ch10_appendices.md", "md_atom_type": "TABLE_ROW", "md_parent_section": "§10.E [Revision History]", "md_verbatim": "| 6.4 | Findings About Events or Interventions | Added \"Events or Interventions\" to the FA domain name; added assumption 4a referencing the CV codetable |", "score": 0.9, "match_basis": "verbatim_token+chapter_route:ch10"}, {"md_atom_id": "md_ch10_a209", "md_file": "knowledge_base/chapters/ch10_appendices.md", "md_atom_type": "TABLE_ROW", "md_parent_section": "§10.E [Revision History]", "md_verbatim": "| 6.3.2 | Death Details (DD) | Added assumption 4 referencing the domain codetable |", "score": 0.6254, "match_basis": "verbatim_token+chapter_route:ch10"}, {"md_atom_id": "md_ch10_a221", "md_file": "knowledge_base/chapters/ch10_appendices.md", "md_atom_type": "TABLE_ROW", "md_parent_section": "§10.E [Revision History]", "md_verbatim": "| 6.4.4 | Findings About Events or Interventions (FA) | Core value for FADTC changed from \"Perm\" to \"Exp\"; updated FATEST and FATESTCD CDISC Notes to reference general codelists; added assumption 4a referencing CV Code table; extensive updates to examples for clarity |", "score": 0.5256, "match_basis": "verbatim_token+chapter_route:ch10"}, {"md_atom_id": "md_ch10_a210", "md_file": "knowledge_base/chapters/ch10_appendices.md", "md_atom_type": "TABLE_ROW", "md_parent_section": "§10.E [Revision History]", "md_verbatim": "| 6.3.3 | ECG Test Results (EG) | Added EGCLSIG as permissible variable; updated EGBEATNO role from \"Variable Qualifier\" to \"Identifier\" to align with SDTM v2.0; added Assumption 2a referencing the ECG codetable |", "score": 0.4651, "match_basis": "verbatim_token+chapter_route:ch10"}, {"md_atom_id": "md_ch10_a185", "md_file": "knowledge_base/chapters/ch10_appendices.md", "md_atom_type": "TABLE_ROW", "md_parent_section": "§10.E [Revision History]", "md_verbatim": "| 4.4 | Actual and Relative Time Assumptions | Updated unknown values from U to UNKNOWN; clarified reference time point; added note that --STDTC is not used in Findings class domains; clarified use of --DRVFL |", "score": 0.4642, "match_basis": "verbatim_token+chapter_route:ch10"}], "candidate_count": 5, "zero_candidate": false}
{"pdf_atom_id": "ig34_p0457_a003", "pdf_atom_type": "TABLE_ROW", "pdf_source": "SDTMIG_v3.4", "pdf_page": 457, "pdf_parent_section": "§10.E Appendix E: Revision History", "pdf_verbatim": "6.4.1 | When to Use Findings About Events or Interventions | Additional explanation and examples were added for each criterion. The new criterion added in version the underwent the first public review was removed. The new \"Points to Consider\" section was added. The third and fourth bullets were dropped as a criterion for representing data in FA. The reasons for dropping these criteria, and guidance on how these situations should be approached were added.", "figure_ref": null, "candidates": [{"md_atom_id": "md_ch10_a219", "md_file": "knowledge_base/chapters/ch10_appendices.md", "md_atom_type": "TABLE_ROW", "md_parent_section": "§10.E [Revision History]", "md_verbatim": "| 6.4.1 | When to Use Findings About Events or Interventions | Additional explanation and examples added for each criterion; new criterion added in version that underwent first public review was removed; new \"Points to Consider\" section added; third and fourth bullets dropped as criterion for representing data in FA |", "score": 0.7627, "match_basis": "verbatim_token+chapter_route:ch10"}, {"md_atom_id": "md_ch10_a236", "md_file": "knowledge_base/chapters/ch10_appendices.md", "md_atom_type": "TABLE_ROW", "md_parent_section": "§10.E [Revision History]", "md_verbatim": "| 8.6.3 | Guidelines for Differentiating Between Interventions, Events, Findings, and Findings About Events or Interventions | \"Interventions\" added to section title; some changes to text to correct typos and clarify wording; second column of second row of table revised to explain what a log form is and to clarify how the data collection format may help understand the general observation class of data collected; added a row to the table to help in deciding between QS and FA for data about symptoms; reordered sentences in paragraph after the table and reiterated reference to AE structure assumption |", "score": 0.4179, "match_basis": "verbatim_token+chapter_route:ch10"}, {"md_atom_id": "md_ch10_a230", "md_file": "knowledge_base/chapters/ch10_appendices.md", "md_atom_type": "TABLE_ROW", "md_parent_section": "§10.E [Revision History]", "md_verbatim": "| 7.4.2 | Trial Summary (TS) | Changed the CDISC Notes for TSSEQ to reflect that the sequence number is to ensure uniqueness within a parameter; revisions to most TS assumptions to remove references to Appendix C1 Trial Summary Codes (as this appendix was removed); TS assumptions replaced with ones that note recipients may specify requirements and terminology; reference added for the TS Codetable on the CDISC website; revised TS Assumption 17 to clarify value expectations for TSPARMCD = \"INDIC\"; additional assumptions revised for clarity; information added about exploratory outcome measures; Examples 1-3 revised; new Example 4 added to show use of TSGRPID for study parts and treatments |", "score": 0.4127, "match_basis": "verbatim_token+chapter_route:ch10"}, {"md_atom_id": "md_ch10_a221", "md_file": "knowledge_base/chapters/ch10_appendices.md", "md_atom_type": "TABLE_ROW", "md_parent_section": "§10.E [Revision History]", "md_verbatim": "| 6.4.4 | Findings About Events or Interventions (FA) | Core value for FADTC changed from \"Perm\" to \"Exp\"; updated FATEST and FATESTCD CDISC Notes to reference general codelists; added assumption 4a referencing CV Code table; extensive updates to examples for clarity |", "score": 0.4064, "match_basis": "verbatim_token+chapter_route:ch10"}, {"md_atom_id": "md_ch10_a242", "md_file": "knowledge_base/chapters/ch10_appendices.md", "md_atom_type": "TABLE_ROW", "md_parent_section": "§10.E [Revision History]", "md_verbatim": "| Appendix C | Controlled Terminology | Appendix C1 Trial Summary Codes has been removed from SDTMIG v3.4; TS Assumptions were updated to reference CDISC controlled terminology, CDISC TS codetable, and recipient (regulatory agency) implementation expectations; removed --CLSIG due to promotion as a Findings variable; added --REASOC; all references to Appendix C2 in the SDTMIG were changed to Appendix C1 |", "score": 0.3925, "match_basis": "verbatim_token+chapter_route:ch10"}], "candidate_count": 5, "zero_candidate": false}
{"pdf_atom_id": "ig34_p0457_a004", "pdf_atom_type": "TABLE_ROW", "pdf_source": "SDTMIG_v3.4", "pdf_page": 457, "pdf_parent_section": "§10.E Appendix E: Revision History", "pdf_verbatim": "6.4.3 | Variables Unique to Findings About Events or Interventions | Added a sentence to state that an FA record will not necessarily have a parent record, to make it clear that the information about FAOBJ matching --TETM, --TRT, or --DECOD is not meant to imply that an FA record must have a parent record.", "figure_ref": null, "candidates": [{"md_atom_id": "md_ch10_a220", "md_file": "knowledge_base/chapters/ch10_appendices.md", "md_atom_type": "TABLE_ROW", "md_parent_section": "§10.E [Revision History]", "md_verbatim": "| 6.4.3 | Variables Unique to Findings About | Added sentence clarifying that an FA record will not necessarily have a parent record |", "score": 0.5942, "match_basis": "verbatim_token+chapter_route:ch10"}, {"md_atom_id": "md_ch10_a218", "md_file": "knowledge_base/chapters/ch10_appendices.md", "md_atom_type": "TABLE_ROW", "md_parent_section": "§10.E [Revision History]", "md_verbatim": "| 6.4 | Findings About Events or Interventions | Added \"Events or Interventions\" to the FA domain name; added assumption 4a referencing the CV codetable |", "score": 0.455, "match_basis": "verbatim_token+chapter_route:ch10"}, {"md_atom_id": "md_ch10_a221", "md_file": "knowledge_base/chapters/ch10_appendices.md", "md_atom_type": "TABLE_ROW", "md_parent_section": "§10.E [Revision History]", "md_verbatim": "| 6.4.4 | Findings About Events or Interventions (FA) | Core value for FADTC changed from \"Perm\" to \"Exp\"; updated FATEST and FATESTCD CDISC Notes to reference general codelists; added assumption 4a referencing CV Code table; extensive updates to examples for clarity |", "score": 0.4401, "match_basis": "verbatim_token+chapter_route:ch10"}, {"md_atom_id": "md_ch10_a236", "md_file": "knowledge_base/chapters/ch10_appendices.md", "md_atom_type": "TABLE_ROW", "md_parent_section": "§10.E [Revision History]", "md_verbatim": "| 8.6.3 | Guidelines for Differentiating Between Interventions, Events, Findings, and Findings About Events or Interventions | \"Interventions\" added to section title; some changes to text to correct typos and clarify wording; second column of second row of table revised to explain what a log form is and to clarify how the data collection format may help understand the general observation class of data collected; added a row to the table to help in deciding between QS and FA for data about symptoms; reordered sentences in paragraph after the table and reiterated reference to AE structure assumption |", "score": 0.4262, "match_basis": "verbatim_token+chapter_route:ch10"}, {"md_atom_id": "md_ch10_a198", "md_file": "knowledge_base/chapters/ch10_appendices.md", "md_atom_type": "TABLE_ROW", "md_parent_section": "§10.E [Revision History]", "md_verbatim": "| 6.1.5 | Procedures (PR) | PRSEQ's CDISC Notes updated to reflect that Sequence Number is given to ensure uniqueness of subject records within a domain; added CT reference for PRDECOD variable; more explanations provided in examples for why values in PRTRT are in mixed case |", "score": 0.426, "match_basis": "verbatim_token+chapter_route:ch10"}], "candidate_count": 5, "zero_candidate": false}
{"pdf_atom_id": "ig34_p0457_a005", "pdf_atom_type": "TABLE_ROW", "pdf_source": "SDTMIG_v3.4", "pdf_page": 457, "pdf_parent_section": "§10.E Appendix E: Revision History", "pdf_verbatim": "6.4.4 | Findings About Events or Interventions (FA) | The core value for FADTC was changed from \"Perm\" to \"Exp\" for consistency with other Findings domains. Updated the FATEST and FATESTCD CDISC Notes to refer to the FATEST and FATESTCD general codelists, which are expected to be available at time of publication in Nov, 2021. Added assumption 4.a, referencing the CV Code table. The example about fracture events (previous Example 4) was removed. A revised version of the example was added to Section 6.2.3, Clinical Events. All Examples and associated CRFs were updated for clarity. In Example 2, the modeling of numbers of lesions associated with the rash was changed to a TEST/TESTCD for a categorical measure of the number of lesions (e.g. \"MACRNG\"/\"Macule Range\" with OBJ = \"Injection Site Rash\"). The rationale behind this change was that the lesion counts are properties of the rash in the same way that its longest diameter is a property of the rash, so that OBJ should be the rash, rather than the name of one of its kinds of component lesions. In Example 3, symptom occurrence and severity data that was represented in FA in previous versions of the example was represented in MH in this version of the example. Whether or not there is a record for RA in the MH domain does not affect the modeling of the symptoms of RA. Average daily duration of early morning stiffness that was represented in FA in previous versions of the example was represented in SUPPMH in this version of the example. One of two similar examples about GERD symptoms was removed. The difference between the previous Example 6 and Example 7 was that Example 6 did not include collection of occurrence of symptoms. Without collection of occurrence, there would be no records for symptoms that did not occur, and no indication that these terms were pre-specified. The form that collects occurrence is preferable as it is more explicit. Added mock eCRF modules. Other variables were", "figure_ref": null, "candidates": [{"md_atom_id": "md_ch10_a221", "md_file": "knowledge_base/chapters/ch10_appendices.md", "md_atom_type": "TABLE_ROW", "md_parent_section": "§10.E [Revision History]", "md_verbatim": "| 6.4.4 | Findings About Events or Interventions (FA) | Core value for FADTC changed from \"Perm\" to \"Exp\"; updated FATEST and FATESTCD CDISC Notes to reference general codelists; added assumption 4a referencing CV Code table; extensive updates to examples for clarity |", "score": 0.4675, "match_basis": "verbatim_token+chapter_route:ch10"}, {"md_atom_id": "md_ch10_a236", "md_file": "knowledge_base/chapters/ch10_appendices.md", "md_atom_type": "TABLE_ROW", "md_parent_section": "§10.E [Revision History]", "md_verbatim": "| 8.6.3 | Guidelines for Differentiating Between Interventions, Events, Findings, and Findings About Events or Interventions | \"Interventions\" added to section title; some changes to text to correct typos and clarify wording; second column of second row of table revised to explain what a log form is and to clarify how the data collection format may help understand the general observation class of data collected; added a row to the table to help in deciding between QS and FA for data about symptoms; reordered sentences in paragraph after the table and reiterated reference to AE structure assumption |", "score": 0.4576, "match_basis": "verbatim_token+chapter_route:ch10"}, {"md_atom_id": "md_ch10_a230", "md_file": "knowledge_base/chapters/ch10_appendices.md", "md_atom_type": "TABLE_ROW", "md_parent_section": "§10.E [Revision History]", "md_verbatim": "| 7.4.2 | Trial Summary (TS) | Changed the CDISC Notes for TSSEQ to reflect that the sequence number is to ensure uniqueness within a parameter; revisions to most TS assumptions to remove references to Appendix C1 Trial Summary Codes (as this appendix was removed); TS assumptions replaced with ones that note recipients may specify requirements and terminology; reference added for the TS Codetable on the CDISC website; revised TS Assumption 17 to clarify value expectations for TSPARMCD = \"INDIC\"; additional assumptions revised for clarity; information added about exploratory outcome measures; Examples 1-3 revised; new Example 4 added to show use of TSGRPID for study parts and treatments |", "score": 0.4529, "match_basis": "verbatim_token+chapter_route:ch10"}, {"md_atom_id": "md_ch10_a198", "md_file": "knowledge_base/chapters/ch10_appendices.md", "md_atom_type": "TABLE_ROW", "md_parent_section": "§10.E [Revision History]", "md_verbatim": "| 6.1.5 | Procedures (PR) | PRSEQ's CDISC Notes updated to reflect that Sequence Number is given to ensure uniqueness of subject records within a domain; added CT reference for PRDECOD variable; more explanations provided in examples for why values in PRTRT are in mixed case |", "score": 0.415, "match_basis": "verbatim_token+chapter_route:ch10"}, {"md_atom_id": "md_ch10_a242", "md_file": "knowledge_base/chapters/ch10_appendices.md", "md_atom_type": "TABLE_ROW", "md_parent_section": "§10.E [Revision History]", "md_verbatim": "| Appendix C | Controlled Terminology | Appendix C1 Trial Summary Codes has been removed from SDTMIG v3.4; TS Assumptions were updated to reference CDISC controlled terminology, CDISC TS codetable, and recipient (regulatory agency) implementation expectations; removed --CLSIG due to promotion as a Findings variable; added --REASOC; all references to Appendix C2 in the SDTMIG were changed to Appendix C1 |", "score": 0.4129, "match_basis": "verbatim_token+chapter_route:ch10"}], "candidate_count": 5, "zero_candidate": false}
{"pdf_atom_id": "ig34_p0458_a001", "pdf_atom_type": "TABLE_ROW", "pdf_source": "SDTMIG_v3.4", "pdf_page": 458, "pdf_parent_section": "§10.E Appendix E: Revision History", "pdf_verbatim": "6.4.4 (continued) | Findings About Events or Interventions (FA) (continued) | added including AESPID, FACOLSRT, and FAEVINTX. RELREC.xpt was also added to represent the AE and FA dataset-to-dataset relationship.", "figure_ref": null, "candidates": [{"md_atom_id": "md_ch10_a231", "md_file": "knowledge_base/chapters/ch10_appendices.md", "md_atom_type": "TABLE_ROW", "md_parent_section": "§10.E [Revision History]", "md_verbatim": "| **Section 8. Representing Relationships and Data** | | |", "score": 0.4683, "match_basis": "verbatim_token+chapter_route:ch10"}, {"md_atom_id": "md_ch10_a218", "md_file": "knowledge_base/chapters/ch10_appendices.md", "md_atom_type": "TABLE_ROW", "md_parent_section": "§10.E [Revision History]", "md_verbatim": "| 6.4 | Findings About Events or Interventions | Added \"Events or Interventions\" to the FA domain name; added assumption 4a referencing the CV codetable |", "score": 0.4486, "match_basis": "verbatim_token+chapter_route:ch10"}, {"md_atom_id": "md_ch10_a219", "md_file": "knowledge_base/chapters/ch10_appendices.md", "md_atom_type": "TABLE_ROW", "md_parent_section": "§10.E [Revision History]", "md_verbatim": "| 6.4.1 | When to Use Findings About Events or Interventions | Additional explanation and examples added for each criterion; new criterion added in version that underwent first public review was removed; new \"Points to Consider\" section added; third and fourth bullets dropped as criterion for representing data in FA |", "score": 0.4472, "match_basis": "verbatim_token+chapter_route:ch10"}, {"md_atom_id": "md_ch10_a233", "md_file": "knowledge_base/chapters/ch10_appendices.md", "md_atom_type": "TABLE_ROW", "md_parent_section": "§10.E [Revision History]", "md_verbatim": "| 8.2.2 | RELREC Dataset Examples | Introductory text updated to more clearly describe how relationships are represented in RELREC |", "score": 0.4409, "match_basis": "verbatim_token+chapter_route:ch10"}, {"md_atom_id": "md_ch10_a232", "md_file": "knowledge_base/chapters/ch10_appendices.md", "md_atom_type": "TABLE_ROW", "md_parent_section": "§10.E [Revision History]", "md_verbatim": "| 8 | Representing Relationships and Data | Section 8.8 (Related Specimens) added due to BE, BS, and RELSPEC being copied in from SDTMIG-PGx, originally published 2015-05-26, to be deprecated with the publication of SDTMIG v3.4 |", "score": 0.4282, "match_basis": "verbatim_token+chapter_route:ch10"}], "candidate_count": 5, "zero_candidate": false}
{"pdf_atom_id": "ig34_p0458_a002", "pdf_atom_type": "TABLE_ROW", "pdf_source": "SDTMIG_v3.4", "pdf_page": 458, "pdf_parent_section": "§10.E Appendix E: Revision History", "pdf_verbatim": "6.4.5 | Skin Response (SR) | Updated CDISC Notes for USUBJID to be consistent with other domains. In Example 1, revised representation of quadrants 1, 2, 3, 4 of the back from a supplemental qualifier to FOCID. QUADRANT1-QUADRANT4 values were changed to SITE1-SITE8 so each site has a unique FOCID. Example 3 was updated per CDISC CT.", "figure_ref": null, "candidates": [{"md_atom_id": "md_ch10_a222", "md_file": "knowledge_base/chapters/ch10_appendices.md", "md_atom_type": "TABLE_ROW", "md_parent_section": "§10.E [Revision History]", "md_verbatim": "| 6.4.5 | Skin Response (SR) | Updated CDISC Notes for USUBJID; revised representation of quadrants in Example 1; Example 3 updated per CDISC CT |", "score": 0.5817, "match_basis": "verbatim_token+chapter_route:ch10"}, {"md_atom_id": "md_ch10_a234", "md_file": "knowledge_base/chapters/ch10_appendices.md", "md_atom_type": "TABLE_ROW", "md_parent_section": "§10.E [Revision History]", "md_verbatim": "| 8.4.1 | Supplemental Qualifiers (SUPP--) | Updated CDISC Notes for USUBJID to include description of the variable used in other domains; updated Appendix C2 reference to Appendix C1 |", "score": 0.4878, "match_basis": "verbatim_token+chapter_route:ch10"}, {"md_atom_id": "md_ch10_a195", "md_file": "knowledge_base/chapters/ch10_appendices.md", "md_atom_type": "TABLE_ROW", "md_parent_section": "§10.E [Revision History]", "md_verbatim": "| 6.1 | Models for Interventions Domains | Roles of --DOSFRQ and --DOSRGM changed where used in the Interventions Domains to Record Qualifier for consistency with the change for the role of --DOSFRQ and --DOSRGM in the SDTM |", "score": 0.4388, "match_basis": "verbatim_token+chapter_route:ch10"}, {"md_atom_id": "md_ch10_a197", "md_file": "knowledge_base/chapters/ch10_appendices.md", "md_atom_type": "TABLE_ROW", "md_parent_section": "§10.E [Revision History]", "md_verbatim": "| 6.1.3 | Exposure Domains | EX assumptions updated to note that since EX includes only treatments received, --MOOD would generally not be used in EX; ECREASOC added (promoted from supplemental qualifier to standard variable); examples updated |", "score": 0.4283, "match_basis": "verbatim_token+chapter_route:ch10"}, {"md_atom_id": "md_ch10_a221", "md_file": "knowledge_base/chapters/ch10_appendices.md", "md_atom_type": "TABLE_ROW", "md_parent_section": "§10.E [Revision History]", "md_verbatim": "| 6.4.4 | Findings About Events or Interventions (FA) | Core value for FADTC changed from \"Perm\" to \"Exp\"; updated FATEST and FATESTCD CDISC Notes to reference general codelists; added assumption 4a referencing CV Code table; extensive updates to examples for clarity |", "score": 0.4194, "match_basis": "verbatim_token+chapter_route:ch10"}], "candidate_count": 5, "zero_candidate": false}
{"pdf_atom_id": "ig34_p0458_a003", "pdf_atom_type": "TABLE_ROW", "pdf_source": "SDTMIG_v3.4", "pdf_page": 458, "pdf_parent_section": "§10.E Appendix E: Revision History", "pdf_verbatim": "Section 7. Trial Design Model Datasets | |", "figure_ref": null, "candidates": [{"md_atom_id": "md_ch10_a223", "md_file": "knowledge_base/chapters/ch10_appendices.md", "md_atom_type": "TABLE_ROW", "md_parent_section": "§10.E [Revision History]", "md_verbatim": "| **Section 7. Trial Design Model Datasets** | | |", "score": 0.9, "match_basis": "verbatim_token+chapter_route:ch10"}, {"md_atom_id": "md_ch10_a050", "md_file": "knowledge_base/chapters/ch10_appendices.md", "md_atom_type": "TABLE_ROW", "md_parent_section": "§10.B [Glossary and Abbreviations]", "md_verbatim": "| TDM | Trial Design Model |", "score": 0.5727, "match_basis": "verbatim_token+chapter_route:ch10"}, {"md_atom_id": "md_ch10_a013", "md_file": "knowledge_base/chapters/ch10_appendices.md", "md_atom_type": "TABLE_ROW", "md_parent_section": "§10.B [Glossary and Abbreviations]", "md_verbatim": "| ADaM | CDISC Analysis Dataset Model |", "score": 0.45, "match_basis": "verbatim_token+chapter_route:ch10"}, {"md_atom_id": "md_ch10_a187", "md_file": "knowledge_base/chapters/ch10_appendices.md", "md_atom_type": "TABLE_ROW", "md_parent_section": "§10.E [Revision History]", "md_verbatim": "| **Section 5. Models for Special-purpose Domains** | | |", "score": 0.4459, "match_basis": "verbatim_token+chapter_route:ch10"}, {"md_atom_id": "md_ch10_a182", "md_file": "knowledge_base/chapters/ch10_appendices.md", "md_atom_type": "TABLE_ROW", "md_parent_section": "§10.E [Revision History]", "md_verbatim": "| **Section 4. Assumptions for Domain Models** | | |", "score": 0.4412, "match_basis": "verbatim_token+chapter_route:ch10"}], "candidate_count": 5, "zero_candidate": false}
{"pdf_atom_id": "ig34_p0458_a004", "pdf_atom_type": "TABLE_ROW", "pdf_source": "SDTMIG_v3.4", "pdf_page": 458, "pdf_parent_section": "§10.E Appendix E: Revision History", "pdf_verbatim": "7.2 | Experimental Design (TA and TE) | Text about executable code in Section 7.2.1.1 was replaced to note that it is expected that a mechanism to provide machine-readable rules will become available in the future. Aligned wording for Rule variables on CDISC Notes between TA and TE. The name of the dataset in the Section 7.2.2.1 example was changed from \"ta.xpt\" to \"special.xpt\" since, as explained in the text, this is a dataset that would not be submitted and is not based on the TA domain.", "figure_ref": null, "candidates": [{"md_atom_id": "md_ch10_a224", "md_file": "knowledge_base/chapters/ch10_appendices.md", "md_atom_type": "TABLE_ROW", "md_parent_section": "§10.E [Revision History]", "md_verbatim": "| 7.2 | Experimental Design (TA and TE) | Text about executable code in Section 7.2.1.1 replaced to note that a mechanism to provide machine-readable rules will become available in the future; aligned wording for Rule variables on CDISC Notes between TA and TE; dataset name in Section 7.2.2.1 example changed from \"ta.xpt\" to \"special.xpt\" |", "score": 0.8038, "match_basis": "verbatim_token+chapter_route:ch10"}, {"md_atom_id": "md_ch10_a198", "md_file": "knowledge_base/chapters/ch10_appendices.md", "md_atom_type": "TABLE_ROW", "md_parent_section": "§10.E [Revision History]", "md_verbatim": "| 6.1.5 | Procedures (PR) | PRSEQ's CDISC Notes updated to reflect that Sequence Number is given to ensure uniqueness of subject records within a domain; added CT reference for PRDECOD variable; more explanations provided in examples for why values in PRTRT are in mixed case |", "score": 0.4258, "match_basis": "verbatim_token+chapter_route:ch10"}, {"md_atom_id": "md_ch10_a197", "md_file": "knowledge_base/chapters/ch10_appendices.md", "md_atom_type": "TABLE_ROW", "md_parent_section": "§10.E [Revision History]", "md_verbatim": "| 6.1.3 | Exposure Domains | EX assumptions updated to note that since EX includes only treatments received, --MOOD would generally not be used in EX; ECREASOC added (promoted from supplemental qualifier to standard variable); examples updated |", "score": 0.4179, "match_basis": "verbatim_token+chapter_route:ch10"}, {"md_atom_id": "md_ch10_a230", "md_file": "knowledge_base/chapters/ch10_appendices.md", "md_atom_type": "TABLE_ROW", "md_parent_section": "§10.E [Revision History]", "md_verbatim": "| 7.4.2 | Trial Summary (TS) | Changed the CDISC Notes for TSSEQ to reflect that the sequence number is to ensure uniqueness within a parameter; revisions to most TS assumptions to remove references to Appendix C1 Trial Summary Codes (as this appendix was removed); TS assumptions replaced with ones that note recipients may specify requirements and terminology; reference added for the TS Codetable on the CDISC website; revised TS Assumption 17 to clarify value expectations for TSPARMCD = \"INDIC\"; additional assumptions revised for clarity; information added about exploratory outcome measures; Examples 1-3 revised; new Example 4 added to show use of TSGRPID for study parts and treatments |", "score": 0.4177, "match_basis": "verbatim_token+chapter_route:ch10"}, {"md_atom_id": "md_ch10_a221", "md_file": "knowledge_base/chapters/ch10_appendices.md", "md_atom_type": "TABLE_ROW", "md_parent_section": "§10.E [Revision History]", "md_verbatim": "| 6.4.4 | Findings About Events or Interventions (FA) | Core value for FADTC changed from \"Perm\" to \"Exp\"; updated FATEST and FATESTCD CDISC Notes to reference general codelists; added assumption 4a referencing CV Code table; extensive updates to examples for clarity |", "score": 0.4103, "match_basis": "verbatim_token+chapter_route:ch10"}], "candidate_count": 5, "zero_candidate": false}
{"pdf_atom_id": "ig34_p0458_a005", "pdf_atom_type": "TABLE_ROW", "pdf_source": "SDTMIG_v3.4", "pdf_page": 458, "pdf_parent_section": "§10.E Appendix E: Revision History", "pdf_verbatim": "7.3.1 | Trial Visits (TV) | Made VISIT required and revised VISIT CDISC Notes.", "figure_ref": null, "candidates": [{"md_atom_id": "md_ch10_a225", "md_file": "knowledge_base/chapters/ch10_appendices.md", "md_atom_type": "TABLE_ROW", "md_parent_section": "§10.E [Revision History]", "md_verbatim": "| 7.3.1 | Trial Visits (TV) | Made VISIT required and revised VISIT CDISC Notes |", "score": 0.9, "match_basis": "verbatim_token+chapter_route:ch10"}, {"md_atom_id": "md_ch10_a222", "md_file": "knowledge_base/chapters/ch10_appendices.md", "md_atom_type": "TABLE_ROW", "md_parent_section": "§10.E [Revision History]", "md_verbatim": "| 6.4.5 | Skin Response (SR) | Updated CDISC Notes for USUBJID; revised representation of quadrants in Example 1; Example 3 updated per CDISC CT |", "score": 0.3957, "match_basis": "verbatim_token+chapter_route:ch10"}, {"md_atom_id": "md_ch10_a174", "md_file": "knowledge_base/chapters/ch10_appendices.md", "md_atom_type": "TABLE_ROW", "md_parent_section": "§10.E [Revision History]", "md_verbatim": "| 2.1 | Observations and Variables | Revised definition for Rule Variables |", "score": 0.3824, "match_basis": "verbatim_token+chapter_route:ch10"}, {"md_atom_id": "md_ch10_a192", "md_file": "knowledge_base/chapters/ch10_appendices.md", "md_atom_type": "TABLE_ROW", "md_parent_section": "§10.E [Revision History]", "md_verbatim": "| 5.4 | Subject Disease Milestones (SM) | Updated CDISC notes for USUBJID for consistency |", "score": 0.37, "match_basis": "verbatim_token+chapter_route:ch10"}, {"md_atom_id": "md_ch10_a190", "md_file": "knowledge_base/chapters/ch10_appendices.md", "md_atom_type": "TABLE_ROW", "md_parent_section": "§10.E [Revision History]", "md_verbatim": "| 5.2 | Demographics (DM) | Revised DM.COUNTRY CDISC Notes; Assumption 6 updated for race self-identification; updated assumption 6a to reference Racec-Ethnicc Codetable; extensive DM example updates |", "score": 0.3653, "match_basis": "verbatim_token+chapter_route:ch10"}], "candidate_count": 5, "zero_candidate": false}
{"pdf_atom_id": "ig34_p0458_a006", "pdf_atom_type": "TABLE_ROW", "pdf_source": "SDTMIG_v3.4", "pdf_page": 458, "pdf_parent_section": "§10.E Appendix E: Revision History", "pdf_verbatim": "7.3.2 | Trial Disease Assessments (TD) | Assumption 4 was inserted to clarify that the start of a schedule is the start of the interval preceding the first assessment in the schedule. Examples 1 and 3 diagrams were updated to clarify the points in time at which assessments were planned and values of TDSTOFF were corrected.", "figure_ref": null, "candidates": [{"md_atom_id": "md_ch10_a226", "md_file": "knowledge_base/chapters/ch10_appendices.md", "md_atom_type": "TABLE_ROW", "md_parent_section": "§10.E [Revision History]", "md_verbatim": "| 7.3.2 | Trial Disease Assessments (TD) | Assumption 4 inserted to clarify that start of a schedule is the start of the interval preceding the first assessment; Examples 1 and 3 diagrams updated; values of TDSTOFF corrected |", "score": 0.8167, "match_basis": "verbatim_token+chapter_route:ch10"}, {"md_atom_id": "md_ch10_a185", "md_file": "knowledge_base/chapters/ch10_appendices.md", "md_atom_type": "TABLE_ROW", "md_parent_section": "§10.E [Revision History]", "md_verbatim": "| 4.4 | Actual and Relative Time Assumptions | Updated unknown values from U to UNKNOWN; clarified reference time point; added note that --STDTC is not used in Findings class domains; clarified use of --DRVFL |", "score": 0.4261, "match_basis": "verbatim_token+chapter_route:ch10"}, {"md_atom_id": "md_ch10_a221", "md_file": "knowledge_base/chapters/ch10_appendices.md", "md_atom_type": "TABLE_ROW", "md_parent_section": "§10.E [Revision History]", "md_verbatim": "| 6.4.4 | Findings About Events or Interventions (FA) | Core value for FADTC changed from \"Perm\" to \"Exp\"; updated FATEST and FATESTCD CDISC Notes to reference general codelists; added assumption 4a referencing CV Code table; extensive updates to examples for clarity |", "score": 0.424, "match_basis": "verbatim_token+chapter_route:ch10"}, {"md_atom_id": "md_ch10_a216", "md_file": "knowledge_base/chapters/ch10_appendices.md", "md_atom_type": "TABLE_ROW", "md_parent_section": "§10.E [Revision History]", "md_verbatim": "| 6.3.5.5 | Immunogenicity Specimen Assessments (IS) | Domain definition updated; 6 new variables added: ISBDAGNT, ISMSCBCE, ISTSTOPO, ISTSTCND, ISNCNDAGT, and NHOID; replaced assumptions from SDTMIG v3.3; Examples 1 and 2 replaced; Examples 3-11 added |", "score": 0.4127, "match_basis": "verbatim_token+chapter_route:ch10"}, {"md_atom_id": "md_ch10_a204", "md_file": "knowledge_base/chapters/ch10_appendices.md", "md_atom_type": "TABLE_ROW", "md_parent_section": "§10.E [Revision History]", "md_verbatim": "| 6.2.5 | Healthcare Encounters (HO) | Example 5 and Assumption 5 corrected to refer to Events qualifiers |", "score": 0.4119, "match_basis": "verbatim_token+chapter_route:ch10"}], "candidate_count": 5, "zero_candidate": false}
{"pdf_atom_id": "ig34_p0458_a007", "pdf_atom_type": "TABLE_ROW", "pdf_source": "SDTMIG_v3.4", "pdf_page": 458, "pdf_parent_section": "§10.E Appendix E: Revision History", "pdf_verbatim": "7.3.3 | Trial Disease Milestones (TM) | The role of TMDEF was changed from \"Rule\" to \"Variable Qualifier\". This is for consistency with a clarification of the description of the Rule role in SDTM and the change of role in the SDTM from \"Rule\" to \"Variable Qualifier\" with Variable Qualified \"MIDSTYPE\".", "figure_ref": null, "candidates": [{"md_atom_id": "md_ch10_a227", "md_file": "knowledge_base/chapters/ch10_appendices.md", "md_atom_type": "TABLE_ROW", "md_parent_section": "§10.E [Revision History]", "md_verbatim": "| 7.3.3 | Trial Disease Milestones (TM) | Role of TMDEF changed from \"Rule\" to \"Variable Qualifier\" for consistency with clarification of the Rule role in SDTM |", "score": 0.7714, "match_basis": "verbatim_token+chapter_route:ch10"}, {"md_atom_id": "md_ch10_a195", "md_file": "knowledge_base/chapters/ch10_appendices.md", "md_atom_type": "TABLE_ROW", "md_parent_section": "§10.E [Revision History]", "md_verbatim": "| 6.1 | Models for Interventions Domains | Roles of --DOSFRQ and --DOSRGM changed where used in the Interventions Domains to Record Qualifier for consistency with the change for the role of --DOSFRQ and --DOSRGM in the SDTM |", "score": 0.4692, "match_basis": "verbatim_token+chapter_route:ch10"}, {"md_atom_id": "md_ch10_a192", "md_file": "knowledge_base/chapters/ch10_appendices.md", "md_atom_type": "TABLE_ROW", "md_parent_section": "§10.E [Revision History]", "md_verbatim": "| 5.4 | Subject Disease Milestones (SM) | Updated CDISC notes for USUBJID for consistency |", "score": 0.4353, "match_basis": "verbatim_token+chapter_route:ch10"}, {"md_atom_id": "md_ch10_a234", "md_file": "knowledge_base/chapters/ch10_appendices.md", "md_atom_type": "TABLE_ROW", "md_parent_section": "§10.E [Revision History]", "md_verbatim": "| 8.4.1 | Supplemental Qualifiers (SUPP--) | Updated CDISC Notes for USUBJID to include description of the variable used in other domains; updated Appendix C2 reference to Appendix C1 |", "score": 0.4147, "match_basis": "verbatim_token+chapter_route:ch10"}, {"md_atom_id": "md_ch10_a210", "md_file": "knowledge_base/chapters/ch10_appendices.md", "md_atom_type": "TABLE_ROW", "md_parent_section": "§10.E [Revision History]", "md_verbatim": "| 6.3.3 | ECG Test Results (EG) | Added EGCLSIG as permissible variable; updated EGBEATNO role from \"Variable Qualifier\" to \"Identifier\" to align with SDTM v2.0; added Assumption 2a referencing the ECG codetable |", "score": 0.4133, "match_basis": "verbatim_token+chapter_route:ch10"}], "candidate_count": 5, "zero_candidate": false}
{"pdf_atom_id": "ig34_p0458_a008", "pdf_atom_type": "TABLE_ROW", "pdf_source": "SDTMIG_v3.4", "pdf_page": 458, "pdf_parent_section": "§10.E Appendix E: Revision History", "pdf_verbatim": "7.4 | Trial Eligibility and Summary (TI and TS) | The order had been flipped here for TI and TS; this has now been corrected and the section numbers updated.", "figure_ref": null, "candidates": [{"md_atom_id": "md_ch10_a228", "md_file": "knowledge_base/chapters/ch10_appendices.md", "md_atom_type": "TABLE_ROW", "md_parent_section": "§10.E [Revision History]", "md_verbatim": "| 7.4 | Trial Eligibility and Summary (TI and TS) | Order had been flipped here for TI and TS; has now been corrected and the section numbers updated |", "score": 0.8789, "match_basis": "verbatim_token+chapter_route:ch10"}, {"md_atom_id": "md_ch10_a235", "md_file": "knowledge_base/chapters/ch10_appendices.md", "md_atom_type": "TABLE_ROW", "md_parent_section": "§10.E [Revision History]", "md_verbatim": "| 8.6.2 | Guidelines for Forming New Domains | Updated section references and links |", "score": 0.4012, "match_basis": "verbatim_token+chapter_route:ch10"}, {"md_atom_id": "md_ch10_a226", "md_file": "knowledge_base/chapters/ch10_appendices.md", "md_atom_type": "TABLE_ROW", "md_parent_section": "§10.E [Revision History]", "md_verbatim": "| 7.3.2 | Trial Disease Assessments (TD) | Assumption 4 inserted to clarify that start of a schedule is the start of the interval preceding the first assessment; Examples 1 and 3 diagrams updated; values of TDSTOFF corrected |", "score": 0.387, "match_basis": "verbatim_token+chapter_route:ch10"}, {"md_atom_id": "md_ch10_a241", "md_file": "knowledge_base/chapters/ch10_appendices.md", "md_atom_type": "TABLE_ROW", "md_parent_section": "§10.E [Revision History]", "md_verbatim": "| Appendix A | CDISC SDS Team | The team list has been updated |", "score": 0.3857, "match_basis": "verbatim_token+chapter_route:ch10"}, {"md_atom_id": "md_ch10_a242", "md_file": "knowledge_base/chapters/ch10_appendices.md", "md_atom_type": "TABLE_ROW", "md_parent_section": "§10.E [Revision History]", "md_verbatim": "| Appendix C | Controlled Terminology | Appendix C1 Trial Summary Codes has been removed from SDTMIG v3.4; TS Assumptions were updated to reference CDISC controlled terminology, CDISC TS codetable, and recipient (regulatory agency) implementation expectations; removed --CLSIG due to promotion as a Findings variable; added --REASOC; all references to Appendix C2 in the SDTMIG were changed to Appendix C1 |", "score": 0.3828, "match_basis": "verbatim_token+chapter_route:ch10"}], "candidate_count": 5, "zero_candidate": false}
{"pdf_atom_id": "ig34_p0458_a009", "pdf_atom_type": "TABLE_ROW", "pdf_source": "SDTMIG_v3.4", "pdf_page": 458, "pdf_parent_section": "§10.E Appendix E: Revision History", "pdf_verbatim": "7.4.1 | Trial Inclusion/Exclusion Criteria (TI) | The section describing the proposed removal of TIRL was added.", "figure_ref": null, "candidates": [{"md_atom_id": "md_ch10_a229", "md_file": "knowledge_base/chapters/ch10_appendices.md", "md_atom_type": "TABLE_ROW", "md_parent_section": "§10.E [Revision History]", "md_verbatim": "| 7.4.1 | Trial Inclusion/Exclusion Criteria (TI) | The section describing the proposed removal of TIRL was added |", "score": 0.9, "match_basis": "verbatim_token+chapter_route:ch10"}, {"md_atom_id": "md_ch10_a223", "md_file": "knowledge_base/chapters/ch10_appendices.md", "md_atom_type": "TABLE_ROW", "md_parent_section": "§10.E [Revision History]", "md_verbatim": "| **Section 7. Trial Design Model Datasets** | | |", "score": 0.3931, "match_basis": "verbatim_token+chapter_route:ch10"}, {"md_atom_id": "md_ch10_a219", "md_file": "knowledge_base/chapters/ch10_appendices.md", "md_atom_type": "TABLE_ROW", "md_parent_section": "§10.E [Revision History]", "md_verbatim": "| 6.4.1 | When to Use Findings About Events or Interventions | Additional explanation and examples added for each criterion; new criterion added in version that underwent first public review was removed; new \"Points to Consider\" section added; third and fourth bullets dropped as criterion for representing data in FA |", "score": 0.3822, "match_basis": "verbatim_token+chapter_route:ch10"}, {"md_atom_id": "md_ch10_a208", "md_file": "knowledge_base/chapters/ch10_appendices.md", "md_atom_type": "TABLE_ROW", "md_parent_section": "§10.E [Revision History]", "md_verbatim": "| 6.3.1 | Product Accountability (DA) | Renamed from \"Drug Accountability\" to \"Product Accountability\"; added permissible variables DALNKID and DALNKGRP; revised assumptions to describe broadened product accountability scope; excluded devices |", "score": 0.3787, "match_basis": "verbatim_token+chapter_route:ch10"}, {"md_atom_id": "md_ch10_a187", "md_file": "knowledge_base/chapters/ch10_appendices.md", "md_atom_type": "TABLE_ROW", "md_parent_section": "§10.E [Revision History]", "md_verbatim": "| **Section 5. Models for Special-purpose Domains** | | |", "score": 0.3762, "match_basis": "verbatim_token+chapter_route:ch10"}], "candidate_count": 5, "zero_candidate": false}
{"pdf_atom_id": "ig34_p0458_a010", "pdf_atom_type": "TABLE_ROW", "pdf_source": "SDTMIG_v3.4", "pdf_page": 458, "pdf_parent_section": "§10.E Appendix E: Revision History", "pdf_verbatim": "7.4.2 | Trial Summary (TS) | Changed the CDISC Notes for TSSEQ to reflect that the sequence number is to ensure uniqueness within a parameter. Revisions to most TS assumptions to remove references to Appendix C1, Trial Summary Codes, as this appendix was removed. Assumptions were replaced with ones that note recipients may specify requirements and terminology. A reference was added for the TS Codetable on the CDISC website. Revised TS Assumption 17 to clarify the value expectations for TSPARMCD = \"INDIC\" for the two example use cases that are described. Additional assumptions revised for clarity; information added about exploratory outcome measures. Examples 1-3 were revised per changes in assumptions. New content was added to Example 4 to show the use of TSGRPID for study parts and treatments.", "figure_ref": null, "candidates": [{"md_atom_id": "md_ch10_a230", "md_file": "knowledge_base/chapters/ch10_appendices.md", "md_atom_type": "TABLE_ROW", "md_parent_section": "§10.E [Revision History]", "md_verbatim": "| 7.4.2 | Trial Summary (TS) | Changed the CDISC Notes for TSSEQ to reflect that the sequence number is to ensure uniqueness within a parameter; revisions to most TS assumptions to remove references to Appendix C1 Trial Summary Codes (as this appendix was removed); TS assumptions replaced with ones that note recipients may specify requirements and terminology; reference added for the TS Codetable on the CDISC website; revised TS Assumption 17 to clarify value expectations for TSPARMCD = \"INDIC\"; additional assumptions revised for clarity; information added about exploratory outcome measures; Examples 1-3 revised; new Example 4 added to show use of TSGRPID for study parts and treatments |", "score": 0.855, "match_basis": "verbatim_token+chapter_route:ch10"}, {"md_atom_id": "md_ch10_a242", "md_file": "knowledge_base/chapters/ch10_appendices.md", "md_atom_type": "TABLE_ROW", "md_parent_section": "§10.E [Revision History]", "md_verbatim": "| Appendix C | Controlled Terminology | Appendix C1 Trial Summary Codes has been removed from SDTMIG v3.4; TS Assumptions were updated to reference CDISC controlled terminology, CDISC TS codetable, and recipient (regulatory agency) implementation expectations; removed --CLSIG due to promotion as a Findings variable; added --REASOC; all references to Appendix C2 in the SDTMIG were changed to Appendix C1 |", "score": 0.4938, "match_basis": "verbatim_token+chapter_route:ch10"}, {"md_atom_id": "md_ch10_a198", "md_file": "knowledge_base/chapters/ch10_appendices.md", "md_atom_type": "TABLE_ROW", "md_parent_section": "§10.E [Revision History]", "md_verbatim": "| 6.1.5 | Procedures (PR) | PRSEQ's CDISC Notes updated to reflect that Sequence Number is given to ensure uniqueness of subject records within a domain; added CT reference for PRDECOD variable; more explanations provided in examples for why values in PRTRT are in mixed case |", "score": 0.4495, "match_basis": "verbatim_token+chapter_route:ch10"}, {"md_atom_id": "md_ch10_a221", "md_file": "knowledge_base/chapters/ch10_appendices.md", "md_atom_type": "TABLE_ROW", "md_parent_section": "§10.E [Revision History]", "md_verbatim": "| 6.4.4 | Findings About Events or Interventions (FA) | Core value for FADTC changed from \"Perm\" to \"Exp\"; updated FATEST and FATESTCD CDISC Notes to reference general codelists; added assumption 4a referencing CV Code table; extensive updates to examples for clarity |", "score": 0.4404, "match_basis": "verbatim_token+chapter_route:ch10"}, {"md_atom_id": "md_ch10_a236", "md_file": "knowledge_base/chapters/ch10_appendices.md", "md_atom_type": "TABLE_ROW", "md_parent_section": "§10.E [Revision History]", "md_verbatim": "| 8.6.3 | Guidelines for Differentiating Between Interventions, Events, Findings, and Findings About Events or Interventions | \"Interventions\" added to section title; some changes to text to correct typos and clarify wording; second column of second row of table revised to explain what a log form is and to clarify how the data collection format may help understand the general observation class of data collected; added a row to the table to help in deciding between QS and FA for data about symptoms; reordered sentences in paragraph after the table and reiterated reference to AE structure assumption |", "score": 0.4289, "match_basis": "verbatim_token+chapter_route:ch10"}], "candidate_count": 5, "zero_candidate": false}
{"pdf_atom_id": "ig34_p0458_a011", "pdf_atom_type": "TABLE_ROW", "pdf_source": "SDTMIG_v3.4", "pdf_page": 458, "pdf_parent_section": "§10.E Appendix E: Revision History", "pdf_verbatim": "Section 8. Representing Relationships and Data | |", "figure_ref": null, "candidates": [{"md_atom_id": "md_ch10_a231", "md_file": "knowledge_base/chapters/ch10_appendices.md", "md_atom_type": "TABLE_ROW", "md_parent_section": "§10.E [Revision History]", "md_verbatim": "| **Section 8. Representing Relationships and Data** | | |", "score": 0.9, "match_basis": "verbatim_token+chapter_route:ch10"}, {"md_atom_id": "md_ch10_a104", "md_file": "knowledge_base/chapters/ch10_appendices.md", "md_atom_type": "TABLE_ROW", "md_parent_section": "§10.D [CDISC Variable-naming Fragments]", "md_verbatim": "| END | END, EN | | RELATIONSHIP | REL |", "score": 0.5143, "match_basis": "verbatim_token+chapter_route:ch10"}, {"md_atom_id": "md_ch10_a232", "md_file": "knowledge_base/chapters/ch10_appendices.md", "md_atom_type": "TABLE_ROW", "md_parent_section": "§10.E [Revision History]", "md_verbatim": "| 8 | Representing Relationships and Data | Section 8.8 (Related Specimens) added due to BE, BS, and RELSPEC being copied in from SDTMIG-PGx, originally published 2015-05-26, to be deprecated with the publication of SDTMIG v3.4 |", "score": 0.5, "match_basis": "verbatim_token+chapter_route:ch10"}, {"md_atom_id": "md_ch10_a233", "md_file": "knowledge_base/chapters/ch10_appendices.md", "md_atom_type": "TABLE_ROW", "md_parent_section": "§10.E [Revision History]", "md_verbatim": "| 8.2.2 | RELREC Dataset Examples | Introductory text updated to more clearly describe how relationships are represented in RELREC |", "score": 0.469, "match_basis": "verbatim_token+chapter_route:ch10"}, {"md_atom_id": "md_ch10_a178", "md_file": "knowledge_base/chapters/ch10_appendices.md", "md_atom_type": "TABLE_ROW", "md_parent_section": "§10.E [Revision History]", "md_verbatim": "| **Section 3. Submitting Data in a Standard Format** | | |", "score": 0.4429, "match_basis": "verbatim_token+chapter_route:ch10"}], "candidate_count": 5, "zero_candidate": false}
{"pdf_atom_id": "ig34_p0458_a012", "pdf_atom_type": "TABLE_ROW", "pdf_source": "SDTMIG_v3.4", "pdf_page": 458, "pdf_parent_section": "§10.E Appendix E: Revision History", "pdf_verbatim": "8 | Representing Relationships and Data | Section 8.8, Related Specimens, was added due to BE, BS, and RELSPEC being copied in from the SDTMIG-PGx, originally published 2015-05-26, to be deprecated with the publication of SDTMIG v3.4.", "figure_ref": null, "candidates": [{"md_atom_id": "md_ch10_a232", "md_file": "knowledge_base/chapters/ch10_appendices.md", "md_atom_type": "TABLE_ROW", "md_parent_section": "§10.E [Revision History]", "md_verbatim": "| 8 | Representing Relationships and Data | Section 8.8 (Related Specimens) added due to BE, BS, and RELSPEC being copied in from SDTMIG-PGx, originally published 2015-05-26, to be deprecated with the publication of SDTMIG v3.4 |", "score": 0.8927, "match_basis": "verbatim_token+chapter_route:ch10"}, {"md_atom_id": "md_ch10_a237", "md_file": "knowledge_base/chapters/ch10_appendices.md", "md_atom_type": "TABLE_ROW", "md_parent_section": "§10.E [Revision History]", "md_verbatim": "| 8.8 | Related Specimens (RELSPEC) | This section was added to SDTMIG v3.4 in preparation for the eventual retirement of the SDTMIG-PGx, originally published 2015-05-26, to be deprecated with the publication of SDTMIG v3.4 |", "score": 0.654, "match_basis": "verbatim_token+chapter_route:ch10"}, {"md_atom_id": "md_ch10_a199", "md_file": "knowledge_base/chapters/ch10_appendices.md", "md_atom_type": "TABLE_ROW", "md_parent_section": "§10.E [Revision History]", "md_verbatim": "| 6.2 | Models for Events Domains | BE Domain specification and examples copied from SDTMIG-PGx (originally published 2015-05-26), to be deprecated with publication of SDTMIG v3.4 |", "score": 0.5854, "match_basis": "verbatim_token+chapter_route:ch10"}, {"md_atom_id": "md_ch10_a201", "md_file": "knowledge_base/chapters/ch10_appendices.md", "md_atom_type": "TABLE_ROW", "md_parent_section": "§10.E [Revision History]", "md_verbatim": "| 6.2.2 | Biospecimen Events (BE) | Specification, assumptions, and examples copied from SDTMIG-PGx (published 2015-05-26); BETERM and BEDECOD updated; PF updated to GF; to be deprecated with publication of SDTMIG v3.4 |", "score": 0.5368, "match_basis": "verbatim_token+chapter_route:ch10"}, {"md_atom_id": "md_ch10_a207", "md_file": "knowledge_base/chapters/ch10_appendices.md", "md_atom_type": "TABLE_ROW", "md_parent_section": "§10.E [Revision History]", "md_verbatim": "| 6.3 | Models for Findings Domains | BS Domain specification and examples copied from SDTMIG-PGx (originally published 2015-05-26), to be deprecated; assumptions and examples updated where --CLSIG is promoted to standard variable |", "score": 0.5149, "match_basis": "verbatim_token+chapter_route:ch10"}], "candidate_count": 5, "zero_candidate": false}
{"pdf_atom_id": "ig34_p0458_a013", "pdf_atom_type": "TABLE_ROW", "pdf_source": "SDTMIG_v3.4", "pdf_page": 458, "pdf_parent_section": "§10.E Appendix E: Revision History", "pdf_verbatim": "8.2.2 | RELREC Dataset Examples | The introductory text was updated to more clearly describe how relationships are represented in RELREC.", "figure_ref": null, "candidates": [{"md_atom_id": "md_ch10_a233", "md_file": "knowledge_base/chapters/ch10_appendices.md", "md_atom_type": "TABLE_ROW", "md_parent_section": "§10.E [Revision History]", "md_verbatim": "| 8.2.2 | RELREC Dataset Examples | Introductory text updated to more clearly describe how relationships are represented in RELREC |", "score": 0.8818, "match_basis": "verbatim_token+chapter_route:ch10"}, {"md_atom_id": "md_ch10_a231", "md_file": "knowledge_base/chapters/ch10_appendices.md", "md_atom_type": "TABLE_ROW", "md_parent_section": "§10.E [Revision History]", "md_verbatim": "| **Section 8. Representing Relationships and Data** | | |", "score": 0.4644, "match_basis": "verbatim_token+chapter_route:ch10"}, {"md_atom_id": "md_ch10_a222", "md_file": "knowledge_base/chapters/ch10_appendices.md", "md_atom_type": "TABLE_ROW", "md_parent_section": "§10.E [Revision History]", "md_verbatim": "| 6.4.5 | Skin Response (SR) | Updated CDISC Notes for USUBJID; revised representation of quadrants in Example 1; Example 3 updated per CDISC CT |", "score": 0.4273, "match_basis": "verbatim_token+chapter_route:ch10"}, {"md_atom_id": "md_ch10_a232", "md_file": "knowledge_base/chapters/ch10_appendices.md", "md_atom_type": "TABLE_ROW", "md_parent_section": "§10.E [Revision History]", "md_verbatim": "| 8 | Representing Relationships and Data | Section 8.8 (Related Specimens) added due to BE, BS, and RELSPEC being copied in from SDTMIG-PGx, originally published 2015-05-26, to be deprecated with the publication of SDTMIG v3.4 |", "score": 0.4171, "match_basis": "verbatim_token+chapter_route:ch10"}, {"md_atom_id": "md_ch10_a033", "md_file": "knowledge_base/chapters/ch10_appendices.md", "md_atom_type": "TABLE_ROW", "md_parent_section": "§10.B [Glossary and Abbreviations]", "md_verbatim": "| ISO 8601 | ISO character representation of dates, date/times, intervals, and durations of time. The SDTM uses the extended format |", "score": 0.399, "match_basis": "verbatim_token+chapter_route:ch10"}], "candidate_count": 5, "zero_candidate": false}
{"pdf_atom_id": "ig34_p0459_a001", "pdf_atom_type": "TABLE_ROW", "pdf_source": "SDTMIG_v3.4", "pdf_page": 459, "pdf_parent_section": "§10.E Appendix E: Revision History", "pdf_verbatim": "8.4.1 | Supplemental Qualifiers (SUPP--) | Updated the CDISC Notes for USUBJID to include the description of the variable used in other domains. Updated Appendix C2 reference to Appendix C1.", "figure_ref": null, "candidates": [{"md_atom_id": "md_ch10_a234", "md_file": "knowledge_base/chapters/ch10_appendices.md", "md_atom_type": "TABLE_ROW", "md_parent_section": "§10.E [Revision History]", "md_verbatim": "| 8.4.1 | Supplemental Qualifiers (SUPP--) | Updated CDISC Notes for USUBJID to include description of the variable used in other domains; updated Appendix C2 reference to Appendix C1 |", "score": 0.9, "match_basis": "verbatim_token+chapter_route:ch10"}, {"md_atom_id": "md_ch10_a197", "md_file": "knowledge_base/chapters/ch10_appendices.md", "md_atom_type": "TABLE_ROW", "md_parent_section": "§10.E [Revision History]", "md_verbatim": "| 6.1.3 | Exposure Domains | EX assumptions updated to note that since EX includes only treatments received, --MOOD would generally not be used in EX; ECREASOC added (promoted from supplemental qualifier to standard variable); examples updated |", "score": 0.4972, "match_basis": "verbatim_token+chapter_route:ch10"}, {"md_atom_id": "md_ch10_a210", "md_file": "knowledge_base/chapters/ch10_appendices.md", "md_atom_type": "TABLE_ROW", "md_parent_section": "§10.E [Revision History]", "md_verbatim": "| 6.3.3 | ECG Test Results (EG) | Added EGCLSIG as permissible variable; updated EGBEATNO role from \"Variable Qualifier\" to \"Identifier\" to align with SDTM v2.0; added Assumption 2a referencing the ECG codetable |", "score": 0.4343, "match_basis": "verbatim_token+chapter_route:ch10"}, {"md_atom_id": "md_ch10_a222", "md_file": "knowledge_base/chapters/ch10_appendices.md", "md_atom_type": "TABLE_ROW", "md_parent_section": "§10.E [Revision History]", "md_verbatim": "| 6.4.5 | Skin Response (SR) | Updated CDISC Notes for USUBJID; revised representation of quadrants in Example 1; Example 3 updated per CDISC CT |", "score": 0.4333, "match_basis": "verbatim_token+chapter_route:ch10"}, {"md_atom_id": "md_ch10_a185", "md_file": "knowledge_base/chapters/ch10_appendices.md", "md_atom_type": "TABLE_ROW", "md_parent_section": "§10.E [Revision History]", "md_verbatim": "| 4.4 | Actual and Relative Time Assumptions | Updated unknown values from U to UNKNOWN; clarified reference time point; added note that --STDTC is not used in Findings class domains; clarified use of --DRVFL |", "score": 0.4328, "match_basis": "verbatim_token+chapter_route:ch10"}], "candidate_count": 5, "zero_candidate": false}
{"pdf_atom_id": "ig34_p0459_a002", "pdf_atom_type": "TABLE_ROW", "pdf_source": "SDTMIG_v3.4", "pdf_page": 459, "pdf_parent_section": "§10.E Appendix E: Revision History", "pdf_verbatim": "8.6.2 | Guidelines for Forming New Domains | Updated the section references and links.", "figure_ref": null, "candidates": [{"md_atom_id": "md_ch10_a235", "md_file": "knowledge_base/chapters/ch10_appendices.md", "md_atom_type": "TABLE_ROW", "md_parent_section": "§10.E [Revision History]", "md_verbatim": "| 8.6.2 | Guidelines for Forming New Domains | Updated section references and links |", "score": 0.8854, "match_basis": "verbatim_token+chapter_route:ch10"}, {"md_atom_id": "md_ch10_a238", "md_file": "knowledge_base/chapters/ch10_appendices.md", "md_atom_type": "TABLE_ROW", "md_parent_section": "§10.E [Revision History]", "md_verbatim": "| **Section 9. Study References** | | |", "score": 0.4773, "match_basis": "verbatim_token+chapter_route:ch10"}, {"md_atom_id": "md_ch10_a187", "md_file": "knowledge_base/chapters/ch10_appendices.md", "md_atom_type": "TABLE_ROW", "md_parent_section": "§10.E [Revision History]", "md_verbatim": "| **Section 5. Models for Special-purpose Domains** | | |", "score": 0.4333, "match_basis": "verbatim_token+chapter_route:ch10"}, {"md_atom_id": "md_ch10_a182", "md_file": "knowledge_base/chapters/ch10_appendices.md", "md_atom_type": "TABLE_ROW", "md_parent_section": "§10.E [Revision History]", "md_verbatim": "| **Section 4. Assumptions for Domain Models** | | |", "score": 0.4294, "match_basis": "verbatim_token+chapter_route:ch10"}, {"md_atom_id": "md_ch10_a209", "md_file": "knowledge_base/chapters/ch10_appendices.md", "md_atom_type": "TABLE_ROW", "md_parent_section": "§10.E [Revision History]", "md_verbatim": "| 6.3.2 | Death Details (DD) | Added assumption 4 referencing the domain codetable |", "score": 0.4292, "match_basis": "verbatim_token+chapter_route:ch10"}], "candidate_count": 5, "zero_candidate": false}
{"pdf_atom_id": "ig34_p0459_a003", "pdf_atom_type": "TABLE_ROW", "pdf_source": "SDTMIG_v3.4", "pdf_page": 459, "pdf_parent_section": "§10.E Appendix E: Revision History", "pdf_verbatim": "8.6.3 | Guidelines for Differentiating Between Interventions, Events, Findings, and Findings About Events or Interventions | \"Interventions\" added to section title. Some changes to text to correct typos and clarify wording. The second column of the second row of the table was revised to explain what a log form is and to clarify how the data collection format may help to understand the general observation class of data collected. Added a row to the table to help in deciding between QS and FA for data about symptoms. Reordered sentences in paragraph after the table and reiterated reference to AE structure assumption.", "figure_ref": null, "candidates": [{"md_atom_id": "md_ch10_a236", "md_file": "knowledge_base/chapters/ch10_appendices.md", "md_atom_type": "TABLE_ROW", "md_parent_section": "§10.E [Revision History]", "md_verbatim": "| 8.6.3 | Guidelines for Differentiating Between Interventions, Events, Findings, and Findings About Events or Interventions | \"Interventions\" added to section title; some changes to text to correct typos and clarify wording; second column of second row of table revised to explain what a log form is and to clarify how the data collection format may help understand the general observation class of data collected; added a row to the table to help in deciding between QS and FA for data about symptoms; reordered sentences in paragraph after the table and reiterated reference to AE structure assumption |", "score": 0.8968, "match_basis": "verbatim_token+chapter_route:ch10"}, {"md_atom_id": "md_ch10_a221", "md_file": "knowledge_base/chapters/ch10_appendices.md", "md_atom_type": "TABLE_ROW", "md_parent_section": "§10.E [Revision History]", "md_verbatim": "| 6.4.4 | Findings About Events or Interventions (FA) | Core value for FADTC changed from \"Perm\" to \"Exp\"; updated FATEST and FATESTCD CDISC Notes to reference general codelists; added assumption 4a referencing CV Code table; extensive updates to examples for clarity |", "score": 0.4677, "match_basis": "verbatim_token+chapter_route:ch10"}, {"md_atom_id": "md_ch10_a230", "md_file": "knowledge_base/chapters/ch10_appendices.md", "md_atom_type": "TABLE_ROW", "md_parent_section": "§10.E [Revision History]", "md_verbatim": "| 7.4.2 | Trial Summary (TS) | Changed the CDISC Notes for TSSEQ to reflect that the sequence number is to ensure uniqueness within a parameter; revisions to most TS assumptions to remove references to Appendix C1 Trial Summary Codes (as this appendix was removed); TS assumptions replaced with ones that note recipients may specify requirements and terminology; reference added for the TS Codetable on the CDISC website; revised TS Assumption 17 to clarify value expectations for TSPARMCD = \"INDIC\"; additional assumptions revised for clarity; information added about exploratory outcome measures; Examples 1-3 revised; new Example 4 added to show use of TSGRPID for study parts and treatments |", "score": 0.429, "match_basis": "verbatim_token+chapter_route:ch10"}, {"md_atom_id": "md_ch10_a218", "md_file": "knowledge_base/chapters/ch10_appendices.md", "md_atom_type": "TABLE_ROW", "md_parent_section": "§10.E [Revision History]", "md_verbatim": "| 6.4 | Findings About Events or Interventions | Added \"Events or Interventions\" to the FA domain name; added assumption 4a referencing the CV codetable |", "score": 0.4286, "match_basis": "verbatim_token+chapter_route:ch10"}, {"md_atom_id": "md_ch10_a219", "md_file": "knowledge_base/chapters/ch10_appendices.md", "md_atom_type": "TABLE_ROW", "md_parent_section": "§10.E [Revision History]", "md_verbatim": "| 6.4.1 | When to Use Findings About Events or Interventions | Additional explanation and examples added for each criterion; new criterion added in version that underwent first public review was removed; new \"Points to Consider\" section added; third and fourth bullets dropped as criterion for representing data in FA |", "score": 0.4205, "match_basis": "verbatim_token+chapter_route:ch10"}], "candidate_count": 5, "zero_candidate": false}
{"pdf_atom_id": "ig34_p0459_a004", "pdf_atom_type": "TABLE_ROW", "pdf_source": "SDTMIG_v3.4", "pdf_page": 459, "pdf_parent_section": "§10.E Appendix E: Revision History", "pdf_verbatim": "8.8 | Related Specimens (RELSPEC) | This section was added to SDTMIG v3.4 in preparation for the eventual retirement of the SDTMIG-PGx, originally published 2015-05-26, to be deprecated with the publication of SDTMIG v3.4.", "figure_ref": null, "candidates": [{"md_atom_id": "md_ch10_a237", "md_file": "knowledge_base/chapters/ch10_appendices.md", "md_atom_type": "TABLE_ROW", "md_parent_section": "§10.E [Revision History]", "md_verbatim": "| 8.8 | Related Specimens (RELSPEC) | This section was added to SDTMIG v3.4 in preparation for the eventual retirement of the SDTMIG-PGx, originally published 2015-05-26, to be deprecated with the publication of SDTMIG v3.4 |", "score": 0.9, "match_basis": "verbatim_token+chapter_route:ch10"}, {"md_atom_id": "md_ch10_a232", "md_file": "knowledge_base/chapters/ch10_appendices.md", "md_atom_type": "TABLE_ROW", "md_parent_section": "§10.E [Revision History]", "md_verbatim": "| 8 | Representing Relationships and Data | Section 8.8 (Related Specimens) added due to BE, BS, and RELSPEC being copied in from SDTMIG-PGx, originally published 2015-05-26, to be deprecated with the publication of SDTMIG v3.4 |", "score": 0.648, "match_basis": "verbatim_token+chapter_route:ch10"}, {"md_atom_id": "md_ch10_a199", "md_file": "knowledge_base/chapters/ch10_appendices.md", "md_atom_type": "TABLE_ROW", "md_parent_section": "§10.E [Revision History]", "md_verbatim": "| 6.2 | Models for Events Domains | BE Domain specification and examples copied from SDTMIG-PGx (originally published 2015-05-26), to be deprecated with publication of SDTMIG v3.4 |", "score": 0.5647, "match_basis": "verbatim_token+chapter_route:ch10"}, {"md_atom_id": "md_ch10_a239", "md_file": "knowledge_base/chapters/ch10_appendices.md", "md_atom_type": "TABLE_ROW", "md_parent_section": "§10.E [Revision History]", "md_verbatim": "| 9 | Study References | Removed \"Identifiers for pharmacogenomic/genetic biomarkers\" from the list; deleted Section 9.3 PB as it was part of SDTMIG-PGx (originally published 2015-05-26, to be deprecated with the publication of SDTMIG v3.4) |", "score": 0.5153, "match_basis": "verbatim_token+chapter_route:ch10"}, {"md_atom_id": "md_ch10_a201", "md_file": "knowledge_base/chapters/ch10_appendices.md", "md_atom_type": "TABLE_ROW", "md_parent_section": "§10.E [Revision History]", "md_verbatim": "| 6.2.2 | Biospecimen Events (BE) | Specification, assumptions, and examples copied from SDTMIG-PGx (published 2015-05-26); BETERM and BEDECOD updated; PF updated to GF; to be deprecated with publication of SDTMIG v3.4 |", "score": 0.4966, "match_basis": "verbatim_token+chapter_route:ch10"}], "candidate_count": 5, "zero_candidate": false}
{"pdf_atom_id": "ig34_p0459_a005", "pdf_atom_type": "TABLE_ROW", "pdf_source": "SDTMIG_v3.4", "pdf_page": 459, "pdf_parent_section": "§10.E Appendix E: Revision History", "pdf_verbatim": "Section 9. Study References | |", "figure_ref": null, "candidates": [{"md_atom_id": "md_ch10_a238", "md_file": "knowledge_base/chapters/ch10_appendices.md", "md_atom_type": "TABLE_ROW", "md_parent_section": "§10.E [Revision History]", "md_verbatim": "| **Section 9. Study References** | | |", "score": 0.9, "match_basis": "verbatim_token+chapter_route:ch10"}, {"md_atom_id": "md_ch10_a101", "md_file": "knowledge_base/chapters/ch10_appendices.md", "md_atom_type": "TABLE_ROW", "md_parent_section": "§10.D [CDISC Variable-naming Fragments]", "md_verbatim": "| ELAPSED | EL | | REFERENCE | REF, RF |", "score": 0.5, "match_basis": "verbatim_token+chapter_route:ch10"}, {"md_atom_id": "md_ch10_a235", "md_file": "knowledge_base/chapters/ch10_appendices.md", "md_atom_type": "TABLE_ROW", "md_parent_section": "§10.E [Revision History]", "md_verbatim": "| 8.6.2 | Guidelines for Forming New Domains | Updated section references and links |", "score": 0.4814, "match_basis": "verbatim_token+chapter_route:ch10"}, {"md_atom_id": "md_ch10_a171", "md_file": "knowledge_base/chapters/ch10_appendices.md", "md_atom_type": "TABLE_ROW", "md_parent_section": "§10.E [Revision History]", "md_verbatim": "| **Section 1. Introduction** | | |", "score": 0.4304, "match_basis": "verbatim_token+chapter_route:ch10"}, {"md_atom_id": "md_ch10_a209", "md_file": "knowledge_base/chapters/ch10_appendices.md", "md_atom_type": "TABLE_ROW", "md_parent_section": "§10.E [Revision History]", "md_verbatim": "| 6.3.2 | Death Details (DD) | Added assumption 4 referencing the domain codetable |", "score": 0.4043, "match_basis": "verbatim_token+chapter_route:ch10"}], "candidate_count": 5, "zero_candidate": false}
{"pdf_atom_id": "ig34_p0459_a006", "pdf_atom_type": "TABLE_ROW", "pdf_source": "SDTMIG_v3.4", "pdf_page": 459, "pdf_parent_section": "§10.E Appendix E: Revision History", "pdf_verbatim": "9 | Study References | Removed \"Identifiers for pharmacogenomic/genetic biomarkers\" from the list, and deleted Section 9.3 PB was part of SDTMIG-PGx. SDTMIG-PGx, originally published 2015-05-26, is to be deprecated with the publication of SDTMIG v3.4.", "figure_ref": null, "candidates": [{"md_atom_id": "md_ch10_a239", "md_file": "knowledge_base/chapters/ch10_appendices.md", "md_atom_type": "TABLE_ROW", "md_parent_section": "§10.E [Revision History]", "md_verbatim": "| 9 | Study References | Removed \"Identifiers for pharmacogenomic/genetic biomarkers\" from the list; deleted Section 9.3 PB as it was part of SDTMIG-PGx (originally published 2015-05-26, to be deprecated with the publication of SDTMIG v3.4) |", "score": 0.8941, "match_basis": "verbatim_token+chapter_route:ch10"}, {"md_atom_id": "md_ch10_a237", "md_file": "knowledge_base/chapters/ch10_appendices.md", "md_atom_type": "TABLE_ROW", "md_parent_section": "§10.E [Revision History]", "md_verbatim": "| 8.8 | Related Specimens (RELSPEC) | This section was added to SDTMIG v3.4 in preparation for the eventual retirement of the SDTMIG-PGx, originally published 2015-05-26, to be deprecated with the publication of SDTMIG v3.4 |", "score": 0.5136, "match_basis": "verbatim_token+chapter_route:ch10"}, {"md_atom_id": "md_ch10_a199", "md_file": "knowledge_base/chapters/ch10_appendices.md", "md_atom_type": "TABLE_ROW", "md_parent_section": "§10.E [Revision History]", "md_verbatim": "| 6.2 | Models for Events Domains | BE Domain specification and examples copied from SDTMIG-PGx (originally published 2015-05-26), to be deprecated with publication of SDTMIG v3.4 |", "score": 0.5126, "match_basis": "verbatim_token+chapter_route:ch10"}, {"md_atom_id": "md_ch10_a232", "md_file": "knowledge_base/chapters/ch10_appendices.md", "md_atom_type": "TABLE_ROW", "md_parent_section": "§10.E [Revision History]", "md_verbatim": "| 8 | Representing Relationships and Data | Section 8.8 (Related Specimens) added due to BE, BS, and RELSPEC being copied in from SDTMIG-PGx, originally published 2015-05-26, to be deprecated with the publication of SDTMIG v3.4 |", "score": 0.5015, "match_basis": "verbatim_token+chapter_route:ch10"}, {"md_atom_id": "md_ch10_a207", "md_file": "knowledge_base/chapters/ch10_appendices.md", "md_atom_type": "TABLE_ROW", "md_parent_section": "§10.E [Revision History]", "md_verbatim": "| 6.3 | Models for Findings Domains | BS Domain specification and examples copied from SDTMIG-PGx (originally published 2015-05-26), to be deprecated; assumptions and examples updated where --CLSIG is promoted to standard variable |", "score": 0.4575, "match_basis": "verbatim_token+chapter_route:ch10"}], "candidate_count": 5, "zero_candidate": false}
{"pdf_atom_id": "ig34_p0459_a007", "pdf_atom_type": "TABLE_ROW", "pdf_source": "SDTMIG_v3.4", "pdf_page": 459, "pdf_parent_section": "§10.E Appendix E: Revision History", "pdf_verbatim": "Appendices | |", "figure_ref": null, "candidates": [{"md_atom_id": "md_ch10_a240", "md_file": "knowledge_base/chapters/ch10_appendices.md", "md_atom_type": "TABLE_ROW", "md_parent_section": "§10.E [Revision History]", "md_verbatim": "| **Appendices** | | |", "score": 0.9, "match_basis": "verbatim_token+chapter_route:ch10"}, {"md_atom_id": "md_ch10_a241", "md_file": "knowledge_base/chapters/ch10_appendices.md", "md_atom_type": "TABLE_ROW", "md_parent_section": "§10.E [Revision History]", "md_verbatim": "| Appendix A | CDISC SDS Team | The team list has been updated |", "score": 0.4154, "match_basis": "verbatim_token+chapter_route:ch10"}, {"md_atom_id": "md_ch10_a244", "md_file": "knowledge_base/chapters/ch10_appendices.md", "md_atom_type": "TABLE_ROW", "md_parent_section": "§10.E [Revision History]", "md_verbatim": "| Appendix E | This appendix | This appendix was updated to reflect an overview of changes from SDTMIG v3.3 to SDTMIG v3.4 |", "score": 0.3769, "match_basis": "verbatim_token+chapter_route:ch10"}, {"md_atom_id": "md_ch10_a075", "md_file": "knowledge_base/chapters/ch10_appendices.md", "md_atom_type": "TABLE_ROW", "md_parent_section": "§10.D [CDISC Variable-naming Fragments]", "md_verbatim": "| ACTION | ACN | | INDICATOR | IND |", "score": 0.3667, "match_basis": "verbatim_token+chapter_route:ch10"}, {"md_atom_id": "md_ch10_a118", "md_file": "knowledge_base/chapters/ch10_appendices.md", "md_atom_type": "TABLE_ROW", "md_parent_section": "§10.D [CDISC Variable-naming Fragments]", "md_verbatim": "| INDICATION | INDC | | SUBCATEGORY | SCAT |", "score": 0.35, "match_basis": "verbatim_token+chapter_route:ch10"}], "candidate_count": 5, "zero_candidate": false}
{"pdf_atom_id": "ig34_p0459_a008", "pdf_atom_type": "TABLE_ROW", "pdf_source": "SDTMIG_v3.4", "pdf_page": 459, "pdf_parent_section": "§10.E Appendix E: Revision History", "pdf_verbatim": "Appendix A | CDISC SDS Team | The team list has been updated.", "figure_ref": null, "candidates": [{"md_atom_id": "md_ch10_a241", "md_file": "knowledge_base/chapters/ch10_appendices.md", "md_atom_type": "TABLE_ROW", "md_parent_section": "§10.E [Revision History]", "md_verbatim": "| Appendix A | CDISC SDS Team | The team list has been updated |", "score": 0.9, "match_basis": "verbatim_token+chapter_route:ch10"}, {"md_atom_id": "md_ch10_a244", "md_file": "knowledge_base/chapters/ch10_appendices.md", "md_atom_type": "TABLE_ROW", "md_parent_section": "§10.E [Revision History]", "md_verbatim": "| Appendix E | This appendix | This appendix was updated to reflect an overview of changes from SDTMIG v3.3 to SDTMIG v3.4 |", "score": 0.4375, "match_basis": "verbatim_token+chapter_route:ch10"}, {"md_atom_id": "md_ch10_a240", "md_file": "knowledge_base/chapters/ch10_appendices.md", "md_atom_type": "TABLE_ROW", "md_parent_section": "§10.E [Revision History]", "md_verbatim": "| **Appendices** | | |", "score": 0.4154, "match_basis": "verbatim_token+chapter_route:ch10"}, {"md_atom_id": "md_ch10_a234", "md_file": "knowledge_base/chapters/ch10_appendices.md", "md_atom_type": "TABLE_ROW", "md_parent_section": "§10.E [Revision History]", "md_verbatim": "| 8.4.1 | Supplemental Qualifiers (SUPP--) | Updated CDISC Notes for USUBJID to include description of the variable used in other domains; updated Appendix C2 reference to Appendix C1 |", "score": 0.4047, "match_basis": "verbatim_token+chapter_route:ch10"}, {"md_atom_id": "md_ch10_a192", "md_file": "knowledge_base/chapters/ch10_appendices.md", "md_atom_type": "TABLE_ROW", "md_parent_section": "§10.E [Revision History]", "md_verbatim": "| 5.4 | Subject Disease Milestones (SM) | Updated CDISC notes for USUBJID for consistency |", "score": 0.3982, "match_basis": "verbatim_token+chapter_route:ch10"}], "candidate_count": 5, "zero_candidate": false}
{"pdf_atom_id": "ig34_p0459_a009", "pdf_atom_type": "TABLE_ROW", "pdf_source": "SDTMIG_v3.4", "pdf_page": 459, "pdf_parent_section": "§10.E Appendix E: Revision History", "pdf_verbatim": "Appendix C | Controlled Terminology | Appendix C1 Trial Summary Codes has been removed from SDTMIG v3.4. TS Assumptions were updated to reference CDISC controlled terminology, CDISC TS codetable, and recipient (regulatory agency) implementation expectations. Removed --CLSIG due to promotion as a Findings variable. Added --REASOC. All references to Appendix C2 in the SDTMIG were changed to Appendix C1.", "figure_ref": null, "candidates": [{"md_atom_id": "md_ch10_a242", "md_file": "knowledge_base/chapters/ch10_appendices.md", "md_atom_type": "TABLE_ROW", "md_parent_section": "§10.E [Revision History]", "md_verbatim": "| Appendix C | Controlled Terminology | Appendix C1 Trial Summary Codes has been removed from SDTMIG v3.4; TS Assumptions were updated to reference CDISC controlled terminology, CDISC TS codetable, and recipient (regulatory agency) implementation expectations; removed --CLSIG due to promotion as a Findings variable; added --REASOC; all references to Appendix C2 in the SDTMIG were changed to Appendix C1 |", "score": 0.9, "match_basis": "verbatim_token+chapter_route:ch10"}, {"md_atom_id": "md_ch10_a230", "md_file": "knowledge_base/chapters/ch10_appendices.md", "md_atom_type": "TABLE_ROW", "md_parent_section": "§10.E [Revision History]", "md_verbatim": "| 7.4.2 | Trial Summary (TS) | Changed the CDISC Notes for TSSEQ to reflect that the sequence number is to ensure uniqueness within a parameter; revisions to most TS assumptions to remove references to Appendix C1 Trial Summary Codes (as this appendix was removed); TS assumptions replaced with ones that note recipients may specify requirements and terminology; reference added for the TS Codetable on the CDISC website; revised TS Assumption 17 to clarify value expectations for TSPARMCD = \"INDIC\"; additional assumptions revised for clarity; information added about exploratory outcome measures; Examples 1-3 revised; new Example 4 added to show use of TSGRPID for study parts and treatments |", "score": 0.4978, "match_basis": "verbatim_token+chapter_route:ch10"}, {"md_atom_id": "md_ch10_a221", "md_file": "knowledge_base/chapters/ch10_appendices.md", "md_atom_type": "TABLE_ROW", "md_parent_section": "§10.E [Revision History]", "md_verbatim": "| 6.4.4 | Findings About Events or Interventions (FA) | Core value for FADTC changed from \"Perm\" to \"Exp\"; updated FATEST and FATESTCD CDISC Notes to reference general codelists; added assumption 4a referencing CV Code table; extensive updates to examples for clarity |", "score": 0.4662, "match_basis": "verbatim_token+chapter_route:ch10"}, {"md_atom_id": "md_ch10_a207", "md_file": "knowledge_base/chapters/ch10_appendices.md", "md_atom_type": "TABLE_ROW", "md_parent_section": "§10.E [Revision History]", "md_verbatim": "| 6.3 | Models for Findings Domains | BS Domain specification and examples copied from SDTMIG-PGx (originally published 2015-05-26), to be deprecated; assumptions and examples updated where --CLSIG is promoted to standard variable |", "score": 0.4531, "match_basis": "verbatim_token+chapter_route:ch10"}, {"md_atom_id": "md_ch10_a210", "md_file": "knowledge_base/chapters/ch10_appendices.md", "md_atom_type": "TABLE_ROW", "md_parent_section": "§10.E [Revision History]", "md_verbatim": "| 6.3.3 | ECG Test Results (EG) | Added EGCLSIG as permissible variable; updated EGBEATNO role from \"Variable Qualifier\" to \"Identifier\" to align with SDTM v2.0; added Assumption 2a referencing the ECG codetable |", "score": 0.4525, "match_basis": "verbatim_token+chapter_route:ch10"}], "candidate_count": 5, "zero_candidate": false}
{"pdf_atom_id": "ig34_p0460_a001", "pdf_atom_type": "TABLE_ROW", "pdf_source": "SDTMIG_v3.4", "pdf_page": 460, "pdf_parent_section": "§10.E Appendix E: Revision History", "pdf_verbatim": "Appendix D | CDISC Variable-naming Fragments | \"V3.x dataset\" was replaced with \"Findings dataset\" because the V3.x terminology was somewhat confusing and is being phased out.", "figure_ref": null, "candidates": [{"md_atom_id": "md_ch10_a243", "md_file": "knowledge_base/chapters/ch10_appendices.md", "md_atom_type": "TABLE_ROW", "md_parent_section": "§10.E [Revision History]", "md_verbatim": "| Appendix D | CDISC Variable-naming Fragments | \"V3.x dataset\" was replaced with \"Findings dataset\" because the V3.x terminology was somewhat confusing and is being phased out |", "score": 0.9, "match_basis": "verbatim_token+chapter_route:ch10"}, {"md_atom_id": "md_ch10_a242", "md_file": "knowledge_base/chapters/ch10_appendices.md", "md_atom_type": "TABLE_ROW", "md_parent_section": "§10.E [Revision History]", "md_verbatim": "| Appendix C | Controlled Terminology | Appendix C1 Trial Summary Codes has been removed from SDTMIG v3.4; TS Assumptions were updated to reference CDISC controlled terminology, CDISC TS codetable, and recipient (regulatory agency) implementation expectations; removed --CLSIG due to promotion as a Findings variable; added --REASOC; all references to Appendix C2 in the SDTMIG were changed to Appendix C1 |", "score": 0.4187, "match_basis": "verbatim_token+chapter_route:ch10"}, {"md_atom_id": "md_ch10_a224", "md_file": "knowledge_base/chapters/ch10_appendices.md", "md_atom_type": "TABLE_ROW", "md_parent_section": "§10.E [Revision History]", "md_verbatim": "| 7.2 | Experimental Design (TA and TE) | Text about executable code in Section 7.2.1.1 replaced to note that a mechanism to provide machine-readable rules will become available in the future; aligned wording for Rule variables on CDISC Notes between TA and TE; dataset name in Section 7.2.2.1 example changed from \"ta.xpt\" to \"special.xpt\" |", "score": 0.4051, "match_basis": "verbatim_token+chapter_route:ch10"}, {"md_atom_id": "md_ch10_a230", "md_file": "knowledge_base/chapters/ch10_appendices.md", "md_atom_type": "TABLE_ROW", "md_parent_section": "§10.E [Revision History]", "md_verbatim": "| 7.4.2 | Trial Summary (TS) | Changed the CDISC Notes for TSSEQ to reflect that the sequence number is to ensure uniqueness within a parameter; revisions to most TS assumptions to remove references to Appendix C1 Trial Summary Codes (as this appendix was removed); TS assumptions replaced with ones that note recipients may specify requirements and terminology; reference added for the TS Codetable on the CDISC website; revised TS Assumption 17 to clarify value expectations for TSPARMCD = \"INDIC\"; additional assumptions revised for clarity; information added about exploratory outcome measures; Examples 1-3 revised; new Example 4 added to show use of TSGRPID for study parts and treatments |", "score": 0.3981, "match_basis": "verbatim_token+chapter_route:ch10"}, {"md_atom_id": "md_ch10_a234", "md_file": "knowledge_base/chapters/ch10_appendices.md", "md_atom_type": "TABLE_ROW", "md_parent_section": "§10.E [Revision History]", "md_verbatim": "| 8.4.1 | Supplemental Qualifiers (SUPP--) | Updated CDISC Notes for USUBJID to include description of the variable used in other domains; updated Appendix C2 reference to Appendix C1 |", "score": 0.394, "match_basis": "verbatim_token+chapter_route:ch10"}], "candidate_count": 5, "zero_candidate": false}
{"pdf_atom_id": "ig34_p0460_a002", "pdf_atom_type": "TABLE_ROW", "pdf_source": "SDTMIG_v3.4", "pdf_page": 460, "pdf_parent_section": "§10.E Appendix E: Revision History", "pdf_verbatim": "Appendix E | This appendix | This appendix was updated to reflect an overview of changes from SDTMIG v3.3 to SDTMIG v3.4.", "figure_ref": null, "candidates": [{"md_atom_id": "md_ch10_a244", "md_file": "knowledge_base/chapters/ch10_appendices.md", "md_atom_type": "TABLE_ROW", "md_parent_section": "§10.E [Revision History]", "md_verbatim": "| Appendix E | This appendix | This appendix was updated to reflect an overview of changes from SDTMIG v3.3 to SDTMIG v3.4 |", "score": 0.9, "match_basis": "verbatim_token+chapter_route:ch10"}, {"md_atom_id": "md_ch10_a241", "md_file": "knowledge_base/chapters/ch10_appendices.md", "md_atom_type": "TABLE_ROW", "md_parent_section": "§10.E [Revision History]", "md_verbatim": "| Appendix A | CDISC SDS Team | The team list has been updated |", "score": 0.4375, "match_basis": "verbatim_token+chapter_route:ch10"}, {"md_atom_id": "md_ch10_a180", "md_file": "knowledge_base/chapters/ch10_appendices.md", "md_atom_type": "TABLE_ROW", "md_parent_section": "§10.E [Revision History]", "md_verbatim": "| 3.2.1 | Dataset-level Metadata | Changes to SDTMIG Content Control appear in this table; new domains added and MO removed |", "score": 0.4216, "match_basis": "verbatim_token+chapter_route:ch10"}, {"md_atom_id": "md_ch10_a188", "md_file": "knowledge_base/chapters/ch10_appendices.md", "md_atom_type": "TABLE_ROW", "md_parent_section": "§10.E [Revision History]", "md_verbatim": "| 5 | Models for Special-purpose Domains | All SDTMIG v3.4 metadata specifications updated to reflect ISO 8601 granularity |", "score": 0.4012, "match_basis": "verbatim_token+chapter_route:ch10"}, {"md_atom_id": "md_ch10_a242", "md_file": "knowledge_base/chapters/ch10_appendices.md", "md_atom_type": "TABLE_ROW", "md_parent_section": "§10.E [Revision History]", "md_verbatim": "| Appendix C | Controlled Terminology | Appendix C1 Trial Summary Codes has been removed from SDTMIG v3.4; TS Assumptions were updated to reference CDISC controlled terminology, CDISC TS codetable, and recipient (regulatory agency) implementation expectations; removed --CLSIG due to promotion as a Findings variable; added --REASOC; all references to Appendix C2 in the SDTMIG were changed to Appendix C1 |", "score": 0.3941, "match_basis": "verbatim_token+chapter_route:ch10"}], "candidate_count": 5, "zero_candidate": false}
{"pdf_atom_id": "ig34_p0461_a001", "pdf_atom_type": "HEADING", "pdf_source": "SDTMIG_v3.4", "pdf_page": 461, "pdf_parent_section": "§10 [APPENDICES]", "pdf_verbatim": "Appendix F: Representations and Warranties, Limitations of Liability, and Disclaimers", "figure_ref": null, "candidates": [{"md_atom_id": "md_ch10_a245", "md_file": "knowledge_base/chapters/ch10_appendices.md", "md_atom_type": "HEADING", "md_parent_section": "§10 [Appendices]", "md_verbatim": "## Appendix F: Representations and Warranties, Limitations of Liability, and Disclaimers", "score": 0.9, "match_basis": "verbatim_token+chapter_route:ch10"}, {"md_atom_id": "md_ch10_a250", "md_file": "knowledge_base/chapters/ch10_appendices.md", "md_atom_type": "HEADING", "md_parent_section": "§10.F [Representations and Warranties, Limitations of Liability, and Disclaimers]", "md_verbatim": "### Representations and Warranties", "score": 0.575, "match_basis": "verbatim_token+chapter_route:ch10"}, {"md_atom_id": "md_ch10_a254", "md_file": "knowledge_base/chapters/ch10_appendices.md", "md_atom_type": "HEADING", "md_parent_section": "§10.F [Representations and Warranties, Limitations of Liability, and Disclaimers]", "md_verbatim": "### No Other Warranties/Disclaimers", "score": 0.5, "match_basis": "verbatim_token+chapter_route:ch10"}, {"md_atom_id": "md_ch10_a256", "md_file": "knowledge_base/chapters/ch10_appendices.md", "md_atom_type": "HEADING", "md_parent_section": "§10.F [Representations and Warranties, Limitations of Liability, and Disclaimers]", "md_verbatim": "### Limitation of Liability", "score": 0.4875, "match_basis": "verbatim_token+chapter_route:ch10"}, {"md_atom_id": "md_ch10_a246", "md_file": "knowledge_base/chapters/ch10_appendices.md", "md_atom_type": "HEADING", "md_parent_section": "§10.F [Representations and Warranties, Limitations of Liability, and Disclaimers]", "md_verbatim": "### CDISC Patent Disclaimers", "score": 0.4154, "match_basis": "verbatim_token+chapter_route:ch10"}], "candidate_count": 5, "zero_candidate": false}
{"pdf_atom_id": "ig34_p0461_a002", "pdf_atom_type": "HEADING", "pdf_source": "SDTMIG_v3.4", "pdf_page": 461, "pdf_parent_section": "§10.F Appendix F: Representations and Warranties, Limitations of Liability, and Disclaimers", "pdf_verbatim": "CDISC Patent Disclaimers", "figure_ref": null, "candidates": [{"md_atom_id": "md_ch10_a246", "md_file": "knowledge_base/chapters/ch10_appendices.md", "md_atom_type": "HEADING", "md_parent_section": "§10.F [Representations and Warranties, Limitations of Liability, and Disclaimers]", "md_verbatim": "### CDISC Patent Disclaimers", "score": 0.9, "match_basis": "verbatim_token+chapter_route:ch10"}, {"md_atom_id": "md_ch10_a254", "md_file": "knowledge_base/chapters/ch10_appendices.md", "md_atom_type": "HEADING", "md_parent_section": "§10.F [Representations and Warranties, Limitations of Liability, and Disclaimers]", "md_verbatim": "### No Other Warranties/Disclaimers", "score": 0.516, "match_basis": "verbatim_token+chapter_route:ch10"}, {"md_atom_id": "md_ch10_a245", "md_file": "knowledge_base/chapters/ch10_appendices.md", "md_atom_type": "HEADING", "md_parent_section": "§10 [Appendices]", "md_verbatim": "## Appendix F: Representations and Warranties, Limitations of Liability, and Disclaimers", "score": 0.4154, "match_basis": "verbatim_token+chapter_route:ch10"}, {"md_atom_id": "md_ch10_a003", "md_file": "knowledge_base/chapters/ch10_appendices.md", "md_atom_type": "HEADING", "md_parent_section": "§10 [Appendices]", "md_verbatim": "## Appendix A: CDISC SDS Team", "score": 0.3783, "match_basis": "verbatim_token+chapter_route:ch10"}, {"md_atom_id": "md_ch10_a067", "md_file": "knowledge_base/chapters/ch10_appendices.md", "md_atom_type": "HEADING", "md_parent_section": "§10 [Appendices]", "md_verbatim": "## Appendix D: CDISC Variable-naming Fragments", "score": 0.3667, "match_basis": "verbatim_token+chapter_route:ch10"}], "candidate_count": 5, "zero_candidate": false}
{"pdf_atom_id": "ig34_p0461_a003", "pdf_atom_type": "SENTENCE", "pdf_source": "SDTMIG_v3.4", "pdf_page": 461, "pdf_parent_section": "§10.F Appendix F: Representations and Warranties, Limitations of Liability, and Disclaimers", "pdf_verbatim": "It is possible that implementation of and compliance with this standard may require use of subject matter covered by patent rights.", "figure_ref": null, "candidates": [{"md_atom_id": "md_ch10_a247", "md_file": "knowledge_base/chapters/ch10_appendices.md", "md_atom_type": "SENTENCE", "md_parent_section": "§10.F [Representations and Warranties, Limitations of Liability, and Disclaimers]", "md_verbatim": "It is possible that implementation of and compliance with this standard may require use of subject matter covered by patent rights.", "score": 0.9, "match_basis": "verbatim_token+chapter_route:ch10"}, {"md_atom_id": "md_ch10_a248", "md_file": "knowledge_base/chapters/ch10_appendices.md", "md_atom_type": "SENTENCE", "md_parent_section": "§10.F [Representations and Warranties, Limitations of Liability, and Disclaimers]", "md_verbatim": "By publication of this standard, no position is taken with respect to the existence or validity of any claim or of any patent rights in connection therewith.", "score": 0.4429, "match_basis": "verbatim_token+chapter_route:ch10"}, {"md_atom_id": "md_ch10_a249", "md_file": "knowledge_base/chapters/ch10_appendices.md", "md_atom_type": "SENTENCE", "md_parent_section": "§10.F [Representations and Warranties, Limitations of Liability, and Disclaimers]", "md_verbatim": "CDISC, including the CDISC Board of Directors, shall not be responsible for identifying patents for which a license may be required in order to implement this standard or for conducting inquiries into the legal validity or scope of those patents or patent claims that are brought to its attention.", "score": 0.4421, "match_basis": "verbatim_token+chapter_route:ch10"}, {"md_atom_id": "md_ch10_a253", "md_file": "knowledge_base/chapters/ch10_appendices.md", "md_atom_type": "SENTENCE", "md_parent_section": "§10.F [Representations and Warranties, Limitations of Liability, and Disclaimers]", "md_verbatim": "If a Participant has knowledge that a Contribution made by any Participant or any other party may subject any Contribution, Draft Standard, Final Standard, or implementation, in whole or in part, to one or more of the licensing obligations listed in Section 9.3, such Participant shall give prompt notice of the same to the CDISC President who shall promptly notify all Participants.", "score": 0.4038, "match_basis": "verbatim_token+chapter_route:ch10"}, {"md_atom_id": "md_ch10_a252", "md_file": "knowledge_base/chapters/ch10_appendices.md", "md_atom_type": "SENTENCE", "md_parent_section": "§10.F [Representations and Warranties, Limitations of Liability, and Disclaimers]", "md_verbatim": "Each Participant in the development of this standard shall be deemed to represent, warrant, and covenant, at the time of a Contribution by such Participant (or by its Representative), that to the best of its knowledge and ability: (a) it holds or has the right to grant all relevant licenses to any of its Contributions in all jurisdictions or territories in which it holds relevant intellectual property rights; (b) there are no limits to the Participant's ability to make the grants, acknowledgments, and agreements herein; and (c) the Contribution does not subject any Contribution, Draft Standard, Final Standard, or implementations thereof, in whole or in part, to licensing obligations with additional restrictions or requirements inconsistent with those set forth in the CDISC Intellectual Property Policy (\"the Policy\"), or that would require any such Contribution, Final Standard, or implementation, in whole or in part, to be either: (i) disclosed or distributed in source code form; (ii) licensed for the purpose of making derivative works (other than as set forth in Section 4.2 of the CDISC Intellectual Property Policy); or (iii) distributed at no charge, except as set forth in Sections 3, 5.1, and 4.2 of the Policy.", "score": 0.391, "match_basis": "verbatim_token+chapter_route:ch10"}], "candidate_count": 5, "zero_candidate": false}
{"pdf_atom_id": "ig34_p0461_a004", "pdf_atom_type": "SENTENCE", "pdf_source": "SDTMIG_v3.4", "pdf_page": 461, "pdf_parent_section": "§10.F Appendix F: Representations and Warranties, Limitations of Liability, and Disclaimers", "pdf_verbatim": "By publication of this standard, no position is taken with respect to the existence or validity of any claim or of any patent rights in connection therewith.", "figure_ref": null, "candidates": [{"md_atom_id": "md_ch10_a248", "md_file": "knowledge_base/chapters/ch10_appendices.md", "md_atom_type": "SENTENCE", "md_parent_section": "§10.F [Representations and Warranties, Limitations of Liability, and Disclaimers]", "md_verbatim": "By publication of this standard, no position is taken with respect to the existence or validity of any claim or of any patent rights in connection therewith.", "score": 0.9, "match_basis": "verbatim_token+chapter_route:ch10"}, {"md_atom_id": "md_ch10_a247", "md_file": "knowledge_base/chapters/ch10_appendices.md", "md_atom_type": "SENTENCE", "md_parent_section": "§10.F [Representations and Warranties, Limitations of Liability, and Disclaimers]", "md_verbatim": "It is possible that implementation of and compliance with this standard may require use of subject matter covered by patent rights.", "score": 0.4429, "match_basis": "verbatim_token+chapter_route:ch10"}, {"md_atom_id": "md_ch10_a249", "md_file": "knowledge_base/chapters/ch10_appendices.md", "md_atom_type": "SENTENCE", "md_parent_section": "§10.F [Representations and Warranties, Limitations of Liability, and Disclaimers]", "md_verbatim": "CDISC, including the CDISC Board of Directors, shall not be responsible for identifying patents for which a license may be required in order to implement this standard or for conducting inquiries into the legal validity or scope of those patents or patent claims that are brought to its attention.", "score": 0.4185, "match_basis": "verbatim_token+chapter_route:ch10"}, {"md_atom_id": "md_ch10_a251", "md_file": "knowledge_base/chapters/ch10_appendices.md", "md_atom_type": "SENTENCE", "md_parent_section": "§10.F [Representations and Warranties, Limitations of Liability, and Disclaimers]", "md_verbatim": "\"CDISC grants open public use of this User Guide (or Final Standards) under CDISC's copyright.\"", "score": 0.4, "match_basis": "verbatim_token+chapter_route:ch10"}, {"md_atom_id": "md_ch10_a005", "md_file": "knowledge_base/chapters/ch10_appendices.md", "md_atom_type": "SENTENCE", "md_parent_section": "§10.A [CDISC SDS Team]", "md_verbatim": "Additionally, this publication would not have been possible without the support of the Foundational Team Leads, Global Governance Group, Regulatory Liaisons, and CDISC.", "score": 0.3909, "match_basis": "verbatim_token+chapter_route:ch10"}], "candidate_count": 5, "zero_candidate": false}
{"pdf_atom_id": "ig34_p0461_a005", "pdf_atom_type": "SENTENCE", "pdf_source": "SDTMIG_v3.4", "pdf_page": 461, "pdf_parent_section": "§10.F Appendix F: Representations and Warranties, Limitations of Liability, and Disclaimers", "pdf_verbatim": "CDISC, including the CDISC Board of Directors, shall not be responsible for identifying patent claims for which a license may be required in order to implement this standard or for conducting inquiries into the legal validity or scope of those patents or patent claims that are brought to its attention.", "figure_ref": null, "candidates": [{"md_atom_id": "md_ch10_a249", "md_file": "knowledge_base/chapters/ch10_appendices.md", "md_atom_type": "SENTENCE", "md_parent_section": "§10.F [Representations and Warranties, Limitations of Liability, and Disclaimers]", "md_verbatim": "CDISC, including the CDISC Board of Directors, shall not be responsible for identifying patents for which a license may be required in order to implement this standard or for conducting inquiries into the legal validity or scope of those patents or patent claims that are brought to its attention.", "score": 0.9, "match_basis": "verbatim_token+chapter_route:ch10"}, {"md_atom_id": "md_ch10_a247", "md_file": "knowledge_base/chapters/ch10_appendices.md", "md_atom_type": "SENTENCE", "md_parent_section": "§10.F [Representations and Warranties, Limitations of Liability, and Disclaimers]", "md_verbatim": "It is possible that implementation of and compliance with this standard may require use of subject matter covered by patent rights.", "score": 0.4421, "match_basis": "verbatim_token+chapter_route:ch10"}, {"md_atom_id": "md_ch10_a253", "md_file": "knowledge_base/chapters/ch10_appendices.md", "md_atom_type": "SENTENCE", "md_parent_section": "§10.F [Representations and Warranties, Limitations of Liability, and Disclaimers]", "md_verbatim": "If a Participant has knowledge that a Contribution made by any Participant or any other party may subject any Contribution, Draft Standard, Final Standard, or implementation, in whole or in part, to one or more of the licensing obligations listed in Section 9.3, such Participant shall give prompt notice of the same to the CDISC President who shall promptly notify all Participants.", "score": 0.4266, "match_basis": "verbatim_token+chapter_route:ch10"}, {"md_atom_id": "md_ch10_a252", "md_file": "knowledge_base/chapters/ch10_appendices.md", "md_atom_type": "SENTENCE", "md_parent_section": "§10.F [Representations and Warranties, Limitations of Liability, and Disclaimers]", "md_verbatim": "Each Participant in the development of this standard shall be deemed to represent, warrant, and covenant, at the time of a Contribution by such Participant (or by its Representative), that to the best of its knowledge and ability: (a) it holds or has the right to grant all relevant licenses to any of its Contributions in all jurisdictions or territories in which it holds relevant intellectual property rights; (b) there are no limits to the Participant's ability to make the grants, acknowledgments, and agreements herein; and (c) the Contribution does not subject any Contribution, Draft Standard, Final Standard, or implementations thereof, in whole or in part, to licensing obligations with additional restrictions or requirements inconsistent with those set forth in the CDISC Intellectual Property Policy (\"the Policy\"), or that would require any such Contribution, Final Standard, or implementation, in whole or in part, to be either: (i) disclosed or distributed in source code form; (ii) licensed for the purpose of making derivative works (other than as set forth in Section 4.2 of the CDISC Intellectual Property Policy); or (iii) distributed at no charge, except as set forth in Sections 3, 5.1, and 4.2 of the Policy.", "score": 0.4193, "match_basis": "verbatim_token+chapter_route:ch10"}, {"md_atom_id": "md_ch10_a248", "md_file": "knowledge_base/chapters/ch10_appendices.md", "md_atom_type": "SENTENCE", "md_parent_section": "§10.F [Representations and Warranties, Limitations of Liability, and Disclaimers]", "md_verbatim": "By publication of this standard, no position is taken with respect to the existence or validity of any claim or of any patent rights in connection therewith.", "score": 0.4185, "match_basis": "verbatim_token+chapter_route:ch10"}], "candidate_count": 5, "zero_candidate": false}
{"pdf_atom_id": "ig34_p0461_a006", "pdf_atom_type": "HEADING", "pdf_source": "SDTMIG_v3.4", "pdf_page": 461, "pdf_parent_section": "§10.F Appendix F: Representations and Warranties, Limitations of Liability, and Disclaimers", "pdf_verbatim": "Representations and Warranties", "figure_ref": null, "candidates": [{"md_atom_id": "md_ch10_a250", "md_file": "knowledge_base/chapters/ch10_appendices.md", "md_atom_type": "HEADING", "md_parent_section": "§10.F [Representations and Warranties, Limitations of Liability, and Disclaimers]", "md_verbatim": "### Representations and Warranties", "score": 0.9, "match_basis": "verbatim_token+chapter_route:ch10"}, {"md_atom_id": "md_ch10_a245", "md_file": "knowledge_base/chapters/ch10_appendices.md", "md_atom_type": "HEADING", "md_parent_section": "§10 [Appendices]", "md_verbatim": "## Appendix F: Representations and Warranties, Limitations of Liability, and Disclaimers", "score": 0.575, "match_basis": "verbatim_token+chapter_route:ch10"}, {"md_atom_id": "md_ch10_a254", "md_file": "knowledge_base/chapters/ch10_appendices.md", "md_atom_type": "HEADING", "md_parent_section": "§10.F [Representations and Warranties, Limitations of Liability, and Disclaimers]", "md_verbatim": "### No Other Warranties/Disclaimers", "score": 0.4412, "match_basis": "verbatim_token+chapter_route:ch10"}, {"md_atom_id": "md_ch10_a009", "md_file": "knowledge_base/chapters/ch10_appendices.md", "md_atom_type": "HEADING", "md_parent_section": "§10 [Appendices]", "md_verbatim": "## Appendix B: Glossary and Abbreviations", "score": 0.3732, "match_basis": "verbatim_token+chapter_route:ch10"}, {"md_atom_id": "md_ch10_a256", "md_file": "knowledge_base/chapters/ch10_appendices.md", "md_atom_type": "HEADING", "md_parent_section": "§10.F [Representations and Warranties, Limitations of Liability, and Disclaimers]", "md_verbatim": "### Limitation of Liability", "score": 0.3727, "match_basis": "verbatim_token+chapter_route:ch10"}], "candidate_count": 5, "zero_candidate": false}
{"pdf_atom_id": "ig34_p0461_a007", "pdf_atom_type": "SENTENCE", "pdf_source": "SDTMIG_v3.4", "pdf_page": 461, "pdf_parent_section": "§10.F Appendix F: Representations and Warranties, Limitations of Liability, and Disclaimers", "pdf_verbatim": "\"CDISC grants open public use of this User Guide (or Final Standards) under CDISC's copyright.\"", "figure_ref": null, "candidates": [{"md_atom_id": "md_ch10_a251", "md_file": "knowledge_base/chapters/ch10_appendices.md", "md_atom_type": "SENTENCE", "md_parent_section": "§10.F [Representations and Warranties, Limitations of Liability, and Disclaimers]", "md_verbatim": "\"CDISC grants open public use of this User Guide (or Final Standards) under CDISC's copyright.\"", "score": 0.9, "match_basis": "verbatim_token+chapter_route:ch10"}, {"md_atom_id": "md_ch10_a248", "md_file": "knowledge_base/chapters/ch10_appendices.md", "md_atom_type": "SENTENCE", "md_parent_section": "§10.F [Representations and Warranties, Limitations of Liability, and Disclaimers]", "md_verbatim": "By publication of this standard, no position is taken with respect to the existence or validity of any claim or of any patent rights in connection therewith.", "score": 0.4, "match_basis": "verbatim_token+chapter_route:ch10"}, {"md_atom_id": "md_ch10_a068", "md_file": "knowledge_base/chapters/ch10_appendices.md", "md_atom_type": "SENTENCE", "md_parent_section": "§10.D [CDISC Variable-naming Fragments]", "md_verbatim": "The CDISC SDS group has defined a standard list of fragments to use as a guide when naming variables in SUPP-- datasets (as QNAM) or assigning --TESTCD values.", "score": 0.3957, "match_basis": "verbatim_token+chapter_route:ch10"}, {"md_atom_id": "md_ch10_a011", "md_file": "knowledge_base/chapters/ch10_appendices.md", "md_atom_type": "SENTENCE", "md_parent_section": "§10.B [Glossary and Abbreviations]", "md_verbatim": "Additional definitions can be found in the individual sections of this document (see esp. Section 7.1.2, Definitions of Trial Design Concepts) and in the CDISC Glossary (available at https://www.cdisc.org/standards/glossary).", "score": 0.3849, "match_basis": "verbatim_token+chapter_route:ch10"}, {"md_atom_id": "md_ch10_a247", "md_file": "knowledge_base/chapters/ch10_appendices.md", "md_atom_type": "SENTENCE", "md_parent_section": "§10.F [Representations and Warranties, Limitations of Liability, and Disclaimers]", "md_verbatim": "It is possible that implementation of and compliance with this standard may require use of subject matter covered by patent rights.", "score": 0.3774, "match_basis": "verbatim_token+chapter_route:ch10"}], "candidate_count": 5, "zero_candidate": false}
{"pdf_atom_id": "ig34_p0461_a008", "pdf_atom_type": "SENTENCE", "pdf_source": "SDTMIG_v3.4", "pdf_page": 461, "pdf_parent_section": "§10.F Appendix F: Representations and Warranties, Limitations of Liability, and Disclaimers", "pdf_verbatim": "Each Participant in the development of this standard shall be deemed to represent, warrant, and covenant, at the time of a Contribution by such Participant (or by its Representative), that to the best of its knowledge and ability: (a) it holds or has the right to grant all relevant licenses to any of its Contributions in all jurisdictions or territories in which it holds relevant intellectual property rights; (b) there are no limits to the Participant's ability to make the grants, acknowledgments, and agreements herein; and (c) the Contribution does not subject any Contribution, Draft Standard, Final Standard, or implementations thereof, in whole or in part, to licensing obligations with additional restrictions or requirements inconsistent with those set forth in this Policy, or that would require any such Contribution, Final Standard, or implementation, in whole or in part, to be either: (i) disclosed or distributed in source code form; (ii) licensed for the purpose of making derivative works (other than as set forth in Section 4.2 of the CDISC Intellectual Property Policy (\"the Policy\")); or (iii) distributed at no charge, except as set forth in Sections 3, 5.1, and 4.2 of the Policy.", "figure_ref": null, "candidates": [{"md_atom_id": "md_ch10_a252", "md_file": "knowledge_base/chapters/ch10_appendices.md", "md_atom_type": "SENTENCE", "md_parent_section": "§10.F [Representations and Warranties, Limitations of Liability, and Disclaimers]", "md_verbatim": "Each Participant in the development of this standard shall be deemed to represent, warrant, and covenant, at the time of a Contribution by such Participant (or by its Representative), that to the best of its knowledge and ability: (a) it holds or has the right to grant all relevant licenses to any of its Contributions in all jurisdictions or territories in which it holds relevant intellectual property rights; (b) there are no limits to the Participant's ability to make the grants, acknowledgments, and agreements herein; and (c) the Contribution does not subject any Contribution, Draft Standard, Final Standard, or implementations thereof, in whole or in part, to licensing obligations with additional restrictions or requirements inconsistent with those set forth in the CDISC Intellectual Property Policy (\"the Policy\"), or that would require any such Contribution, Final Standard, or implementation, in whole or in part, to be either: (i) disclosed or distributed in source code form; (ii) licensed for the purpose of making derivative works (other than as set forth in Section 4.2 of the CDISC Intellectual Property Policy); or (iii) distributed at no charge, except as set forth in Sections 3, 5.1, and 4.2 of the Policy.", "score": 0.9, "match_basis": "verbatim_token+chapter_route:ch10"}, {"md_atom_id": "md_ch10_a255", "md_file": "knowledge_base/chapters/ch10_appendices.md", "md_atom_type": "SENTENCE", "md_parent_section": "§10.F [Representations and Warranties, Limitations of Liability, and Disclaimers]", "md_verbatim": "ALL PARTICIPANTS ACKNOWLEDGE THAT, EXCEPT AS PROVIDED UNDER SECTION 9.3 OF THE CDISC INTELLECTUAL PROPERTY POLICY, ALL DRAFT STANDARDS AND FINAL STANDARDS, AND ALL CONTRIBUTIONS TO FINAL STANDARDS AND DRAFT STANDARDS, ARE PROVIDED \"AS IS\" WITH NO WARRANTIES WHATSOEVER, WHETHER EXPRESS, IMPLIED, STATUTORY, OR OTHERWISE, AND THE PARTICIPANTS, REPRESENTATIVES, THE CDISC PRESIDENT, THE CDISC BOARD OF DIRECTORS, AND CDISC EXPRESSLY DISCLAIM ANY WARRANTY OF MERCHANTABILITY, NONINFRINGEMENT, FITNESS FOR ANY PARTICULAR OR INTENDED PURPOSE, OR ANY OTHER WARRANTY OTHERWISE ARISING OUT OF ANY PROPOSAL, FINAL STANDARDS OR DRAFT STANDARDS, OR CONTRIBUTION.", "score": 0.515, "match_basis": "verbatim_token+chapter_route:ch10"}, {"md_atom_id": "md_ch10_a253", "md_file": "knowledge_base/chapters/ch10_appendices.md", "md_atom_type": "SENTENCE", "md_parent_section": "§10.F [Representations and Warranties, Limitations of Liability, and Disclaimers]", "md_verbatim": "If a Participant has knowledge that a Contribution made by any Participant or any other party may subject any Contribution, Draft Standard, Final Standard, or implementation, in whole or in part, to one or more of the licensing obligations listed in Section 9.3, such Participant shall give prompt notice of the same to the CDISC President who shall promptly notify all Participants.", "score": 0.4979, "match_basis": "verbatim_token+chapter_route:ch10"}, {"md_atom_id": "md_ch10_a257", "md_file": "knowledge_base/chapters/ch10_appendices.md", "md_atom_type": "SENTENCE", "md_parent_section": "§10.F [Representations and Warranties, Limitations of Liability, and Disclaimers]", "md_verbatim": "IN NO EVENT WILL CDISC OR ANY OF ITS CONSTITUENT PARTS (INCLUDING, BUT NOT LIMITED TO, THE CDISC BOARD OF DIRECTORS, THE CDISC PRESIDENT, CDISC STAFF, AND CDISC MEMBERS) BE LIABLE TO ANY OTHER PERSON OR ENTITY FOR ANY LOSS OF PROFITS, LOSS OF USE, DIRECT, INDIRECT, INCIDENTAL, CONSEQUENTIAL, OR SPECIAL DAMAGES, WHETHER ARISING UNDER CONTRACT, TORT, WARRANTY, OR OTHERWISE, ARISING IN ANY WAY OUT OF THIS POLICY OR ANY RELATED AGREEMENT, WHETHER OR NOT SUCH PARTY HAD ADVANCE NOTICE OF THE POSSIBILITY OF SUCH DAMAGES.", "score": 0.4217, "match_basis": "verbatim_token+chapter_route:ch10"}, {"md_atom_id": "md_ch10_a249", "md_file": "knowledge_base/chapters/ch10_appendices.md", "md_atom_type": "SENTENCE", "md_parent_section": "§10.F [Representations and Warranties, Limitations of Liability, and Disclaimers]", "md_verbatim": "CDISC, including the CDISC Board of Directors, shall not be responsible for identifying patents for which a license may be required in order to implement this standard or for conducting inquiries into the legal validity or scope of those patents or patent claims that are brought to its attention.", "score": 0.4193, "match_basis": "verbatim_token+chapter_route:ch10"}], "candidate_count": 5, "zero_candidate": false}
{"pdf_atom_id": "ig34_p0461_a009", "pdf_atom_type": "SENTENCE", "pdf_source": "SDTMIG_v3.4", "pdf_page": 461, "pdf_parent_section": "§10.F Appendix F: Representations and Warranties, Limitations of Liability, and Disclaimers", "pdf_verbatim": "If a Participant has knowledge that a Contribution made by any Participant or any other party may subject any Contribution, Draft Standard, Final Standard, or implementation, in whole or in part, to one or more of the licensing obligations listed in Section 9.3, such Participant shall give prompt notice of the same to the CDISC President who shall promptly notify all Participants.", "figure_ref": null, "candidates": [{"md_atom_id": "md_ch10_a253", "md_file": "knowledge_base/chapters/ch10_appendices.md", "md_atom_type": "SENTENCE", "md_parent_section": "§10.F [Representations and Warranties, Limitations of Liability, and Disclaimers]", "md_verbatim": "If a Participant has knowledge that a Contribution made by any Participant or any other party may subject any Contribution, Draft Standard, Final Standard, or implementation, in whole or in part, to one or more of the licensing obligations listed in Section 9.3, such Participant shall give prompt notice of the same to the CDISC President who shall promptly notify all Participants.", "score": 0.9, "match_basis": "verbatim_token+chapter_route:ch10"}, {"md_atom_id": "md_ch10_a252", "md_file": "knowledge_base/chapters/ch10_appendices.md", "md_atom_type": "SENTENCE", "md_parent_section": "§10.F [Representations and Warranties, Limitations of Liability, and Disclaimers]", "md_verbatim": "Each Participant in the development of this standard shall be deemed to represent, warrant, and covenant, at the time of a Contribution by such Participant (or by its Representative), that to the best of its knowledge and ability: (a) it holds or has the right to grant all relevant licenses to any of its Contributions in all jurisdictions or territories in which it holds relevant intellectual property rights; (b) there are no limits to the Participant's ability to make the grants, acknowledgments, and agreements herein; and (c) the Contribution does not subject any Contribution, Draft Standard, Final Standard, or implementations thereof, in whole or in part, to licensing obligations with additional restrictions or requirements inconsistent with those set forth in the CDISC Intellectual Property Policy (\"the Policy\"), or that would require any such Contribution, Final Standard, or implementation, in whole or in part, to be either: (i) disclosed or distributed in source code form; (ii) licensed for the purpose of making derivative works (other than as set forth in Section 4.2 of the CDISC Intellectual Property Policy); or (iii) distributed at no charge, except as set forth in Sections 3, 5.1, and 4.2 of the Policy.", "score": 0.4979, "match_basis": "verbatim_token+chapter_route:ch10"}, {"md_atom_id": "md_ch10_a255", "md_file": "knowledge_base/chapters/ch10_appendices.md", "md_atom_type": "SENTENCE", "md_parent_section": "§10.F [Representations and Warranties, Limitations of Liability, and Disclaimers]", "md_verbatim": "ALL PARTICIPANTS ACKNOWLEDGE THAT, EXCEPT AS PROVIDED UNDER SECTION 9.3 OF THE CDISC INTELLECTUAL PROPERTY POLICY, ALL DRAFT STANDARDS AND FINAL STANDARDS, AND ALL CONTRIBUTIONS TO FINAL STANDARDS AND DRAFT STANDARDS, ARE PROVIDED \"AS IS\" WITH NO WARRANTIES WHATSOEVER, WHETHER EXPRESS, IMPLIED, STATUTORY, OR OTHERWISE, AND THE PARTICIPANTS, REPRESENTATIVES, THE CDISC PRESIDENT, THE CDISC BOARD OF DIRECTORS, AND CDISC EXPRESSLY DISCLAIM ANY WARRANTY OF MERCHANTABILITY, NONINFRINGEMENT, FITNESS FOR ANY PARTICULAR OR INTENDED PURPOSE, OR ANY OTHER WARRANTY OTHERWISE ARISING OUT OF ANY PROPOSAL, FINAL STANDARDS OR DRAFT STANDARDS, OR CONTRIBUTION.", "score": 0.478, "match_basis": "verbatim_token+chapter_route:ch10"}, {"md_atom_id": "md_ch10_a249", "md_file": "knowledge_base/chapters/ch10_appendices.md", "md_atom_type": "SENTENCE", "md_parent_section": "§10.F [Representations and Warranties, Limitations of Liability, and Disclaimers]", "md_verbatim": "CDISC, including the CDISC Board of Directors, shall not be responsible for identifying patents for which a license may be required in order to implement this standard or for conducting inquiries into the legal validity or scope of those patents or patent claims that are brought to its attention.", "score": 0.4266, "match_basis": "verbatim_token+chapter_route:ch10"}, {"md_atom_id": "md_ch10_a247", "md_file": "knowledge_base/chapters/ch10_appendices.md", "md_atom_type": "SENTENCE", "md_parent_section": "§10.F [Representations and Warranties, Limitations of Liability, and Disclaimers]", "md_verbatim": "It is possible that implementation of and compliance with this standard may require use of subject matter covered by patent rights.", "score": 0.4038, "match_basis": "verbatim_token+chapter_route:ch10"}], "candidate_count": 5, "zero_candidate": false}
{"pdf_atom_id": "ig34_p0461_a010", "pdf_atom_type": "HEADING", "pdf_source": "SDTMIG_v3.4", "pdf_page": 461, "pdf_parent_section": "§10.F Appendix F: Representations and Warranties, Limitations of Liability, and Disclaimers", "pdf_verbatim": "No Other Warranties/Disclaimers", "figure_ref": null, "candidates": [{"md_atom_id": "md_ch10_a254", "md_file": "knowledge_base/chapters/ch10_appendices.md", "md_atom_type": "HEADING", "md_parent_section": "§10.F [Representations and Warranties, Limitations of Liability, and Disclaimers]", "md_verbatim": "### No Other Warranties/Disclaimers", "score": 0.9, "match_basis": "verbatim_token+chapter_route:ch10"}, {"md_atom_id": "md_ch10_a246", "md_file": "knowledge_base/chapters/ch10_appendices.md", "md_atom_type": "HEADING", "md_parent_section": "§10.F [Representations and Warranties, Limitations of Liability, and Disclaimers]", "md_verbatim": "### CDISC Patent Disclaimers", "score": 0.516, "match_basis": "verbatim_token+chapter_route:ch10"}, {"md_atom_id": "md_ch10_a245", "md_file": "knowledge_base/chapters/ch10_appendices.md", "md_atom_type": "HEADING", "md_parent_section": "§10 [Appendices]", "md_verbatim": "## Appendix F: Representations and Warranties, Limitations of Liability, and Disclaimers", "score": 0.5, "match_basis": "verbatim_token+chapter_route:ch10"}, {"md_atom_id": "md_ch10_a250", "md_file": "knowledge_base/chapters/ch10_appendices.md", "md_atom_type": "HEADING", "md_parent_section": "§10.F [Representations and Warranties, Limitations of Liability, and Disclaimers]", "md_verbatim": "### Representations and Warranties", "score": 0.4412, "match_basis": "verbatim_token+chapter_route:ch10"}, {"md_atom_id": "md_ch10_a003", "md_file": "knowledge_base/chapters/ch10_appendices.md", "md_atom_type": "HEADING", "md_parent_section": "§10 [Appendices]", "md_verbatim": "## Appendix A: CDISC SDS Team", "score": 0.34, "match_basis": "verbatim_token+chapter_route:ch10"}], "candidate_count": 5, "zero_candidate": false}
{"pdf_atom_id": "ig34_p0461_a011", "pdf_atom_type": "SENTENCE", "pdf_source": "SDTMIG_v3.4", "pdf_page": 461, "pdf_parent_section": "§10.F Appendix F: Representations and Warranties, Limitations of Liability, and Disclaimers", "pdf_verbatim": "ALL PARTICIPANTS ACKNOWLEDGE THAT, EXCEPT AS PROVIDED UNDER SECTION 9.3 OF THE CDISC INTELLECTUAL PROPERTY POLICY, ALL DRAFT STANDARDS AND FINAL STANDARDS, AND ALL CONTRIBUTIONS TO FINAL STANDARDS AND DRAFT STANDARDS, ARE PROVIDED \"AS IS\" WITH NO WARRANTIES WHATSOEVER, WHETHER EXPRESS, IMPLIED, STATUTORY, OR OTHERWISE, AND THE PARTICIPANTS, REPRESENTATIVES, THE CDISC PRESIDENT, THE CDISC BOARD OF DIRECTORS, AND CDISC EXPRESSLY DISCLAIM ANY WARRANTY OF MERCHANTABILITY, NONINFRINGEMENT, FITNESS FOR ANY PARTICULAR OR INTENDED PURPOSE, OR ANY OTHER WARRANTY OTHERWISE ARISING OUT OF ANY PROPOSAL, FINAL STANDARDS OR DRAFT STANDARDS, OR CONTRIBUTION.", "figure_ref": null, "candidates": [{"md_atom_id": "md_ch10_a255", "md_file": "knowledge_base/chapters/ch10_appendices.md", "md_atom_type": "SENTENCE", "md_parent_section": "§10.F [Representations and Warranties, Limitations of Liability, and Disclaimers]", "md_verbatim": "ALL PARTICIPANTS ACKNOWLEDGE THAT, EXCEPT AS PROVIDED UNDER SECTION 9.3 OF THE CDISC INTELLECTUAL PROPERTY POLICY, ALL DRAFT STANDARDS AND FINAL STANDARDS, AND ALL CONTRIBUTIONS TO FINAL STANDARDS AND DRAFT STANDARDS, ARE PROVIDED \"AS IS\" WITH NO WARRANTIES WHATSOEVER, WHETHER EXPRESS, IMPLIED, STATUTORY, OR OTHERWISE, AND THE PARTICIPANTS, REPRESENTATIVES, THE CDISC PRESIDENT, THE CDISC BOARD OF DIRECTORS, AND CDISC EXPRESSLY DISCLAIM ANY WARRANTY OF MERCHANTABILITY, NONINFRINGEMENT, FITNESS FOR ANY PARTICULAR OR INTENDED PURPOSE, OR ANY OTHER WARRANTY OTHERWISE ARISING OUT OF ANY PROPOSAL, FINAL STANDARDS OR DRAFT STANDARDS, OR CONTRIBUTION.", "score": 0.9, "match_basis": "verbatim_token+chapter_route:ch10"}, {"md_atom_id": "md_ch10_a252", "md_file": "knowledge_base/chapters/ch10_appendices.md", "md_atom_type": "SENTENCE", "md_parent_section": "§10.F [Representations and Warranties, Limitations of Liability, and Disclaimers]", "md_verbatim": "Each Participant in the development of this standard shall be deemed to represent, warrant, and covenant, at the time of a Contribution by such Participant (or by its Representative), that to the best of its knowledge and ability: (a) it holds or has the right to grant all relevant licenses to any of its Contributions in all jurisdictions or territories in which it holds relevant intellectual property rights; (b) there are no limits to the Participant's ability to make the grants, acknowledgments, and agreements herein; and (c) the Contribution does not subject any Contribution, Draft Standard, Final Standard, or implementations thereof, in whole or in part, to licensing obligations with additional restrictions or requirements inconsistent with those set forth in the CDISC Intellectual Property Policy (\"the Policy\"), or that would require any such Contribution, Final Standard, or implementation, in whole or in part, to be either: (i) disclosed or distributed in source code form; (ii) licensed for the purpose of making derivative works (other than as set forth in Section 4.2 of the CDISC Intellectual Property Policy); or (iii) distributed at no charge, except as set forth in Sections 3, 5.1, and 4.2 of the Policy.", "score": 0.515, "match_basis": "verbatim_token+chapter_route:ch10"}, {"md_atom_id": "md_ch10_a253", "md_file": "knowledge_base/chapters/ch10_appendices.md", "md_atom_type": "SENTENCE", "md_parent_section": "§10.F [Representations and Warranties, Limitations of Liability, and Disclaimers]", "md_verbatim": "If a Participant has knowledge that a Contribution made by any Participant or any other party may subject any Contribution, Draft Standard, Final Standard, or implementation, in whole or in part, to one or more of the licensing obligations listed in Section 9.3, such Participant shall give prompt notice of the same to the CDISC President who shall promptly notify all Participants.", "score": 0.478, "match_basis": "verbatim_token+chapter_route:ch10"}, {"md_atom_id": "md_ch10_a257", "md_file": "knowledge_base/chapters/ch10_appendices.md", "md_atom_type": "SENTENCE", "md_parent_section": "§10.F [Representations and Warranties, Limitations of Liability, and Disclaimers]", "md_verbatim": "IN NO EVENT WILL CDISC OR ANY OF ITS CONSTITUENT PARTS (INCLUDING, BUT NOT LIMITED TO, THE CDISC BOARD OF DIRECTORS, THE CDISC PRESIDENT, CDISC STAFF, AND CDISC MEMBERS) BE LIABLE TO ANY OTHER PERSON OR ENTITY FOR ANY LOSS OF PROFITS, LOSS OF USE, DIRECT, INDIRECT, INCIDENTAL, CONSEQUENTIAL, OR SPECIAL DAMAGES, WHETHER ARISING UNDER CONTRACT, TORT, WARRANTY, OR OTHERWISE, ARISING IN ANY WAY OUT OF THIS POLICY OR ANY RELATED AGREEMENT, WHETHER OR NOT SUCH PARTY HAD ADVANCE NOTICE OF THE POSSIBILITY OF SUCH DAMAGES.", "score": 0.4552, "match_basis": "verbatim_token+chapter_route:ch10"}, {"md_atom_id": "md_ch10_a249", "md_file": "knowledge_base/chapters/ch10_appendices.md", "md_atom_type": "SENTENCE", "md_parent_section": "§10.F [Representations and Warranties, Limitations of Liability, and Disclaimers]", "md_verbatim": "CDISC, including the CDISC Board of Directors, shall not be responsible for identifying patents for which a license may be required in order to implement this standard or for conducting inquiries into the legal validity or scope of those patents or patent claims that are brought to its attention.", "score": 0.4121, "match_basis": "verbatim_token+chapter_route:ch10"}], "candidate_count": 5, "zero_candidate": false}
{"pdf_atom_id": "ig34_p0461_a012", "pdf_atom_type": "HEADING", "pdf_source": "SDTMIG_v3.4", "pdf_page": 461, "pdf_parent_section": "§10.F Appendix F: Representations and Warranties, Limitations of Liability, and Disclaimers", "pdf_verbatim": "Limitation of Liability", "figure_ref": null, "candidates": [{"md_atom_id": "md_ch10_a256", "md_file": "knowledge_base/chapters/ch10_appendices.md", "md_atom_type": "HEADING", "md_parent_section": "§10.F [Representations and Warranties, Limitations of Liability, and Disclaimers]", "md_verbatim": "### Limitation of Liability", "score": 0.9, "match_basis": "verbatim_token+chapter_route:ch10"}, {"md_atom_id": "md_ch10_a245", "md_file": "knowledge_base/chapters/ch10_appendices.md", "md_atom_type": "HEADING", "md_parent_section": "§10 [Appendices]", "md_verbatim": "## Appendix F: Representations and Warranties, Limitations of Liability, and Disclaimers", "score": 0.4875, "match_basis": "verbatim_token+chapter_route:ch10"}, {"md_atom_id": "md_ch10_a250", "md_file": "knowledge_base/chapters/ch10_appendices.md", "md_atom_type": "HEADING", "md_parent_section": "§10.F [Representations and Warranties, Limitations of Liability, and Disclaimers]", "md_verbatim": "### Representations and Warranties", "score": 0.3727, "match_basis": "verbatim_token+chapter_route:ch10"}, {"md_atom_id": "md_ch10_a009", "md_file": "knowledge_base/chapters/ch10_appendices.md", "md_atom_type": "HEADING", "md_parent_section": "§10 [Appendices]", "md_verbatim": "## Appendix B: Glossary and Abbreviations", "score": 0.35, "match_basis": "verbatim_token+chapter_route:ch10"}, {"md_atom_id": "md_ch10_a168", "md_file": "knowledge_base/chapters/ch10_appendices.md", "md_atom_type": "HEADING", "md_parent_section": "§10.E [Revision History]", "md_verbatim": "### Key Section-by-Section Changes", "score": 0.35, "match_basis": "verbatim_token+chapter_route:ch10"}], "candidate_count": 5, "zero_candidate": false}
{"pdf_atom_id": "ig34_p0461_a013", "pdf_atom_type": "SENTENCE", "pdf_source": "SDTMIG_v3.4", "pdf_page": 461, "pdf_parent_section": "§10.F Appendix F: Representations and Warranties, Limitations of Liability, and Disclaimers", "pdf_verbatim": "IN NO EVENT WILL CDISC OR ANY OF ITS CONSTITUENT PARTS (INCLUDING, BUT NOT LIMITED TO, THE CDISC BOARD OF DIRECTORS, THE CDISC PRESIDENT, CDISC STAFF, AND CDISC MEMBERS) BE LIABLE TO ANY OTHER PERSON OR ENTITY FOR ANY LOSS OF PROFITS, LOSS OF USE, DIRECT, INDIRECT, INCIDENTAL, CONSEQUENTIAL, OR SPECIAL DAMAGES, WHETHER UNDER CONTRACT, TORT, WARRANTY, OR OTHERWISE, ARISING IN ANY WAY OUT OF THIS POLICY OR ANY RELATED AGREEMENT, WHETHER OR NOT SUCH PARTY HAD ADVANCE NOTICE OF THE POSSIBILITY OF SUCH DAMAGES.", "figure_ref": null, "candidates": [{"md_atom_id": "md_ch10_a257", "md_file": "knowledge_base/chapters/ch10_appendices.md", "md_atom_type": "SENTENCE", "md_parent_section": "§10.F [Representations and Warranties, Limitations of Liability, and Disclaimers]", "md_verbatim": "IN NO EVENT WILL CDISC OR ANY OF ITS CONSTITUENT PARTS (INCLUDING, BUT NOT LIMITED TO, THE CDISC BOARD OF DIRECTORS, THE CDISC PRESIDENT, CDISC STAFF, AND CDISC MEMBERS) BE LIABLE TO ANY OTHER PERSON OR ENTITY FOR ANY LOSS OF PROFITS, LOSS OF USE, DIRECT, INDIRECT, INCIDENTAL, CONSEQUENTIAL, OR SPECIAL DAMAGES, WHETHER ARISING UNDER CONTRACT, TORT, WARRANTY, OR OTHERWISE, ARISING IN ANY WAY OUT OF THIS POLICY OR ANY RELATED AGREEMENT, WHETHER OR NOT SUCH PARTY HAD ADVANCE NOTICE OF THE POSSIBILITY OF SUCH DAMAGES.", "score": 0.9, "match_basis": "verbatim_token+chapter_route:ch10"}, {"md_atom_id": "md_ch10_a255", "md_file": "knowledge_base/chapters/ch10_appendices.md", "md_atom_type": "SENTENCE", "md_parent_section": "§10.F [Representations and Warranties, Limitations of Liability, and Disclaimers]", "md_verbatim": "ALL PARTICIPANTS ACKNOWLEDGE THAT, EXCEPT AS PROVIDED UNDER SECTION 9.3 OF THE CDISC INTELLECTUAL PROPERTY POLICY, ALL DRAFT STANDARDS AND FINAL STANDARDS, AND ALL CONTRIBUTIONS TO FINAL STANDARDS AND DRAFT STANDARDS, ARE PROVIDED \"AS IS\" WITH NO WARRANTIES WHATSOEVER, WHETHER EXPRESS, IMPLIED, STATUTORY, OR OTHERWISE, AND THE PARTICIPANTS, REPRESENTATIVES, THE CDISC PRESIDENT, THE CDISC BOARD OF DIRECTORS, AND CDISC EXPRESSLY DISCLAIM ANY WARRANTY OF MERCHANTABILITY, NONINFRINGEMENT, FITNESS FOR ANY PARTICULAR OR INTENDED PURPOSE, OR ANY OTHER WARRANTY OTHERWISE ARISING OUT OF ANY PROPOSAL, FINAL STANDARDS OR DRAFT STANDARDS, OR CONTRIBUTION.", "score": 0.4552, "match_basis": "verbatim_token+chapter_route:ch10"}, {"md_atom_id": "md_ch10_a252", "md_file": "knowledge_base/chapters/ch10_appendices.md", "md_atom_type": "SENTENCE", "md_parent_section": "§10.F [Representations and Warranties, Limitations of Liability, and Disclaimers]", "md_verbatim": "Each Participant in the development of this standard shall be deemed to represent, warrant, and covenant, at the time of a Contribution by such Participant (or by its Representative), that to the best of its knowledge and ability: (a) it holds or has the right to grant all relevant licenses to any of its Contributions in all jurisdictions or territories in which it holds relevant intellectual property rights; (b) there are no limits to the Participant's ability to make the grants, acknowledgments, and agreements herein; and (c) the Contribution does not subject any Contribution, Draft Standard, Final Standard, or implementations thereof, in whole or in part, to licensing obligations with additional restrictions or requirements inconsistent with those set forth in the CDISC Intellectual Property Policy (\"the Policy\"), or that would require any such Contribution, Final Standard, or implementation, in whole or in part, to be either: (i) disclosed or distributed in source code form; (ii) licensed for the purpose of making derivative works (other than as set forth in Section 4.2 of the CDISC Intellectual Property Policy); or (iii) distributed at no charge, except as set forth in Sections 3, 5.1, and 4.2 of the Policy.", "score": 0.4217, "match_basis": "verbatim_token+chapter_route:ch10"}, {"md_atom_id": "md_ch10_a249", "md_file": "knowledge_base/chapters/ch10_appendices.md", "md_atom_type": "SENTENCE", "md_parent_section": "§10.F [Representations and Warranties, Limitations of Liability, and Disclaimers]", "md_verbatim": "CDISC, including the CDISC Board of Directors, shall not be responsible for identifying patents for which a license may be required in order to implement this standard or for conducting inquiries into the legal validity or scope of those patents or patent claims that are brought to its attention.", "score": 0.4145, "match_basis": "verbatim_token+chapter_route:ch10"}, {"md_atom_id": "md_ch10_a253", "md_file": "knowledge_base/chapters/ch10_appendices.md", "md_atom_type": "SENTENCE", "md_parent_section": "§10.F [Representations and Warranties, Limitations of Liability, and Disclaimers]", "md_verbatim": "If a Participant has knowledge that a Contribution made by any Participant or any other party may subject any Contribution, Draft Standard, Final Standard, or implementation, in whole or in part, to one or more of the licensing obligations listed in Section 9.3, such Participant shall give prompt notice of the same to the CDISC President who shall promptly notify all Participants.", "score": 0.4021, "match_basis": "verbatim_token+chapter_route:ch10"}], "candidate_count": 5, "zero_candidate": false}
{"pdf_atom_id": "ig34_p0461_a014", "pdf_atom_type": "NOTE", "pdf_source": "SDTMIG_v3.4", "pdf_page": 461, "pdf_parent_section": "§10.F Appendix F: Representations and Warranties, Limitations of Liability, and Disclaimers", "pdf_verbatim": "Note: The CDISC Intellectual Property Policy can be found at http://www.cdisc.org/system/files/all/article/application/pdf/cdisc_20ip_20policy_final.pdf", "figure_ref": null, "candidates": [{"md_atom_id": "md_ch10_a258", "md_file": "knowledge_base/chapters/ch10_appendices.md", "md_atom_type": "SENTENCE", "md_parent_section": "§10.F [Representations and Warranties, Limitations of Liability, and Disclaimers]", "md_verbatim": "Note: The CDISC Intellectual Property Policy can be found at http://www.cdisc.org/system/files/all/article/application/pdf/cdisc_20ip_20policy_final.pdf", "score": 0.81, "match_basis": "verbatim_token+chapter_route:ch10"}, {"md_atom_id": "md_ch10_a255", "md_file": "knowledge_base/chapters/ch10_appendices.md", "md_atom_type": "SENTENCE", "md_parent_section": "§10.F [Representations and Warranties, Limitations of Liability, and Disclaimers]", "md_verbatim": "ALL PARTICIPANTS ACKNOWLEDGE THAT, EXCEPT AS PROVIDED UNDER SECTION 9.3 OF THE CDISC INTELLECTUAL PROPERTY POLICY, ALL DRAFT STANDARDS AND FINAL STANDARDS, AND ALL CONTRIBUTIONS TO FINAL STANDARDS AND DRAFT STANDARDS, ARE PROVIDED \"AS IS\" WITH NO WARRANTIES WHATSOEVER, WHETHER EXPRESS, IMPLIED, STATUTORY, OR OTHERWISE, AND THE PARTICIPANTS, REPRESENTATIVES, THE CDISC PRESIDENT, THE CDISC BOARD OF DIRECTORS, AND CDISC EXPRESSLY DISCLAIM ANY WARRANTY OF MERCHANTABILITY, NONINFRINGEMENT, FITNESS FOR ANY PARTICULAR OR INTENDED PURPOSE, OR ANY OTHER WARRANTY OTHERWISE ARISING OUT OF ANY PROPOSAL, FINAL STANDARDS OR DRAFT STANDARDS, OR CONTRIBUTION.", "score": 0.3047, "match_basis": "verbatim_token+chapter_route:ch10"}, {"md_atom_id": "md_ch10_a011", "md_file": "knowledge_base/chapters/ch10_appendices.md", "md_atom_type": "SENTENCE", "md_parent_section": "§10.B [Glossary and Abbreviations]", "md_verbatim": "Additional definitions can be found in the individual sections of this document (see esp. Section 7.1.2, Definitions of Trial Design Concepts) and in the CDISC Glossary (available at https://www.cdisc.org/standards/glossary).", "score": 0.2957, "match_basis": "verbatim_token+chapter_route:ch10"}, {"md_atom_id": "md_ch10_a253", "md_file": "knowledge_base/chapters/ch10_appendices.md", "md_atom_type": "SENTENCE", "md_parent_section": "§10.F [Representations and Warranties, Limitations of Liability, and Disclaimers]", "md_verbatim": "If a Participant has knowledge that a Contribution made by any Participant or any other party may subject any Contribution, Draft Standard, Final Standard, or implementation, in whole or in part, to one or more of the licensing obligations listed in Section 9.3, such Participant shall give prompt notice of the same to the CDISC President who shall promptly notify all Participants.", "score": 0.2845, "match_basis": "verbatim_token+chapter_route:ch10"}, {"md_atom_id": "md_ch10_a252", "md_file": "knowledge_base/chapters/ch10_appendices.md", "md_atom_type": "SENTENCE", "md_parent_section": "§10.F [Representations and Warranties, Limitations of Liability, and Disclaimers]", "md_verbatim": "Each Participant in the development of this standard shall be deemed to represent, warrant, and covenant, at the time of a Contribution by such Participant (or by its Representative), that to the best of its knowledge and ability: (a) it holds or has the right to grant all relevant licenses to any of its Contributions in all jurisdictions or territories in which it holds relevant intellectual property rights; (b) there are no limits to the Participant's ability to make the grants, acknowledgments, and agreements herein; and (c) the Contribution does not subject any Contribution, Draft Standard, Final Standard, or implementations thereof, in whole or in part, to licensing obligations with additional restrictions or requirements inconsistent with those set forth in the CDISC Intellectual Property Policy (\"the Policy\"), or that would require any such Contribution, Final Standard, or implementation, in whole or in part, to be either: (i) disclosed or distributed in source code form; (ii) licensed for the purpose of making derivative works (other than as set forth in Section 4.2 of the CDISC Intellectual Property Policy); or (iii) distributed at no charge, except as set forth in Sections 3, 5.1, and 4.2 of the Policy.", "score": 0.283, "match_basis": "verbatim_token+chapter_route:ch10"}], "candidate_count": 5, "zero_candidate": false}
{"pdf_atom_id": "sv20_p0001_a001", "pdf_atom_type": "HEADING", "pdf_source": "SDTM_v2.0", "pdf_page": 1, "pdf_parent_section": "§0 [Cover]", "pdf_verbatim": "Study Data Tabulation Model", "figure_ref": null, "candidates": [{"md_atom_id": "md_ch04_a007", "md_file": "knowledge_base/chapters/ch04_general_assumptions.md", "md_atom_type": "HEADING", "md_parent_section": "§4.1 [General Domain Assumptions]", "md_verbatim": "### 4.1.1 Review Study Data Tabulation Model and Implementation Guide", "score": 0.5909, "match_basis": "verbatim_token+global_search"}, {"md_atom_id": "md_dmRELREC_ex_a033", "md_file": "knowledge_base/domains/RELREC/examples.md", "md_atom_type": "HEADING", "md_parent_section": "§RELREC [RELREC — Examples]", "md_verbatim": "## Dataset Relationship Example", "score": 0.42, "match_basis": "verbatim_token+global_search"}, {"md_atom_id": "md_model06_a101", "md_file": "knowledge_base/model/06_relationship_datasets.md", "md_atom_type": "HEADING", "md_parent_section": "§ Summary of Relationship Datasets", "md_verbatim": "## Summary of Relationship Datasets", "score": 0.4161, "match_basis": "verbatim_token+global_search"}, {"md_atom_id": "md_model05_a001", "md_file": "knowledge_base/model/05_study_level_data.md", "md_atom_type": "HEADING", "md_parent_section": "§ SDTM v2.0 — Chapter 5: Study-level Data", "md_verbatim": "# SDTM v2.0 — Chapter 5: Study-level Data", "score": 0.4154, "match_basis": "verbatim_token+global_search"}, {"md_atom_id": "md_ch04_a010", "md_file": "knowledge_base/chapters/ch04_general_assumptions.md", "md_atom_type": "HEADING", "md_parent_section": "§4.1 [General Domain Assumptions]", "md_verbatim": "### 4.1.2 Relationship to Analysis Datasets", "score": 0.4125, "match_basis": "verbatim_token+global_search"}], "candidate_count": 5, "zero_candidate": false}
{"pdf_atom_id": "sv20_p0001_a002", "pdf_atom_type": "SENTENCE", "pdf_source": "SDTM_v2.0", "pdf_page": 1, "pdf_parent_section": "§0 [Cover]", "pdf_verbatim": "Version 2.0 (Final)", "figure_ref": null, "candidates": [{"md_atom_id": "md_dmRS_ex_a047", "md_file": "knowledge_base/domains/RS/examples.md", "md_atom_type": "SENTENCE", "md_parent_section": "§RS.2.1 [Example 1]", "md_verbatim": "**Glasgow Coma Scale NINDS Version (GCS NINDS VERSION)**", "score": 0.4364, "match_basis": "verbatim_token+global_search"}, {"md_atom_id": "md_ch01_a006", "md_file": "knowledge_base/chapters/ch01_introduction.md", "md_atom_type": "SENTENCE", "md_parent_section": "§1.1 [Purpose]", "md_verbatim": "Version 3.4 supersedes all prior versions of the SDTMIG.", "score": 0.42, "match_basis": "verbatim_token+global_search"}, {"md_atom_id": "md_dmTI_ex_a004", "md_file": "knowledge_base/domains/TI/examples.md", "md_atom_type": "SENTENCE", "md_parent_section": "§TI.1 [Example 1]", "md_verbatim": "**Rows 1-3:** Show the 2 inclusion criteria and 1 exclusion criterion for version 1 of the protocol.", "score": 0.3857, "match_basis": "verbatim_token+global_search"}, {"md_atom_id": "md_ch03_a099", "md_file": "knowledge_base/chapters/ch03_submitting_data.md", "md_atom_type": "SENTENCE", "md_parent_section": "§3.2.1.1 [Primary Keys]", "md_verbatim": "**Definitions:**", "score": 0.38, "match_basis": "verbatim_token+global_search"}, {"md_atom_id": "md_dmRS_ex_a048", "md_file": "knowledge_base/domains/RS/examples.md", "md_atom_type": "SENTENCE", "md_parent_section": "§RS.2.1 [Example 1]", "md_verbatim": "The rs.xpt dataset represents the items from the GCS NINDS VERSION instrument.", "score": 0.3769, "match_basis": "verbatim_token+global_search"}], "candidate_count": 5, "zero_candidate": false}
{"pdf_atom_id": "sv20_p0001_a003", "pdf_atom_type": "SENTENCE", "pdf_source": "SDTM_v2.0", "pdf_page": 1, "pdf_parent_section": "§0 [Cover]", "pdf_verbatim": "Developed by the CDISC Submission Data Standards Team", "figure_ref": null, "candidates": [{"md_atom_id": "md_ch03_a108", "md_file": "knowledge_base/chapters/ch03_submitting_data.md", "md_atom_type": "SENTENCE", "md_parent_section": "§3.2.1.2 [CDISC Submission Value-level Metadata]", "md_verbatim": "For details on the CDISC Define-XML standard, see https://www.cdisc.org/standards/data-exchange/define-xml.", "score": 0.4472, "match_basis": "verbatim_token+global_search"}, {"md_atom_id": "md_ch04_a286", "md_file": "knowledge_base/chapters/ch04_general_assumptions.md", "md_atom_type": "SENTENCE", "md_parent_section": "§4.2.7.1 [\"Specify\" Values for Non-Result Qualifier Variables]", "md_verbatim": "Several options are available for submission of this data:", "score": 0.4347, "match_basis": "verbatim_token+global_search"}, {"md_atom_id": "md_ch01_a004", "md_file": "knowledge_base/chapters/ch01_introduction.md", "md_atom_type": "SENTENCE", "md_parent_section": "§1.1 [Purpose]", "md_verbatim": "The Study Data Tabulation Model Implementation Guide for Human Clinical Trials (SDTMIG) Version 3.4 has been prepared by the Submissions Data Standards (SDS) team of the Clinical Data Interchange Standards Consortium (CDISC).", "score": 0.434, "match_basis": "verbatim_token+global_search"}, {"md_atom_id": "md_ch02_a069", "md_file": "knowledge_base/chapters/ch02_fundamentals.md", "md_atom_type": "SENTENCE", "md_parent_section": "§2.5 [The SDTM Standard Domain Models]", "md_verbatim": "Therapeutic-area standards projects and other projects may develop proposals for additional domains.", "score": 0.4254, "match_basis": "verbatim_token+global_search"}, {"md_atom_id": "md_ch01_a026", "md_file": "knowledge_base/chapters/ch01_introduction.md", "md_atom_type": "SENTENCE", "md_parent_section": "§1.3 [Relationship to Prior CDISC Documents]", "md_verbatim": "Version 3.1 was the first fully implementation-ready version of the CDISC submission data standards that was directly referenced by the US FDA for use in human clinical studies involving drug products.", "score": 0.4235, "match_basis": "verbatim_token+global_search"}], "candidate_count": 5, "zero_candidate": false}
{"pdf_atom_id": "sv20_p0001_a004", "pdf_atom_type": "HEADING", "pdf_source": "SDTM_v2.0", "pdf_page": 1, "pdf_parent_section": "§0 [Cover]", "pdf_verbatim": "Notes to Readers", "figure_ref": null, "candidates": [{"md_atom_id": "md_ch04_a894", "md_file": "knowledge_base/chapters/ch04_general_assumptions.md", "md_atom_type": "HEADING", "md_parent_section": "§4.5.3 [Text Strings that Exceed the Maximum Length for General Observation-class Domain Variables]", "md_verbatim": "#### 4.5.3.1 Test Name (--TEST) Greater than 40 Characters", "score": 0.3783, "match_basis": "verbatim_token+global_search"}, {"md_atom_id": "md_ch01_a066", "md_file": "knowledge_base/chapters/ch01_introduction.md", "md_atom_type": "HEADING", "md_parent_section": "§1.4 [How to Read this Implementation Guide]", "md_verbatim": "### 1.4.1 How to Read a Domain Specification", "score": 0.35, "match_basis": "verbatim_token+global_search"}, {"md_atom_id": "md_ch01_a051", "md_file": "knowledge_base/chapters/ch01_introduction.md", "md_atom_type": "HEADING", "md_parent_section": "§1 [Introduction]", "md_verbatim": "## 1.4 How to Read this Implementation Guide", "score": 0.3462, "match_basis": "verbatim_token+global_search"}, {"md_atom_id": "md_ch08_a199", "md_file": "knowledge_base/chapters/ch08_relationships.md", "md_atom_type": "HEADING", "md_parent_section": "§8.4 [Relating Non-standard Variable Values to a Parent Domain]", "md_verbatim": "### 8.4.4 When Not to Use Supplemental Qualifiers", "score": 0.3429, "match_basis": "verbatim_token+global_search"}, {"md_atom_id": "md_dmSUPPQUAL_assn_a010", "md_file": "knowledge_base/domains/SUPPQUAL/assumptions.md", "md_atom_type": "HEADING", "md_parent_section": "§SUPPQUAL [SUPPQUAL — Assumptions]", "md_verbatim": "## When Not to Use Supplemental Qualifiers", "score": 0.3429, "match_basis": "verbatim_token+global_search"}], "candidate_count": 5, "zero_candidate": false}
{"pdf_atom_id": "sv20_p0001_a005", "pdf_atom_type": "LIST_ITEM", "pdf_source": "SDTM_v2.0", "pdf_page": 1, "pdf_parent_section": "§0 [Cover]", "pdf_verbatim": "This is the final Version 2.0 of the Study Data Tabulation Model Document (SDTM). This document includes additional variables related to the SDTM Implementation Guide (SDTMIG) Version 3.4, released concurrently.", "figure_ref": null, "candidates": [{"md_atom_id": "md_model04_a014", "md_file": "knowledge_base/model/04_associated_persons.md", "md_atom_type": "LIST_ITEM", "md_parent_section": "§4 [SDTM v2.0 — Chapter 4: Associated Persons Data]", "md_verbatim": "- Additional guidance for implementing AP domains is provided in the SDTM Implementation Guide: Associated Persons (SDTMIG-AP)", "score": 0.4582, "match_basis": "verbatim_token+global_search"}, {"md_atom_id": "md_index_a027", "md_file": "knowledge_base/INDEX.md", "md_atom_type": "LIST_ITEM", "md_parent_section": "§ Domains (63 domains)", "md_verbatim": "- **examples.md** — Implementation examples with data tables (from SDTMIG v3.4 PDF)", "score": 0.4467, "match_basis": "verbatim_token+global_search"}, {"md_atom_id": "md_ch08_a012", "md_file": "knowledge_base/chapters/ch08_relationships.md", "md_atom_type": "LIST_ITEM", "md_parent_section": "§8 [Representing Relationships and Data]", "md_verbatim": "- **Section 8.6**, How to Determine Where Data Belong in SDTM-Compliant Data Tabulations — the concept of related datasets and where to place additional data", "score": 0.4385, "match_basis": "verbatim_token+global_search"}, {"md_atom_id": "md_ch04_a066", "md_file": "knowledge_base/chapters/ch04_general_assumptions.md", "md_atom_type": "LIST_ITEM", "md_parent_section": "§4.1.7 [Splitting Domains]", "md_verbatim": "9. See the SDTM Implementation Guide: Associated Persons (https://www.cdisc.org/standards/foundational/sdtmig/) for the naming of split AP datasets.", "score": 0.4377, "match_basis": "verbatim_token+global_search"}, {"md_atom_id": "md_ch04_a039", "md_file": "knowledge_base/chapters/ch04_general_assumptions.md", "md_atom_type": "LIST_ITEM", "md_parent_section": "§4.1.5 [SDTM Core Designations]", "md_verbatim": "- If a study includes a data item that would be represented in a Permissible variable, then that variable must be included in the SDTM dataset, even if null. Indicate no data were available for that variable in the Define-XML document.", "score": 0.4374, "match_basis": "verbatim_token+global_search"}], "candidate_count": 5, "zero_candidate": false}
{"pdf_atom_id": "sv20_p0001_a006", "pdf_atom_type": "LIST_ITEM", "pdf_source": "SDTM_v2.0", "pdf_page": 1, "pdf_parent_section": "§0 [Cover]", "pdf_verbatim": "A full description of all changes from the prior version is provided in Section 1.4, Significant Changes from Prior Versions, and Section 7, Changes from SDTM v1.8 to SDTM v2.0.", "figure_ref": null, "candidates": [{"md_atom_id": "md_ch10_a148", "md_file": "knowledge_base/chapters/ch10_appendices.md", "md_atom_type": "LIST_ITEM", "md_parent_section": "§10.E [Revision History]", "md_verbatim": "- Assumptions providing domain definitions removed (now in Description/Overview)", "score": 0.4169, "match_basis": "verbatim_token+global_search"}, {"md_atom_id": "md_dmAE_assn_a003", "md_file": "knowledge_base/domains/AE/assumptions.md", "md_atom_type": "LIST_ITEM", "md_parent_section": "§AE [AE — Assumptions]", "md_verbatim": "2. **AE description and coding**", "score": 0.4132, "match_basis": "verbatim_token+global_search"}, {"md_atom_id": "md_dmAG_assn_a010", "md_file": "knowledge_base/domains/AG/assumptions.md", "md_atom_type": "LIST_ITEM", "md_parent_section": "§AG [AG — Assumptions]", "md_verbatim": "3. AG description and coding", "score": 0.4132, "match_basis": "verbatim_token+global_search"}, {"md_atom_id": "md_dmDS_assn_a013", "md_file": "knowledge_base/domains/DS/assumptions.md", "md_atom_type": "LIST_ITEM", "md_parent_section": "§DS [DS — Assumptions]", "md_verbatim": "3. **DS description and coding**", "score": 0.4132, "match_basis": "verbatim_token+global_search"}, {"md_atom_id": "md_dmMH_assn_a003", "md_file": "knowledge_base/domains/MH/assumptions.md", "md_atom_type": "LIST_ITEM", "md_parent_section": "§MH [MH — Assumptions]", "md_verbatim": "2. **MH description and coding**", "score": 0.4132, "match_basis": "verbatim_token+global_search"}], "candidate_count": 5, "zero_candidate": false}
{"pdf_atom_id": "sv20_p0001_a007", "pdf_atom_type": "HEADING", "pdf_source": "SDTM_v2.0", "pdf_page": 1, "pdf_parent_section": "§0 [Cover]", "pdf_verbatim": "Revision History", "figure_ref": null, "candidates": [{"md_atom_id": "md_ch10_a136", "md_file": "knowledge_base/chapters/ch10_appendices.md", "md_atom_type": "HEADING", "md_parent_section": "§10 [Appendices]", "md_verbatim": "## Appendix E: Revision History", "score": 0.6882, "match_basis": "verbatim_token+global_search"}, {"md_atom_id": "md_varindex_a830", "md_file": "knowledge_base/VARIABLE_INDEX.md", "md_atom_type": "HEADING", "md_parent_section": "§ 二、领域专属变量（仅 1 个域，共 1499 个），按域分组", "md_verbatim": "### MH — Medical History (Events)", "score": 0.45, "match_basis": "verbatim_token+global_search"}, {"md_atom_id": "md_ch04_a509", "md_file": "knowledge_base/chapters/ch04_general_assumptions.md", "md_atom_type": "HEADING", "md_parent_section": "§4.4 [Actual and Relative Time Assumptions]", "md_verbatim": "### 4.4.2 Date/Time Precision", "score": 0.3947, "match_basis": "verbatim_token+global_search"}, {"md_atom_id": "md_model05_a083", "md_file": "knowledge_base/model/05_study_level_data.md", "md_atom_type": "HEADING", "md_parent_section": "§ Trial Visits (TV)", "md_verbatim": "### Trial Visits (TV)", "score": 0.375, "match_basis": "verbatim_token+global_search"}, {"md_atom_id": "md_model03_a123", "md_file": "knowledge_base/model/03_special_purpose_domains.md", "md_atom_type": "HEADING", "md_parent_section": "§ Subject Visits (SV)", "md_verbatim": "## Subject Visits (SV)", "score": 0.3667, "match_basis": "verbatim_token+global_search"}], "candidate_count": 5, "zero_candidate": false}
{"pdf_atom_id": "sv20_p0001_a008", "pdf_atom_type": "TABLE_HEADER", "pdf_source": "SDTM_v2.0", "pdf_page": 1, "pdf_parent_section": "§0 [Cover]", "pdf_verbatim": "Date | Version", "figure_ref": null, "candidates": [{"md_atom_id": "md_index_a137", "md_file": "knowledge_base/INDEX.md", "md_atom_type": "TABLE_HEADER", "md_parent_section": "§ Source Documents", "md_verbatim": "| Document | Version | Pages |\n|----------|---------|-------|", "score": 0.4875, "match_basis": "verbatim_token+global_search"}, {"md_atom_id": "md_dmEX_ex_a255", "md_file": "knowledge_base/domains/EX/examples.md", "md_atom_type": "TABLE_HEADER", "md_parent_section": "§EX.8 [Example 8]", "md_verbatim": "| First Dose Date | Last Dose Date |\n|-----------------|----------------|", "score": 0.3857, "match_basis": "verbatim_token+global_search"}, {"md_atom_id": "md_dmCE_ex_a028", "md_file": "knowledge_base/domains/CE/examples.md", "md_atom_type": "TABLE_HEADER", "md_parent_section": "§CE.2 [Example 2]", "md_verbatim": "| Event | | Date Started | Date Ended | Severity |\n|-------|---|-------------|-----------|----------|", "score": 0.3818, "match_basis": "verbatim_token+global_search"}, {"md_atom_id": "md_ch04_a518", "md_file": "knowledge_base/chapters/ch04_general_assumptions.md", "md_atom_type": "TABLE_HEADER", "md_parent_section": "§4.4.2 [Date/Time Precision]", "md_verbatim": "| # | Date and Time as Originally Recorded | Precision | ISO 8601 Date/Time |\n|---|--------------------------------------|-----------|-------------------|", "score": 0.3774, "match_basis": "verbatim_token+global_search"}, {"md_atom_id": "md_dmEX_ex_a039", "md_file": "knowledge_base/domains/EX/examples.md", "md_atom_type": "TABLE_ROW", "md_parent_section": "§EX.2 [Example 2]", "md_verbatim": "| Date | 2009-05-10 |", "score": 0.3733, "match_basis": "verbatim_token+global_search"}], "candidate_count": 5, "zero_candidate": false}
{"pdf_atom_id": "sv20_p0001_a009", "pdf_atom_type": "TABLE_ROW", "pdf_source": "SDTM_v2.0", "pdf_page": 1, "pdf_parent_section": "§0 [Cover]", "pdf_verbatim": "2021-11-29 | 2.0 Final", "figure_ref": null, "candidates": [{"md_atom_id": "md_index_a138", "md_file": "knowledge_base/INDEX.md", "md_atom_type": "TABLE_ROW", "md_parent_section": "§ Source Documents", "md_verbatim": "| SDTM (Study Data Tabulation Model) | v2.0 Final (2021-11-29) | 74 |", "score": 0.4304, "match_basis": "verbatim_token+global_search"}, {"md_atom_id": "md_ch04_a852", "md_file": "knowledge_base/chapters/ch04_general_assumptions.md", "md_atom_type": "TABLE_ROW", "md_parent_section": "§4.5.1.3 [Examples of Original and Standard Units and Test Not Done]", "md_verbatim": "| 5 | RBC | URINALYSIS | 2+ | | 2+ | | | | | 1 | 2016-02-01 |", "score": 0.3857, "match_basis": "verbatim_token+global_search"}, {"md_atom_id": "md_ch04_a851", "md_file": "knowledge_base/chapters/ch04_general_assumptions.md", "md_atom_type": "TABLE_ROW", "md_parent_section": "§4.5.1.3 [Examples of Original and Standard Units and Test Not Done]", "md_verbatim": "| 4 | RBC | URINALYSIS | TRACE | | TRACE | | | | | 1 | 2016-02-01 |", "score": 0.3706, "match_basis": "verbatim_token+global_search"}, {"md_atom_id": "md_ch10_a091", "md_file": "knowledge_base/chapters/ch10_appendices.md", "md_atom_type": "TABLE_ROW", "md_parent_section": "§10.D [CDISC Variable-naming Fragments]", "md_verbatim": "| CONGENITAL | CONG | | ORIGINAL | OR |", "score": 0.3706, "match_basis": "verbatim_token+global_search"}, {"md_atom_id": "md_varindex_a1441", "md_file": "knowledge_base/VARIABLE_INDEX.md", "md_atom_type": "TABLE_ROW", "md_parent_section": "§ 二、领域专属变量（仅 1 个域，共 1499 个），按域分组", "md_verbatim": "| SSORRES | Result or Finding Original Result | Char | Result Qualifier | Exp | — |", "score": 0.3581, "match_basis": "verbatim_token+global_search"}, {"md_atom_id": "md_ch04_a850", "md_file": "knowledge_base/chapters/ch04_general_assumptions.md", "md_atom_type": "TABLE_ROW", "md_parent_section": "§4.5.1.3 [Examples of Original and Standard Units and Test Not Done]", "md_verbatim": "| 3 | BACT | URINALYSIS | MODERATE | | MODERATE | | | | | 1 | 2016-02-01 |", "score": 0.3571, "match_basis": "verbatim_token+global_search"}, {"md_atom_id": "md_varindex_a158", "md_file": "knowledge_base/VARIABLE_INDEX.md", "md_atom_type": "TABLE_ROW", "md_parent_section": "§ 二、领域专属变量（仅 1 个域，共 1499 个），按域分组", "md_verbatim": "| BSORRES | Result or Finding in Original Units | Char | Result Qualifier | Exp | — |", "score": 0.3529, "match_basis": "verbatim_token+global_search"}, {"md_atom_id": "md_varindex_a278", "md_file": "knowledge_base/VARIABLE_INDEX.md", "md_atom_type": "TABLE_ROW", "md_parent_section": "§ 二、领域专属变量（仅 1 个域，共 1499 个），按域分组", "md_verbatim": "| CPORRES | Result or Finding in Original Units | Char | Result Qualifier | Exp | — |", "score": 0.3529, "match_basis": "verbatim_token+global_search"}, {"md_atom_id": "md_varindex_a323", "md_file": "knowledge_base/VARIABLE_INDEX.md", "md_atom_type": "TABLE_ROW", "md_parent_section": "§ 二、领域专属变量（仅 1 个域，共 1499 个），按域分组", "md_verbatim": "| CVORRES | Result or Finding in Original Units | Char | Result Qualifier | Exp | — |", "score": 0.3529, "match_basis": "verbatim_token+global_search"}, {"md_atom_id": "md_varindex_a358", "md_file": "knowledge_base/VARIABLE_INDEX.md", "md_atom_type": "TABLE_ROW", "md_parent_section": "§ 二、领域专属变量（仅 1 个域，共 1499 个），按域分组", "md_verbatim": "| DAORRES | Result or Finding in Original Units | Char | Result Qualifier | Exp | — |", "score": 0.3529, "match_basis": "verbatim_token+global_search"}], "candidate_count": 10, "zero_candidate": false}
{"pdf_atom_id": "sv20_p0001_a010", "pdf_atom_type": "TABLE_ROW", "pdf_source": "SDTM_v2.0", "pdf_page": 1, "pdf_parent_section": "§0 [Cover]", "pdf_verbatim": "2019-09-17 | 1.8 Final", "figure_ref": null, "candidates": [{"md_atom_id": "md_ch04_a852", "md_file": "knowledge_base/chapters/ch04_general_assumptions.md", "md_atom_type": "TABLE_ROW", "md_parent_section": "§4.5.1.3 [Examples of Original and Standard Units and Test Not Done]", "md_verbatim": "| 5 | RBC | URINALYSIS | 2+ | | 2+ | | | | | 1 | 2016-02-01 |", "score": 0.4385, "match_basis": "verbatim_token+global_search"}, {"md_atom_id": "md_ch04_a851", "md_file": "knowledge_base/chapters/ch04_general_assumptions.md", "md_atom_type": "TABLE_ROW", "md_parent_section": "§4.5.1.3 [Examples of Original and Standard Units and Test Not Done]", "md_verbatim": "| 4 | RBC | URINALYSIS | TRACE | | TRACE | | | | | 1 | 2016-02-01 |", "score": 0.4125, "match_basis": "verbatim_token+global_search"}, {"md_atom_id": "md_dmEX_ex_a008", "md_file": "knowledge_base/domains/EX/examples.md", "md_atom_type": "TABLE_ROW", "md_parent_section": "§EX.1 [Example 1]", "md_verbatim": "| A | 2 | | 2011-01-14 | 2011-01-28 |", "score": 0.4, "match_basis": "verbatim_token+global_search"}, {"md_atom_id": "md_dmEX_ex_a011", "md_file": "knowledge_base/domains/EX/examples.md", "md_atom_type": "TABLE_ROW", "md_parent_section": "§EX.1 [Example 1]", "md_verbatim": "| A | 2 | | 2011-01-14 | 2011-01-23 |", "score": 0.4, "match_basis": "verbatim_token+global_search"}, {"md_atom_id": "md_dmEX_ex_a013", "md_file": "knowledge_base/domains/EX/examples.md", "md_atom_type": "TABLE_ROW", "md_parent_section": "§EX.1 [Example 1]", "md_verbatim": "| A | 2 | | 2011-01-25 | 2011-01-28 |", "score": 0.4, "match_basis": "verbatim_token+global_search"}, {"md_atom_id": "md_dmEX_ex_a109", "md_file": "knowledge_base/domains/EX/examples.md", "md_atom_type": "TABLE_ROW", "md_parent_section": "§EX.5 [Example 5]", "md_verbatim": "| A | AM | 1 | 2012-01-01 | 2012-01-08 |", "score": 0.4, "match_basis": "verbatim_token+global_search"}, {"md_atom_id": "md_dmEX_ex_a110", "md_file": "knowledge_base/domains/EX/examples.md", "md_atom_type": "TABLE_ROW", "md_parent_section": "§EX.5 [Example 5]", "md_verbatim": "| B | PM | 1 | 2012-01-01 | 2012-01-08 |", "score": 0.4, "match_basis": "verbatim_token+global_search"}, {"md_atom_id": "md_dmEX_ex_a113", "md_file": "knowledge_base/domains/EX/examples.md", "md_atom_type": "TABLE_ROW", "md_parent_section": "§EX.5 [Example 5]", "md_verbatim": "| A | AM | 1 | 2012-02-01 | 2012-02-08 |", "score": 0.4, "match_basis": "verbatim_token+global_search"}, {"md_atom_id": "md_dmEX_ex_a114", "md_file": "knowledge_base/domains/EX/examples.md", "md_atom_type": "TABLE_ROW", "md_parent_section": "§EX.5 [Example 5]", "md_verbatim": "| B | PM | 1 | 2012-02-01 | 2012-02-08 |", "score": 0.4, "match_basis": "verbatim_token+global_search"}, {"md_atom_id": "md_dmEX_ex_a117", "md_file": "knowledge_base/domains/EX/examples.md", "md_atom_type": "TABLE_ROW", "md_parent_section": "§EX.5 [Example 5]", "md_verbatim": "| A | AM | 1 | 2012-03-01 | 2012-03-08 |", "score": 0.4, "match_basis": "verbatim_token+global_search"}], "candidate_count": 10, "zero_candidate": false}
{"pdf_atom_id": "sv20_p0001_a011", "pdf_atom_type": "TABLE_ROW", "pdf_source": "SDTM_v2.0", "pdf_page": 1, "pdf_parent_section": "§0 [Cover]", "pdf_verbatim": "2018-03-31 | 1.7 Final", "figure_ref": null, "candidates": [{"md_atom_id": "md_ch04_a852", "md_file": "knowledge_base/chapters/ch04_general_assumptions.md", "md_atom_type": "TABLE_ROW", "md_parent_section": "§4.5.1.3 [Examples of Original and Standard Units and Test Not Done]", "md_verbatim": "| 5 | RBC | URINALYSIS | 2+ | | 2+ | | | | | 1 | 2016-02-01 |", "score": 0.4385, "match_basis": "verbatim_token+global_search"}, {"md_atom_id": "md_ch04_a851", "md_file": "knowledge_base/chapters/ch04_general_assumptions.md", "md_atom_type": "TABLE_ROW", "md_parent_section": "§4.5.1.3 [Examples of Original and Standard Units and Test Not Done]", "md_verbatim": "| 4 | RBC | URINALYSIS | TRACE | | TRACE | | | | | 1 | 2016-02-01 |", "score": 0.4125, "match_basis": "verbatim_token+global_search"}, {"md_atom_id": "md_dmEX_ex_a008", "md_file": "knowledge_base/domains/EX/examples.md", "md_atom_type": "TABLE_ROW", "md_parent_section": "§EX.1 [Example 1]", "md_verbatim": "| A | 2 | | 2011-01-14 | 2011-01-28 |", "score": 0.4, "match_basis": "verbatim_token+global_search"}, {"md_atom_id": "md_dmEX_ex_a011", "md_file": "knowledge_base/domains/EX/examples.md", "md_atom_type": "TABLE_ROW", "md_parent_section": "§EX.1 [Example 1]", "md_verbatim": "| A | 2 | | 2011-01-14 | 2011-01-23 |", "score": 0.4, "match_basis": "verbatim_token+global_search"}, {"md_atom_id": "md_dmEX_ex_a013", "md_file": "knowledge_base/domains/EX/examples.md", "md_atom_type": "TABLE_ROW", "md_parent_section": "§EX.1 [Example 1]", "md_verbatim": "| A | 2 | | 2011-01-25 | 2011-01-28 |", "score": 0.4, "match_basis": "verbatim_token+global_search"}, {"md_atom_id": "md_dmEX_ex_a109", "md_file": "knowledge_base/domains/EX/examples.md", "md_atom_type": "TABLE_ROW", "md_parent_section": "§EX.5 [Example 5]", "md_verbatim": "| A | AM | 1 | 2012-01-01 | 2012-01-08 |", "score": 0.4, "match_basis": "verbatim_token+global_search"}, {"md_atom_id": "md_dmEX_ex_a110", "md_file": "knowledge_base/domains/EX/examples.md", "md_atom_type": "TABLE_ROW", "md_parent_section": "§EX.5 [Example 5]", "md_verbatim": "| B | PM | 1 | 2012-01-01 | 2012-01-08 |", "score": 0.4, "match_basis": "verbatim_token+global_search"}, {"md_atom_id": "md_dmEX_ex_a113", "md_file": "knowledge_base/domains/EX/examples.md", "md_atom_type": "TABLE_ROW", "md_parent_section": "§EX.5 [Example 5]", "md_verbatim": "| A | AM | 1 | 2012-02-01 | 2012-02-08 |", "score": 0.4, "match_basis": "verbatim_token+global_search"}, {"md_atom_id": "md_dmEX_ex_a114", "md_file": "knowledge_base/domains/EX/examples.md", "md_atom_type": "TABLE_ROW", "md_parent_section": "§EX.5 [Example 5]", "md_verbatim": "| B | PM | 1 | 2012-02-01 | 2012-02-08 |", "score": 0.4, "match_basis": "verbatim_token+global_search"}, {"md_atom_id": "md_dmEX_ex_a117", "md_file": "knowledge_base/domains/EX/examples.md", "md_atom_type": "TABLE_ROW", "md_parent_section": "§EX.5 [Example 5]", "md_verbatim": "| A | AM | 1 | 2012-03-01 | 2012-03-08 |", "score": 0.4, "match_basis": "verbatim_token+global_search"}], "candidate_count": 10, "zero_candidate": false}
{"pdf_atom_id": "sv20_p0001_a012", "pdf_atom_type": "TABLE_ROW", "pdf_source": "SDTM_v2.0", "pdf_page": 1, "pdf_parent_section": "§0 [Cover]", "pdf_verbatim": "2017-11-08 | 1.6 Final", "figure_ref": null, "candidates": [{"md_atom_id": "md_ch04_a852", "md_file": "knowledge_base/chapters/ch04_general_assumptions.md", "md_atom_type": "TABLE_ROW", "md_parent_section": "§4.5.1.3 [Examples of Original and Standard Units and Test Not Done]", "md_verbatim": "| 5 | RBC | URINALYSIS | 2+ | | 2+ | | | | | 1 | 2016-02-01 |", "score": 0.4385, "match_basis": "verbatim_token+global_search"}, {"md_atom_id": "md_ch04_a851", "md_file": "knowledge_base/chapters/ch04_general_assumptions.md", "md_atom_type": "TABLE_ROW", "md_parent_section": "§4.5.1.3 [Examples of Original and Standard Units and Test Not Done]", "md_verbatim": "| 4 | RBC | URINALYSIS | TRACE | | TRACE | | | | | 1 | 2016-02-01 |", "score": 0.4125, "match_basis": "verbatim_token+global_search"}, {"md_atom_id": "md_dmEX_ex_a008", "md_file": "knowledge_base/domains/EX/examples.md", "md_atom_type": "TABLE_ROW", "md_parent_section": "§EX.1 [Example 1]", "md_verbatim": "| A | 2 | | 2011-01-14 | 2011-01-28 |", "score": 0.4, "match_basis": "verbatim_token+global_search"}, {"md_atom_id": "md_dmEX_ex_a011", "md_file": "knowledge_base/domains/EX/examples.md", "md_atom_type": "TABLE_ROW", "md_parent_section": "§EX.1 [Example 1]", "md_verbatim": "| A | 2 | | 2011-01-14 | 2011-01-23 |", "score": 0.4, "match_basis": "verbatim_token+global_search"}, {"md_atom_id": "md_dmEX_ex_a013", "md_file": "knowledge_base/domains/EX/examples.md", "md_atom_type": "TABLE_ROW", "md_parent_section": "§EX.1 [Example 1]", "md_verbatim": "| A | 2 | | 2011-01-25 | 2011-01-28 |", "score": 0.4, "match_basis": "verbatim_token+global_search"}, {"md_atom_id": "md_dmEX_ex_a109", "md_file": "knowledge_base/domains/EX/examples.md", "md_atom_type": "TABLE_ROW", "md_parent_section": "§EX.5 [Example 5]", "md_verbatim": "| A | AM | 1 | 2012-01-01 | 2012-01-08 |", "score": 0.4, "match_basis": "verbatim_token+global_search"}, {"md_atom_id": "md_dmEX_ex_a110", "md_file": "knowledge_base/domains/EX/examples.md", "md_atom_type": "TABLE_ROW", "md_parent_section": "§EX.5 [Example 5]", "md_verbatim": "| B | PM | 1 | 2012-01-01 | 2012-01-08 |", "score": 0.4, "match_basis": "verbatim_token+global_search"}, {"md_atom_id": "md_dmEX_ex_a113", "md_file": "knowledge_base/domains/EX/examples.md", "md_atom_type": "TABLE_ROW", "md_parent_section": "§EX.5 [Example 5]", "md_verbatim": "| A | AM | 1 | 2012-02-01 | 2012-02-08 |", "score": 0.4, "match_basis": "verbatim_token+global_search"}, {"md_atom_id": "md_dmEX_ex_a114", "md_file": "knowledge_base/domains/EX/examples.md", "md_atom_type": "TABLE_ROW", "md_parent_section": "§EX.5 [Example 5]", "md_verbatim": "| B | PM | 1 | 2012-02-01 | 2012-02-08 |", "score": 0.4, "match_basis": "verbatim_token+global_search"}, {"md_atom_id": "md_dmEX_ex_a117", "md_file": "knowledge_base/domains/EX/examples.md", "md_atom_type": "TABLE_ROW", "md_parent_section": "§EX.5 [Example 5]", "md_verbatim": "| A | AM | 1 | 2012-03-01 | 2012-03-08 |", "score": 0.4, "match_basis": "verbatim_token+global_search"}], "candidate_count": 10, "zero_candidate": false}
{"pdf_atom_id": "sv20_p0001_a013", "pdf_atom_type": "TABLE_ROW", "pdf_source": "SDTM_v2.0", "pdf_page": 1, "pdf_parent_section": "§0 [Cover]", "pdf_verbatim": "2016-06-27 | 1.5 Final", "figure_ref": null, "candidates": [{"md_atom_id": "md_ch04_a852", "md_file": "knowledge_base/chapters/ch04_general_assumptions.md", "md_atom_type": "TABLE_ROW", "md_parent_section": "§4.5.1.3 [Examples of Original and Standard Units and Test Not Done]", "md_verbatim": "| 5 | RBC | URINALYSIS | 2+ | | 2+ | | | | | 1 | 2016-02-01 |", "score": 0.5, "match_basis": "verbatim_token+global_search"}, {"md_atom_id": "md_ch04_a851", "md_file": "knowledge_base/chapters/ch04_general_assumptions.md", "md_atom_type": "TABLE_ROW", "md_parent_section": "§4.5.1.3 [Examples of Original and Standard Units and Test Not Done]", "md_verbatim": "| 4 | RBC | URINALYSIS | TRACE | | TRACE | | | | | 1 | 2016-02-01 |", "score": 0.46, "match_basis": "verbatim_token+global_search"}, {"md_atom_id": "md_ch04_a886", "md_file": "knowledge_base/chapters/ch04_general_assumptions.md", "md_atom_type": "TABLE_ROW", "md_parent_section": "§4.5.1.3 [Examples of Original and Standard Units and Test Not Done]", "md_verbatim": "| 3 | HR | | | | | | NOT DONE | | 1 | 2016-07-18 |", "score": 0.45, "match_basis": "verbatim_token+global_search"}, {"md_atom_id": "md_ch04_a850", "md_file": "knowledge_base/chapters/ch04_general_assumptions.md", "md_atom_type": "TABLE_ROW", "md_parent_section": "§4.5.1.3 [Examples of Original and Standard Units and Test Not Done]", "md_verbatim": "| 3 | BACT | URINALYSIS | MODERATE | | MODERATE | | | | | 1 | 2016-02-01 |", "score": 0.4263, "match_basis": "verbatim_token+global_search"}, {"md_atom_id": "md_ch04_a884", "md_file": "knowledge_base/chapters/ch04_general_assumptions.md", "md_atom_type": "TABLE_ROW", "md_parent_section": "§4.5.1.3 [Examples of Original and Standard Units and Test Not Done]", "md_verbatim": "| 1 | HEIGHT | 60 | in | 152 | 152 | cm | | | 1 | 2016-07-18 |", "score": 0.42, "match_basis": "verbatim_token+global_search"}, {"md_atom_id": "md_ch04_a885", "md_file": "knowledge_base/chapters/ch04_general_assumptions.md", "md_atom_type": "TABLE_ROW", "md_parent_section": "§4.5.1.3 [Examples of Original and Standard Units and Test Not Done]", "md_verbatim": "| 2 | WEIGHT | 110 | LB | 50 | 50 | kg | | | 1 | 2016-07-18 |", "score": 0.42, "match_basis": "verbatim_token+global_search"}, {"md_atom_id": "md_ch04_a887", "md_file": "knowledge_base/chapters/ch04_general_assumptions.md", "md_atom_type": "TABLE_ROW", "md_parent_section": "§4.5.1.3 [Examples of Original and Standard Units and Test Not Done]", "md_verbatim": "| 4 | SYSBP | 96 | mmHg | 96 | 96 | mmHg | | | 1 | 2016-07-18 |", "score": 0.42, "match_basis": "verbatim_token+global_search"}, {"md_atom_id": "md_ch04_a889", "md_file": "knowledge_base/chapters/ch04_general_assumptions.md", "md_atom_type": "TABLE_ROW", "md_parent_section": "§4.5.1.3 [Examples of Original and Standard Units and Test Not Done]", "md_verbatim": "| 6 | SYSBP | | | 98 | 98 | mmHg | | Y | 1 | 2016-07-18 |", "score": 0.42, "match_basis": "verbatim_token+global_search"}, {"md_atom_id": "md_ch04_a857", "md_file": "knowledge_base/chapters/ch04_general_assumptions.md", "md_atom_type": "TABLE_ROW", "md_parent_section": "§4.5.1.3 [Examples of Original and Standard Units and Test Not Done]", "md_verbatim": "| 10 | LBALL | | | | | | | NOT DONE | | 4 | 2016-02-22 |", "score": 0.4091, "match_basis": "verbatim_token+global_search"}, {"md_atom_id": "md_ch04_a888", "md_file": "knowledge_base/chapters/ch04_general_assumptions.md", "md_atom_type": "TABLE_ROW", "md_parent_section": "§4.5.1.3 [Examples of Original and Standard Units and Test Not Done]", "md_verbatim": "| 5 | SYSBP | 100 | mmHg | 100 | 100 | mmHg | | | 1 | 2016-07-18 |", "score": 0.4091, "match_basis": "verbatim_token+global_search"}], "candidate_count": 10, "zero_candidate": false}
{"pdf_atom_id": "sv20_p0001_a014", "pdf_atom_type": "TABLE_ROW", "pdf_source": "SDTM_v2.0", "pdf_page": 1, "pdf_parent_section": "§0 [Cover]", "pdf_verbatim": "2013-11-26 | 1.4 Final", "figure_ref": null, "candidates": [{"md_atom_id": "md_ch04_a852", "md_file": "knowledge_base/chapters/ch04_general_assumptions.md", "md_atom_type": "TABLE_ROW", "md_parent_section": "§4.5.1.3 [Examples of Original and Standard Units and Test Not Done]", "md_verbatim": "| 5 | RBC | URINALYSIS | 2+ | | 2+ | | | | | 1 | 2016-02-01 |", "score": 0.4385, "match_basis": "verbatim_token+global_search"}, {"md_atom_id": "md_ch04_a851", "md_file": "knowledge_base/chapters/ch04_general_assumptions.md", "md_atom_type": "TABLE_ROW", "md_parent_section": "§4.5.1.3 [Examples of Original and Standard Units and Test Not Done]", "md_verbatim": "| 4 | RBC | URINALYSIS | TRACE | | TRACE | | | | | 1 | 2016-02-01 |", "score": 0.4125, "match_basis": "verbatim_token+global_search"}, {"md_atom_id": "md_dmEX_ex_a008", "md_file": "knowledge_base/domains/EX/examples.md", "md_atom_type": "TABLE_ROW", "md_parent_section": "§EX.1 [Example 1]", "md_verbatim": "| A | 2 | | 2011-01-14 | 2011-01-28 |", "score": 0.4, "match_basis": "verbatim_token+global_search"}, {"md_atom_id": "md_dmEX_ex_a011", "md_file": "knowledge_base/domains/EX/examples.md", "md_atom_type": "TABLE_ROW", "md_parent_section": "§EX.1 [Example 1]", "md_verbatim": "| A | 2 | | 2011-01-14 | 2011-01-23 |", "score": 0.4, "match_basis": "verbatim_token+global_search"}, {"md_atom_id": "md_dmEX_ex_a013", "md_file": "knowledge_base/domains/EX/examples.md", "md_atom_type": "TABLE_ROW", "md_parent_section": "§EX.1 [Example 1]", "md_verbatim": "| A | 2 | | 2011-01-25 | 2011-01-28 |", "score": 0.4, "match_basis": "verbatim_token+global_search"}, {"md_atom_id": "md_dmEX_ex_a109", "md_file": "knowledge_base/domains/EX/examples.md", "md_atom_type": "TABLE_ROW", "md_parent_section": "§EX.5 [Example 5]", "md_verbatim": "| A | AM | 1 | 2012-01-01 | 2012-01-08 |", "score": 0.4, "match_basis": "verbatim_token+global_search"}, {"md_atom_id": "md_dmEX_ex_a110", "md_file": "knowledge_base/domains/EX/examples.md", "md_atom_type": "TABLE_ROW", "md_parent_section": "§EX.5 [Example 5]", "md_verbatim": "| B | PM | 1 | 2012-01-01 | 2012-01-08 |", "score": 0.4, "match_basis": "verbatim_token+global_search"}, {"md_atom_id": "md_dmEX_ex_a113", "md_file": "knowledge_base/domains/EX/examples.md", "md_atom_type": "TABLE_ROW", "md_parent_section": "§EX.5 [Example 5]", "md_verbatim": "| A | AM | 1 | 2012-02-01 | 2012-02-08 |", "score": 0.4, "match_basis": "verbatim_token+global_search"}, {"md_atom_id": "md_dmEX_ex_a114", "md_file": "knowledge_base/domains/EX/examples.md", "md_atom_type": "TABLE_ROW", "md_parent_section": "§EX.5 [Example 5]", "md_verbatim": "| B | PM | 1 | 2012-02-01 | 2012-02-08 |", "score": 0.4, "match_basis": "verbatim_token+global_search"}, {"md_atom_id": "md_dmEX_ex_a117", "md_file": "knowledge_base/domains/EX/examples.md", "md_atom_type": "TABLE_ROW", "md_parent_section": "§EX.5 [Example 5]", "md_verbatim": "| A | AM | 1 | 2012-03-01 | 2012-03-08 |", "score": 0.4, "match_basis": "verbatim_token+global_search"}], "candidate_count": 10, "zero_candidate": false}
{"pdf_atom_id": "sv20_p0001_a015", "pdf_atom_type": "TABLE_ROW", "pdf_source": "SDTM_v2.0", "pdf_page": 1, "pdf_parent_section": "§0 [Cover]", "pdf_verbatim": "2012-07-16 | 1.3 Final", "figure_ref": null, "candidates": [{"md_atom_id": "md_dmEX_ex_a109", "md_file": "knowledge_base/domains/EX/examples.md", "md_atom_type": "TABLE_ROW", "md_parent_section": "§EX.5 [Example 5]", "md_verbatim": "| A | AM | 1 | 2012-01-01 | 2012-01-08 |", "score": 0.54, "match_basis": "verbatim_token+global_search"}, {"md_atom_id": "md_dmEX_ex_a110", "md_file": "knowledge_base/domains/EX/examples.md", "md_atom_type": "TABLE_ROW", "md_parent_section": "§EX.5 [Example 5]", "md_verbatim": "| B | PM | 1 | 2012-01-01 | 2012-01-08 |", "score": 0.54, "match_basis": "verbatim_token+global_search"}, {"md_atom_id": "md_dmEX_ex_a113", "md_file": "knowledge_base/domains/EX/examples.md", "md_atom_type": "TABLE_ROW", "md_parent_section": "§EX.5 [Example 5]", "md_verbatim": "| A | AM | 1 | 2012-02-01 | 2012-02-08 |", "score": 0.54, "match_basis": "verbatim_token+global_search"}, {"md_atom_id": "md_dmEX_ex_a114", "md_file": "knowledge_base/domains/EX/examples.md", "md_atom_type": "TABLE_ROW", "md_parent_section": "§EX.5 [Example 5]", "md_verbatim": "| B | PM | 1 | 2012-02-01 | 2012-02-08 |", "score": 0.54, "match_basis": "verbatim_token+global_search"}, {"md_atom_id": "md_dmEX_ex_a117", "md_file": "knowledge_base/domains/EX/examples.md", "md_atom_type": "TABLE_ROW", "md_parent_section": "§EX.5 [Example 5]", "md_verbatim": "| A | AM | 1 | 2012-03-01 | 2012-03-08 |", "score": 0.54, "match_basis": "verbatim_token+global_search"}, {"md_atom_id": "md_dmEX_ex_a118", "md_file": "knowledge_base/domains/EX/examples.md", "md_atom_type": "TABLE_ROW", "md_parent_section": "§EX.5 [Example 5]", "md_verbatim": "| B | PM | 1 | 2012-03-01 | 2012-03-08 |", "score": 0.54, "match_basis": "verbatim_token+global_search"}, {"md_atom_id": "md_dmEX_ex_a256", "md_file": "knowledge_base/domains/EX/examples.md", "md_atom_type": "TABLE_ROW", "md_parent_section": "§EX.8 [Example 8]", "md_verbatim": "| 2012-01-13 | 2012-01-20 |", "score": 0.54, "match_basis": "verbatim_token+global_search"}, {"md_atom_id": "md_dmEX_ex_a258", "md_file": "knowledge_base/domains/EX/examples.md", "md_atom_type": "TABLE_ROW", "md_parent_section": "§EX.8 [Example 8]", "md_verbatim": "| 2012-01-15 | 0 |", "score": 0.54, "match_basis": "verbatim_token+global_search"}, {"md_atom_id": "md_dmEX_ex_a259", "md_file": "knowledge_base/domains/EX/examples.md", "md_atom_type": "TABLE_ROW", "md_parent_section": "§EX.8 [Example 8]", "md_verbatim": "| 2012-01-16 | 2 |", "score": 0.54, "match_basis": "verbatim_token+global_search"}, {"md_atom_id": "md_ch04_a852", "md_file": "knowledge_base/chapters/ch04_general_assumptions.md", "md_atom_type": "TABLE_ROW", "md_parent_section": "§4.5.1.3 [Examples of Original and Standard Units and Test Not Done]", "md_verbatim": "| 5 | RBC | URINALYSIS | 2+ | | 2+ | | | | | 1 | 2016-02-01 |", "score": 0.4385, "match_basis": "verbatim_token+global_search"}], "candidate_count": 10, "zero_candidate": false}
{"pdf_atom_id": "sv20_p0001_a016", "pdf_atom_type": "TABLE_ROW", "pdf_source": "SDTM_v2.0", "pdf_page": 1, "pdf_parent_section": "§0 [Cover]", "pdf_verbatim": "2008-11-12 | 1.2 Final", "figure_ref": null, "candidates": [{"md_atom_id": "md_ch04_a852", "md_file": "knowledge_base/chapters/ch04_general_assumptions.md", "md_atom_type": "TABLE_ROW", "md_parent_section": "§4.5.1.3 [Examples of Original and Standard Units and Test Not Done]", "md_verbatim": "| 5 | RBC | URINALYSIS | 2+ | | 2+ | | | | | 1 | 2016-02-01 |", "score": 0.3857, "match_basis": "verbatim_token+global_search"}, {"md_atom_id": "md_dmEX_ex_a039", "md_file": "knowledge_base/domains/EX/examples.md", "md_atom_type": "TABLE_ROW", "md_parent_section": "§EX.2 [Example 2]", "md_verbatim": "| Date | 2009-05-10 |", "score": 0.375, "match_basis": "verbatim_token+global_search"}, {"md_atom_id": "md_index_a138", "md_file": "knowledge_base/INDEX.md", "md_atom_type": "TABLE_ROW", "md_parent_section": "§ Source Documents", "md_verbatim": "| SDTM (Study Data Tabulation Model) | v2.0 Final (2021-11-29) | 74 |", "score": 0.372, "match_basis": "verbatim_token+global_search"}, {"md_atom_id": "md_ch04_a851", "md_file": "knowledge_base/chapters/ch04_general_assumptions.md", "md_atom_type": "TABLE_ROW", "md_parent_section": "§4.5.1.3 [Examples of Original and Standard Units and Test Not Done]", "md_verbatim": "| 4 | RBC | URINALYSIS | TRACE | | TRACE | | | | | 1 | 2016-02-01 |", "score": 0.3706, "match_basis": "verbatim_token+global_search"}, {"md_atom_id": "md_ch10_a091", "md_file": "knowledge_base/chapters/ch10_appendices.md", "md_atom_type": "TABLE_ROW", "md_parent_section": "§10.D [CDISC Variable-naming Fragments]", "md_verbatim": "| CONGENITAL | CONG | | ORIGINAL | OR |", "score": 0.3706, "match_basis": "verbatim_token+global_search"}, {"md_atom_id": "md_dmDM_ex_a033", "md_file": "knowledge_base/domains/DM/examples.md", "md_atom_type": "TABLE_ROW", "md_parent_section": "§DM.2 [Example 2]", "md_verbatim": "| 2 | ABC | SE | 001 | 2 | RI | Run-In | 2006-06-07 | 2006-06-21 |", "score": 0.3667, "match_basis": "verbatim_token+global_search"}, {"md_atom_id": "md_dmDM_ex_a036", "md_file": "knowledge_base/domains/DM/examples.md", "md_atom_type": "TABLE_ROW", "md_parent_section": "§DM.2 [Example 2]", "md_verbatim": "| 5 | ABC | SE | 002 | 2 | RI | Run-In | 2006-05-10 | 2006-05-24 |", "score": 0.3667, "match_basis": "verbatim_token+global_search"}, {"md_atom_id": "md_dmDM_ex_a040", "md_file": "knowledge_base/domains/DM/examples.md", "md_atom_type": "TABLE_ROW", "md_parent_section": "§DM.2 [Example 2]", "md_verbatim": "| 9 | ABC | SE | 004 | 2 | RI | Run-In | 2006-05-21 | 2006-05-26 |", "score": 0.3667, "match_basis": "verbatim_token+global_search"}, {"md_atom_id": "md_dmDM_ex_a042", "md_file": "knowledge_base/domains/DM/examples.md", "md_atom_type": "TABLE_ROW", "md_parent_section": "§DM.2 [Example 2]", "md_verbatim": "| 11 | ABC | SE | 005 | 2 | RI | Run-In | 2006-05-21 | 2006-05-26 |", "score": 0.3667, "match_basis": "verbatim_token+global_search"}, {"md_atom_id": "md_dmEX_ex_a211", "md_file": "knowledge_base/domains/EX/examples.md", "md_atom_type": "TABLE_ROW", "md_parent_section": "§EX.7 [Example 7]", "md_verbatim": "| Date | 13-FEB-2009 | 20-FEB-2009 | 27-FEB-2009 |", "score": 0.3667, "match_basis": "verbatim_token+global_search"}], "candidate_count": 10, "zero_candidate": false}
{"pdf_atom_id": "sv20_p0001_a017", "pdf_atom_type": "TABLE_ROW", "pdf_source": "SDTM_v2.0", "pdf_page": 1, "pdf_parent_section": "§0 [Cover]", "pdf_verbatim": "2005-04-28 | 1.1 Final", "figure_ref": null, "candidates": [{"md_atom_id": "md_dmDM_ex_a042", "md_file": "knowledge_base/domains/DM/examples.md", "md_atom_type": "TABLE_ROW", "md_parent_section": "§DM.2 [Example 2]", "md_verbatim": "| 11 | ABC | SE | 005 | 2 | RI | Run-In | 2006-05-21 | 2006-05-26 |", "score": 0.45, "match_basis": "verbatim_token+global_search"}, {"md_atom_id": "md_dmDM_ex_a041", "md_file": "knowledge_base/domains/DM/examples.md", "md_atom_type": "TABLE_ROW", "md_parent_section": "§DM.2 [Example 2]", "md_verbatim": "| 10 | ABC | SE | 005 | 1 | SCRN | Screen | 2006-05-14 | 2006-05-21 |", "score": 0.4, "match_basis": "verbatim_token+global_search"}, {"md_atom_id": "md_ch04_a852", "md_file": "knowledge_base/chapters/ch04_general_assumptions.md", "md_atom_type": "TABLE_ROW", "md_parent_section": "§4.5.1.3 [Examples of Original and Standard Units and Test Not Done]", "md_verbatim": "| 5 | RBC | URINALYSIS | 2+ | | 2+ | | | | | 1 | 2016-02-01 |", "score": 0.3857, "match_basis": "verbatim_token+global_search"}, {"md_atom_id": "md_dmSM_ex_a009", "md_file": "knowledge_base/domains/SM/examples.md", "md_atom_type": "TABLE_ROW", "md_parent_section": "§SM.1 [Example 1]", "md_verbatim": "| 1 | XYZ | SM | 001 | 1 | DIAG | DIAGNOSIS | 2005-10 | | | |", "score": 0.3857, "match_basis": "verbatim_token+global_search"}, {"md_atom_id": "md_dmEX_ex_a039", "md_file": "knowledge_base/domains/EX/examples.md", "md_atom_type": "TABLE_ROW", "md_parent_section": "§EX.2 [Example 2]", "md_verbatim": "| Date | 2009-05-10 |", "score": 0.375, "match_basis": "verbatim_token+global_search"}, {"md_atom_id": "md_index_a138", "md_file": "knowledge_base/INDEX.md", "md_atom_type": "TABLE_ROW", "md_parent_section": "§ Source Documents", "md_verbatim": "| SDTM (Study Data Tabulation Model) | v2.0 Final (2021-11-29) | 74 |", "score": 0.372, "match_basis": "verbatim_token+global_search"}, {"md_atom_id": "md_ch04_a851", "md_file": "knowledge_base/chapters/ch04_general_assumptions.md", "md_atom_type": "TABLE_ROW", "md_parent_section": "§4.5.1.3 [Examples of Original and Standard Units and Test Not Done]", "md_verbatim": "| 4 | RBC | URINALYSIS | TRACE | | TRACE | | | | | 1 | 2016-02-01 |", "score": 0.3706, "match_basis": "verbatim_token+global_search"}, {"md_atom_id": "md_ch10_a091", "md_file": "knowledge_base/chapters/ch10_appendices.md", "md_atom_type": "TABLE_ROW", "md_parent_section": "§10.D [CDISC Variable-naming Fragments]", "md_verbatim": "| CONGENITAL | CONG | | ORIGINAL | OR |", "score": 0.3706, "match_basis": "verbatim_token+global_search"}, {"md_atom_id": "md_dmAE_ex_a047", "md_file": "knowledge_base/domains/AE/examples.md", "md_atom_type": "TABLE_ROW", "md_parent_section": "§AE.3 [Example 3]", "md_verbatim": "| 1 | ABC123 | AE | 123101 | 1 | NAUSEA | Nausea | Y | Gastrointestinal disorders | | 2005-10-29 | 19 |", "score": 0.3686, "match_basis": "verbatim_token+global_search"}, {"md_atom_id": "md_dmAE_ex_a048", "md_file": "knowledge_base/domains/AE/examples.md", "md_atom_type": "TABLE_ROW", "md_parent_section": "§AE.3 [Example 3]", "md_verbatim": "| 2 | ABC123 | AE | 123101 | 2 | VOMITING | Vomiting | Y | Gastrointestinal disorders | | 2005-10-29 | 19 |", "score": 0.3667, "match_basis": "verbatim_token+global_search"}], "candidate_count": 10, "zero_candidate": false}
{"pdf_atom_id": "sv20_p0001_a018", "pdf_atom_type": "SENTENCE", "pdf_source": "SDTM_v2.0", "pdf_page": 1, "pdf_parent_section": "§0 [Cover]", "pdf_verbatim": "See Appendix A for Representations and Warranties, Limitations of Liability, and Disclaimers.", "figure_ref": null, "candidates": [{"md_atom_id": "md_ch10_a245", "md_file": "knowledge_base/chapters/ch10_appendices.md", "md_atom_type": "HEADING", "md_parent_section": "§10 [Appendices]", "md_verbatim": "## Appendix F: Representations and Warranties, Limitations of Liability, and Disclaimers", "score": 0.636, "match_basis": "verbatim_token+global_search"}, {"md_atom_id": "md_ch08_a083", "md_file": "knowledge_base/chapters/ch08_relationships.md", "md_atom_type": "SENTENCE", "md_parent_section": "§8.2.2 [RELREC Dataset Examples]", "md_verbatim": "**Rows 1-3:** Show the representation of a relationship between an AE record and 2 concomitant medication records.", "score": 0.4244, "match_basis": "verbatim_token+global_search"}, {"md_atom_id": "md_dmRELREC_ex_a005", "md_file": "knowledge_base/domains/RELREC/examples.md", "md_atom_type": "SENTENCE", "md_parent_section": "§RELREC.1.1 [Example 1]", "md_verbatim": "**Rows 1-3:** Show the representation of a relationship between an AE record and 2 concomitant medication records.", "score": 0.4244, "match_basis": "verbatim_token+global_search"}, {"md_atom_id": "md_ch04_a551", "md_file": "knowledge_base/chapters/ch04_general_assumptions.md", "md_atom_type": "SENTENCE", "md_parent_section": "§4.4.3.1 [Intervals of Time and Use of Duration]", "md_verbatim": "One representation, shown below, uses 2 dates in the format:", "score": 0.4182, "match_basis": "verbatim_token+global_search"}, {"md_atom_id": "md_ch04_a598", "md_file": "knowledge_base/chapters/ch04_general_assumptions.md", "md_atom_type": "SENTENCE", "md_parent_section": "§4.4.3.2 [Interval with Uncertainty]", "md_verbatim": "where the duration \"Pn...\" is represented before the solidus [/], the end date/time is represented following the solidus, and the entire representation is known as an \"interval.\"", "score": 0.4172, "match_basis": "verbatim_token+global_search"}], "candidate_count": 5, "zero_candidate": false}
{"pdf_atom_id": "sv20_p0002_a001", "pdf_atom_type": "HEADING", "pdf_source": "SDTM_v2.0", "pdf_page": 2, "pdf_parent_section": "§0 [TOC]", "pdf_verbatim": "CONTENTS", "figure_ref": null, "candidates": [{"md_atom_id": "md_model03_a063", "md_file": "knowledge_base/model/03_special_purpose_domains.md", "md_atom_type": "HEADING", "md_parent_section": "§ Comments (CO)", "md_verbatim": "## Comments (CO)", "score": 0.42, "match_basis": "verbatim_token+global_search"}, {"md_atom_id": "md_ch03_a003", "md_file": "knowledge_base/chapters/ch03_submitting_data.md", "md_atom_type": "HEADING", "md_parent_section": "§3 [Submitting Data in Standard Format]", "md_verbatim": "## 3.1 Standard Metadata for Dataset Contents and Attributes", "score": 0.42, "match_basis": "verbatim_token+global_search"}, {"md_atom_id": "md_dmTV_ex_a044", "md_file": "knowledge_base/domains/TV/examples.md", "md_atom_type": "HEADING", "md_parent_section": "§TV.2 [Trial Visits Issues]", "md_verbatim": "### Contingent Visits", "score": 0.42, "match_basis": "verbatim_token+global_search"}, {"md_atom_id": "md_ch04_a189", "md_file": "knowledge_base/chapters/ch04_general_assumptions.md", "md_atom_type": "HEADING", "md_parent_section": "§4.2.1 [Variable-Naming Conventions]", "md_verbatim": "#### 4.2.1.3 --TERM Conventions (Events)", "score": 0.4125, "match_basis": "verbatim_token+global_search"}, {"md_atom_id": "md_ch04_a186", "md_file": "knowledge_base/chapters/ch04_general_assumptions.md", "md_atom_type": "HEADING", "md_parent_section": "§4.2.1 [Variable-Naming Conventions]", "md_verbatim": "#### 4.2.1.2 --TRT Conventions (Interventions)", "score": 0.4, "match_basis": "verbatim_token+global_search"}], "candidate_count": 5, "zero_candidate": false}
