{"pdf_atom_id": "ig34_p0121_a001", "pdf_atom_type": "HEADING", "pdf_source": "SDTMIG v3.4 (no header footer).pdf", "pdf_page": 121, "pdf_parent_section": "§6.1 [Models for Interventions Domains]", "pdf_verbatim": "6.1.4 Meal Data (ML)", "figure_ref": null, "candidates": [{"md_atom_id": "md_varindex_a921", "md_file": "knowledge_base/VARIABLE_INDEX.md", "md_atom_type": "HEADING", "md_parent_section": "§ 二、领域专属变量（仅 1 个域，共 1499 个），按域分组", "md_verbatim": "### ML — Meal Data (Interventions)", "score": 0.46, "match_basis": "verbatim_token+global_search"}, {"md_atom_id": "md_ch08_a222", "md_file": "knowledge_base/chapters/ch08_relationships.md", "md_atom_type": "HEADING", "md_parent_section": "§8 [Representing Relationships and Data]", "md_verbatim": "## 8.6 Where Data Belong", "score": 0.4091, "match_basis": "verbatim_token+global_search"}, {"md_atom_id": "md_ch04_a123", "md_file": "knowledge_base/chapters/ch04_general_assumptions.md", "md_atom_type": "HEADING", "md_parent_section": "§4.1.8 [Origin Metadata]", "md_verbatim": "### 4.1.8 Origin Metadata", "score": 0.4, "match_basis": "verbatim_token+global_search"}, {"md_atom_id": "md_ch03_a021", "md_file": "knowledge_base/chapters/ch03_submitting_data.md", "md_atom_type": "HEADING", "md_parent_section": "§3.2 [Using the CDISC Domain Models in Regulatory Submissions — Dataset Metadata]", "md_verbatim": "### 3.2.1 Dataset-level Metadata", "score": 0.3857, "match_basis": "verbatim_token+global_search"}, {"md_atom_id": "md_ch02_a026", "md_file": "knowledge_base/chapters/ch02_fundamentals.md", "md_atom_type": "HEADING", "md_parent_section": "§2 [Fundamentals of the SDTM]", "md_verbatim": "## 2.2 Datasets and Domains", "score": 0.3857, "match_basis": "verbatim_token+global_search"}, {"md_atom_id": "md_dmPC_ex_a050", "md_file": "knowledge_base/domains/PC/examples.md", "md_atom_type": "HEADING", "md_parent_section": "§PC.2 [Relating PC and PP — Overview]", "md_verbatim": "### PC-PP Relating Datasets", "score": 0.3857, "match_basis": "verbatim_token+global_search"}, {"md_atom_id": "md_dmRELREC_assn_a013", "md_file": "knowledge_base/domains/RELREC/assumptions.md", "md_atom_type": "HEADING", "md_parent_section": "§RELREC [RELREC — Assumptions]", "md_verbatim": "## Relating Datasets", "score": 0.3857, "match_basis": "verbatim_token+global_search"}, {"md_atom_id": "md_ch04_a213", "md_file": "knowledge_base/chapters/ch04_general_assumptions.md", "md_atom_type": "HEADING", "md_parent_section": "§4.2 [General Variable Assumptions]", "md_verbatim": "### 4.2.4 Text Case in Submitted Data", "score": 0.38, "match_basis": "verbatim_token+global_search"}, {"md_atom_id": "md_model05_a001", "md_file": "knowledge_base/model/05_study_level_data.md", "md_atom_type": "HEADING", "md_parent_section": "§ SDTM v2.0 — Chapter 5: Study-level Data", "md_verbatim": "# SDTM v2.0 — Chapter 5: Study-level Data", "score": 0.3706, "match_basis": "verbatim_token+global_search"}, {"md_atom_id": "md_ch08_a081", "md_file": "knowledge_base/chapters/ch08_relationships.md", "md_atom_type": "HEADING", "md_parent_section": "§8.2 [Relating Peer Records]", "md_verbatim": "### 8.2.2 RELREC Dataset Examples", "score": 0.3706, "match_basis": "verbatim_token+global_search"}], "candidate_count": 10, "zero_candidate": false}
{"pdf_atom_id": "ig34_p0121_a002", "pdf_atom_type": "HEADING", "pdf_source": "SDTMIG v3.4 (no header footer).pdf", "pdf_page": 121, "pdf_parent_section": "§6.1.4 [Meal Data (ML)]", "pdf_verbatim": "ML – Description/Overview", "figure_ref": null, "candidates": [{"md_atom_id": "md_dmML_assn_a001", "md_file": "knowledge_base/domains/ML/assumptions.md", "md_atom_type": "HEADING", "md_parent_section": "§ML [ML — Assumptions]", "md_verbatim": "# ML — Assumptions", "score": 0.4857, "match_basis": "verbatim_token+domain_route:ML"}, {"md_atom_id": "md_dmML_ex_a001", "md_file": "knowledge_base/domains/ML/examples.md", "md_atom_type": "HEADING", "md_parent_section": "§ML [ML — Examples]", "md_verbatim": "# ML — Examples", "score": 0.4, "match_basis": "verbatim_token+domain_route:ML"}, {"md_atom_id": "md_dmML_ex_a002", "md_file": "knowledge_base/domains/ML/examples.md", "md_atom_type": "HEADING", "md_parent_section": "§ML [ML — Examples]", "md_verbatim": "## Example 1", "score": 0.4, "match_basis": "verbatim_token+domain_route:ML"}, {"md_atom_id": "md_dmML_ex_a031", "md_file": "knowledge_base/domains/ML/examples.md", "md_atom_type": "HEADING", "md_parent_section": "§ML [ML — Examples]", "md_verbatim": "## Example 2", "score": 0.4, "match_basis": "verbatim_token+domain_route:ML"}], "candidate_count": 4, "zero_candidate": false}
{"pdf_atom_id": "ig34_p0121_a003", "pdf_atom_type": "SENTENCE", "pdf_source": "SDTMIG v3.4 (no header footer).pdf", "pdf_page": 121, "pdf_parent_section": "§6.1.4 [Meal Data (ML)]", "pdf_verbatim": "An interventions domain that contains information describing a subject's food product consumption.", "figure_ref": null, "candidates": [{"md_atom_id": "md_dmML_ex_a032", "md_file": "knowledge_base/domains/ML/examples.md", "md_atom_type": "SENTENCE", "md_parent_section": "§ML.2 [Example 2]", "md_verbatim": "This example describes a study that examines the effect of physical modifications in a cafeteria on selection/consumption among school students.", "score": 0.5132, "match_basis": "verbatim_token+domain_route:ML"}, {"md_atom_id": "md_dmML_ex_a020", "md_file": "knowledge_base/domains/ML/examples.md", "md_atom_type": "SENTENCE", "md_parent_section": "§ML.1 [Example 1]", "md_verbatim": "Because no end date was collected, the meal was represented as a point-in-time event, as described in Assumption 2b.", "score": 0.5103, "match_basis": "verbatim_token+domain_route:ML"}, {"md_atom_id": "md_dmML_ex_a007", "md_file": "knowledge_base/domains/ML/examples.md", "md_atom_type": "SENTENCE", "md_parent_section": "§ML.1 [Example 1]", "md_verbatim": "Record the last type of meal/food consumption prior to the hypoglycemic event:", "score": 0.4987, "match_basis": "verbatim_token+domain_route:ML"}, {"md_atom_id": "md_dmML_assn_a007", "md_file": "knowledge_base/domains/ML/assumptions.md", "md_atom_type": "SENTENCE", "md_parent_section": "§ML [ML — Assumptions]", "md_verbatim": "   The nutritional items represented in ML may be prospectively defined within a protocol, collected retrospectively as potential precipitants of clinical events, and/or to describe nutritional intake.", "score": 0.4703, "match_basis": "verbatim_token+domain_route:ML"}, {"md_atom_id": "md_dmML_ex_a038", "md_file": "knowledge_base/domains/ML/examples.md", "md_atom_type": "SENTENCE", "md_parent_section": "§ML.2 [Example 2]", "md_verbatim": "The dataset below shows the food-card data collected for the first 3 weeks for a subject.", "score": 0.46, "match_basis": "verbatim_token+domain_route:ML"}], "candidate_count": 5, "zero_candidate": false}
{"pdf_atom_id": "ig34_p0121_a004", "pdf_atom_type": "HEADING", "pdf_source": "SDTMIG v3.4 (no header footer).pdf", "pdf_page": 121, "pdf_parent_section": "§6.1.4 [Meal Data (ML)]", "pdf_verbatim": "ML – Specification", "figure_ref": null, "candidates": [{"md_atom_id": "md_dmML_assn_a001", "md_file": "knowledge_base/domains/ML/assumptions.md", "md_atom_type": "HEADING", "md_parent_section": "§ML [ML — Assumptions]", "md_verbatim": "# ML — Assumptions", "score": 0.4667, "match_basis": "verbatim_token+domain_route:ML"}, {"md_atom_id": "md_dmML_ex_a001", "md_file": "knowledge_base/domains/ML/examples.md", "md_atom_type": "HEADING", "md_parent_section": "§ML [ML — Examples]", "md_verbatim": "# ML — Examples", "score": 0.4, "match_basis": "verbatim_token+domain_route:ML"}, {"md_atom_id": "md_dmML_ex_a002", "md_file": "knowledge_base/domains/ML/examples.md", "md_atom_type": "HEADING", "md_parent_section": "§ML [ML — Examples]", "md_verbatim": "## Example 1", "score": 0.4, "match_basis": "verbatim_token+domain_route:ML"}, {"md_atom_id": "md_dmML_ex_a031", "md_file": "knowledge_base/domains/ML/examples.md", "md_atom_type": "HEADING", "md_parent_section": "§ML [ML — Examples]", "md_verbatim": "## Example 2", "score": 0.4, "match_basis": "verbatim_token+domain_route:ML"}], "candidate_count": 4, "zero_candidate": false}
{"pdf_atom_id": "ig34_p0121_a005", "pdf_atom_type": "SENTENCE", "pdf_source": "SDTMIG v3.4 (no header footer).pdf", "pdf_page": 121, "pdf_parent_section": "§6.1.4 [Meal Data (ML)]", "pdf_verbatim": "ml.xpt, Meal Data — Interventions. One record per food product occurrence or constant intake interval per subject, Tabulation.", "figure_ref": null, "candidates": [{"md_atom_id": "md_dmML_ex_a007", "md_file": "knowledge_base/domains/ML/examples.md", "md_atom_type": "SENTENCE", "md_parent_section": "§ML.1 [Example 1]", "md_verbatim": "Record the last type of meal/food consumption prior to the hypoglycemic event:", "score": 0.5024, "match_basis": "verbatim_token+domain_route:ML"}, {"md_atom_id": "md_dmML_assn_a007", "md_file": "knowledge_base/domains/ML/assumptions.md", "md_atom_type": "SENTENCE", "md_parent_section": "§ML [ML — Assumptions]", "md_verbatim": "   The nutritional items represented in ML may be prospectively defined within a protocol, collected retrospectively as potential precipitants of clinical events, and/or to describe nutritional intake.", "score": 0.4682, "match_basis": "verbatim_token+domain_route:ML"}, {"md_atom_id": "md_dmML_ex_a038", "md_file": "knowledge_base/domains/ML/examples.md", "md_atom_type": "SENTENCE", "md_parent_section": "§ML.2 [Example 2]", "md_verbatim": "The dataset below shows the food-card data collected for the first 3 weeks for a subject.", "score": 0.4651, "match_basis": "verbatim_token+domain_route:ML"}, {"md_atom_id": "md_dmML_ex_a036", "md_file": "knowledge_base/domains/ML/examples.md", "md_atom_type": "SENTENCE", "md_parent_section": "§ML.2 [Example 2]", "md_verbatim": "Food-card data was collected over a 7-month period by students receiving a school meal 1 day per week.", "score": 0.4645, "match_basis": "verbatim_token+domain_route:ML"}, {"md_atom_id": "md_dmML_ex_a020", "md_file": "knowledge_base/domains/ML/examples.md", "md_atom_type": "SENTENCE", "md_parent_section": "§ML.1 [Example 1]", "md_verbatim": "Because no end date was collected, the meal was represented as a point-in-time event, as described in Assumption 2b.", "score": 0.4619, "match_basis": "verbatim_token+domain_route:ML"}], "candidate_count": 5, "zero_candidate": false}
{"pdf_atom_id": "ig34_p0121_a006", "pdf_atom_type": "TABLE_HEADER", "pdf_source": "SDTMIG v3.4 (no header footer).pdf", "pdf_page": 121, "pdf_parent_section": "§6.1.4 [Meal Data (ML)]", "pdf_verbatim": "Variable Name | Variable Label | Type | Controlled Terms, Codelist or Format | Role | CDISC Notes | Core", "figure_ref": null, "candidates": [{"md_atom_id": "md_dmML_ex_a015", "md_file": "knowledge_base/domains/ML/examples.md", "md_atom_type": "TABLE_HEADER", "md_parent_section": "§ML.1 [Example 1]", "md_verbatim": "| Type | Occurrence | | If yes, Date |\n|------|------------|---|-------------|", "score": 0.4222, "match_basis": "verbatim_token+domain_route:ML"}, {"md_atom_id": "md_dmML_ex_a008", "md_file": "knowledge_base/domains/ML/examples.md", "md_atom_type": "TABLE_HEADER", "md_parent_section": "§ML.1 [Example 1]", "md_verbatim": "| Type | | | If Nutritional Drink, Volume (ounces) | Start Date | Start Time | Event ID |\n|------|---|---|---------------------------------------|------------|------------|----------|", "score": 0.4164, "match_basis": "verbatim_token+domain_route:ML"}, {"md_atom_id": "md_dmML_ex_a033", "md_file": "knowledge_base/domains/ML/examples.md", "md_atom_type": "TABLE_HEADER", "md_parent_section": "§ML.2 [Example 2]", "md_verbatim": "| Group | Arms | Details |\n|-------|------|---------|", "score": 0.4115, "match_basis": "verbatim_token+domain_route:ML"}, {"md_atom_id": "md_dmML_ex_a024", "md_file": "knowledge_base/domains/ML/examples.md", "md_atom_type": "TABLE_HEADER", "md_parent_section": "§ML.1 [Example 1]", "md_verbatim": "| Row | STUDYID | DOMAIN | USUBJID | MLSEQ | MLTRT | MLCAT | MLPRESP | MLOCCUR | MLDOSE | MLDOSU | MLDTC | MLSTDTC | MLENDTC | MLEVLINT | RELMIDS | MIDS | MIDSDTC |\n|-----|---------|--------|---------|-------|-------|-------|---------|---------|--------|--------|-------|---------|---------|----------|---------|------|---------|", "score": 0.4, "match_basis": "verbatim_token+domain_route:ML"}, {"md_atom_id": "md_dmML_ex_a040", "md_file": "knowledge_base/domains/ML/examples.md", "md_atom_type": "TABLE_HEADER", "md_parent_section": "§ML.2 [Example 2]", "md_verbatim": "| Row | STUDYID | DOMAIN | USUBJID | MLSEQ | MLTRT | VISITNUM | VISIT | MLSTDTC |\n|-----|---------|--------|---------|-------|-------|----------|-------|---------|", "score": 0.4, "match_basis": "verbatim_token+domain_route:ML"}], "candidate_count": 5, "zero_candidate": false}
{"pdf_atom_id": "ig34_p0121_a007", "pdf_atom_type": "TABLE_ROW", "pdf_source": "SDTMIG v3.4 (no header footer).pdf", "pdf_page": 121, "pdf_parent_section": "§6.1.4 [Meal Data (ML)]", "pdf_verbatim": "STUDYID | Study Identifier | Char | | Identifier | Unique identifier for a study. | Req", "figure_ref": null, "candidates": [{"md_atom_id": "md_dmML_ex_a034", "md_file": "knowledge_base/domains/ML/examples.md", "md_atom_type": "TABLE_ROW", "md_parent_section": "§ML.2 [Example 2]", "md_verbatim": "| 1 | Control | Students received standard meals in a standard cafeteria environment. |", "score": 0.4414, "match_basis": "verbatim_token+domain_route:ML"}, {"md_atom_id": "md_dmML_ex_a035", "md_file": "knowledge_base/domains/ML/examples.md", "md_atom_type": "TABLE_ROW", "md_parent_section": "§ML.2 [Example 2]", "md_verbatim": "| 2 | Experimental: choice architecture | Students were exposed to modifications to the physical environment in the cafeteria to \"nudge\" students towards healthier choices. Physical modifications included: placing vegetables at the beginning of the lunch line; placing fruits in attractive bowls, trays lined with appealing fabric, and fruit options next to cash registers; promoting fruits and vegetables with prominently displayed signage and images; placing white milk selection more predominantly than chocolate milk (e.g., white milk displayed in front of chocolate milk). |", "score": 0.4167, "match_basis": "verbatim_token+domain_route:ML"}, {"md_atom_id": "md_dmML_ex_a040", "md_file": "knowledge_base/domains/ML/examples.md", "md_atom_type": "TABLE_HEADER", "md_parent_section": "§ML.2 [Example 2]", "md_verbatim": "| Row | STUDYID | DOMAIN | USUBJID | MLSEQ | MLTRT | VISITNUM | VISIT | MLSTDTC |\n|-----|---------|--------|---------|-------|-------|----------|-------|---------|", "score": 0.4038, "match_basis": "verbatim_token+domain_route:ML"}, {"md_atom_id": "md_dmML_ex_a009", "md_file": "knowledge_base/domains/ML/examples.md", "md_atom_type": "TABLE_ROW", "md_parent_section": "§ML.1 [Example 1]", "md_verbatim": "| [X] Snack | [ ] Nutritional drink | [ ] Meal | | 2015 Jun 03 | 14:15 | CE001 |", "score": 0.4, "match_basis": "verbatim_token+domain_route:ML"}, {"md_atom_id": "md_dmML_ex_a010", "md_file": "knowledge_base/domains/ML/examples.md", "md_atom_type": "TABLE_ROW", "md_parent_section": "§ML.1 [Example 1]", "md_verbatim": "| [ ] Snack | [X] Nutritional drink | [ ] Meal | 8 oz | 2015 Sep 03 | 8:30 | CE002 |", "score": 0.4, "match_basis": "verbatim_token+domain_route:ML"}], "candidate_count": 5, "zero_candidate": false}
{"pdf_atom_id": "ig34_p0121_a008", "pdf_atom_type": "TABLE_ROW", "pdf_source": "SDTMIG v3.4 (no header footer).pdf", "pdf_page": 121, "pdf_parent_section": "§6.1.4 [Meal Data (ML)]", "pdf_verbatim": "DOMAIN | Domain Abbreviation | Char | ML | Identifier | Two-character abbreviation for the domain. | Req", "figure_ref": null, "candidates": [{"md_atom_id": "md_dmML_ex_a029", "md_file": "knowledge_base/domains/ML/examples.md", "md_atom_type": "TABLE_ROW", "md_parent_section": "§ML.1 [Example 1]", "md_verbatim": "| 5 | XYZ | ML | XYZ-001-001 | 5 | ACKEE FRUIT | DILI EVALUATION | Y | N | | | 2015-12-27 | | | -P1W | | | |", "score": 0.4353, "match_basis": "verbatim_token+domain_route:ML"}, {"md_atom_id": "md_dmML_ex_a030", "md_file": "knowledge_base/domains/ML/examples.md", "md_atom_type": "TABLE_ROW", "md_parent_section": "§ML.1 [Example 1]", "md_verbatim": "| 6 | XYZ | ML | XYZ-001-001 | 6 | CYCAD SEEDS | DILI EVALUATION | Y | N | | | 2015-12-27 | | | -P1W | | | |", "score": 0.4353, "match_basis": "verbatim_token+domain_route:ML"}, {"md_atom_id": "md_dmML_ex_a028", "md_file": "knowledge_base/domains/ML/examples.md", "md_atom_type": "TABLE_ROW", "md_parent_section": "§ML.1 [Example 1]", "md_verbatim": "| 4 | XYZ | ML | XYZ-001-001 | 4 | WILD MUSHROOMS | DILI EVALUATION | Y | Y | | | 2015-12-27 | 2015-12-24 | | -P1W | | | |", "score": 0.4333, "match_basis": "verbatim_token+domain_route:ML"}, {"md_atom_id": "md_dmML_ex_a035", "md_file": "knowledge_base/domains/ML/examples.md", "md_atom_type": "TABLE_ROW", "md_parent_section": "§ML.2 [Example 2]", "md_verbatim": "| 2 | Experimental: choice architecture | Students were exposed to modifications to the physical environment in the cafeteria to \"nudge\" students towards healthier choices. Physical modifications included: placing vegetables at the beginning of the lunch line; placing fruits in attractive bowls, trays lined with appealing fabric, and fruit options next to cash registers; promoting fruits and vegetables with prominently displayed signage and images; placing white milk selection more predominantly than chocolate milk (e.g., white milk displayed in front of chocolate milk). |", "score": 0.4326, "match_basis": "verbatim_token+domain_route:ML"}, {"md_atom_id": "md_dmML_ex_a027", "md_file": "knowledge_base/domains/ML/examples.md", "md_atom_type": "TABLE_ROW", "md_parent_section": "§ML.1 [Example 1]", "md_verbatim": "| 3 | XYZ | ML | XYZ-001-001 | 3 | MEAL | HYPOGLYCEMIA EVALUATION | Y | Y | | | | 2015-12-31T19:00 | | | LAST MEAL PRIOR TO | HYPO3 | 2016-01-01T10:30 |", "score": 0.4273, "match_basis": "verbatim_token+domain_route:ML"}], "candidate_count": 5, "zero_candidate": false}
{"pdf_atom_id": "ig34_p0121_a009", "pdf_atom_type": "TABLE_ROW", "pdf_source": "SDTMIG v3.4 (no header footer).pdf", "pdf_page": 121, "pdf_parent_section": "§6.1.4 [Meal Data (ML)]", "pdf_verbatim": "USUBJID | Unique Subject Identifier | Char | | Identifier | Identifier used to uniquely identify a subject across all studies for all applications or submissions | Req", "figure_ref": null, "candidates": [{"md_atom_id": "md_dmML_ex_a035", "md_file": "knowledge_base/domains/ML/examples.md", "md_atom_type": "TABLE_ROW", "md_parent_section": "§ML.2 [Example 2]", "md_verbatim": "| 2 | Experimental: choice architecture | Students were exposed to modifications to the physical environment in the cafeteria to \"nudge\" students towards healthier choices. Physical modifications included: placing vegetables at the beginning of the lunch line; placing fruits in attractive bowls, trays lined with appealing fabric, and fruit options next to cash registers; promoting fruits and vegetables with prominently displayed signage and images; placing white milk selection more predominantly than chocolate milk (e.g., white milk displayed in front of chocolate milk). |", "score": 0.4375, "match_basis": "verbatim_token+domain_route:ML"}, {"md_atom_id": "md_dmML_ex_a034", "md_file": "knowledge_base/domains/ML/examples.md", "md_atom_type": "TABLE_ROW", "md_parent_section": "§ML.2 [Example 2]", "md_verbatim": "| 1 | Control | Students received standard meals in a standard cafeteria environment. |", "score": 0.4261, "match_basis": "verbatim_token+domain_route:ML"}, {"md_atom_id": "md_dmML_ex_a029", "md_file": "knowledge_base/domains/ML/examples.md", "md_atom_type": "TABLE_ROW", "md_parent_section": "§ML.1 [Example 1]", "md_verbatim": "| 5 | XYZ | ML | XYZ-001-001 | 5 | ACKEE FRUIT | DILI EVALUATION | Y | N | | | 2015-12-27 | | | -P1W | | | |", "score": 0.4247, "match_basis": "verbatim_token+domain_route:ML"}, {"md_atom_id": "md_dmML_ex_a030", "md_file": "knowledge_base/domains/ML/examples.md", "md_atom_type": "TABLE_ROW", "md_parent_section": "§ML.1 [Example 1]", "md_verbatim": "| 6 | XYZ | ML | XYZ-001-001 | 6 | CYCAD SEEDS | DILI EVALUATION | Y | N | | | 2015-12-27 | | | -P1W | | | |", "score": 0.4247, "match_basis": "verbatim_token+domain_route:ML"}, {"md_atom_id": "md_dmML_ex_a028", "md_file": "knowledge_base/domains/ML/examples.md", "md_atom_type": "TABLE_ROW", "md_parent_section": "§ML.1 [Example 1]", "md_verbatim": "| 4 | XYZ | ML | XYZ-001-001 | 4 | WILD MUSHROOMS | DILI EVALUATION | Y | Y | | | 2015-12-27 | 2015-12-24 | | -P1W | | | |", "score": 0.4237, "match_basis": "verbatim_token+domain_route:ML"}], "candidate_count": 5, "zero_candidate": false}
{"pdf_atom_id": "ig34_p0121_a010", "pdf_atom_type": "TABLE_ROW", "pdf_source": "SDTMIG v3.4 (no header footer).pdf", "pdf_page": 121, "pdf_parent_section": "§6.1.4 [Meal Data (ML)]", "pdf_verbatim": "MLSEQ | Sequence Number | Num | | Identifier | Sequence number given to ensure uniqueness of subject records within a domain. May be any valid number. | Req", "figure_ref": null, "candidates": [{"md_atom_id": "md_dmML_ex_a035", "md_file": "knowledge_base/domains/ML/examples.md", "md_atom_type": "TABLE_ROW", "md_parent_section": "§ML.2 [Example 2]", "md_verbatim": "| 2 | Experimental: choice architecture | Students were exposed to modifications to the physical environment in the cafeteria to \"nudge\" students towards healthier choices. Physical modifications included: placing vegetables at the beginning of the lunch line; placing fruits in attractive bowls, trays lined with appealing fabric, and fruit options next to cash registers; promoting fruits and vegetables with prominently displayed signage and images; placing white milk selection more predominantly than chocolate milk (e.g., white milk displayed in front of chocolate milk). |", "score": 0.432, "match_basis": "verbatim_token+domain_route:ML"}, {"md_atom_id": "md_dmML_ex_a034", "md_file": "knowledge_base/domains/ML/examples.md", "md_atom_type": "TABLE_ROW", "md_parent_section": "§ML.2 [Example 2]", "md_verbatim": "| 1 | Control | Students received standard meals in a standard cafeteria environment. |", "score": 0.4255, "match_basis": "verbatim_token+domain_route:ML"}, {"md_atom_id": "md_dmML_ex_a040", "md_file": "knowledge_base/domains/ML/examples.md", "md_atom_type": "TABLE_HEADER", "md_parent_section": "§ML.2 [Example 2]", "md_verbatim": "| Row | STUDYID | DOMAIN | USUBJID | MLSEQ | MLTRT | VISITNUM | VISIT | MLSTDTC |\n|-----|---------|--------|---------|-------|-------|----------|-------|---------|", "score": 0.4169, "match_basis": "verbatim_token+domain_route:ML"}, {"md_atom_id": "md_dmML_ex_a029", "md_file": "knowledge_base/domains/ML/examples.md", "md_atom_type": "TABLE_ROW", "md_parent_section": "§ML.1 [Example 1]", "md_verbatim": "| 5 | XYZ | ML | XYZ-001-001 | 5 | ACKEE FRUIT | DILI EVALUATION | Y | N | | | 2015-12-27 | | | -P1W | | | |", "score": 0.4078, "match_basis": "verbatim_token+domain_route:ML"}, {"md_atom_id": "md_dmML_ex_a030", "md_file": "knowledge_base/domains/ML/examples.md", "md_atom_type": "TABLE_ROW", "md_parent_section": "§ML.1 [Example 1]", "md_verbatim": "| 6 | XYZ | ML | XYZ-001-001 | 6 | CYCAD SEEDS | DILI EVALUATION | Y | N | | | 2015-12-27 | | | -P1W | | | |", "score": 0.4078, "match_basis": "verbatim_token+domain_route:ML"}], "candidate_count": 5, "zero_candidate": false}
{"pdf_atom_id": "ig34_p0121_a011", "pdf_atom_type": "TABLE_ROW", "pdf_source": "SDTMIG v3.4 (no header footer).pdf", "pdf_page": 121, "pdf_parent_section": "§6.1.4 [Meal Data (ML)]", "pdf_verbatim": "MLGRID | Group ID | Char | | Identifier | Used to tie together a block of related records in a single domain for a subject. | Perm", "figure_ref": null, "candidates": [{"md_atom_id": "md_dmML_ex_a035", "md_file": "knowledge_base/domains/ML/examples.md", "md_atom_type": "TABLE_ROW", "md_parent_section": "§ML.2 [Example 2]", "md_verbatim": "| 2 | Experimental: choice architecture | Students were exposed to modifications to the physical environment in the cafeteria to \"nudge\" students towards healthier choices. Physical modifications included: placing vegetables at the beginning of the lunch line; placing fruits in attractive bowls, trays lined with appealing fabric, and fruit options next to cash registers; promoting fruits and vegetables with prominently displayed signage and images; placing white milk selection more predominantly than chocolate milk (e.g., white milk displayed in front of chocolate milk). |", "score": 0.4349, "match_basis": "verbatim_token+domain_route:ML"}, {"md_atom_id": "md_dmML_ex_a034", "md_file": "knowledge_base/domains/ML/examples.md", "md_atom_type": "TABLE_ROW", "md_parent_section": "§ML.2 [Example 2]", "md_verbatim": "| 1 | Control | Students received standard meals in a standard cafeteria environment. |", "score": 0.4194, "match_basis": "verbatim_token+domain_route:ML"}, {"md_atom_id": "md_dmML_ex_a045", "md_file": "knowledge_base/domains/ML/examples.md", "md_atom_type": "TABLE_ROW", "md_parent_section": "§ML.2 [Example 2]", "md_verbatim": "| 5 | ABC123 | ML | ABC123-001 | 5 | CHOCOLATE MILK | 2 | WEEK 2 | 2015-09-17 |", "score": 0.4169, "match_basis": "verbatim_token+domain_route:ML"}, {"md_atom_id": "md_dmML_ex_a012", "md_file": "knowledge_base/domains/ML/examples.md", "md_atom_type": "TABLE_ROW", "md_parent_section": "§ML.1 [Example 1]", "md_verbatim": "| Click here to add a row: **ADD ROW** | | | | | | |", "score": 0.4098, "match_basis": "verbatim_token+domain_route:ML"}, {"md_atom_id": "md_dmML_ex_a009", "md_file": "knowledge_base/domains/ML/examples.md", "md_atom_type": "TABLE_ROW", "md_parent_section": "§ML.1 [Example 1]", "md_verbatim": "| [X] Snack | [ ] Nutritional drink | [ ] Meal | | 2015 Jun 03 | 14:15 | CE001 |", "score": 0.4, "match_basis": "verbatim_token+domain_route:ML"}], "candidate_count": 5, "zero_candidate": false}
{"pdf_atom_id": "ig34_p0121_a012", "pdf_atom_type": "TABLE_ROW", "pdf_source": "SDTMIG v3.4 (no header footer).pdf", "pdf_page": 121, "pdf_parent_section": "§6.1.4 [Meal Data (ML)]", "pdf_verbatim": "MLSPID | Sponsor-Defined Identifier | Char | | Identifier | Sponsor-defined reference number. Example: a number preprinted on the CRF as an explicit line identifier; record identifier defined in the sponsor's operational database. | Perm", "figure_ref": null, "candidates": [{"md_atom_id": "md_dmML_ex_a035", "md_file": "knowledge_base/domains/ML/examples.md", "md_atom_type": "TABLE_ROW", "md_parent_section": "§ML.2 [Example 2]", "md_verbatim": "| 2 | Experimental: choice architecture | Students were exposed to modifications to the physical environment in the cafeteria to \"nudge\" students towards healthier choices. Physical modifications included: placing vegetables at the beginning of the lunch line; placing fruits in attractive bowls, trays lined with appealing fabric, and fruit options next to cash registers; promoting fruits and vegetables with prominently displayed signage and images; placing white milk selection more predominantly than chocolate milk (e.g., white milk displayed in front of chocolate milk). |", "score": 0.4392, "match_basis": "verbatim_token+domain_route:ML"}, {"md_atom_id": "md_dmML_ex_a026", "md_file": "knowledge_base/domains/ML/examples.md", "md_atom_type": "TABLE_ROW", "md_parent_section": "§ML.1 [Example 1]", "md_verbatim": "| 2 | XYZ | ML | XYZ-001-001 | 2 | NUTRITIONAL DRINK | HYPOGLYCEMIA EVALUATION | Y | Y | 8 | oz | | 2015-09-03T08:30 | | | LAST MEAL PRIOR TO | HYPO2 | 2015-09-03T17:00 |", "score": 0.4365, "match_basis": "verbatim_token+domain_route:ML"}, {"md_atom_id": "md_dmML_ex_a009", "md_file": "knowledge_base/domains/ML/examples.md", "md_atom_type": "TABLE_ROW", "md_parent_section": "§ML.1 [Example 1]", "md_verbatim": "| [X] Snack | [ ] Nutritional drink | [ ] Meal | | 2015 Jun 03 | 14:15 | CE001 |", "score": 0.4316, "match_basis": "verbatim_token+domain_route:ML"}, {"md_atom_id": "md_dmML_ex_a010", "md_file": "knowledge_base/domains/ML/examples.md", "md_atom_type": "TABLE_ROW", "md_parent_section": "§ML.1 [Example 1]", "md_verbatim": "| [ ] Snack | [X] Nutritional drink | [ ] Meal | 8 oz | 2015 Sep 03 | 8:30 | CE002 |", "score": 0.4316, "match_basis": "verbatim_token+domain_route:ML"}, {"md_atom_id": "md_dmML_ex_a011", "md_file": "knowledge_base/domains/ML/examples.md", "md_atom_type": "TABLE_ROW", "md_parent_section": "§ML.1 [Example 1]", "md_verbatim": "| [ ] Snack | [ ] Nutritional drink | [X] Meal | | 2015 Dec 31 | 19:00 | CE003 |", "score": 0.4316, "match_basis": "verbatim_token+domain_route:ML"}], "candidate_count": 5, "zero_candidate": false}
{"pdf_atom_id": "ig34_p0121_a013", "pdf_atom_type": "TABLE_ROW", "pdf_source": "SDTMIG v3.4 (no header footer).pdf", "pdf_page": 121, "pdf_parent_section": "§6.1.4 [Meal Data (ML)]", "pdf_verbatim": "MLTRT | Name of Meal | Char | * | Topic | Verbatim food product name that is either preprinted or collected on a CRF. | Req", "figure_ref": null, "candidates": [{"md_atom_id": "md_dmML_ex_a026", "md_file": "knowledge_base/domains/ML/examples.md", "md_atom_type": "TABLE_ROW", "md_parent_section": "§ML.1 [Example 1]", "md_verbatim": "| 2 | XYZ | ML | XYZ-001-001 | 2 | NUTRITIONAL DRINK | HYPOGLYCEMIA EVALUATION | Y | Y | 8 | oz | | 2015-09-03T08:30 | | | LAST MEAL PRIOR TO | HYPO2 | 2015-09-03T17:00 |", "score": 0.4345, "match_basis": "verbatim_token+domain_route:ML"}, {"md_atom_id": "md_dmML_ex_a027", "md_file": "knowledge_base/domains/ML/examples.md", "md_atom_type": "TABLE_ROW", "md_parent_section": "§ML.1 [Example 1]", "md_verbatim": "| 3 | XYZ | ML | XYZ-001-001 | 3 | MEAL | HYPOGLYCEMIA EVALUATION | Y | Y | | | | 2015-12-31T19:00 | | | LAST MEAL PRIOR TO | HYPO3 | 2016-01-01T10:30 |", "score": 0.4304, "match_basis": "verbatim_token+domain_route:ML"}, {"md_atom_id": "md_dmML_ex_a025", "md_file": "knowledge_base/domains/ML/examples.md", "md_atom_type": "TABLE_ROW", "md_parent_section": "§ML.1 [Example 1]", "md_verbatim": "| 1 | XYZ | ML | XYZ-001-001 | 1 | SNACK | HYPOGLYCEMIA EVALUATION | Y | Y | | | | 2015-06-03T14:15 | | | LAST MEAL PRIOR TO | HYPO1 | 2015-06-03T19:20 |", "score": 0.43, "match_basis": "verbatim_token+domain_route:ML"}, {"md_atom_id": "md_dmML_ex_a009", "md_file": "knowledge_base/domains/ML/examples.md", "md_atom_type": "TABLE_ROW", "md_parent_section": "§ML.1 [Example 1]", "md_verbatim": "| [X] Snack | [ ] Nutritional drink | [ ] Meal | | 2015 Jun 03 | 14:15 | CE001 |", "score": 0.4269, "match_basis": "verbatim_token+domain_route:ML"}, {"md_atom_id": "md_dmML_ex_a010", "md_file": "knowledge_base/domains/ML/examples.md", "md_atom_type": "TABLE_ROW", "md_parent_section": "§ML.1 [Example 1]", "md_verbatim": "| [ ] Snack | [X] Nutritional drink | [ ] Meal | 8 oz | 2015 Sep 03 | 8:30 | CE002 |", "score": 0.4269, "match_basis": "verbatim_token+domain_route:ML"}], "candidate_count": 5, "zero_candidate": false}
{"pdf_atom_id": "ig34_p0121_a014", "pdf_atom_type": "TABLE_ROW", "pdf_source": "SDTMIG v3.4 (no header footer).pdf", "pdf_page": 121, "pdf_parent_section": "§6.1.4 [Meal Data (ML)]", "pdf_verbatim": "MLCAT | Category for Meal | Char | * | Grouping Qualifier | Used to define a category of MLTRT values. | Perm", "figure_ref": null, "candidates": [{"md_atom_id": "md_dmML_ex_a027", "md_file": "knowledge_base/domains/ML/examples.md", "md_atom_type": "TABLE_ROW", "md_parent_section": "§ML.1 [Example 1]", "md_verbatim": "| 3 | XYZ | ML | XYZ-001-001 | 3 | MEAL | HYPOGLYCEMIA EVALUATION | Y | Y | | | | 2015-12-31T19:00 | | | LAST MEAL PRIOR TO | HYPO3 | 2016-01-01T10:30 |", "score": 0.4329, "match_basis": "verbatim_token+domain_route:ML"}, {"md_atom_id": "md_dmML_ex_a025", "md_file": "knowledge_base/domains/ML/examples.md", "md_atom_type": "TABLE_ROW", "md_parent_section": "§ML.1 [Example 1]", "md_verbatim": "| 1 | XYZ | ML | XYZ-001-001 | 1 | SNACK | HYPOGLYCEMIA EVALUATION | Y | Y | | | | 2015-06-03T14:15 | | | LAST MEAL PRIOR TO | HYPO1 | 2015-06-03T19:20 |", "score": 0.4324, "match_basis": "verbatim_token+domain_route:ML"}, {"md_atom_id": "md_dmML_ex_a026", "md_file": "knowledge_base/domains/ML/examples.md", "md_atom_type": "TABLE_ROW", "md_parent_section": "§ML.1 [Example 1]", "md_verbatim": "| 2 | XYZ | ML | XYZ-001-001 | 2 | NUTRITIONAL DRINK | HYPOGLYCEMIA EVALUATION | Y | Y | 8 | oz | | 2015-09-03T08:30 | | | LAST MEAL PRIOR TO | HYPO2 | 2015-09-03T17:00 |", "score": 0.4293, "match_basis": "verbatim_token+domain_route:ML"}, {"md_atom_id": "md_dmML_ex_a035", "md_file": "knowledge_base/domains/ML/examples.md", "md_atom_type": "TABLE_ROW", "md_parent_section": "§ML.2 [Example 2]", "md_verbatim": "| 2 | Experimental: choice architecture | Students were exposed to modifications to the physical environment in the cafeteria to \"nudge\" students towards healthier choices. Physical modifications included: placing vegetables at the beginning of the lunch line; placing fruits in attractive bowls, trays lined with appealing fabric, and fruit options next to cash registers; promoting fruits and vegetables with prominently displayed signage and images; placing white milk selection more predominantly than chocolate milk (e.g., white milk displayed in front of chocolate milk). |", "score": 0.426, "match_basis": "verbatim_token+domain_route:ML"}, {"md_atom_id": "md_dmML_ex_a029", "md_file": "knowledge_base/domains/ML/examples.md", "md_atom_type": "TABLE_ROW", "md_parent_section": "§ML.1 [Example 1]", "md_verbatim": "| 5 | XYZ | ML | XYZ-001-001 | 5 | ACKEE FRUIT | DILI EVALUATION | Y | N | | | 2015-12-27 | | | -P1W | | | |", "score": 0.42, "match_basis": "verbatim_token+domain_route:ML"}], "candidate_count": 5, "zero_candidate": false}
{"pdf_atom_id": "ig34_p0121_a015", "pdf_atom_type": "TABLE_ROW", "pdf_source": "SDTMIG v3.4 (no header footer).pdf", "pdf_page": 121, "pdf_parent_section": "§6.1.4 [Meal Data (ML)]", "pdf_verbatim": "MLSCAT | Subcategory for Meal | Char | * | Grouping Qualifier | Used to define a further categorization of MLCAT values. | Perm", "figure_ref": null, "candidates": [{"md_atom_id": "md_dmML_ex_a027", "md_file": "knowledge_base/domains/ML/examples.md", "md_atom_type": "TABLE_ROW", "md_parent_section": "§ML.1 [Example 1]", "md_verbatim": "| 3 | XYZ | ML | XYZ-001-001 | 3 | MEAL | HYPOGLYCEMIA EVALUATION | Y | Y | | | | 2015-12-31T19:00 | | | LAST MEAL PRIOR TO | HYPO3 | 2016-01-01T10:30 |", "score": 0.4494, "match_basis": "verbatim_token+domain_route:ML"}, {"md_atom_id": "md_dmML_ex_a025", "md_file": "knowledge_base/domains/ML/examples.md", "md_atom_type": "TABLE_ROW", "md_parent_section": "§ML.1 [Example 1]", "md_verbatim": "| 1 | XYZ | ML | XYZ-001-001 | 1 | SNACK | HYPOGLYCEMIA EVALUATION | Y | Y | | | | 2015-06-03T14:15 | | | LAST MEAL PRIOR TO | HYPO1 | 2015-06-03T19:20 |", "score": 0.4488, "match_basis": "verbatim_token+domain_route:ML"}, {"md_atom_id": "md_dmML_ex_a026", "md_file": "knowledge_base/domains/ML/examples.md", "md_atom_type": "TABLE_ROW", "md_parent_section": "§ML.1 [Example 1]", "md_verbatim": "| 2 | XYZ | ML | XYZ-001-001 | 2 | NUTRITIONAL DRINK | HYPOGLYCEMIA EVALUATION | Y | Y | 8 | oz | | 2015-09-03T08:30 | | | LAST MEAL PRIOR TO | HYPO2 | 2015-09-03T17:00 |", "score": 0.4447, "match_basis": "verbatim_token+domain_route:ML"}, {"md_atom_id": "md_dmML_ex_a029", "md_file": "knowledge_base/domains/ML/examples.md", "md_atom_type": "TABLE_ROW", "md_parent_section": "§ML.1 [Example 1]", "md_verbatim": "| 5 | XYZ | ML | XYZ-001-001 | 5 | ACKEE FRUIT | DILI EVALUATION | Y | N | | | 2015-12-27 | | | -P1W | | | |", "score": 0.4417, "match_basis": "verbatim_token+domain_route:ML"}, {"md_atom_id": "md_dmML_ex_a030", "md_file": "knowledge_base/domains/ML/examples.md", "md_atom_type": "TABLE_ROW", "md_parent_section": "§ML.1 [Example 1]", "md_verbatim": "| 6 | XYZ | ML | XYZ-001-001 | 6 | CYCAD SEEDS | DILI EVALUATION | Y | N | | | 2015-12-27 | | | -P1W | | | |", "score": 0.4417, "match_basis": "verbatim_token+domain_route:ML"}], "candidate_count": 5, "zero_candidate": false}
{"pdf_atom_id": "ig34_p0121_a016", "pdf_atom_type": "TABLE_ROW", "pdf_source": "SDTMIG v3.4 (no header footer).pdf", "pdf_page": 121, "pdf_parent_section": "§6.1.4 [Meal Data (ML)]", "pdf_verbatim": "MLPRESP | ML Pre-specified | Char | (NY) | Variable Qualifier | Used when a specific meal is prespecified on a CRF. Values should be \"Y\" or null. | Perm", "figure_ref": null, "candidates": [{"md_atom_id": "md_dmML_ex_a027", "md_file": "knowledge_base/domains/ML/examples.md", "md_atom_type": "TABLE_ROW", "md_parent_section": "§ML.1 [Example 1]", "md_verbatim": "| 3 | XYZ | ML | XYZ-001-001 | 3 | MEAL | HYPOGLYCEMIA EVALUATION | Y | Y | | | | 2015-12-31T19:00 | | | LAST MEAL PRIOR TO | HYPO3 | 2016-01-01T10:30 |", "score": 0.4312, "match_basis": "verbatim_token+domain_route:ML"}, {"md_atom_id": "md_dmML_ex_a025", "md_file": "knowledge_base/domains/ML/examples.md", "md_atom_type": "TABLE_ROW", "md_parent_section": "§ML.1 [Example 1]", "md_verbatim": "| 1 | XYZ | ML | XYZ-001-001 | 1 | SNACK | HYPOGLYCEMIA EVALUATION | Y | Y | | | | 2015-06-03T14:15 | | | LAST MEAL PRIOR TO | HYPO1 | 2015-06-03T19:20 |", "score": 0.4308, "match_basis": "verbatim_token+domain_route:ML"}, {"md_atom_id": "md_dmML_ex_a035", "md_file": "knowledge_base/domains/ML/examples.md", "md_atom_type": "TABLE_ROW", "md_parent_section": "§ML.2 [Example 2]", "md_verbatim": "| 2 | Experimental: choice architecture | Students were exposed to modifications to the physical environment in the cafeteria to \"nudge\" students towards healthier choices. Physical modifications included: placing vegetables at the beginning of the lunch line; placing fruits in attractive bowls, trays lined with appealing fabric, and fruit options next to cash registers; promoting fruits and vegetables with prominently displayed signage and images; placing white milk selection more predominantly than chocolate milk (e.g., white milk displayed in front of chocolate milk). |", "score": 0.4282, "match_basis": "verbatim_token+domain_route:ML"}, {"md_atom_id": "md_dmML_ex_a026", "md_file": "knowledge_base/domains/ML/examples.md", "md_atom_type": "TABLE_ROW", "md_parent_section": "§ML.1 [Example 1]", "md_verbatim": "| 2 | XYZ | ML | XYZ-001-001 | 2 | NUTRITIONAL DRINK | HYPOGLYCEMIA EVALUATION | Y | Y | 8 | oz | | 2015-09-03T08:30 | | | LAST MEAL PRIOR TO | HYPO2 | 2015-09-03T17:00 |", "score": 0.4279, "match_basis": "verbatim_token+domain_route:ML"}, {"md_atom_id": "md_dmML_ex_a034", "md_file": "knowledge_base/domains/ML/examples.md", "md_atom_type": "TABLE_ROW", "md_parent_section": "§ML.2 [Example 2]", "md_verbatim": "| 1 | Control | Students received standard meals in a standard cafeteria environment. |", "score": 0.4217, "match_basis": "verbatim_token+domain_route:ML"}], "candidate_count": 5, "zero_candidate": false}
{"pdf_atom_id": "ig34_p0121_a017", "pdf_atom_type": "TABLE_ROW", "pdf_source": "SDTMIG v3.4 (no header footer).pdf", "pdf_page": 121, "pdf_parent_section": "§6.1.4 [Meal Data (ML)]", "pdf_verbatim": "MLOCCUR | ML Occurrence | Char | (NY) | Record Qualifier | Used to record whether a prespecified meal occurred when information about the occurrence of a specific meal is solicited. | Perm", "figure_ref": null, "candidates": [{"md_atom_id": "md_dmML_ex_a035", "md_file": "knowledge_base/domains/ML/examples.md", "md_atom_type": "TABLE_ROW", "md_parent_section": "§ML.2 [Example 2]", "md_verbatim": "| 2 | Experimental: choice architecture | Students were exposed to modifications to the physical environment in the cafeteria to \"nudge\" students towards healthier choices. Physical modifications included: placing vegetables at the beginning of the lunch line; placing fruits in attractive bowls, trays lined with appealing fabric, and fruit options next to cash registers; promoting fruits and vegetables with prominently displayed signage and images; placing white milk selection more predominantly than chocolate milk (e.g., white milk displayed in front of chocolate milk). |", "score": 0.4336, "match_basis": "verbatim_token+domain_route:ML"}, {"md_atom_id": "md_dmML_ex_a027", "md_file": "knowledge_base/domains/ML/examples.md", "md_atom_type": "TABLE_ROW", "md_parent_section": "§ML.1 [Example 1]", "md_verbatim": "| 3 | XYZ | ML | XYZ-001-001 | 3 | MEAL | HYPOGLYCEMIA EVALUATION | Y | Y | | | | 2015-12-31T19:00 | | | LAST MEAL PRIOR TO | HYPO3 | 2016-01-01T10:30 |", "score": 0.4316, "match_basis": "verbatim_token+domain_route:ML"}, {"md_atom_id": "md_dmML_ex_a025", "md_file": "knowledge_base/domains/ML/examples.md", "md_atom_type": "TABLE_ROW", "md_parent_section": "§ML.1 [Example 1]", "md_verbatim": "| 1 | XYZ | ML | XYZ-001-001 | 1 | SNACK | HYPOGLYCEMIA EVALUATION | Y | Y | | | | 2015-06-03T14:15 | | | LAST MEAL PRIOR TO | HYPO1 | 2015-06-03T19:20 |", "score": 0.4313, "match_basis": "verbatim_token+domain_route:ML"}, {"md_atom_id": "md_dmML_ex_a009", "md_file": "knowledge_base/domains/ML/examples.md", "md_atom_type": "TABLE_ROW", "md_parent_section": "§ML.1 [Example 1]", "md_verbatim": "| [X] Snack | [ ] Nutritional drink | [ ] Meal | | 2015 Jun 03 | 14:15 | CE001 |", "score": 0.4289, "match_basis": "verbatim_token+domain_route:ML"}, {"md_atom_id": "md_dmML_ex_a010", "md_file": "knowledge_base/domains/ML/examples.md", "md_atom_type": "TABLE_ROW", "md_parent_section": "§ML.1 [Example 1]", "md_verbatim": "| [ ] Snack | [X] Nutritional drink | [ ] Meal | 8 oz | 2015 Sep 03 | 8:30 | CE002 |", "score": 0.4289, "match_basis": "verbatim_token+domain_route:ML"}], "candidate_count": 5, "zero_candidate": false}
{"pdf_atom_id": "ig34_p0121_a018", "pdf_atom_type": "TABLE_ROW", "pdf_source": "SDTMIG v3.4 (no header footer).pdf", "pdf_page": 121, "pdf_parent_section": "§6.1.4 [Meal Data (ML)]", "pdf_verbatim": "MLSTAT | Completion Status | Char | (ND) | Record Qualifier | Used to indicate when a question about the occurrence of a prespecified meal was not collected. | Perm", "figure_ref": null, "candidates": [{"md_atom_id": "md_dmML_ex_a035", "md_file": "knowledge_base/domains/ML/examples.md", "md_atom_type": "TABLE_ROW", "md_parent_section": "§ML.2 [Example 2]", "md_verbatim": "| 2 | Experimental: choice architecture | Students were exposed to modifications to the physical environment in the cafeteria to \"nudge\" students towards healthier choices. Physical modifications included: placing vegetables at the beginning of the lunch line; placing fruits in attractive bowls, trays lined with appealing fabric, and fruit options next to cash registers; promoting fruits and vegetables with prominently displayed signage and images; placing white milk selection more predominantly than chocolate milk (e.g., white milk displayed in front of chocolate milk). |", "score": 0.4372, "match_basis": "verbatim_token+domain_route:ML"}, {"md_atom_id": "md_dmML_ex_a009", "md_file": "knowledge_base/domains/ML/examples.md", "md_atom_type": "TABLE_ROW", "md_parent_section": "§ML.1 [Example 1]", "md_verbatim": "| [X] Snack | [ ] Nutritional drink | [ ] Meal | | 2015 Jun 03 | 14:15 | CE001 |", "score": 0.4258, "match_basis": "verbatim_token+domain_route:ML"}, {"md_atom_id": "md_dmML_ex_a010", "md_file": "knowledge_base/domains/ML/examples.md", "md_atom_type": "TABLE_ROW", "md_parent_section": "§ML.1 [Example 1]", "md_verbatim": "| [ ] Snack | [X] Nutritional drink | [ ] Meal | 8 oz | 2015 Sep 03 | 8:30 | CE002 |", "score": 0.4258, "match_basis": "verbatim_token+domain_route:ML"}, {"md_atom_id": "md_dmML_ex_a011", "md_file": "knowledge_base/domains/ML/examples.md", "md_atom_type": "TABLE_ROW", "md_parent_section": "§ML.1 [Example 1]", "md_verbatim": "| [ ] Snack | [ ] Nutritional drink | [X] Meal | | 2015 Dec 31 | 19:00 | CE003 |", "score": 0.4258, "match_basis": "verbatim_token+domain_route:ML"}, {"md_atom_id": "md_dmML_ex_a027", "md_file": "knowledge_base/domains/ML/examples.md", "md_atom_type": "TABLE_ROW", "md_parent_section": "§ML.1 [Example 1]", "md_verbatim": "| 3 | XYZ | ML | XYZ-001-001 | 3 | MEAL | HYPOGLYCEMIA EVALUATION | Y | Y | | | | 2015-12-31T19:00 | | | LAST MEAL PRIOR TO | HYPO3 | 2016-01-01T10:30 |", "score": 0.4226, "match_basis": "verbatim_token+domain_route:ML"}], "candidate_count": 5, "zero_candidate": false}
{"pdf_atom_id": "ig34_p0121_a019", "pdf_atom_type": "TABLE_ROW", "pdf_source": "SDTMIG v3.4 (no header footer).pdf", "pdf_page": 121, "pdf_parent_section": "§6.1.4 [Meal Data (ML)]", "pdf_verbatim": "MLREASND | Reason Meal Not Collected | Char | | Record Qualifier | Describes the reason response to a question about the occurrence of a meal was not collected. Used in conjunction with MLSTAT when value is 'NOT DONE'. | Perm", "figure_ref": null, "candidates": [{"md_atom_id": "md_dmML_ex_a035", "md_file": "knowledge_base/domains/ML/examples.md", "md_atom_type": "TABLE_ROW", "md_parent_section": "§ML.2 [Example 2]", "md_verbatim": "| 2 | Experimental: choice architecture | Students were exposed to modifications to the physical environment in the cafeteria to \"nudge\" students towards healthier choices. Physical modifications included: placing vegetables at the beginning of the lunch line; placing fruits in attractive bowls, trays lined with appealing fabric, and fruit options next to cash registers; promoting fruits and vegetables with prominently displayed signage and images; placing white milk selection more predominantly than chocolate milk (e.g., white milk displayed in front of chocolate milk). |", "score": 0.4378, "match_basis": "verbatim_token+domain_route:ML"}, {"md_atom_id": "md_dmML_ex_a027", "md_file": "knowledge_base/domains/ML/examples.md", "md_atom_type": "TABLE_ROW", "md_parent_section": "§ML.1 [Example 1]", "md_verbatim": "| 3 | XYZ | ML | XYZ-001-001 | 3 | MEAL | HYPOGLYCEMIA EVALUATION | Y | Y | | | | 2015-12-31T19:00 | | | LAST MEAL PRIOR TO | HYPO3 | 2016-01-01T10:30 |", "score": 0.4308, "match_basis": "verbatim_token+domain_route:ML"}, {"md_atom_id": "md_dmML_ex_a025", "md_file": "knowledge_base/domains/ML/examples.md", "md_atom_type": "TABLE_ROW", "md_parent_section": "§ML.1 [Example 1]", "md_verbatim": "| 1 | XYZ | ML | XYZ-001-001 | 1 | SNACK | HYPOGLYCEMIA EVALUATION | Y | Y | | | | 2015-06-03T14:15 | | | LAST MEAL PRIOR TO | HYPO1 | 2015-06-03T19:20 |", "score": 0.4305, "match_basis": "verbatim_token+domain_route:ML"}, {"md_atom_id": "md_dmML_ex_a009", "md_file": "knowledge_base/domains/ML/examples.md", "md_atom_type": "TABLE_ROW", "md_parent_section": "§ML.1 [Example 1]", "md_verbatim": "| [X] Snack | [ ] Nutritional drink | [ ] Meal | | 2015 Jun 03 | 14:15 | CE001 |", "score": 0.4286, "match_basis": "verbatim_token+domain_route:ML"}, {"md_atom_id": "md_dmML_ex_a026", "md_file": "knowledge_base/domains/ML/examples.md", "md_atom_type": "TABLE_ROW", "md_parent_section": "§ML.1 [Example 1]", "md_verbatim": "| 2 | XYZ | ML | XYZ-001-001 | 2 | NUTRITIONAL DRINK | HYPOGLYCEMIA EVALUATION | Y | Y | 8 | oz | | 2015-09-03T08:30 | | | LAST MEAL PRIOR TO | HYPO2 | 2015-09-03T17:00 |", "score": 0.4286, "match_basis": "verbatim_token+domain_route:ML"}], "candidate_count": 5, "zero_candidate": false}
{"pdf_atom_id": "ig34_p0121_a020", "pdf_atom_type": "TABLE_ROW", "pdf_source": "SDTMIG v3.4 (no header footer).pdf", "pdf_page": 121, "pdf_parent_section": "§6.1.4 [Meal Data (ML)]", "pdf_verbatim": "MLDOSE | Dose | Num | | Record Qualifier | Amount of MLTRT consumed. Not populated when MLDOSTXT is populated. | Perm", "figure_ref": null, "candidates": [{"md_atom_id": "md_dmML_ex_a035", "md_file": "knowledge_base/domains/ML/examples.md", "md_atom_type": "TABLE_ROW", "md_parent_section": "§ML.2 [Example 2]", "md_verbatim": "| 2 | Experimental: choice architecture | Students were exposed to modifications to the physical environment in the cafeteria to \"nudge\" students towards healthier choices. Physical modifications included: placing vegetables at the beginning of the lunch line; placing fruits in attractive bowls, trays lined with appealing fabric, and fruit options next to cash registers; promoting fruits and vegetables with prominently displayed signage and images; placing white milk selection more predominantly than chocolate milk (e.g., white milk displayed in front of chocolate milk). |", "score": 0.4203, "match_basis": "verbatim_token+domain_route:ML"}, {"md_atom_id": "md_dmML_ex_a045", "md_file": "knowledge_base/domains/ML/examples.md", "md_atom_type": "TABLE_ROW", "md_parent_section": "§ML.2 [Example 2]", "md_verbatim": "| 5 | ABC123 | ML | ABC123-001 | 5 | CHOCOLATE MILK | 2 | WEEK 2 | 2015-09-17 |", "score": 0.42, "match_basis": "verbatim_token+domain_route:ML"}, {"md_atom_id": "md_dmML_ex_a034", "md_file": "knowledge_base/domains/ML/examples.md", "md_atom_type": "TABLE_ROW", "md_parent_section": "§ML.2 [Example 2]", "md_verbatim": "| 1 | Control | Students received standard meals in a standard cafeteria environment. |", "score": 0.4145, "match_basis": "verbatim_token+domain_route:ML"}, {"md_atom_id": "md_dmML_ex_a009", "md_file": "knowledge_base/domains/ML/examples.md", "md_atom_type": "TABLE_ROW", "md_parent_section": "§ML.1 [Example 1]", "md_verbatim": "| [X] Snack | [ ] Nutritional drink | [ ] Meal | | 2015 Jun 03 | 14:15 | CE001 |", "score": 0.4, "match_basis": "verbatim_token+domain_route:ML"}, {"md_atom_id": "md_dmML_ex_a010", "md_file": "knowledge_base/domains/ML/examples.md", "md_atom_type": "TABLE_ROW", "md_parent_section": "§ML.1 [Example 1]", "md_verbatim": "| [ ] Snack | [X] Nutritional drink | [ ] Meal | 8 oz | 2015 Sep 03 | 8:30 | CE002 |", "score": 0.4, "match_basis": "verbatim_token+domain_route:ML"}], "candidate_count": 5, "zero_candidate": false}
{"pdf_atom_id": "ig34_p0121_a021", "pdf_atom_type": "TABLE_ROW", "pdf_source": "SDTMIG v3.4 (no header footer).pdf", "pdf_page": 121, "pdf_parent_section": "§6.1.4 [Meal Data (ML)]", "pdf_verbatim": "MLDOSTXT | Dose Description | Char | | Record Qualifier | Amount description of MLTRT consumed, collected in text form. Not populated when MLDOSE is populated. Examples: \"<1 per day\", \"200-400\". | Perm", "figure_ref": null, "candidates": [{"md_atom_id": "md_dmML_ex_a035", "md_file": "knowledge_base/domains/ML/examples.md", "md_atom_type": "TABLE_ROW", "md_parent_section": "§ML.2 [Example 2]", "md_verbatim": "| 2 | Experimental: choice architecture | Students were exposed to modifications to the physical environment in the cafeteria to \"nudge\" students towards healthier choices. Physical modifications included: placing vegetables at the beginning of the lunch line; placing fruits in attractive bowls, trays lined with appealing fabric, and fruit options next to cash registers; promoting fruits and vegetables with prominently displayed signage and images; placing white milk selection more predominantly than chocolate milk (e.g., white milk displayed in front of chocolate milk). |", "score": 0.4374, "match_basis": "verbatim_token+domain_route:ML"}, {"md_atom_id": "md_dmML_ex_a045", "md_file": "knowledge_base/domains/ML/examples.md", "md_atom_type": "TABLE_ROW", "md_parent_section": "§ML.2 [Example 2]", "md_verbatim": "| 5 | ABC123 | ML | ABC123-001 | 5 | CHOCOLATE MILK | 2 | WEEK 2 | 2015-09-17 |", "score": 0.4205, "match_basis": "verbatim_token+domain_route:ML"}, {"md_atom_id": "md_dmML_ex_a029", "md_file": "knowledge_base/domains/ML/examples.md", "md_atom_type": "TABLE_ROW", "md_parent_section": "§ML.1 [Example 1]", "md_verbatim": "| 5 | XYZ | ML | XYZ-001-001 | 5 | ACKEE FRUIT | DILI EVALUATION | Y | N | | | 2015-12-27 | | | -P1W | | | |", "score": 0.413, "match_basis": "verbatim_token+domain_route:ML"}, {"md_atom_id": "md_dmML_ex_a030", "md_file": "knowledge_base/domains/ML/examples.md", "md_atom_type": "TABLE_ROW", "md_parent_section": "§ML.1 [Example 1]", "md_verbatim": "| 6 | XYZ | ML | XYZ-001-001 | 6 | CYCAD SEEDS | DILI EVALUATION | Y | N | | | 2015-12-27 | | | -P1W | | | |", "score": 0.413, "match_basis": "verbatim_token+domain_route:ML"}, {"md_atom_id": "md_dmML_ex_a009", "md_file": "knowledge_base/domains/ML/examples.md", "md_atom_type": "TABLE_ROW", "md_parent_section": "§ML.1 [Example 1]", "md_verbatim": "| [X] Snack | [ ] Nutritional drink | [ ] Meal | | 2015 Jun 03 | 14:15 | CE001 |", "score": 0.4128, "match_basis": "verbatim_token+domain_route:ML"}], "candidate_count": 5, "zero_candidate": false}
{"pdf_atom_id": "ig34_p0121_a022", "pdf_atom_type": "TABLE_ROW", "pdf_source": "SDTMIG v3.4 (no header footer).pdf", "pdf_page": 121, "pdf_parent_section": "§6.1.4 [Meal Data (ML)]", "pdf_verbatim": "MLDOSU | Dose Units | Char | (UNIT) | Variable Qualifier | Units for MLDOSE, MLDOSTXT, or MLDOSTXT. | Perm", "figure_ref": null, "candidates": [{"md_atom_id": "md_dmML_ex_a035", "md_file": "knowledge_base/domains/ML/examples.md", "md_atom_type": "TABLE_ROW", "md_parent_section": "§ML.2 [Example 2]", "md_verbatim": "| 2 | Experimental: choice architecture | Students were exposed to modifications to the physical environment in the cafeteria to \"nudge\" students towards healthier choices. Physical modifications included: placing vegetables at the beginning of the lunch line; placing fruits in attractive bowls, trays lined with appealing fabric, and fruit options next to cash registers; promoting fruits and vegetables with prominently displayed signage and images; placing white milk selection more predominantly than chocolate milk (e.g., white milk displayed in front of chocolate milk). |", "score": 0.4245, "match_basis": "verbatim_token+domain_route:ML"}, {"md_atom_id": "md_dmML_ex_a034", "md_file": "knowledge_base/domains/ML/examples.md", "md_atom_type": "TABLE_ROW", "md_parent_section": "§ML.2 [Example 2]", "md_verbatim": "| 1 | Control | Students received standard meals in a standard cafeteria environment. |", "score": 0.4087, "match_basis": "verbatim_token+domain_route:ML"}, {"md_atom_id": "md_dmML_ex_a009", "md_file": "knowledge_base/domains/ML/examples.md", "md_atom_type": "TABLE_ROW", "md_parent_section": "§ML.1 [Example 1]", "md_verbatim": "| [X] Snack | [ ] Nutritional drink | [ ] Meal | | 2015 Jun 03 | 14:15 | CE001 |", "score": 0.4, "match_basis": "verbatim_token+domain_route:ML"}, {"md_atom_id": "md_dmML_ex_a010", "md_file": "knowledge_base/domains/ML/examples.md", "md_atom_type": "TABLE_ROW", "md_parent_section": "§ML.1 [Example 1]", "md_verbatim": "| [ ] Snack | [X] Nutritional drink | [ ] Meal | 8 oz | 2015 Sep 03 | 8:30 | CE002 |", "score": 0.4, "match_basis": "verbatim_token+domain_route:ML"}, {"md_atom_id": "md_dmML_ex_a011", "md_file": "knowledge_base/domains/ML/examples.md", "md_atom_type": "TABLE_ROW", "md_parent_section": "§ML.1 [Example 1]", "md_verbatim": "| [ ] Snack | [ ] Nutritional drink | [X] Meal | | 2015 Dec 31 | 19:00 | CE003 |", "score": 0.4, "match_basis": "verbatim_token+domain_route:ML"}], "candidate_count": 5, "zero_candidate": false}
{"pdf_atom_id": "ig34_p0121_a023", "pdf_atom_type": "TABLE_ROW", "pdf_source": "SDTMIG v3.4 (no header footer).pdf", "pdf_page": 121, "pdf_parent_section": "§6.1.4 [Meal Data (ML)]", "pdf_verbatim": "MLDOSFRM | Dose Form | Char | (FRM) | Variable Qualifier | Dosage form for MLTRT. Example: \"BAR, CHEWABLE\". | Perm", "figure_ref": null, "candidates": [{"md_atom_id": "md_dmML_ex_a035", "md_file": "knowledge_base/domains/ML/examples.md", "md_atom_type": "TABLE_ROW", "md_parent_section": "§ML.2 [Example 2]", "md_verbatim": "| 2 | Experimental: choice architecture | Students were exposed to modifications to the physical environment in the cafeteria to \"nudge\" students towards healthier choices. Physical modifications included: placing vegetables at the beginning of the lunch line; placing fruits in attractive bowls, trays lined with appealing fabric, and fruit options next to cash registers; promoting fruits and vegetables with prominently displayed signage and images; placing white milk selection more predominantly than chocolate milk (e.g., white milk displayed in front of chocolate milk). |", "score": 0.4232, "match_basis": "verbatim_token+domain_route:ML"}, {"md_atom_id": "md_dmML_ex_a047", "md_file": "knowledge_base/domains/ML/examples.md", "md_atom_type": "TABLE_ROW", "md_parent_section": "§ML.2 [Example 2]", "md_verbatim": "| 7 | ABC123 | ML | ABC123-001 | 7 | APPLE | 3 | WEEK 3 | 2015-09-22 |", "score": 0.4113, "match_basis": "verbatim_token+domain_route:ML"}, {"md_atom_id": "md_dmML_ex_a034", "md_file": "knowledge_base/domains/ML/examples.md", "md_atom_type": "TABLE_ROW", "md_parent_section": "§ML.2 [Example 2]", "md_verbatim": "| 1 | Control | Students received standard meals in a standard cafeteria environment. |", "score": 0.4073, "match_basis": "verbatim_token+domain_route:ML"}, {"md_atom_id": "md_dmML_ex_a009", "md_file": "knowledge_base/domains/ML/examples.md", "md_atom_type": "TABLE_ROW", "md_parent_section": "§ML.1 [Example 1]", "md_verbatim": "| [X] Snack | [ ] Nutritional drink | [ ] Meal | | 2015 Jun 03 | 14:15 | CE001 |", "score": 0.4, "match_basis": "verbatim_token+domain_route:ML"}, {"md_atom_id": "md_dmML_ex_a010", "md_file": "knowledge_base/domains/ML/examples.md", "md_atom_type": "TABLE_ROW", "md_parent_section": "§ML.1 [Example 1]", "md_verbatim": "| [ ] Snack | [X] Nutritional drink | [ ] Meal | 8 oz | 2015 Sep 03 | 8:30 | CE002 |", "score": 0.4, "match_basis": "verbatim_token+domain_route:ML"}], "candidate_count": 5, "zero_candidate": false}
{"pdf_atom_id": "ig34_p0121_a024", "pdf_atom_type": "TABLE_ROW", "pdf_source": "SDTMIG v3.4 (no header footer).pdf", "pdf_page": 121, "pdf_parent_section": "§6.1.4 [Meal Data (ML)]", "pdf_verbatim": "VISITNUM | Visit Number | Num | | Timing | Clinical encounter number. Numeric version used for sorting. | Perm", "figure_ref": null, "candidates": [{"md_atom_id": "md_dmML_ex_a035", "md_file": "knowledge_base/domains/ML/examples.md", "md_atom_type": "TABLE_ROW", "md_parent_section": "§ML.2 [Example 2]", "md_verbatim": "| 2 | Experimental: choice architecture | Students were exposed to modifications to the physical environment in the cafeteria to \"nudge\" students towards healthier choices. Physical modifications included: placing vegetables at the beginning of the lunch line; placing fruits in attractive bowls, trays lined with appealing fabric, and fruit options next to cash registers; promoting fruits and vegetables with prominently displayed signage and images; placing white milk selection more predominantly than chocolate milk (e.g., white milk displayed in front of chocolate milk). |", "score": 0.4338, "match_basis": "verbatim_token+domain_route:ML"}, {"md_atom_id": "md_dmML_ex_a034", "md_file": "knowledge_base/domains/ML/examples.md", "md_atom_type": "TABLE_ROW", "md_parent_section": "§ML.2 [Example 2]", "md_verbatim": "| 1 | Control | Students received standard meals in a standard cafeteria environment. |", "score": 0.4145, "match_basis": "verbatim_token+domain_route:ML"}, {"md_atom_id": "md_dmML_ex_a012", "md_file": "knowledge_base/domains/ML/examples.md", "md_atom_type": "TABLE_ROW", "md_parent_section": "§ML.1 [Example 1]", "md_verbatim": "| Click here to add a row: **ADD ROW** | | | | | | |", "score": 0.412, "match_basis": "verbatim_token+domain_route:ML"}, {"md_atom_id": "md_dmML_ex_a029", "md_file": "knowledge_base/domains/ML/examples.md", "md_atom_type": "TABLE_ROW", "md_parent_section": "§ML.1 [Example 1]", "md_verbatim": "| 5 | XYZ | ML | XYZ-001-001 | 5 | ACKEE FRUIT | DILI EVALUATION | Y | N | | | 2015-12-27 | | | -P1W | | | |", "score": 0.4094, "match_basis": "verbatim_token+domain_route:ML"}, {"md_atom_id": "md_dmML_ex_a030", "md_file": "knowledge_base/domains/ML/examples.md", "md_atom_type": "TABLE_ROW", "md_parent_section": "§ML.1 [Example 1]", "md_verbatim": "| 6 | XYZ | ML | XYZ-001-001 | 6 | CYCAD SEEDS | DILI EVALUATION | Y | N | | | 2015-12-27 | | | -P1W | | | |", "score": 0.4094, "match_basis": "verbatim_token+domain_route:ML"}], "candidate_count": 5, "zero_candidate": false}
{"pdf_atom_id": "ig34_p0121_a025", "pdf_atom_type": "TABLE_ROW", "pdf_source": "SDTMIG v3.4 (no header footer).pdf", "pdf_page": 121, "pdf_parent_section": "§6.1.4 [Meal Data (ML)]", "pdf_verbatim": "VISIT | Visit Name | Char | | Timing | Protocol-defined description of a clinical encounter. | Perm", "figure_ref": null, "candidates": [{"md_atom_id": "md_dmML_ex_a035", "md_file": "knowledge_base/domains/ML/examples.md", "md_atom_type": "TABLE_ROW", "md_parent_section": "§ML.2 [Example 2]", "md_verbatim": "| 2 | Experimental: choice architecture | Students were exposed to modifications to the physical environment in the cafeteria to \"nudge\" students towards healthier choices. Physical modifications included: placing vegetables at the beginning of the lunch line; placing fruits in attractive bowls, trays lined with appealing fabric, and fruit options next to cash registers; promoting fruits and vegetables with prominently displayed signage and images; placing white milk selection more predominantly than chocolate milk (e.g., white milk displayed in front of chocolate milk). |", "score": 0.439, "match_basis": "verbatim_token+domain_route:ML"}, {"md_atom_id": "md_dmML_ex_a045", "md_file": "knowledge_base/domains/ML/examples.md", "md_atom_type": "TABLE_ROW", "md_parent_section": "§ML.2 [Example 2]", "md_verbatim": "| 5 | ABC123 | ML | ABC123-001 | 5 | CHOCOLATE MILK | 2 | WEEK 2 | 2015-09-17 |", "score": 0.4194, "match_basis": "verbatim_token+domain_route:ML"}, {"md_atom_id": "md_dmML_ex_a029", "md_file": "knowledge_base/domains/ML/examples.md", "md_atom_type": "TABLE_ROW", "md_parent_section": "§ML.1 [Example 1]", "md_verbatim": "| 5 | XYZ | ML | XYZ-001-001 | 5 | ACKEE FRUIT | DILI EVALUATION | Y | N | | | 2015-12-27 | | | -P1W | | | |", "score": 0.4185, "match_basis": "verbatim_token+domain_route:ML"}, {"md_atom_id": "md_dmML_ex_a030", "md_file": "knowledge_base/domains/ML/examples.md", "md_atom_type": "TABLE_ROW", "md_parent_section": "§ML.1 [Example 1]", "md_verbatim": "| 6 | XYZ | ML | XYZ-001-001 | 6 | CYCAD SEEDS | DILI EVALUATION | Y | N | | | 2015-12-27 | | | -P1W | | | |", "score": 0.4185, "match_basis": "verbatim_token+domain_route:ML"}, {"md_atom_id": "md_dmML_ex_a009", "md_file": "knowledge_base/domains/ML/examples.md", "md_atom_type": "TABLE_ROW", "md_parent_section": "§ML.1 [Example 1]", "md_verbatim": "| [X] Snack | [ ] Nutritional drink | [ ] Meal | | 2015 Jun 03 | 14:15 | CE001 |", "score": 0.4179, "match_basis": "verbatim_token+domain_route:ML"}], "candidate_count": 5, "zero_candidate": false}
{"pdf_atom_id": "ig34_p0121_a026", "pdf_atom_type": "TABLE_ROW", "pdf_source": "SDTMIG v3.4 (no header footer).pdf", "pdf_page": 121, "pdf_parent_section": "§6.1.4 [Meal Data (ML)]", "pdf_verbatim": "VISITDY | Planned Study Day of Visit | Num | | Timing | Planned study day of VISIT. Should be an integer. | Perm", "figure_ref": null, "candidates": [{"md_atom_id": "md_dmML_ex_a035", "md_file": "knowledge_base/domains/ML/examples.md", "md_atom_type": "TABLE_ROW", "md_parent_section": "§ML.2 [Example 2]", "md_verbatim": "| 2 | Experimental: choice architecture | Students were exposed to modifications to the physical environment in the cafeteria to \"nudge\" students towards healthier choices. Physical modifications included: placing vegetables at the beginning of the lunch line; placing fruits in attractive bowls, trays lined with appealing fabric, and fruit options next to cash registers; promoting fruits and vegetables with prominently displayed signage and images; placing white milk selection more predominantly than chocolate milk (e.g., white milk displayed in front of chocolate milk). |", "score": 0.4216, "match_basis": "verbatim_token+domain_route:ML"}, {"md_atom_id": "md_dmML_ex_a040", "md_file": "knowledge_base/domains/ML/examples.md", "md_atom_type": "TABLE_HEADER", "md_parent_section": "§ML.2 [Example 2]", "md_verbatim": "| Row | STUDYID | DOMAIN | USUBJID | MLSEQ | MLTRT | VISITNUM | VISIT | MLSTDTC |\n|-----|---------|--------|---------|-------|-------|----------|-------|---------|", "score": 0.4178, "match_basis": "verbatim_token+domain_route:ML"}, {"md_atom_id": "md_dmML_ex_a034", "md_file": "knowledge_base/domains/ML/examples.md", "md_atom_type": "TABLE_ROW", "md_parent_section": "§ML.2 [Example 2]", "md_verbatim": "| 1 | Control | Students received standard meals in a standard cafeteria environment. |", "score": 0.4174, "match_basis": "verbatim_token+domain_route:ML"}, {"md_atom_id": "md_dmML_ex_a009", "md_file": "knowledge_base/domains/ML/examples.md", "md_atom_type": "TABLE_ROW", "md_parent_section": "§ML.1 [Example 1]", "md_verbatim": "| [X] Snack | [ ] Nutritional drink | [ ] Meal | | 2015 Jun 03 | 14:15 | CE001 |", "score": 0.4, "match_basis": "verbatim_token+domain_route:ML"}, {"md_atom_id": "md_dmML_ex_a010", "md_file": "knowledge_base/domains/ML/examples.md", "md_atom_type": "TABLE_ROW", "md_parent_section": "§ML.1 [Example 1]", "md_verbatim": "| [ ] Snack | [X] Nutritional drink | [ ] Meal | 8 oz | 2015 Sep 03 | 8:30 | CE002 |", "score": 0.4, "match_basis": "verbatim_token+domain_route:ML"}], "candidate_count": 5, "zero_candidate": false}
{"pdf_atom_id": "ig34_p0121_a027", "pdf_atom_type": "TABLE_ROW", "pdf_source": "SDTMIG v3.4 (no header footer).pdf", "pdf_page": 121, "pdf_parent_section": "§6.1.4 [Meal Data (ML)]", "pdf_verbatim": "TAETORD | Planned Order of Element within Arm | Num | | Timing | Number that gives the planned order of the element within the arm for the element in which the arm started. | Perm", "figure_ref": null, "candidates": [{"md_atom_id": "md_dmML_ex_a035", "md_file": "knowledge_base/domains/ML/examples.md", "md_atom_type": "TABLE_ROW", "md_parent_section": "§ML.2 [Example 2]", "md_verbatim": "| 2 | Experimental: choice architecture | Students were exposed to modifications to the physical environment in the cafeteria to \"nudge\" students towards healthier choices. Physical modifications included: placing vegetables at the beginning of the lunch line; placing fruits in attractive bowls, trays lined with appealing fabric, and fruit options next to cash registers; promoting fruits and vegetables with prominently displayed signage and images; placing white milk selection more predominantly than chocolate milk (e.g., white milk displayed in front of chocolate milk). |", "score": 0.4388, "match_basis": "verbatim_token+domain_route:ML"}, {"md_atom_id": "md_dmML_ex_a034", "md_file": "knowledge_base/domains/ML/examples.md", "md_atom_type": "TABLE_ROW", "md_parent_section": "§ML.2 [Example 2]", "md_verbatim": "| 1 | Control | Students received standard meals in a standard cafeteria environment. |", "score": 0.4286, "match_basis": "verbatim_token+domain_route:ML"}, {"md_atom_id": "md_dmML_ex_a042", "md_file": "knowledge_base/domains/ML/examples.md", "md_atom_type": "TABLE_ROW", "md_parent_section": "§ML.2 [Example 2]", "md_verbatim": "| 2 | ABC123 | ML | ABC123-001 | 2 | WHITE MILK | 1 | WEEK 1 | 2015-09-09 |", "score": 0.41, "match_basis": "verbatim_token+domain_route:ML"}, {"md_atom_id": "md_dmML_ex_a048", "md_file": "knowledge_base/domains/ML/examples.md", "md_atom_type": "TABLE_ROW", "md_parent_section": "§ML.2 [Example 2]", "md_verbatim": "| 8 | ABC123 | ML | ABC123-001 | 8 | WHITE MILK | 3 | WEEK 3 | 2015-09-22 |", "score": 0.41, "match_basis": "verbatim_token+domain_route:ML"}, {"md_atom_id": "md_dmML_ex_a043", "md_file": "knowledge_base/domains/ML/examples.md", "md_atom_type": "TABLE_ROW", "md_parent_section": "§ML.2 [Example 2]", "md_verbatim": "| 3 | ABC123 | ML | ABC123-001 | 3 | PEANUT BUTTER SANDWICH | 1 | WEEK 1 | 2015-09-09 |", "score": 0.4087, "match_basis": "verbatim_token+domain_route:ML"}], "candidate_count": 5, "zero_candidate": false}
{"pdf_atom_id": "ig34_p0121_a028", "pdf_atom_type": "TABLE_ROW", "pdf_source": "SDTMIG v3.4 (no header footer).pdf", "pdf_page": 121, "pdf_parent_section": "§6.1.4 [Meal Data (ML)]", "pdf_verbatim": "EPOCH | Epoch | Char | (EPOCH) | Timing | Epoch associated with the start date/time of the meal. | Perm", "figure_ref": null, "candidates": [{"md_atom_id": "md_dmML_ex_a034", "md_file": "knowledge_base/domains/ML/examples.md", "md_atom_type": "TABLE_ROW", "md_parent_section": "§ML.2 [Example 2]", "md_verbatim": "| 1 | Control | Students received standard meals in a standard cafeteria environment. |", "score": 0.4269, "match_basis": "verbatim_token+domain_route:ML"}, {"md_atom_id": "md_dmML_ex_a035", "md_file": "knowledge_base/domains/ML/examples.md", "md_atom_type": "TABLE_ROW", "md_parent_section": "§ML.2 [Example 2]", "md_verbatim": "| 2 | Experimental: choice architecture | Students were exposed to modifications to the physical environment in the cafeteria to \"nudge\" students towards healthier choices. Physical modifications included: placing vegetables at the beginning of the lunch line; placing fruits in attractive bowls, trays lined with appealing fabric, and fruit options next to cash registers; promoting fruits and vegetables with prominently displayed signage and images; placing white milk selection more predominantly than chocolate milk (e.g., white milk displayed in front of chocolate milk). |", "score": 0.4245, "match_basis": "verbatim_token+domain_route:ML"}, {"md_atom_id": "md_dmML_ex_a009", "md_file": "knowledge_base/domains/ML/examples.md", "md_atom_type": "TABLE_ROW", "md_parent_section": "§ML.1 [Example 1]", "md_verbatim": "| [X] Snack | [ ] Nutritional drink | [ ] Meal | | 2015 Jun 03 | 14:15 | CE001 |", "score": 0.424, "match_basis": "verbatim_token+domain_route:ML"}, {"md_atom_id": "md_dmML_ex_a010", "md_file": "knowledge_base/domains/ML/examples.md", "md_atom_type": "TABLE_ROW", "md_parent_section": "§ML.1 [Example 1]", "md_verbatim": "| [ ] Snack | [X] Nutritional drink | [ ] Meal | 8 oz | 2015 Sep 03 | 8:30 | CE002 |", "score": 0.424, "match_basis": "verbatim_token+domain_route:ML"}, {"md_atom_id": "md_dmML_ex_a011", "md_file": "knowledge_base/domains/ML/examples.md", "md_atom_type": "TABLE_ROW", "md_parent_section": "§ML.1 [Example 1]", "md_verbatim": "| [ ] Snack | [ ] Nutritional drink | [X] Meal | | 2015 Dec 31 | 19:00 | CE003 |", "score": 0.424, "match_basis": "verbatim_token+domain_route:ML"}], "candidate_count": 5, "zero_candidate": false}
{"pdf_atom_id": "ig34_p0121_a029", "pdf_atom_type": "TABLE_ROW", "pdf_source": "SDTMIG v3.4 (no header footer).pdf", "pdf_page": 121, "pdf_parent_section": "§6.1.4 [Meal Data (ML)]", "pdf_verbatim": "MLDTC | Date/Time of Collection | Char | ISO 8601 date/time or interval | Timing | Collection date and time of meal represented in ISO 8601 character format. | Perm", "figure_ref": null, "candidates": [{"md_atom_id": "md_dmML_ex_a035", "md_file": "knowledge_base/domains/ML/examples.md", "md_atom_type": "TABLE_ROW", "md_parent_section": "§ML.2 [Example 2]", "md_verbatim": "| 2 | Experimental: choice architecture | Students were exposed to modifications to the physical environment in the cafeteria to \"nudge\" students towards healthier choices. Physical modifications included: placing vegetables at the beginning of the lunch line; placing fruits in attractive bowls, trays lined with appealing fabric, and fruit options next to cash registers; promoting fruits and vegetables with prominently displayed signage and images; placing white milk selection more predominantly than chocolate milk (e.g., white milk displayed in front of chocolate milk). |", "score": 0.4466, "match_basis": "verbatim_token+domain_route:ML"}, {"md_atom_id": "md_dmML_ex_a027", "md_file": "knowledge_base/domains/ML/examples.md", "md_atom_type": "TABLE_ROW", "md_parent_section": "§ML.1 [Example 1]", "md_verbatim": "| 3 | XYZ | ML | XYZ-001-001 | 3 | MEAL | HYPOGLYCEMIA EVALUATION | Y | Y | | | | 2015-12-31T19:00 | | | LAST MEAL PRIOR TO | HYPO3 | 2016-01-01T10:30 |", "score": 0.437, "match_basis": "verbatim_token+domain_route:ML"}, {"md_atom_id": "md_dmML_ex_a025", "md_file": "knowledge_base/domains/ML/examples.md", "md_atom_type": "TABLE_ROW", "md_parent_section": "§ML.1 [Example 1]", "md_verbatim": "| 1 | XYZ | ML | XYZ-001-001 | 1 | SNACK | HYPOGLYCEMIA EVALUATION | Y | Y | | | | 2015-06-03T14:15 | | | LAST MEAL PRIOR TO | HYPO1 | 2015-06-03T19:20 |", "score": 0.4366, "match_basis": "verbatim_token+domain_route:ML"}, {"md_atom_id": "md_dmML_ex_a034", "md_file": "knowledge_base/domains/ML/examples.md", "md_atom_type": "TABLE_ROW", "md_parent_section": "§ML.2 [Example 2]", "md_verbatim": "| 1 | Control | Students received standard meals in a standard cafeteria environment. |", "score": 0.4349, "match_basis": "verbatim_token+domain_route:ML"}, {"md_atom_id": "md_dmML_ex_a009", "md_file": "knowledge_base/domains/ML/examples.md", "md_atom_type": "TABLE_ROW", "md_parent_section": "§ML.1 [Example 1]", "md_verbatim": "| [X] Snack | [ ] Nutritional drink | [ ] Meal | | 2015 Jun 03 | 14:15 | CE001 |", "score": 0.4348, "match_basis": "verbatim_token+domain_route:ML"}], "candidate_count": 5, "zero_candidate": false}
{"pdf_atom_id": "ig34_p0122_a001", "pdf_atom_type": "TABLE_ROW", "pdf_source": "SDTMIG v3.4 (no header footer).pdf", "pdf_page": 122, "pdf_parent_section": "§6.1.4 [Meal Data (ML)]", "pdf_verbatim": "MLSTDTC | Start Date/Time of Meal | Char | ISO 8601 date/time or interval | Timing | Start date/time of the meal represented in ISO 8601 character format. | Perm", "figure_ref": null, "candidates": [{"md_atom_id": "md_dmML_ex_a034", "md_file": "knowledge_base/domains/ML/examples.md", "md_atom_type": "TABLE_ROW", "md_parent_section": "§ML.2 [Example 2]", "md_verbatim": "| 1 | Control | Students received standard meals in a standard cafeteria environment. |", "score": 0.4361, "match_basis": "verbatim_token+domain_route:ML"}, {"md_atom_id": "md_dmML_ex_a035", "md_file": "knowledge_base/domains/ML/examples.md", "md_atom_type": "TABLE_ROW", "md_parent_section": "§ML.2 [Example 2]", "md_verbatim": "| 2 | Experimental: choice architecture | Students were exposed to modifications to the physical environment in the cafeteria to \"nudge\" students towards healthier choices. Physical modifications included: placing vegetables at the beginning of the lunch line; placing fruits in attractive bowls, trays lined with appealing fabric, and fruit options next to cash registers; promoting fruits and vegetables with prominently displayed signage and images; placing white milk selection more predominantly than chocolate milk (e.g., white milk displayed in front of chocolate milk). |", "score": 0.4306, "match_basis": "verbatim_token+domain_route:ML"}, {"md_atom_id": "md_dmML_ex_a027", "md_file": "knowledge_base/domains/ML/examples.md", "md_atom_type": "TABLE_ROW", "md_parent_section": "§ML.1 [Example 1]", "md_verbatim": "| 3 | XYZ | ML | XYZ-001-001 | 3 | MEAL | HYPOGLYCEMIA EVALUATION | Y | Y | | | | 2015-12-31T19:00 | | | LAST MEAL PRIOR TO | HYPO3 | 2016-01-01T10:30 |", "score": 0.4225, "match_basis": "verbatim_token+domain_route:ML"}, {"md_atom_id": "md_dmML_ex_a025", "md_file": "knowledge_base/domains/ML/examples.md", "md_atom_type": "TABLE_ROW", "md_parent_section": "§ML.1 [Example 1]", "md_verbatim": "| 1 | XYZ | ML | XYZ-001-001 | 1 | SNACK | HYPOGLYCEMIA EVALUATION | Y | Y | | | | 2015-06-03T14:15 | | | LAST MEAL PRIOR TO | HYPO1 | 2015-06-03T19:20 |", "score": 0.4222, "match_basis": "verbatim_token+domain_route:ML"}, {"md_atom_id": "md_dmML_ex_a026", "md_file": "knowledge_base/domains/ML/examples.md", "md_atom_type": "TABLE_ROW", "md_parent_section": "§ML.1 [Example 1]", "md_verbatim": "| 2 | XYZ | ML | XYZ-001-001 | 2 | NUTRITIONAL DRINK | HYPOGLYCEMIA EVALUATION | Y | Y | 8 | oz | | 2015-09-03T08:30 | | | LAST MEAL PRIOR TO | HYPO2 | 2015-09-03T17:00 |", "score": 0.4202, "match_basis": "verbatim_token+domain_route:ML"}], "candidate_count": 5, "zero_candidate": false}
{"pdf_atom_id": "ig34_p0122_a002", "pdf_atom_type": "TABLE_ROW", "pdf_source": "SDTMIG v3.4 (no header footer).pdf", "pdf_page": 122, "pdf_parent_section": "§6.1.4 [Meal Data (ML)]", "pdf_verbatim": "MLENDTC | End Date/Time of Meal | Char | ISO 8601 date/time or interval | Timing | End date/time of the meal represented in ISO 8601 character format. | Perm", "figure_ref": null, "candidates": [{"md_atom_id": "md_dmML_ex_a035", "md_file": "knowledge_base/domains/ML/examples.md", "md_atom_type": "TABLE_ROW", "md_parent_section": "§ML.2 [Example 2]", "md_verbatim": "| 2 | Experimental: choice architecture | Students were exposed to modifications to the physical environment in the cafeteria to \"nudge\" students towards healthier choices. Physical modifications included: placing vegetables at the beginning of the lunch line; placing fruits in attractive bowls, trays lined with appealing fabric, and fruit options next to cash registers; promoting fruits and vegetables with prominently displayed signage and images; placing white milk selection more predominantly than chocolate milk (e.g., white milk displayed in front of chocolate milk). |", "score": 0.431, "match_basis": "verbatim_token+domain_route:ML"}, {"md_atom_id": "md_dmML_ex_a034", "md_file": "knowledge_base/domains/ML/examples.md", "md_atom_type": "TABLE_ROW", "md_parent_section": "§ML.2 [Example 2]", "md_verbatim": "| 1 | Control | Students received standard meals in a standard cafeteria environment. |", "score": 0.4296, "match_basis": "verbatim_token+domain_route:ML"}, {"md_atom_id": "md_dmML_ex_a027", "md_file": "knowledge_base/domains/ML/examples.md", "md_atom_type": "TABLE_ROW", "md_parent_section": "§ML.1 [Example 1]", "md_verbatim": "| 3 | XYZ | ML | XYZ-001-001 | 3 | MEAL | HYPOGLYCEMIA EVALUATION | Y | Y | | | | 2015-12-31T19:00 | | | LAST MEAL PRIOR TO | HYPO3 | 2016-01-01T10:30 |", "score": 0.4234, "match_basis": "verbatim_token+domain_route:ML"}, {"md_atom_id": "md_dmML_ex_a025", "md_file": "knowledge_base/domains/ML/examples.md", "md_atom_type": "TABLE_ROW", "md_parent_section": "§ML.1 [Example 1]", "md_verbatim": "| 1 | XYZ | ML | XYZ-001-001 | 1 | SNACK | HYPOGLYCEMIA EVALUATION | Y | Y | | | | 2015-06-03T14:15 | | | LAST MEAL PRIOR TO | HYPO1 | 2015-06-03T19:20 |", "score": 0.4231, "match_basis": "verbatim_token+domain_route:ML"}, {"md_atom_id": "md_dmML_ex_a026", "md_file": "knowledge_base/domains/ML/examples.md", "md_atom_type": "TABLE_ROW", "md_parent_section": "§ML.1 [Example 1]", "md_verbatim": "| 2 | XYZ | ML | XYZ-001-001 | 2 | NUTRITIONAL DRINK | HYPOGLYCEMIA EVALUATION | Y | Y | 8 | oz | | 2015-09-03T08:30 | | | LAST MEAL PRIOR TO | HYPO2 | 2015-09-03T17:00 |", "score": 0.4209, "match_basis": "verbatim_token+domain_route:ML"}], "candidate_count": 5, "zero_candidate": false}
{"pdf_atom_id": "ig34_p0122_a003", "pdf_atom_type": "TABLE_ROW", "pdf_source": "SDTMIG v3.4 (no header footer).pdf", "pdf_page": 122, "pdf_parent_section": "§6.1.4 [Meal Data (ML)]", "pdf_verbatim": "MLDY | Study Day of Visit/Collection/Exam | Num | | Timing | Actual study day of the visit/collection expressed in integer days relative to the sponsor-defined RFSTDTC in Demographics. | Perm", "figure_ref": null, "candidates": [{"md_atom_id": "md_dmML_ex_a035", "md_file": "knowledge_base/domains/ML/examples.md", "md_atom_type": "TABLE_ROW", "md_parent_section": "§ML.2 [Example 2]", "md_verbatim": "| 2 | Experimental: choice architecture | Students were exposed to modifications to the physical environment in the cafeteria to \"nudge\" students towards healthier choices. Physical modifications included: placing vegetables at the beginning of the lunch line; placing fruits in attractive bowls, trays lined with appealing fabric, and fruit options next to cash registers; promoting fruits and vegetables with prominently displayed signage and images; placing white milk selection more predominantly than chocolate milk (e.g., white milk displayed in front of chocolate milk). |", "score": 0.4627, "match_basis": "verbatim_token+domain_route:ML"}, {"md_atom_id": "md_dmML_ex_a029", "md_file": "knowledge_base/domains/ML/examples.md", "md_atom_type": "TABLE_ROW", "md_parent_section": "§ML.1 [Example 1]", "md_verbatim": "| 5 | XYZ | ML | XYZ-001-001 | 5 | ACKEE FRUIT | DILI EVALUATION | Y | N | | | 2015-12-27 | | | -P1W | | | |", "score": 0.4194, "match_basis": "verbatim_token+domain_route:ML"}, {"md_atom_id": "md_dmML_ex_a030", "md_file": "knowledge_base/domains/ML/examples.md", "md_atom_type": "TABLE_ROW", "md_parent_section": "§ML.1 [Example 1]", "md_verbatim": "| 6 | XYZ | ML | XYZ-001-001 | 6 | CYCAD SEEDS | DILI EVALUATION | Y | N | | | 2015-12-27 | | | -P1W | | | |", "score": 0.4194, "match_basis": "verbatim_token+domain_route:ML"}, {"md_atom_id": "md_dmML_ex_a028", "md_file": "knowledge_base/domains/ML/examples.md", "md_atom_type": "TABLE_ROW", "md_parent_section": "§ML.1 [Example 1]", "md_verbatim": "| 4 | XYZ | ML | XYZ-001-001 | 4 | WILD MUSHROOMS | DILI EVALUATION | Y | Y | | | 2015-12-27 | 2015-12-24 | | -P1W | | | |", "score": 0.4187, "match_basis": "verbatim_token+domain_route:ML"}, {"md_atom_id": "md_dmML_ex_a027", "md_file": "knowledge_base/domains/ML/examples.md", "md_atom_type": "TABLE_ROW", "md_parent_section": "§ML.1 [Example 1]", "md_verbatim": "| 3 | XYZ | ML | XYZ-001-001 | 3 | MEAL | HYPOGLYCEMIA EVALUATION | Y | Y | | | | 2015-12-31T19:00 | | | LAST MEAL PRIOR TO | HYPO3 | 2016-01-01T10:30 |", "score": 0.4167, "match_basis": "verbatim_token+domain_route:ML"}], "candidate_count": 5, "zero_candidate": false}
{"pdf_atom_id": "ig34_p0122_a004", "pdf_atom_type": "TABLE_ROW", "pdf_source": "SDTMIG v3.4 (no header footer).pdf", "pdf_page": 122, "pdf_parent_section": "§6.1.4 [Meal Data (ML)]", "pdf_verbatim": "MLSTDY | Study Day of Start of Meal | Num | | Timing | Actual study day of start of the meal expressed in integer days relative to sponsor-defined RFSTDTC in Demographics. | Perm", "figure_ref": null, "candidates": [{"md_atom_id": "md_dmML_ex_a035", "md_file": "knowledge_base/domains/ML/examples.md", "md_atom_type": "TABLE_ROW", "md_parent_section": "§ML.2 [Example 2]", "md_verbatim": "| 2 | Experimental: choice architecture | Students were exposed to modifications to the physical environment in the cafeteria to \"nudge\" students towards healthier choices. Physical modifications included: placing vegetables at the beginning of the lunch line; placing fruits in attractive bowls, trays lined with appealing fabric, and fruit options next to cash registers; promoting fruits and vegetables with prominently displayed signage and images; placing white milk selection more predominantly than chocolate milk (e.g., white milk displayed in front of chocolate milk). |", "score": 0.451, "match_basis": "verbatim_token+domain_route:ML"}, {"md_atom_id": "md_dmML_ex_a034", "md_file": "knowledge_base/domains/ML/examples.md", "md_atom_type": "TABLE_ROW", "md_parent_section": "§ML.2 [Example 2]", "md_verbatim": "| 1 | Control | Students received standard meals in a standard cafeteria environment. |", "score": 0.435, "match_basis": "verbatim_token+domain_route:ML"}, {"md_atom_id": "md_dmML_ex_a027", "md_file": "knowledge_base/domains/ML/examples.md", "md_atom_type": "TABLE_ROW", "md_parent_section": "§ML.1 [Example 1]", "md_verbatim": "| 3 | XYZ | ML | XYZ-001-001 | 3 | MEAL | HYPOGLYCEMIA EVALUATION | Y | Y | | | | 2015-12-31T19:00 | | | LAST MEAL PRIOR TO | HYPO3 | 2016-01-01T10:30 |", "score": 0.4178, "match_basis": "verbatim_token+domain_route:ML"}, {"md_atom_id": "md_dmML_ex_a025", "md_file": "knowledge_base/domains/ML/examples.md", "md_atom_type": "TABLE_ROW", "md_parent_section": "§ML.1 [Example 1]", "md_verbatim": "| 1 | XYZ | ML | XYZ-001-001 | 1 | SNACK | HYPOGLYCEMIA EVALUATION | Y | Y | | | | 2015-06-03T14:15 | | | LAST MEAL PRIOR TO | HYPO1 | 2015-06-03T19:20 |", "score": 0.4176, "match_basis": "verbatim_token+domain_route:ML"}, {"md_atom_id": "md_dmML_ex_a026", "md_file": "knowledge_base/domains/ML/examples.md", "md_atom_type": "TABLE_ROW", "md_parent_section": "§ML.1 [Example 1]", "md_verbatim": "| 2 | XYZ | ML | XYZ-001-001 | 2 | NUTRITIONAL DRINK | HYPOGLYCEMIA EVALUATION | Y | Y | 8 | oz | | 2015-09-03T08:30 | | | LAST MEAL PRIOR TO | HYPO2 | 2015-09-03T17:00 |", "score": 0.4164, "match_basis": "verbatim_token+domain_route:ML"}], "candidate_count": 5, "zero_candidate": false}
{"pdf_atom_id": "ig34_p0122_a005", "pdf_atom_type": "TABLE_ROW", "pdf_source": "SDTMIG v3.4 (no header footer).pdf", "pdf_page": 122, "pdf_parent_section": "§6.1.4 [Meal Data (ML)]", "pdf_verbatim": "MLENDY | Study Day of End of Meal | Num | | Timing | Actual study day of end of the meal expressed in integer days relative to the sponsor-defined RFSTDTC in Demographics. | Perm", "figure_ref": null, "candidates": [{"md_atom_id": "md_dmML_ex_a035", "md_file": "knowledge_base/domains/ML/examples.md", "md_atom_type": "TABLE_ROW", "md_parent_section": "§ML.2 [Example 2]", "md_verbatim": "| 2 | Experimental: choice architecture | Students were exposed to modifications to the physical environment in the cafeteria to \"nudge\" students towards healthier choices. Physical modifications included: placing vegetables at the beginning of the lunch line; placing fruits in attractive bowls, trays lined with appealing fabric, and fruit options next to cash registers; promoting fruits and vegetables with prominently displayed signage and images; placing white milk selection more predominantly than chocolate milk (e.g., white milk displayed in front of chocolate milk). |", "score": 0.4514, "match_basis": "verbatim_token+domain_route:ML"}, {"md_atom_id": "md_dmML_ex_a034", "md_file": "knowledge_base/domains/ML/examples.md", "md_atom_type": "TABLE_ROW", "md_parent_section": "§ML.2 [Example 2]", "md_verbatim": "| 1 | Control | Students received standard meals in a standard cafeteria environment. |", "score": 0.4294, "match_basis": "verbatim_token+domain_route:ML"}, {"md_atom_id": "md_dmML_ex_a027", "md_file": "knowledge_base/domains/ML/examples.md", "md_atom_type": "TABLE_ROW", "md_parent_section": "§ML.1 [Example 1]", "md_verbatim": "| 3 | XYZ | ML | XYZ-001-001 | 3 | MEAL | HYPOGLYCEMIA EVALUATION | Y | Y | | | | 2015-12-31T19:00 | | | LAST MEAL PRIOR TO | HYPO3 | 2016-01-01T10:30 |", "score": 0.4182, "match_basis": "verbatim_token+domain_route:ML"}, {"md_atom_id": "md_dmML_ex_a025", "md_file": "knowledge_base/domains/ML/examples.md", "md_atom_type": "TABLE_ROW", "md_parent_section": "§ML.1 [Example 1]", "md_verbatim": "| 1 | XYZ | ML | XYZ-001-001 | 1 | SNACK | HYPOGLYCEMIA EVALUATION | Y | Y | | | | 2015-06-03T14:15 | | | LAST MEAL PRIOR TO | HYPO1 | 2015-06-03T19:20 |", "score": 0.418, "match_basis": "verbatim_token+domain_route:ML"}, {"md_atom_id": "md_dmML_ex_a026", "md_file": "knowledge_base/domains/ML/examples.md", "md_atom_type": "TABLE_ROW", "md_parent_section": "§ML.1 [Example 1]", "md_verbatim": "| 2 | XYZ | ML | XYZ-001-001 | 2 | NUTRITIONAL DRINK | HYPOGLYCEMIA EVALUATION | Y | Y | 8 | oz | | 2015-09-03T08:30 | | | LAST MEAL PRIOR TO | HYPO2 | 2015-09-03T17:00 |", "score": 0.4167, "match_basis": "verbatim_token+domain_route:ML"}], "candidate_count": 5, "zero_candidate": false}
{"pdf_atom_id": "ig34_p0122_a006", "pdf_atom_type": "TABLE_ROW", "pdf_source": "SDTMIG v3.4 (no header footer).pdf", "pdf_page": 122, "pdf_parent_section": "§6.1.4 [Meal Data (ML)]", "pdf_verbatim": "MLDUR | Duration of Meal | Char | ISO 8601 duration | Timing | Collected duration of the meal represented in ISO 8601 character format. Used only if collected on the CRF and not derived. | Perm", "figure_ref": null, "candidates": [{"md_atom_id": "md_dmML_ex_a034", "md_file": "knowledge_base/domains/ML/examples.md", "md_atom_type": "TABLE_ROW", "md_parent_section": "§ML.2 [Example 2]", "md_verbatim": "| 1 | Control | Students received standard meals in a standard cafeteria environment. |", "score": 0.4533, "match_basis": "verbatim_token+domain_route:ML"}, {"md_atom_id": "md_dmML_ex_a035", "md_file": "knowledge_base/domains/ML/examples.md", "md_atom_type": "TABLE_ROW", "md_parent_section": "§ML.2 [Example 2]", "md_verbatim": "| 2 | Experimental: choice architecture | Students were exposed to modifications to the physical environment in the cafeteria to \"nudge\" students towards healthier choices. Physical modifications included: placing vegetables at the beginning of the lunch line; placing fruits in attractive bowls, trays lined with appealing fabric, and fruit options next to cash registers; promoting fruits and vegetables with prominently displayed signage and images; placing white milk selection more predominantly than chocolate milk (e.g., white milk displayed in front of chocolate milk). |", "score": 0.4506, "match_basis": "verbatim_token+domain_route:ML"}, {"md_atom_id": "md_dmML_ex_a027", "md_file": "knowledge_base/domains/ML/examples.md", "md_atom_type": "TABLE_ROW", "md_parent_section": "§ML.1 [Example 1]", "md_verbatim": "| 3 | XYZ | ML | XYZ-001-001 | 3 | MEAL | HYPOGLYCEMIA EVALUATION | Y | Y | | | | 2015-12-31T19:00 | | | LAST MEAL PRIOR TO | HYPO3 | 2016-01-01T10:30 |", "score": 0.4341, "match_basis": "verbatim_token+domain_route:ML"}, {"md_atom_id": "md_dmML_ex_a025", "md_file": "knowledge_base/domains/ML/examples.md", "md_atom_type": "TABLE_ROW", "md_parent_section": "§ML.1 [Example 1]", "md_verbatim": "| 1 | XYZ | ML | XYZ-001-001 | 1 | SNACK | HYPOGLYCEMIA EVALUATION | Y | Y | | | | 2015-06-03T14:15 | | | LAST MEAL PRIOR TO | HYPO1 | 2015-06-03T19:20 |", "score": 0.4337, "match_basis": "verbatim_token+domain_route:ML"}, {"md_atom_id": "md_dmML_ex_a009", "md_file": "knowledge_base/domains/ML/examples.md", "md_atom_type": "TABLE_ROW", "md_parent_section": "§ML.1 [Example 1]", "md_verbatim": "| [X] Snack | [ ] Nutritional drink | [ ] Meal | | 2015 Jun 03 | 14:15 | CE001 |", "score": 0.4316, "match_basis": "verbatim_token+domain_route:ML"}], "candidate_count": 5, "zero_candidate": false}
{"pdf_atom_id": "ig34_p0122_a007", "pdf_atom_type": "TABLE_ROW", "pdf_source": "SDTMIG v3.4 (no header footer).pdf", "pdf_page": 122, "pdf_parent_section": "§6.1.4 [Meal Data (ML)]", "pdf_verbatim": "MLTPT | Planned Time Point Name | Char | | Timing | Name of a planned time point for a measurement or observation should be taken as defined in the protocol. This may be represented as an elapsed time relative to a fixed reference point. | Perm", "figure_ref": null, "candidates": [{"md_atom_id": "md_dmML_ex_a035", "md_file": "knowledge_base/domains/ML/examples.md", "md_atom_type": "TABLE_ROW", "md_parent_section": "§ML.2 [Example 2]", "md_verbatim": "| 2 | Experimental: choice architecture | Students were exposed to modifications to the physical environment in the cafeteria to \"nudge\" students towards healthier choices. Physical modifications included: placing vegetables at the beginning of the lunch line; placing fruits in attractive bowls, trays lined with appealing fabric, and fruit options next to cash registers; promoting fruits and vegetables with prominently displayed signage and images; placing white milk selection more predominantly than chocolate milk (e.g., white milk displayed in front of chocolate milk). |", "score": 0.4543, "match_basis": "verbatim_token+domain_route:ML"}, {"md_atom_id": "md_dmML_ex_a027", "md_file": "knowledge_base/domains/ML/examples.md", "md_atom_type": "TABLE_ROW", "md_parent_section": "§ML.1 [Example 1]", "md_verbatim": "| 3 | XYZ | ML | XYZ-001-001 | 3 | MEAL | HYPOGLYCEMIA EVALUATION | Y | Y | | | | 2015-12-31T19:00 | | | LAST MEAL PRIOR TO | HYPO3 | 2016-01-01T10:30 |", "score": 0.4198, "match_basis": "verbatim_token+domain_route:ML"}, {"md_atom_id": "md_dmML_ex_a025", "md_file": "knowledge_base/domains/ML/examples.md", "md_atom_type": "TABLE_ROW", "md_parent_section": "§ML.1 [Example 1]", "md_verbatim": "| 1 | XYZ | ML | XYZ-001-001 | 1 | SNACK | HYPOGLYCEMIA EVALUATION | Y | Y | | | | 2015-06-03T14:15 | | | LAST MEAL PRIOR TO | HYPO1 | 2015-06-03T19:20 |", "score": 0.4197, "match_basis": "verbatim_token+domain_route:ML"}, {"md_atom_id": "md_dmML_ex_a034", "md_file": "knowledge_base/domains/ML/examples.md", "md_atom_type": "TABLE_ROW", "md_parent_section": "§ML.2 [Example 2]", "md_verbatim": "| 1 | Control | Students received standard meals in a standard cafeteria environment. |", "score": 0.419, "match_basis": "verbatim_token+domain_route:ML"}, {"md_atom_id": "md_dmML_ex_a026", "md_file": "knowledge_base/domains/ML/examples.md", "md_atom_type": "TABLE_ROW", "md_parent_section": "§ML.1 [Example 1]", "md_verbatim": "| 2 | XYZ | ML | XYZ-001-001 | 2 | NUTRITIONAL DRINK | HYPOGLYCEMIA EVALUATION | Y | Y | 8 | oz | | 2015-09-03T08:30 | | | LAST MEAL PRIOR TO | HYPO2 | 2015-09-03T17:00 |", "score": 0.4185, "match_basis": "verbatim_token+domain_route:ML"}], "candidate_count": 5, "zero_candidate": false}
{"pdf_atom_id": "ig34_p0122_a008", "pdf_atom_type": "TABLE_ROW", "pdf_source": "SDTMIG v3.4 (no header footer).pdf", "pdf_page": 122, "pdf_parent_section": "§6.1.4 [Meal Data (ML)]", "pdf_verbatim": "MLTPTNUM | Planned Time Point Number | Num | | Timing | Numeric version of planned time point used in sorting. | Perm", "figure_ref": null, "candidates": [{"md_atom_id": "md_dmML_ex_a035", "md_file": "knowledge_base/domains/ML/examples.md", "md_atom_type": "TABLE_ROW", "md_parent_section": "§ML.2 [Example 2]", "md_verbatim": "| 2 | Experimental: choice architecture | Students were exposed to modifications to the physical environment in the cafeteria to \"nudge\" students towards healthier choices. Physical modifications included: placing vegetables at the beginning of the lunch line; placing fruits in attractive bowls, trays lined with appealing fabric, and fruit options next to cash registers; promoting fruits and vegetables with prominently displayed signage and images; placing white milk selection more predominantly than chocolate milk (e.g., white milk displayed in front of chocolate milk). |", "score": 0.4317, "match_basis": "verbatim_token+domain_route:ML"}, {"md_atom_id": "md_dmML_ex_a029", "md_file": "knowledge_base/domains/ML/examples.md", "md_atom_type": "TABLE_ROW", "md_parent_section": "§ML.1 [Example 1]", "md_verbatim": "| 5 | XYZ | ML | XYZ-001-001 | 5 | ACKEE FRUIT | DILI EVALUATION | Y | N | | | 2015-12-27 | | | -P1W | | | |", "score": 0.4102, "match_basis": "verbatim_token+domain_route:ML"}, {"md_atom_id": "md_dmML_ex_a030", "md_file": "knowledge_base/domains/ML/examples.md", "md_atom_type": "TABLE_ROW", "md_parent_section": "§ML.1 [Example 1]", "md_verbatim": "| 6 | XYZ | ML | XYZ-001-001 | 6 | CYCAD SEEDS | DILI EVALUATION | Y | N | | | 2015-12-27 | | | -P1W | | | |", "score": 0.4102, "match_basis": "verbatim_token+domain_route:ML"}, {"md_atom_id": "md_dmML_ex_a009", "md_file": "knowledge_base/domains/ML/examples.md", "md_atom_type": "TABLE_ROW", "md_parent_section": "§ML.1 [Example 1]", "md_verbatim": "| [X] Snack | [ ] Nutritional drink | [ ] Meal | | 2015 Jun 03 | 14:15 | CE001 |", "score": 0.4098, "match_basis": "verbatim_token+domain_route:ML"}, {"md_atom_id": "md_dmML_ex_a010", "md_file": "knowledge_base/domains/ML/examples.md", "md_atom_type": "TABLE_ROW", "md_parent_section": "§ML.1 [Example 1]", "md_verbatim": "| [ ] Snack | [X] Nutritional drink | [ ] Meal | 8 oz | 2015 Sep 03 | 8:30 | CE002 |", "score": 0.4098, "match_basis": "verbatim_token+domain_route:ML"}], "candidate_count": 5, "zero_candidate": false}
{"pdf_atom_id": "ig34_p0122_a009", "pdf_atom_type": "TABLE_ROW", "pdf_source": "SDTMIG v3.4 (no header footer).pdf", "pdf_page": 122, "pdf_parent_section": "§6.1.4 [Meal Data (ML)]", "pdf_verbatim": "MLELTM | Planned Elapsed Time from Time Point Ref | Char | ISO 8601 duration | Timing | Planned elapsed time (in ISO 8601 values) relative to the planned fixed reference (MLTPREF). This variable is useful when there are repetitive measures. Not a clock time or a date/time variable. Represented as an ISO 8601 duration. | Perm", "figure_ref": null, "candidates": [{"md_atom_id": "md_dmML_ex_a035", "md_file": "knowledge_base/domains/ML/examples.md", "md_atom_type": "TABLE_ROW", "md_parent_section": "§ML.2 [Example 2]", "md_verbatim": "| 2 | Experimental: choice architecture | Students were exposed to modifications to the physical environment in the cafeteria to \"nudge\" students towards healthier choices. Physical modifications included: placing vegetables at the beginning of the lunch line; placing fruits in attractive bowls, trays lined with appealing fabric, and fruit options next to cash registers; promoting fruits and vegetables with prominently displayed signage and images; placing white milk selection more predominantly than chocolate milk (e.g., white milk displayed in front of chocolate milk). |", "score": 0.4545, "match_basis": "verbatim_token+domain_route:ML"}, {"md_atom_id": "md_dmML_ex_a026", "md_file": "knowledge_base/domains/ML/examples.md", "md_atom_type": "TABLE_ROW", "md_parent_section": "§ML.1 [Example 1]", "md_verbatim": "| 2 | XYZ | ML | XYZ-001-001 | 2 | NUTRITIONAL DRINK | HYPOGLYCEMIA EVALUATION | Y | Y | 8 | oz | | 2015-09-03T08:30 | | | LAST MEAL PRIOR TO | HYPO2 | 2015-09-03T17:00 |", "score": 0.4304, "match_basis": "verbatim_token+domain_route:ML"}, {"md_atom_id": "md_dmML_ex_a027", "md_file": "knowledge_base/domains/ML/examples.md", "md_atom_type": "TABLE_ROW", "md_parent_section": "§ML.1 [Example 1]", "md_verbatim": "| 3 | XYZ | ML | XYZ-001-001 | 3 | MEAL | HYPOGLYCEMIA EVALUATION | Y | Y | | | | 2015-12-31T19:00 | | | LAST MEAL PRIOR TO | HYPO3 | 2016-01-01T10:30 |", "score": 0.4277, "match_basis": "verbatim_token+domain_route:ML"}, {"md_atom_id": "md_dmML_ex_a025", "md_file": "knowledge_base/domains/ML/examples.md", "md_atom_type": "TABLE_ROW", "md_parent_section": "§ML.1 [Example 1]", "md_verbatim": "| 1 | XYZ | ML | XYZ-001-001 | 1 | SNACK | HYPOGLYCEMIA EVALUATION | Y | Y | | | | 2015-06-03T14:15 | | | LAST MEAL PRIOR TO | HYPO1 | 2015-06-03T19:20 |", "score": 0.4275, "match_basis": "verbatim_token+domain_route:ML"}, {"md_atom_id": "md_dmML_ex_a029", "md_file": "knowledge_base/domains/ML/examples.md", "md_atom_type": "TABLE_ROW", "md_parent_section": "§ML.1 [Example 1]", "md_verbatim": "| 5 | XYZ | ML | XYZ-001-001 | 5 | ACKEE FRUIT | DILI EVALUATION | Y | N | | | 2015-12-27 | | | -P1W | | | |", "score": 0.4259, "match_basis": "verbatim_token+domain_route:ML"}], "candidate_count": 5, "zero_candidate": false}
{"pdf_atom_id": "ig34_p0122_a010", "pdf_atom_type": "TABLE_ROW", "pdf_source": "SDTMIG v3.4 (no header footer).pdf", "pdf_page": 122, "pdf_parent_section": "§6.1.4 [Meal Data (ML)]", "pdf_verbatim": "MLTPREF | Time Point Reference | Char | ISO 8601 date/time or interval | Timing | Description of the fixed reference time point referred to by MLELTM, MLTPTNUM, and MLTPT. | Perm", "figure_ref": null, "candidates": [{"md_atom_id": "md_dmML_ex_a035", "md_file": "knowledge_base/domains/ML/examples.md", "md_atom_type": "TABLE_ROW", "md_parent_section": "§ML.2 [Example 2]", "md_verbatim": "| 2 | Experimental: choice architecture | Students were exposed to modifications to the physical environment in the cafeteria to \"nudge\" students towards healthier choices. Physical modifications included: placing vegetables at the beginning of the lunch line; placing fruits in attractive bowls, trays lined with appealing fabric, and fruit options next to cash registers; promoting fruits and vegetables with prominently displayed signage and images; placing white milk selection more predominantly than chocolate milk (e.g., white milk displayed in front of chocolate milk). |", "score": 0.4344, "match_basis": "verbatim_token+domain_route:ML"}, {"md_atom_id": "md_dmML_ex_a029", "md_file": "knowledge_base/domains/ML/examples.md", "md_atom_type": "TABLE_ROW", "md_parent_section": "§ML.1 [Example 1]", "md_verbatim": "| 5 | XYZ | ML | XYZ-001-001 | 5 | ACKEE FRUIT | DILI EVALUATION | Y | N | | | 2015-12-27 | | | -P1W | | | |", "score": 0.4237, "match_basis": "verbatim_token+domain_route:ML"}, {"md_atom_id": "md_dmML_ex_a030", "md_file": "knowledge_base/domains/ML/examples.md", "md_atom_type": "TABLE_ROW", "md_parent_section": "§ML.1 [Example 1]", "md_verbatim": "| 6 | XYZ | ML | XYZ-001-001 | 6 | CYCAD SEEDS | DILI EVALUATION | Y | N | | | 2015-12-27 | | | -P1W | | | |", "score": 0.4237, "match_basis": "verbatim_token+domain_route:ML"}, {"md_atom_id": "md_dmML_ex_a028", "md_file": "knowledge_base/domains/ML/examples.md", "md_atom_type": "TABLE_ROW", "md_parent_section": "§ML.1 [Example 1]", "md_verbatim": "| 4 | XYZ | ML | XYZ-001-001 | 4 | WILD MUSHROOMS | DILI EVALUATION | Y | Y | | | 2015-12-27 | 2015-12-24 | | -P1W | | | |", "score": 0.4228, "match_basis": "verbatim_token+domain_route:ML"}, {"md_atom_id": "md_dmML_ex_a027", "md_file": "knowledge_base/domains/ML/examples.md", "md_atom_type": "TABLE_ROW", "md_parent_section": "§ML.1 [Example 1]", "md_verbatim": "| 3 | XYZ | ML | XYZ-001-001 | 3 | MEAL | HYPOGLYCEMIA EVALUATION | Y | Y | | | | 2015-12-31T19:00 | | | LAST MEAL PRIOR TO | HYPO3 | 2016-01-01T10:30 |", "score": 0.4198, "match_basis": "verbatim_token+domain_route:ML"}], "candidate_count": 5, "zero_candidate": false}
{"pdf_atom_id": "ig34_p0122_a011", "pdf_atom_type": "TABLE_ROW", "pdf_source": "SDTMIG v3.4 (no header footer).pdf", "pdf_page": 122, "pdf_parent_section": "§6.1.4 [Meal Data (ML)]", "pdf_verbatim": "MLRFDTC | Date/Time of Reference | Char | ISO 8601 date/time or interval | Timing | Baseline for a fixed reference time point referred to by MLTPREF in the MLRFDTC. Baseline for a fixed reference time point. | Perm", "figure_ref": null, "candidates": [{"md_atom_id": "md_dmML_ex_a035", "md_file": "knowledge_base/domains/ML/examples.md", "md_atom_type": "TABLE_ROW", "md_parent_section": "§ML.2 [Example 2]", "md_verbatim": "| 2 | Experimental: choice architecture | Students were exposed to modifications to the physical environment in the cafeteria to \"nudge\" students towards healthier choices. Physical modifications included: placing vegetables at the beginning of the lunch line; placing fruits in attractive bowls, trays lined with appealing fabric, and fruit options next to cash registers; promoting fruits and vegetables with prominently displayed signage and images; placing white milk selection more predominantly than chocolate milk (e.g., white milk displayed in front of chocolate milk). |", "score": 0.4326, "match_basis": "verbatim_token+domain_route:ML"}, {"md_atom_id": "md_dmML_ex_a012", "md_file": "knowledge_base/domains/ML/examples.md", "md_atom_type": "TABLE_ROW", "md_parent_section": "§ML.1 [Example 1]", "md_verbatim": "| Click here to add a row: **ADD ROW** | | | | | | |", "score": 0.4103, "match_basis": "verbatim_token+domain_route:ML"}, {"md_atom_id": "md_dmML_ex_a045", "md_file": "knowledge_base/domains/ML/examples.md", "md_atom_type": "TABLE_ROW", "md_parent_section": "§ML.2 [Example 2]", "md_verbatim": "| 5 | ABC123 | ML | ABC123-001 | 5 | CHOCOLATE MILK | 2 | WEEK 2 | 2015-09-17 |", "score": 0.4087, "match_basis": "verbatim_token+domain_route:ML"}, {"md_atom_id": "md_dmML_ex_a029", "md_file": "knowledge_base/domains/ML/examples.md", "md_atom_type": "TABLE_ROW", "md_parent_section": "§ML.1 [Example 1]", "md_verbatim": "| 5 | XYZ | ML | XYZ-001-001 | 5 | ACKEE FRUIT | DILI EVALUATION | Y | N | | | 2015-12-27 | | | -P1W | | | |", "score": 0.4083, "match_basis": "verbatim_token+domain_route:ML"}, {"md_atom_id": "md_dmML_ex_a030", "md_file": "knowledge_base/domains/ML/examples.md", "md_atom_type": "TABLE_ROW", "md_parent_section": "§ML.1 [Example 1]", "md_verbatim": "| 6 | XYZ | ML | XYZ-001-001 | 6 | CYCAD SEEDS | DILI EVALUATION | Y | N | | | 2015-12-27 | | | -P1W | | | |", "score": 0.4083, "match_basis": "verbatim_token+domain_route:ML"}], "candidate_count": 5, "zero_candidate": false}
{"pdf_atom_id": "ig34_p0122_a012", "pdf_atom_type": "TABLE_ROW", "pdf_source": "SDTMIG v3.4 (no header footer).pdf", "pdf_page": 122, "pdf_parent_section": "§6.1.4 [Meal Data (ML)]", "pdf_verbatim": "MIDS | Disease Milestone Instance Name | Char | | Timing | The name of a specific instance of a disease milestone type (MIDSTYPE) described in the Trial Disease Milestones dataset. This should be unique within a study. Used only in conjunction with RELMIDS and MIDSDTC. | Perm", "figure_ref": null, "candidates": [{"md_atom_id": "md_dmML_ex_a035", "md_file": "knowledge_base/domains/ML/examples.md", "md_atom_type": "TABLE_ROW", "md_parent_section": "§ML.2 [Example 2]", "md_verbatim": "| 2 | Experimental: choice architecture | Students were exposed to modifications to the physical environment in the cafeteria to \"nudge\" students towards healthier choices. Physical modifications included: placing vegetables at the beginning of the lunch line; placing fruits in attractive bowls, trays lined with appealing fabric, and fruit options next to cash registers; promoting fruits and vegetables with prominently displayed signage and images; placing white milk selection more predominantly than chocolate milk (e.g., white milk displayed in front of chocolate milk). |", "score": 0.4465, "match_basis": "verbatim_token+domain_route:ML"}, {"md_atom_id": "md_dmML_ex_a034", "md_file": "knowledge_base/domains/ML/examples.md", "md_atom_type": "TABLE_ROW", "md_parent_section": "§ML.2 [Example 2]", "md_verbatim": "| 1 | Control | Students received standard meals in a standard cafeteria environment. |", "score": 0.4333, "match_basis": "verbatim_token+domain_route:ML"}, {"md_atom_id": "md_dmML_ex_a009", "md_file": "knowledge_base/domains/ML/examples.md", "md_atom_type": "TABLE_ROW", "md_parent_section": "§ML.1 [Example 1]", "md_verbatim": "| [X] Snack | [ ] Nutritional drink | [ ] Meal | | 2015 Jun 03 | 14:15 | CE001 |", "score": 0.4216, "match_basis": "verbatim_token+domain_route:ML"}, {"md_atom_id": "md_dmML_ex_a010", "md_file": "knowledge_base/domains/ML/examples.md", "md_atom_type": "TABLE_ROW", "md_parent_section": "§ML.1 [Example 1]", "md_verbatim": "| [ ] Snack | [X] Nutritional drink | [ ] Meal | 8 oz | 2015 Sep 03 | 8:30 | CE002 |", "score": 0.4161, "match_basis": "verbatim_token+domain_route:ML"}, {"md_atom_id": "md_dmML_ex_a011", "md_file": "knowledge_base/domains/ML/examples.md", "md_atom_type": "TABLE_ROW", "md_parent_section": "§ML.1 [Example 1]", "md_verbatim": "| [ ] Snack | [ ] Nutritional drink | [X] Meal | | 2015 Dec 31 | 19:00 | CE003 |", "score": 0.4161, "match_basis": "verbatim_token+domain_route:ML"}], "candidate_count": 5, "zero_candidate": false}
{"pdf_atom_id": "ig34_p0122_a013", "pdf_atom_type": "TABLE_ROW", "pdf_source": "SDTMIG v3.4 (no header footer).pdf", "pdf_page": 122, "pdf_parent_section": "§6.1.4 [Meal Data (ML)]", "pdf_verbatim": "RELMIDS | Temporal Relation to Milestone Instance | Char | | Timing | The temporal relationship of the observation to the disease milestone instance name in MIDS. Examples: \"IMMEDIATELY BEFORE\", \"AT TIME OF\", \"AFTER\". | Perm", "figure_ref": null, "candidates": [{"md_atom_id": "md_dmML_ex_a035", "md_file": "knowledge_base/domains/ML/examples.md", "md_atom_type": "TABLE_ROW", "md_parent_section": "§ML.2 [Example 2]", "md_verbatim": "| 2 | Experimental: choice architecture | Students were exposed to modifications to the physical environment in the cafeteria to \"nudge\" students towards healthier choices. Physical modifications included: placing vegetables at the beginning of the lunch line; placing fruits in attractive bowls, trays lined with appealing fabric, and fruit options next to cash registers; promoting fruits and vegetables with prominently displayed signage and images; placing white milk selection more predominantly than chocolate milk (e.g., white milk displayed in front of chocolate milk). |", "score": 0.4368, "match_basis": "verbatim_token+domain_route:ML"}, {"md_atom_id": "md_dmML_ex_a045", "md_file": "knowledge_base/domains/ML/examples.md", "md_atom_type": "TABLE_ROW", "md_parent_section": "§ML.2 [Example 2]", "md_verbatim": "| 5 | ABC123 | ML | ABC123-001 | 5 | CHOCOLATE MILK | 2 | WEEK 2 | 2015-09-17 |", "score": 0.4196, "match_basis": "verbatim_token+domain_route:ML"}, {"md_atom_id": "md_dmML_ex_a029", "md_file": "knowledge_base/domains/ML/examples.md", "md_atom_type": "TABLE_ROW", "md_parent_section": "§ML.1 [Example 1]", "md_verbatim": "| 5 | XYZ | ML | XYZ-001-001 | 5 | ACKEE FRUIT | DILI EVALUATION | Y | N | | | 2015-12-27 | | | -P1W | | | |", "score": 0.4189, "match_basis": "verbatim_token+domain_route:ML"}, {"md_atom_id": "md_dmML_ex_a030", "md_file": "knowledge_base/domains/ML/examples.md", "md_atom_type": "TABLE_ROW", "md_parent_section": "§ML.1 [Example 1]", "md_verbatim": "| 6 | XYZ | ML | XYZ-001-001 | 6 | CYCAD SEEDS | DILI EVALUATION | Y | N | | | 2015-12-27 | | | -P1W | | | |", "score": 0.4189, "match_basis": "verbatim_token+domain_route:ML"}, {"md_atom_id": "md_dmML_ex_a028", "md_file": "knowledge_base/domains/ML/examples.md", "md_atom_type": "TABLE_ROW", "md_parent_section": "§ML.1 [Example 1]", "md_verbatim": "| 4 | XYZ | ML | XYZ-001-001 | 4 | WILD MUSHROOMS | DILI EVALUATION | Y | Y | | | 2015-12-27 | 2015-12-24 | | -P1W | | | |", "score": 0.4184, "match_basis": "verbatim_token+domain_route:ML"}], "candidate_count": 5, "zero_candidate": false}
{"pdf_atom_id": "ig34_p0122_a014", "pdf_atom_type": "TABLE_ROW", "pdf_source": "SDTMIG v3.4 (no header footer).pdf", "pdf_page": 122, "pdf_parent_section": "§6.1.4 [Meal Data (ML)]", "pdf_verbatim": "MIDSDTC | Disease Milestone Instance Date/Time | Char | ISO 8601 date/time interval | Timing | The start date/time of the disease milestone instance name in MIDS, in ISO 8601 format. | Perm", "figure_ref": null, "candidates": [{"md_atom_id": "md_dmML_ex_a035", "md_file": "knowledge_base/domains/ML/examples.md", "md_atom_type": "TABLE_ROW", "md_parent_section": "§ML.2 [Example 2]", "md_verbatim": "| 2 | Experimental: choice architecture | Students were exposed to modifications to the physical environment in the cafeteria to \"nudge\" students towards healthier choices. Physical modifications included: placing vegetables at the beginning of the lunch line; placing fruits in attractive bowls, trays lined with appealing fabric, and fruit options next to cash registers; promoting fruits and vegetables with prominently displayed signage and images; placing white milk selection more predominantly than chocolate milk (e.g., white milk displayed in front of chocolate milk). |", "score": 0.4248, "match_basis": "verbatim_token+domain_route:ML"}, {"md_atom_id": "md_dmML_ex_a034", "md_file": "knowledge_base/domains/ML/examples.md", "md_atom_type": "TABLE_ROW", "md_parent_section": "§ML.2 [Example 2]", "md_verbatim": "| 1 | Control | Students received standard meals in a standard cafeteria environment. |", "score": 0.42, "match_basis": "verbatim_token+domain_route:ML"}, {"md_atom_id": "md_dmML_ex_a045", "md_file": "knowledge_base/domains/ML/examples.md", "md_atom_type": "TABLE_ROW", "md_parent_section": "§ML.2 [Example 2]", "md_verbatim": "| 5 | ABC123 | ML | ABC123-001 | 5 | CHOCOLATE MILK | 2 | WEEK 2 | 2015-09-17 |", "score": 0.4176, "match_basis": "verbatim_token+domain_route:ML"}, {"md_atom_id": "md_dmML_ex_a042", "md_file": "knowledge_base/domains/ML/examples.md", "md_atom_type": "TABLE_ROW", "md_parent_section": "§ML.2 [Example 2]", "md_verbatim": "| 2 | ABC123 | ML | ABC123-001 | 2 | WHITE MILK | 1 | WEEK 1 | 2015-09-09 |", "score": 0.4092, "match_basis": "verbatim_token+domain_route:ML"}, {"md_atom_id": "md_dmML_ex_a048", "md_file": "knowledge_base/domains/ML/examples.md", "md_atom_type": "TABLE_ROW", "md_parent_section": "§ML.2 [Example 2]", "md_verbatim": "| 8 | ABC123 | ML | ABC123-001 | 8 | WHITE MILK | 3 | WEEK 3 | 2015-09-22 |", "score": 0.4092, "match_basis": "verbatim_token+domain_route:ML"}], "candidate_count": 5, "zero_candidate": false}
{"pdf_atom_id": "ig34_p0122_a015", "pdf_atom_type": "NOTE", "pdf_source": "SDTMIG v3.4 (no header footer).pdf", "pdf_page": 122, "pdf_parent_section": "§6.1.4 [Meal Data (ML)]", "pdf_verbatim": "In this column, an asterisk (*) indicates that the variable may be subject to controlled terminology. CDISC/NCIBI codelist values are enclosed in parentheses.", "figure_ref": null, "candidates": [{"md_atom_id": "md_dmML_ex_a032", "md_file": "knowledge_base/domains/ML/examples.md", "md_atom_type": "SENTENCE", "md_parent_section": "§ML.2 [Example 2]", "md_verbatim": "This example describes a study that examines the effect of physical modifications in a cafeteria on selection/consumption among school students.", "score": 0.3709, "match_basis": "verbatim_token+domain_route:ML"}, {"md_atom_id": "md_dmML_ex_a003", "md_file": "knowledge_base/domains/ML/examples.md", "md_atom_type": "SENTENCE", "md_parent_section": "§ML.1 [Example 1]", "md_verbatim": "This example shows meal data collected in an effort to understand the causes of 2 different kinds of events.", "score": 0.365, "match_basis": "verbatim_token+domain_route:ML"}, {"md_atom_id": "md_dmML_ex_a038", "md_file": "knowledge_base/domains/ML/examples.md", "md_atom_type": "SENTENCE", "md_parent_section": "§ML.2 [Example 2]", "md_verbatim": "The dataset below shows the food-card data collected for the first 3 weeks for a subject.", "score": 0.3614, "match_basis": "verbatim_token+domain_route:ML"}, {"md_atom_id": "md_dmML_assn_a007", "md_file": "knowledge_base/domains/ML/assumptions.md", "md_atom_type": "SENTENCE", "md_parent_section": "§ML [ML — Assumptions]", "md_verbatim": "   The nutritional items represented in ML may be prospectively defined within a protocol, collected retrospectively as potential precipitants of clinical events, and/or to describe nutritional intake.", "score": 0.3518, "match_basis": "verbatim_token+domain_route:ML"}, {"md_atom_id": "md_dmML_ex_a036", "md_file": "knowledge_base/domains/ML/examples.md", "md_atom_type": "SENTENCE", "md_parent_section": "§ML.2 [Example 2]", "md_verbatim": "Food-card data was collected over a 7-month period by students receiving a school meal 1 day per week.", "score": 0.351, "match_basis": "verbatim_token+domain_route:ML"}], "candidate_count": 5, "zero_candidate": false}
{"pdf_atom_id": "ig34_p0122_a016", "pdf_atom_type": "HEADING", "pdf_source": "SDTMIG v3.4 (no header footer).pdf", "pdf_page": 122, "pdf_parent_section": "§6.1.4 [Meal Data (ML)]", "pdf_verbatim": "ML – Assumptions", "figure_ref": null, "candidates": [{"md_atom_id": "md_dmML_assn_a001", "md_file": "knowledge_base/domains/ML/assumptions.md", "md_atom_type": "HEADING", "md_parent_section": "§ML [ML — Assumptions]", "md_verbatim": "# ML — Assumptions", "score": 1.0, "match_basis": "verbatim_token+domain_route:ML"}, {"md_atom_id": "md_dmML_ex_a001", "md_file": "knowledge_base/domains/ML/examples.md", "md_atom_type": "HEADING", "md_parent_section": "§ML [ML — Examples]", "md_verbatim": "# ML — Examples", "score": 0.4, "match_basis": "verbatim_token+domain_route:ML"}, {"md_atom_id": "md_dmML_ex_a002", "md_file": "knowledge_base/domains/ML/examples.md", "md_atom_type": "HEADING", "md_parent_section": "§ML [ML — Examples]", "md_verbatim": "## Example 1", "score": 0.4, "match_basis": "verbatim_token+domain_route:ML"}, {"md_atom_id": "md_dmML_ex_a031", "md_file": "knowledge_base/domains/ML/examples.md", "md_atom_type": "HEADING", "md_parent_section": "§ML [ML — Examples]", "md_verbatim": "## Example 2", "score": 0.4, "match_basis": "verbatim_token+domain_route:ML"}], "candidate_count": 4, "zero_candidate": false}
{"pdf_atom_id": "ig34_p0122_a017", "pdf_atom_type": "LIST_ITEM", "pdf_source": "SDTMIG v3.4 (no header footer).pdf", "pdf_page": 122, "pdf_parent_section": "§6.1.4 [Meal Data (ML)]", "pdf_verbatim": "The ML domain is used to represent consumption of any food or nutritional item that would not be represented in the exposure domains (EC/EX), Concomitant/Prior Medications (CM), Procedure Agents (AG), or Substance Use (SU). Examples of nutritional items that would not be represented in other domains include:", "figure_ref": null, "candidates": [{"md_atom_id": "md_dmML_assn_a002", "md_file": "knowledge_base/domains/ML/assumptions.md", "md_atom_type": "LIST_ITEM", "md_parent_section": "§ML [ML — Assumptions]", "md_verbatim": "1. The ML domain is used to represent consumption of any food or nutritional item that would not be represented in the exposure domains (EC/EX), Concomitant/Prior Medications (CM), Procedure Agents (AG), or Substance Use (SU). Examples of nutritional items that would be represented in other domains include:", "score": 1.0, "match_basis": "verbatim_token+domain_route:ML"}, {"md_atom_id": "md_dmML_assn_a003", "md_file": "knowledge_base/domains/ML/assumptions.md", "md_atom_type": "LIST_ITEM", "md_parent_section": "§ML [ML — Assumptions]", "md_verbatim": "   a. Investigational nutritional products (represented in EC/EX)", "score": 0.5101, "match_basis": "verbatim_token+domain_route:ML"}, {"md_atom_id": "md_dmML_assn_a010", "md_file": "knowledge_base/domains/ML/assumptions.md", "md_atom_type": "LIST_ITEM", "md_parent_section": "§ML [ML — Assumptions]", "md_verbatim": "   b. Consumption of a food product is considered to occur over an interval of time (as opposed to a point in time). If start and end date/times are collected, they should be represented in MLSTDTC and MLENDTC, respectively. If only a start date/time is collected, it should not be copied to MLENDTC.", "score": 0.5037, "match_basis": "verbatim_token+domain_route:ML"}, {"md_atom_id": "md_dmML_assn_a004", "md_file": "knowledge_base/domains/ML/assumptions.md", "md_atom_type": "LIST_ITEM", "md_parent_section": "§ML [ML — Assumptions]", "md_verbatim": "   b. Food or drink used to treat hypoglycemic events (represented in CM)", "score": 0.4737, "match_basis": "verbatim_token+domain_route:ML"}, {"md_atom_id": "md_dmML_assn_a011", "md_file": "knowledge_base/domains/ML/assumptions.md", "md_atom_type": "LIST_ITEM", "md_parent_section": "§ML [ML — Assumptions]", "md_verbatim": "3. Any identifier variables, timing variables, or findings general observation-class qualifiers may be added to the ML domain, but the following qualifiers would generally not be used: --MOOD, --LOT, --LOC, --LAT, --DIR, --PORTOT.", "score": 0.4722, "match_basis": "verbatim_token+domain_route:ML"}], "candidate_count": 5, "zero_candidate": false}
{"pdf_atom_id": "ig34_p0122_a018", "pdf_atom_type": "LIST_ITEM", "pdf_source": "SDTMIG v3.4 (no header footer).pdf", "pdf_page": 122, "pdf_parent_section": "§6.1.4 [Meal Data (ML)]", "pdf_verbatim": "Investigational nutritional products (represented in EC/EX)", "figure_ref": null, "candidates": [{"md_atom_id": "md_dmML_assn_a003", "md_file": "knowledge_base/domains/ML/assumptions.md", "md_atom_type": "LIST_ITEM", "md_parent_section": "§ML [ML — Assumptions]", "md_verbatim": "   a. Investigational nutritional products (represented in EC/EX)", "score": 1.0, "match_basis": "verbatim_token+domain_route:ML"}, {"md_atom_id": "md_dmML_assn_a006", "md_file": "knowledge_base/domains/ML/assumptions.md", "md_atom_type": "LIST_ITEM", "md_parent_section": "§ML [ML — Assumptions]", "md_verbatim": "   d. Caffeinated drinks (represented in SU)", "score": 0.52, "match_basis": "verbatim_token+domain_route:ML"}, {"md_atom_id": "md_dmML_assn_a005", "md_file": "knowledge_base/domains/ML/assumptions.md", "md_atom_type": "LIST_ITEM", "md_parent_section": "§ML [ML — Assumptions]", "md_verbatim": "   c. Glucose given as part of a glucose tolerance test (represented in AG)", "score": 0.5176, "match_basis": "verbatim_token+domain_route:ML"}, {"md_atom_id": "md_dmML_assn_a002", "md_file": "knowledge_base/domains/ML/assumptions.md", "md_atom_type": "LIST_ITEM", "md_parent_section": "§ML [ML — Assumptions]", "md_verbatim": "1. The ML domain is used to represent consumption of any food or nutritional item that would not be represented in the exposure domains (EC/EX), Concomitant/Prior Medications (CM), Procedure Agents (AG), or Substance Use (SU). Examples of nutritional items that would be represented in other domains include:", "score": 0.5101, "match_basis": "verbatim_token+domain_route:ML"}, {"md_atom_id": "md_dmML_assn_a004", "md_file": "knowledge_base/domains/ML/assumptions.md", "md_atom_type": "LIST_ITEM", "md_parent_section": "§ML [ML — Assumptions]", "md_verbatim": "   b. Food or drink used to treat hypoglycemic events (represented in CM)", "score": 0.4964, "match_basis": "verbatim_token+domain_route:ML"}], "candidate_count": 5, "zero_candidate": false}
{"pdf_atom_id": "ig34_p0122_a019", "pdf_atom_type": "LIST_ITEM", "pdf_source": "SDTMIG v3.4 (no header footer).pdf", "pdf_page": 122, "pdf_parent_section": "§6.1.4 [Meal Data (ML)]", "pdf_verbatim": "Food or drink used to treat hypoglycemic events (represented in CM)", "figure_ref": null, "candidates": [{"md_atom_id": "md_dmML_assn_a004", "md_file": "knowledge_base/domains/ML/assumptions.md", "md_atom_type": "LIST_ITEM", "md_parent_section": "§ML [ML — Assumptions]", "md_verbatim": "   b. Food or drink used to treat hypoglycemic events (represented in CM)", "score": 1.0, "match_basis": "verbatim_token+domain_route:ML"}, {"md_atom_id": "md_dmML_assn_a006", "md_file": "knowledge_base/domains/ML/assumptions.md", "md_atom_type": "LIST_ITEM", "md_parent_section": "§ML [ML — Assumptions]", "md_verbatim": "   d. Caffeinated drinks (represented in SU)", "score": 0.5756, "match_basis": "verbatim_token+domain_route:ML"}, {"md_atom_id": "md_dmML_ex_a004", "md_file": "knowledge_base/domains/ML/examples.md", "md_atom_type": "LIST_ITEM", "md_parent_section": "§ML.1 [Example 1]", "md_verbatim": "- Data was collected about the last meal before each hypoglycemic event", "score": 0.5527, "match_basis": "verbatim_token+domain_route:ML"}, {"md_atom_id": "md_dmML_assn_a005", "md_file": "knowledge_base/domains/ML/assumptions.md", "md_atom_type": "LIST_ITEM", "md_parent_section": "§ML [ML — Assumptions]", "md_verbatim": "   c. Glucose given as part of a glucose tolerance test (represented in AG)", "score": 0.52, "match_basis": "verbatim_token+domain_route:ML"}, {"md_atom_id": "md_dmML_ex_a021", "md_file": "knowledge_base/domains/ML/examples.md", "md_atom_type": "SENTENCE", "md_parent_section": "§ML.1 [Example 1]", "md_verbatim": "**Rows 1-3:** Show the last meal data for 3 hypoglycemic events.", "score": 0.5009, "match_basis": "verbatim_token+domain_route:ML"}], "candidate_count": 5, "zero_candidate": false}
{"pdf_atom_id": "ig34_p0122_a020", "pdf_atom_type": "LIST_ITEM", "pdf_source": "SDTMIG v3.4 (no header footer).pdf", "pdf_page": 122, "pdf_parent_section": "§6.1.4 [Meal Data (ML)]", "pdf_verbatim": "Glucose given as part of a glucose tolerance test (represented in AG)", "figure_ref": null, "candidates": [{"md_atom_id": "md_dmML_assn_a005", "md_file": "knowledge_base/domains/ML/assumptions.md", "md_atom_type": "LIST_ITEM", "md_parent_section": "§ML [ML — Assumptions]", "md_verbatim": "   c. Glucose given as part of a glucose tolerance test (represented in AG)", "score": 1.0, "match_basis": "verbatim_token+domain_route:ML"}, {"md_atom_id": "md_dmML_assn_a006", "md_file": "knowledge_base/domains/ML/assumptions.md", "md_atom_type": "LIST_ITEM", "md_parent_section": "§ML [ML — Assumptions]", "md_verbatim": "   d. Caffeinated drinks (represented in SU)", "score": 0.535, "match_basis": "verbatim_token+domain_route:ML"}, {"md_atom_id": "md_dmML_assn_a004", "md_file": "knowledge_base/domains/ML/assumptions.md", "md_atom_type": "LIST_ITEM", "md_parent_section": "§ML [ML — Assumptions]", "md_verbatim": "   b. Food or drink used to treat hypoglycemic events (represented in CM)", "score": 0.52, "match_basis": "verbatim_token+domain_route:ML"}, {"md_atom_id": "md_dmML_assn_a003", "md_file": "knowledge_base/domains/ML/assumptions.md", "md_atom_type": "LIST_ITEM", "md_parent_section": "§ML [ML — Assumptions]", "md_verbatim": "   a. Investigational nutritional products (represented in EC/EX)", "score": 0.5176, "match_basis": "verbatim_token+domain_route:ML"}, {"md_atom_id": "md_dmML_assn_a010", "md_file": "knowledge_base/domains/ML/assumptions.md", "md_atom_type": "LIST_ITEM", "md_parent_section": "§ML [ML — Assumptions]", "md_verbatim": "   b. Consumption of a food product is considered to occur over an interval of time (as opposed to a point in time). If start and end date/times are collected, they should be represented in MLSTDTC and MLENDTC, respectively. If only a start date/time is collected, it should not be copied to MLENDTC.", "score": 0.4655, "match_basis": "verbatim_token+domain_route:ML"}], "candidate_count": 5, "zero_candidate": false}
{"pdf_atom_id": "ig34_p0122_a021", "pdf_atom_type": "LIST_ITEM", "pdf_source": "SDTMIG v3.4 (no header footer).pdf", "pdf_page": 122, "pdf_parent_section": "§6.1.4 [Meal Data (ML)]", "pdf_verbatim": "Caffeinated drinks (represented in SU)", "figure_ref": null, "candidates": [{"md_atom_id": "md_dmML_assn_a006", "md_file": "knowledge_base/domains/ML/assumptions.md", "md_atom_type": "LIST_ITEM", "md_parent_section": "§ML [ML — Assumptions]", "md_verbatim": "   d. Caffeinated drinks (represented in SU)", "score": 1.0, "match_basis": "verbatim_token+domain_route:ML"}, {"md_atom_id": "md_dmML_assn_a004", "md_file": "knowledge_base/domains/ML/assumptions.md", "md_atom_type": "LIST_ITEM", "md_parent_section": "§ML [ML — Assumptions]", "md_verbatim": "   b. Food or drink used to treat hypoglycemic events (represented in CM)", "score": 0.5756, "match_basis": "verbatim_token+domain_route:ML"}, {"md_atom_id": "md_dmML_assn_a005", "md_file": "knowledge_base/domains/ML/assumptions.md", "md_atom_type": "LIST_ITEM", "md_parent_section": "§ML [ML — Assumptions]", "md_verbatim": "   c. Glucose given as part of a glucose tolerance test (represented in AG)", "score": 0.535, "match_basis": "verbatim_token+domain_route:ML"}, {"md_atom_id": "md_dmML_assn_a003", "md_file": "knowledge_base/domains/ML/assumptions.md", "md_atom_type": "LIST_ITEM", "md_parent_section": "§ML [ML — Assumptions]", "md_verbatim": "   a. Investigational nutritional products (represented in EC/EX)", "score": 0.52, "match_basis": "verbatim_token+domain_route:ML"}, {"md_atom_id": "md_dmML_assn_a010", "md_file": "knowledge_base/domains/ML/assumptions.md", "md_atom_type": "LIST_ITEM", "md_parent_section": "§ML [ML — Assumptions]", "md_verbatim": "   b. Consumption of a food product is considered to occur over an interval of time (as opposed to a point in time). If start and end date/times are collected, they should be represented in MLSTDTC and MLENDTC, respectively. If only a start date/time is collected, it should not be copied to MLENDTC.", "score": 0.4571, "match_basis": "verbatim_token+domain_route:ML"}], "candidate_count": 5, "zero_candidate": false}
{"pdf_atom_id": "ig34_p0122_a022", "pdf_atom_type": "SENTENCE", "pdf_source": "SDTMIG v3.4 (no header footer).pdf", "pdf_page": 122, "pdf_parent_section": "§6.1.4 [Meal Data (ML)]", "pdf_verbatim": "The nutritional items represented in ML may be prospectively defined within a protocol, collected retrospectively as potential precipitants of clinical events, and/or to describe nutritional intake.", "figure_ref": null, "candidates": [{"md_atom_id": "md_dmML_assn_a007", "md_file": "knowledge_base/domains/ML/assumptions.md", "md_atom_type": "SENTENCE", "md_parent_section": "§ML [ML — Assumptions]", "md_verbatim": "   The nutritional items represented in ML may be prospectively defined within a protocol, collected retrospectively as potential precipitants of clinical events, and/or to describe nutritional intake.", "score": 1.0, "match_basis": "verbatim_token+domain_route:ML"}, {"md_atom_id": "md_dmML_ex_a020", "md_file": "knowledge_base/domains/ML/examples.md", "md_atom_type": "SENTENCE", "md_parent_section": "§ML.1 [Example 1]", "md_verbatim": "Because no end date was collected, the meal was represented as a point-in-time event, as described in Assumption 2b.", "score": 0.5459, "match_basis": "verbatim_token+domain_route:ML"}, {"md_atom_id": "md_dmML_ex_a032", "md_file": "knowledge_base/domains/ML/examples.md", "md_atom_type": "SENTENCE", "md_parent_section": "§ML.2 [Example 2]", "md_verbatim": "This example describes a study that examines the effect of physical modifications in a cafeteria on selection/consumption among school students.", "score": 0.4755, "match_basis": "verbatim_token+domain_route:ML"}, {"md_atom_id": "md_dmML_ex_a003", "md_file": "knowledge_base/domains/ML/examples.md", "md_atom_type": "SENTENCE", "md_parent_section": "§ML.1 [Example 1]", "md_verbatim": "This example shows meal data collected in an effort to understand the causes of 2 different kinds of events.", "score": 0.472, "match_basis": "verbatim_token+domain_route:ML"}, {"md_atom_id": "md_dmML_ex_a022", "md_file": "knowledge_base/domains/ML/examples.md", "md_atom_type": "SENTENCE", "md_parent_section": "§ML.1 [Example 1]", "md_verbatim": "**Rows 4-6:** Show the meal data collected relative to the suspected DILI.", "score": 0.4686, "match_basis": "verbatim_token+domain_route:ML"}], "candidate_count": 5, "zero_candidate": false}
{"pdf_atom_id": "ig34_p0122_a023", "pdf_atom_type": "LIST_ITEM", "pdf_source": "SDTMIG v3.4 (no header footer).pdf", "pdf_page": 122, "pdf_parent_section": "§6.1.4 [Meal Data (ML)]", "pdf_verbatim": "Additional timing variables", "figure_ref": null, "candidates": [{"md_atom_id": "md_dmML_assn_a008", "md_file": "knowledge_base/domains/ML/assumptions.md", "md_atom_type": "LIST_ITEM", "md_parent_section": "§ML [ML — Assumptions]", "md_verbatim": "2. Additional timing variables", "score": 1.0, "match_basis": "verbatim_token+domain_route:ML"}, {"md_atom_id": "md_dmML_assn_a009", "md_file": "knowledge_base/domains/ML/assumptions.md", "md_atom_type": "LIST_ITEM", "md_parent_section": "§ML [ML — Assumptions]", "md_verbatim": "   a. Any additional timing variables may be added to this domain.", "score": 0.7931, "match_basis": "verbatim_token+domain_route:ML"}, {"md_atom_id": "md_dmML_assn_a011", "md_file": "knowledge_base/domains/ML/assumptions.md", "md_atom_type": "LIST_ITEM", "md_parent_section": "§ML [ML — Assumptions]", "md_verbatim": "3. Any identifier variables, timing variables, or findings general observation-class qualifiers may be added to the ML domain, but the following qualifiers would generally not be used: --MOOD, --LOT, --LOC, --LAT, --DIR, --PORTOT.", "score": 0.4977, "match_basis": "verbatim_token+domain_route:ML"}, {"md_atom_id": "md_dmML_assn_a003", "md_file": "knowledge_base/domains/ML/assumptions.md", "md_atom_type": "LIST_ITEM", "md_parent_section": "§ML [ML — Assumptions]", "md_verbatim": "   a. Investigational nutritional products (represented in EC/EX)", "score": 0.4638, "match_basis": "verbatim_token+domain_route:ML"}, {"md_atom_id": "md_dmML_assn_a002", "md_file": "knowledge_base/domains/ML/assumptions.md", "md_atom_type": "LIST_ITEM", "md_parent_section": "§ML [ML — Assumptions]", "md_verbatim": "1. The ML domain is used to represent consumption of any food or nutritional item that would not be represented in the exposure domains (EC/EX), Concomitant/Prior Medications (CM), Procedure Agents (AG), or Substance Use (SU). Examples of nutritional items that would be represented in other domains include:", "score": 0.433, "match_basis": "verbatim_token+domain_route:ML"}], "candidate_count": 5, "zero_candidate": false}
{"pdf_atom_id": "ig34_p0122_a024", "pdf_atom_type": "LIST_ITEM", "pdf_source": "SDTMIG v3.4 (no header footer).pdf", "pdf_page": 122, "pdf_parent_section": "§6.1.4 [Meal Data (ML)]", "pdf_verbatim": "Any additional timing variables may be added to this domain.", "figure_ref": null, "candidates": [{"md_atom_id": "md_dmML_assn_a009", "md_file": "knowledge_base/domains/ML/assumptions.md", "md_atom_type": "LIST_ITEM", "md_parent_section": "§ML [ML — Assumptions]", "md_verbatim": "   a. Any additional timing variables may be added to this domain.", "score": 1.0, "match_basis": "verbatim_token+domain_route:ML"}, {"md_atom_id": "md_dmML_assn_a008", "md_file": "knowledge_base/domains/ML/assumptions.md", "md_atom_type": "LIST_ITEM", "md_parent_section": "§ML [ML — Assumptions]", "md_verbatim": "2. Additional timing variables", "score": 0.7931, "match_basis": "verbatim_token+domain_route:ML"}, {"md_atom_id": "md_dmML_assn_a011", "md_file": "knowledge_base/domains/ML/assumptions.md", "md_atom_type": "LIST_ITEM", "md_parent_section": "§ML [ML — Assumptions]", "md_verbatim": "3. Any identifier variables, timing variables, or findings general observation-class qualifiers may be added to the ML domain, but the following qualifiers would generally not be used: --MOOD, --LOT, --LOC, --LAT, --DIR, --PORTOT.", "score": 0.55, "match_basis": "verbatim_token+domain_route:ML"}, {"md_atom_id": "md_dmML_assn_a002", "md_file": "knowledge_base/domains/ML/assumptions.md", "md_atom_type": "LIST_ITEM", "md_parent_section": "§ML [ML — Assumptions]", "md_verbatim": "1. The ML domain is used to represent consumption of any food or nutritional item that would not be represented in the exposure domains (EC/EX), Concomitant/Prior Medications (CM), Procedure Agents (AG), or Substance Use (SU). Examples of nutritional items that would be represented in other domains include:", "score": 0.4579, "match_basis": "verbatim_token+domain_route:ML"}, {"md_atom_id": "md_dmML_assn_a003", "md_file": "knowledge_base/domains/ML/assumptions.md", "md_atom_type": "LIST_ITEM", "md_parent_section": "§ML [ML — Assumptions]", "md_verbatim": "   a. Investigational nutritional products (represented in EC/EX)", "score": 0.4526, "match_basis": "verbatim_token+domain_route:ML"}], "candidate_count": 5, "zero_candidate": false}
{"pdf_atom_id": "ig34_p0122_a025", "pdf_atom_type": "LIST_ITEM", "pdf_source": "SDTMIG v3.4 (no header footer).pdf", "pdf_page": 122, "pdf_parent_section": "§6.1.4 [Meal Data (ML)]", "pdf_verbatim": "Consumption of a food product is considered to occur over an interval of time (as opposed to a point in time). If start and end date/times are collected, they should be represented in MLSTDTC and MLENDTC, respectively. If only a start date/time is collected, it should not be copied to MLENDTC.", "figure_ref": null, "candidates": [{"md_atom_id": "md_dmML_assn_a010", "md_file": "knowledge_base/domains/ML/assumptions.md", "md_atom_type": "LIST_ITEM", "md_parent_section": "§ML [ML — Assumptions]", "md_verbatim": "   b. Consumption of a food product is considered to occur over an interval of time (as opposed to a point in time). If start and end date/times are collected, they should be represented in MLSTDTC and MLENDTC, respectively. If only a start date/time is collected, it should not be copied to MLENDTC.", "score": 1.0, "match_basis": "verbatim_token+domain_route:ML"}, {"md_atom_id": "md_dmML_ex_a005", "md_file": "knowledge_base/domains/ML/examples.md", "md_atom_type": "LIST_ITEM", "md_parent_section": "§ML.1 [Example 1]", "md_verbatim": "- Data was collected about the occurrence of prespecified foods prior to a suspected event of drug-induced liver injury (DILI).", "score": 0.5116, "match_basis": "verbatim_token+domain_route:ML"}, {"md_atom_id": "md_dmML_assn_a002", "md_file": "knowledge_base/domains/ML/assumptions.md", "md_atom_type": "LIST_ITEM", "md_parent_section": "§ML [ML — Assumptions]", "md_verbatim": "1. The ML domain is used to represent consumption of any food or nutritional item that would not be represented in the exposure domains (EC/EX), Concomitant/Prior Medications (CM), Procedure Agents (AG), or Substance Use (SU). Examples of nutritional items that would be represented in other domains include:", "score": 0.5037, "match_basis": "verbatim_token+domain_route:ML"}, {"md_atom_id": "md_dmML_assn_a003", "md_file": "knowledge_base/domains/ML/assumptions.md", "md_atom_type": "LIST_ITEM", "md_parent_section": "§ML [ML — Assumptions]", "md_verbatim": "   a. Investigational nutritional products (represented in EC/EX)", "score": 0.4865, "match_basis": "verbatim_token+domain_route:ML"}, {"md_atom_id": "md_dmML_ex_a020", "md_file": "knowledge_base/domains/ML/examples.md", "md_atom_type": "SENTENCE", "md_parent_section": "§ML.1 [Example 1]", "md_verbatim": "Because no end date was collected, the meal was represented as a point-in-time event, as described in Assumption 2b.", "score": 0.4693, "match_basis": "verbatim_token+domain_route:ML"}], "candidate_count": 5, "zero_candidate": false}
{"pdf_atom_id": "ig34_p0122_a026", "pdf_atom_type": "LIST_ITEM", "pdf_source": "SDTMIG v3.4 (no header footer).pdf", "pdf_page": 122, "pdf_parent_section": "§6.1.4 [Meal Data (ML)]", "pdf_verbatim": "Any identifier variables, timing variables, or findings general observation-class qualifiers may be added to the ML domain, but the following qualifiers would generally not be used: --MOOD, --LOT, --LOC, --LAT, --DIR, --PORTOT.", "figure_ref": null, "candidates": [{"md_atom_id": "md_dmML_assn_a011", "md_file": "knowledge_base/domains/ML/assumptions.md", "md_atom_type": "LIST_ITEM", "md_parent_section": "§ML [ML — Assumptions]", "md_verbatim": "3. Any identifier variables, timing variables, or findings general observation-class qualifiers may be added to the ML domain, but the following qualifiers would generally not be used: --MOOD, --LOT, --LOC, --LAT, --DIR, --PORTOT.", "score": 1.0, "match_basis": "verbatim_token+domain_route:ML"}, {"md_atom_id": "md_dmML_assn_a009", "md_file": "knowledge_base/domains/ML/assumptions.md", "md_atom_type": "LIST_ITEM", "md_parent_section": "§ML [ML — Assumptions]", "md_verbatim": "   a. Any additional timing variables may be added to this domain.", "score": 0.55, "match_basis": "verbatim_token+domain_route:ML"}, {"md_atom_id": "md_dmML_assn_a008", "md_file": "knowledge_base/domains/ML/assumptions.md", "md_atom_type": "LIST_ITEM", "md_parent_section": "§ML [ML — Assumptions]", "md_verbatim": "2. Additional timing variables", "score": 0.4977, "match_basis": "verbatim_token+domain_route:ML"}, {"md_atom_id": "md_dmML_assn_a002", "md_file": "knowledge_base/domains/ML/assumptions.md", "md_atom_type": "LIST_ITEM", "md_parent_section": "§ML [ML — Assumptions]", "md_verbatim": "1. The ML domain is used to represent consumption of any food or nutritional item that would not be represented in the exposure domains (EC/EX), Concomitant/Prior Medications (CM), Procedure Agents (AG), or Substance Use (SU). Examples of nutritional items that would be represented in other domains include:", "score": 0.4722, "match_basis": "verbatim_token+domain_route:ML"}, {"md_atom_id": "md_dmML_assn_a010", "md_file": "knowledge_base/domains/ML/assumptions.md", "md_atom_type": "LIST_ITEM", "md_parent_section": "§ML [ML — Assumptions]", "md_verbatim": "   b. Consumption of a food product is considered to occur over an interval of time (as opposed to a point in time). If start and end date/times are collected, they should be represented in MLSTDTC and MLENDTC, respectively. If only a start date/time is collected, it should not be copied to MLENDTC.", "score": 0.4522, "match_basis": "verbatim_token+domain_route:ML"}], "candidate_count": 5, "zero_candidate": false}
{"pdf_atom_id": "ig34_p0123_a001", "pdf_atom_type": "HEADING", "pdf_source": "SDTMIG v3.4 (no header footer).pdf", "pdf_page": 123, "pdf_parent_section": "§6.1.4 [Meal Data (ML)]", "pdf_verbatim": "ML – Examples", "figure_ref": null, "candidates": [{"md_atom_id": "md_dmML_ex_a001", "md_file": "knowledge_base/domains/ML/examples.md", "md_atom_type": "HEADING", "md_parent_section": "§ML [ML — Examples]", "md_verbatim": "# ML — Examples", "score": 1.0, "match_basis": "verbatim_token+domain_route:ML"}, {"md_atom_id": "md_dmML_ex_a002", "md_file": "knowledge_base/domains/ML/examples.md", "md_atom_type": "HEADING", "md_parent_section": "§ML [ML — Examples]", "md_verbatim": "## Example 1", "score": 0.9, "match_basis": "verbatim_token+domain_route:ML"}, {"md_atom_id": "md_dmML_ex_a031", "md_file": "knowledge_base/domains/ML/examples.md", "md_atom_type": "HEADING", "md_parent_section": "§ML [ML — Examples]", "md_verbatim": "## Example 2", "score": 0.9, "match_basis": "verbatim_token+domain_route:ML"}, {"md_atom_id": "md_dmML_assn_a001", "md_file": "knowledge_base/domains/ML/assumptions.md", "md_atom_type": "HEADING", "md_parent_section": "§ML [ML — Assumptions]", "md_verbatim": "# ML — Assumptions", "score": 0.4, "match_basis": "verbatim_token+domain_route:ML"}], "candidate_count": 4, "zero_candidate": false}
{"pdf_atom_id": "ig34_p0123_a002", "pdf_atom_type": "HEADING", "pdf_source": "SDTMIG v3.4 (no header footer).pdf", "pdf_page": 123, "pdf_parent_section": "§6.1.4 [Meal Data (ML)]", "pdf_verbatim": "Example 1", "figure_ref": null, "candidates": [{"md_atom_id": "md_dmML_ex_a002", "md_file": "knowledge_base/domains/ML/examples.md", "md_atom_type": "HEADING", "md_parent_section": "§ML [ML — Examples]", "md_verbatim": "## Example 1", "score": 1.0, "match_basis": "verbatim_token+domain_route:ML"}, {"md_atom_id": "md_dmML_ex_a031", "md_file": "knowledge_base/domains/ML/examples.md", "md_atom_type": "HEADING", "md_parent_section": "§ML [ML — Examples]", "md_verbatim": "## Example 2", "score": 1.0, "match_basis": "verbatim_token+domain_route:ML"}, {"md_atom_id": "md_dmML_ex_a001", "md_file": "knowledge_base/domains/ML/examples.md", "md_atom_type": "HEADING", "md_parent_section": "§ML [ML — Examples]", "md_verbatim": "# ML — Examples", "score": 0.9, "match_basis": "verbatim_token+domain_route:ML"}, {"md_atom_id": "md_dmML_assn_a001", "md_file": "knowledge_base/domains/ML/assumptions.md", "md_atom_type": "HEADING", "md_parent_section": "§ML [ML — Assumptions]", "md_verbatim": "# ML — Assumptions", "score": 0.4, "match_basis": "verbatim_token+domain_route:ML"}], "candidate_count": 4, "zero_candidate": false}
{"pdf_atom_id": "ig34_p0123_a003", "pdf_atom_type": "SENTENCE", "pdf_source": "SDTMIG v3.4 (no header footer).pdf", "pdf_page": 123, "pdf_parent_section": "§6.1.4 [Meal Data (ML)]", "pdf_verbatim": "This example shows meal data collected in an effort to understand the causes of 2 different kinds of events.", "figure_ref": null, "candidates": [{"md_atom_id": "md_dmML_ex_a003", "md_file": "knowledge_base/domains/ML/examples.md", "md_atom_type": "SENTENCE", "md_parent_section": "§ML.1 [Example 1]", "md_verbatim": "This example shows meal data collected in an effort to understand the causes of 2 different kinds of events.", "score": 1.0, "match_basis": "verbatim_token+domain_route:ML"}, {"md_atom_id": "md_dmML_ex_a022", "md_file": "knowledge_base/domains/ML/examples.md", "md_atom_type": "SENTENCE", "md_parent_section": "§ML.1 [Example 1]", "md_verbatim": "**Rows 4-6:** Show the meal data collected relative to the suspected DILI.", "score": 0.5406, "match_basis": "verbatim_token+domain_route:ML"}, {"md_atom_id": "md_dmML_ex_a038", "md_file": "knowledge_base/domains/ML/examples.md", "md_atom_type": "SENTENCE", "md_parent_section": "§ML.2 [Example 2]", "md_verbatim": "The dataset below shows the food-card data collected for the first 3 weeks for a subject.", "score": 0.5286, "match_basis": "verbatim_token+domain_route:ML"}, {"md_atom_id": "md_dmML_ex_a020", "md_file": "knowledge_base/domains/ML/examples.md", "md_atom_type": "SENTENCE", "md_parent_section": "§ML.1 [Example 1]", "md_verbatim": "Because no end date was collected, the meal was represented as a point-in-time event, as described in Assumption 2b.", "score": 0.5229, "match_basis": "verbatim_token+domain_route:ML"}, {"md_atom_id": "md_dmML_ex_a021", "md_file": "knowledge_base/domains/ML/examples.md", "md_atom_type": "SENTENCE", "md_parent_section": "§ML.1 [Example 1]", "md_verbatim": "**Rows 1-3:** Show the last meal data for 3 hypoglycemic events.", "score": 0.5219, "match_basis": "verbatim_token+domain_route:ML"}], "candidate_count": 5, "zero_candidate": false}
{"pdf_atom_id": "ig34_p0123_a004", "pdf_atom_type": "LIST_ITEM", "pdf_source": "SDTMIG v3.4 (no header footer).pdf", "pdf_page": 123, "pdf_parent_section": "§6.1.4 [Meal Data (ML)]", "pdf_verbatim": "Data was collected about the last meal before each hypoglycemic event", "figure_ref": null, "candidates": [{"md_atom_id": "md_dmML_ex_a004", "md_file": "knowledge_base/domains/ML/examples.md", "md_atom_type": "LIST_ITEM", "md_parent_section": "§ML.1 [Example 1]", "md_verbatim": "- Data was collected about the last meal before each hypoglycemic event", "score": 1.0, "match_basis": "verbatim_token+domain_route:ML"}, {"md_atom_id": "md_dmML_ex_a021", "md_file": "knowledge_base/domains/ML/examples.md", "md_atom_type": "SENTENCE", "md_parent_section": "§ML.1 [Example 1]", "md_verbatim": "**Rows 1-3:** Show the last meal data for 3 hypoglycemic events.", "score": 0.61, "match_basis": "verbatim_token+domain_route:ML"}, {"md_atom_id": "md_dmML_assn_a004", "md_file": "knowledge_base/domains/ML/assumptions.md", "md_atom_type": "LIST_ITEM", "md_parent_section": "§ML [ML — Assumptions]", "md_verbatim": "   b. Food or drink used to treat hypoglycemic events (represented in CM)", "score": 0.5527, "match_basis": "verbatim_token+domain_route:ML"}, {"md_atom_id": "md_dmML_ex_a005", "md_file": "knowledge_base/domains/ML/examples.md", "md_atom_type": "LIST_ITEM", "md_parent_section": "§ML.1 [Example 1]", "md_verbatim": "- Data was collected about the occurrence of prespecified foods prior to a suspected event of drug-induced liver injury (DILI).", "score": 0.5291, "match_basis": "verbatim_token+domain_route:ML"}, {"md_atom_id": "md_dmML_ex_a007", "md_file": "knowledge_base/domains/ML/examples.md", "md_atom_type": "SENTENCE", "md_parent_section": "§ML.1 [Example 1]", "md_verbatim": "Record the last type of meal/food consumption prior to the hypoglycemic event:", "score": 0.4995, "match_basis": "verbatim_token+domain_route:ML"}], "candidate_count": 5, "zero_candidate": false}
{"pdf_atom_id": "ig34_p0123_a005", "pdf_atom_type": "LIST_ITEM", "pdf_source": "SDTMIG v3.4 (no header footer).pdf", "pdf_page": 123, "pdf_parent_section": "§6.1.4 [Meal Data (ML)]", "pdf_verbatim": "Data was collected about the occurrence of of prespecified foods prior to a suspected event of drug-induced liver injury (DILI).", "figure_ref": null, "candidates": [{"md_atom_id": "md_dmML_ex_a005", "md_file": "knowledge_base/domains/ML/examples.md", "md_atom_type": "LIST_ITEM", "md_parent_section": "§ML.1 [Example 1]", "md_verbatim": "- Data was collected about the occurrence of prespecified foods prior to a suspected event of drug-induced liver injury (DILI).", "score": 1.0, "match_basis": "verbatim_token+domain_route:ML"}, {"md_atom_id": "md_dmML_ex_a004", "md_file": "knowledge_base/domains/ML/examples.md", "md_atom_type": "LIST_ITEM", "md_parent_section": "§ML.1 [Example 1]", "md_verbatim": "- Data was collected about the last meal before each hypoglycemic event", "score": 0.5291, "match_basis": "verbatim_token+domain_route:ML"}, {"md_atom_id": "md_dmML_assn_a010", "md_file": "knowledge_base/domains/ML/assumptions.md", "md_atom_type": "LIST_ITEM", "md_parent_section": "§ML [ML — Assumptions]", "md_verbatim": "   b. Consumption of a food product is considered to occur over an interval of time (as opposed to a point in time). If start and end date/times are collected, they should be represented in MLSTDTC and MLENDTC, respectively. If only a start date/time is collected, it should not be copied to MLENDTC.", "score": 0.5116, "match_basis": "verbatim_token+domain_route:ML"}, {"md_atom_id": "md_dmML_assn_a004", "md_file": "knowledge_base/domains/ML/assumptions.md", "md_atom_type": "LIST_ITEM", "md_parent_section": "§ML [ML — Assumptions]", "md_verbatim": "   b. Food or drink used to treat hypoglycemic events (represented in CM)", "score": 0.4578, "match_basis": "verbatim_token+domain_route:ML"}, {"md_atom_id": "md_dmML_ex_a022", "md_file": "knowledge_base/domains/ML/examples.md", "md_atom_type": "SENTENCE", "md_parent_section": "§ML.1 [Example 1]", "md_verbatim": "**Rows 4-6:** Show the meal data collected relative to the suspected DILI.", "score": 0.4557, "match_basis": "verbatim_token+domain_route:ML"}], "candidate_count": 5, "zero_candidate": false}
{"pdf_atom_id": "ig34_p0123_a006", "pdf_atom_type": "HEADING", "pdf_source": "SDTMIG v3.4 (no header footer).pdf", "pdf_page": 123, "pdf_parent_section": "§6.1.4 [Meal Data (ML)]", "pdf_verbatim": "Meal Log CRF", "figure_ref": null, "candidates": [{"md_atom_id": "md_dmML_assn_a001", "md_file": "knowledge_base/domains/ML/assumptions.md", "md_atom_type": "HEADING", "md_parent_section": "§ML [ML — Assumptions]", "md_verbatim": "# ML — Assumptions", "score": 0.4, "match_basis": "verbatim_token+domain_route:ML"}, {"md_atom_id": "md_dmML_ex_a001", "md_file": "knowledge_base/domains/ML/examples.md", "md_atom_type": "HEADING", "md_parent_section": "§ML [ML — Examples]", "md_verbatim": "# ML — Examples", "score": 0.4, "match_basis": "verbatim_token+domain_route:ML"}, {"md_atom_id": "md_dmML_ex_a002", "md_file": "knowledge_base/domains/ML/examples.md", "md_atom_type": "HEADING", "md_parent_section": "§ML [ML — Examples]", "md_verbatim": "## Example 1", "score": 0.4, "match_basis": "verbatim_token+domain_route:ML"}, {"md_atom_id": "md_dmML_ex_a031", "md_file": "knowledge_base/domains/ML/examples.md", "md_atom_type": "HEADING", "md_parent_section": "§ML [ML — Examples]", "md_verbatim": "## Example 2", "score": 0.4, "match_basis": "verbatim_token+domain_route:ML"}], "candidate_count": 4, "zero_candidate": false}
{"pdf_atom_id": "ig34_p0123_a007", "pdf_atom_type": "SENTENCE", "pdf_source": "SDTMIG v3.4 (no header footer).pdf", "pdf_page": 123, "pdf_parent_section": "§6.1.4 [Meal Data (ML)]", "pdf_verbatim": "Record the last type of meal/food consumption prior to the hypoglycemic event:", "figure_ref": null, "candidates": [{"md_atom_id": "md_dmML_ex_a007", "md_file": "knowledge_base/domains/ML/examples.md", "md_atom_type": "SENTENCE", "md_parent_section": "§ML.1 [Example 1]", "md_verbatim": "Record the last type of meal/food consumption prior to the hypoglycemic event:", "score": 1.0, "match_basis": "verbatim_token+domain_route:ML"}, {"md_atom_id": "md_dmML_ex_a021", "md_file": "knowledge_base/domains/ML/examples.md", "md_atom_type": "SENTENCE", "md_parent_section": "§ML.1 [Example 1]", "md_verbatim": "**Rows 1-3:** Show the last meal data for 3 hypoglycemic events.", "score": 0.6348, "match_basis": "verbatim_token+domain_route:ML"}, {"md_atom_id": "md_dmML_ex_a004", "md_file": "knowledge_base/domains/ML/examples.md", "md_atom_type": "LIST_ITEM", "md_parent_section": "§ML.1 [Example 1]", "md_verbatim": "- Data was collected about the last meal before each hypoglycemic event", "score": 0.4995, "match_basis": "verbatim_token+domain_route:ML"}, {"md_atom_id": "md_dmML_ex_a020", "md_file": "knowledge_base/domains/ML/examples.md", "md_atom_type": "SENTENCE", "md_parent_section": "§ML.1 [Example 1]", "md_verbatim": "Because no end date was collected, the meal was represented as a point-in-time event, as described in Assumption 2b.", "score": 0.496, "match_basis": "verbatim_token+domain_route:ML"}, {"md_atom_id": "md_dmML_assn_a004", "md_file": "knowledge_base/domains/ML/assumptions.md", "md_atom_type": "LIST_ITEM", "md_parent_section": "§ML [ML — Assumptions]", "md_verbatim": "   b. Food or drink used to treat hypoglycemic events (represented in CM)", "score": 0.4736, "match_basis": "verbatim_token+domain_route:ML"}], "candidate_count": 5, "zero_candidate": false}
{"pdf_atom_id": "ig34_p0123_a008", "pdf_atom_type": "TABLE_HEADER", "pdf_source": "SDTMIG v3.4 (no header footer).pdf", "pdf_page": 123, "pdf_parent_section": "§6.1.4 [Meal Data (ML)]", "pdf_verbatim": "Type | If Nutritional Drink, Volume (ounces) | Start Date | Start Time | Event ID", "figure_ref": null, "candidates": [{"md_atom_id": "md_dmML_ex_a008", "md_file": "knowledge_base/domains/ML/examples.md", "md_atom_type": "TABLE_HEADER", "md_parent_section": "§ML.1 [Example 1]", "md_verbatim": "| Type | | | If Nutritional Drink, Volume (ounces) | Start Date | Start Time | Event ID |\n|------|---|---|---------------------------------------|------------|------------|----------|", "score": 1.0, "match_basis": "verbatim_token+domain_route:ML"}, {"md_atom_id": "md_dmML_ex_a009", "md_file": "knowledge_base/domains/ML/examples.md", "md_atom_type": "TABLE_ROW", "md_parent_section": "§ML.1 [Example 1]", "md_verbatim": "| [X] Snack | [ ] Nutritional drink | [ ] Meal | | 2015 Jun 03 | 14:15 | CE001 |", "score": 0.5074, "match_basis": "verbatim_token+domain_route:ML"}, {"md_atom_id": "md_dmML_ex_a010", "md_file": "knowledge_base/domains/ML/examples.md", "md_atom_type": "TABLE_ROW", "md_parent_section": "§ML.1 [Example 1]", "md_verbatim": "| [ ] Snack | [X] Nutritional drink | [ ] Meal | 8 oz | 2015 Sep 03 | 8:30 | CE002 |", "score": 0.5074, "match_basis": "verbatim_token+domain_route:ML"}, {"md_atom_id": "md_dmML_ex_a011", "md_file": "knowledge_base/domains/ML/examples.md", "md_atom_type": "TABLE_ROW", "md_parent_section": "§ML.1 [Example 1]", "md_verbatim": "| [ ] Snack | [ ] Nutritional drink | [X] Meal | | 2015 Dec 31 | 19:00 | CE003 |", "score": 0.5074, "match_basis": "verbatim_token+domain_route:ML"}, {"md_atom_id": "md_dmML_ex_a015", "md_file": "knowledge_base/domains/ML/examples.md", "md_atom_type": "TABLE_HEADER", "md_parent_section": "§ML.1 [Example 1]", "md_verbatim": "| Type | Occurrence | | If yes, Date |\n|------|------------|---|-------------|", "score": 0.475, "match_basis": "verbatim_token+domain_route:ML"}], "candidate_count": 5, "zero_candidate": false}
{"pdf_atom_id": "ig34_p0123_a009", "pdf_atom_type": "TABLE_ROW", "pdf_source": "SDTMIG v3.4 (no header footer).pdf", "pdf_page": 123, "pdf_parent_section": "§6.1.4 [Meal Data (ML)]", "pdf_verbatim": "X Snack | Nutritional drink | Meal | | 2015 Jun 03 | 14:15 | CE001", "figure_ref": null, "candidates": [{"md_atom_id": "md_dmML_ex_a009", "md_file": "knowledge_base/domains/ML/examples.md", "md_atom_type": "TABLE_ROW", "md_parent_section": "§ML.1 [Example 1]", "md_verbatim": "| [X] Snack | [ ] Nutritional drink | [ ] Meal | | 2015 Jun 03 | 14:15 | CE001 |", "score": 1.0, "match_basis": "verbatim_token+domain_route:ML"}, {"md_atom_id": "md_dmML_ex_a010", "md_file": "knowledge_base/domains/ML/examples.md", "md_atom_type": "TABLE_ROW", "md_parent_section": "§ML.1 [Example 1]", "md_verbatim": "| [ ] Snack | [X] Nutritional drink | [ ] Meal | 8 oz | 2015 Sep 03 | 8:30 | CE002 |", "score": 0.904, "match_basis": "verbatim_token+domain_route:ML"}, {"md_atom_id": "md_dmML_ex_a011", "md_file": "knowledge_base/domains/ML/examples.md", "md_atom_type": "TABLE_ROW", "md_parent_section": "§ML.1 [Example 1]", "md_verbatim": "| [ ] Snack | [ ] Nutritional drink | [X] Meal | | 2015 Dec 31 | 19:00 | CE003 |", "score": 0.904, "match_basis": "verbatim_token+domain_route:ML"}, {"md_atom_id": "md_dmML_ex_a026", "md_file": "knowledge_base/domains/ML/examples.md", "md_atom_type": "TABLE_ROW", "md_parent_section": "§ML.1 [Example 1]", "md_verbatim": "| 2 | XYZ | ML | XYZ-001-001 | 2 | NUTRITIONAL DRINK | HYPOGLYCEMIA EVALUATION | Y | Y | 8 | oz | | 2015-09-03T08:30 | | | LAST MEAL PRIOR TO | HYPO2 | 2015-09-03T17:00 |", "score": 0.6, "match_basis": "verbatim_token+domain_route:ML"}, {"md_atom_id": "md_dmML_ex_a025", "md_file": "knowledge_base/domains/ML/examples.md", "md_atom_type": "TABLE_ROW", "md_parent_section": "§ML.1 [Example 1]", "md_verbatim": "| 1 | XYZ | ML | XYZ-001-001 | 1 | SNACK | HYPOGLYCEMIA EVALUATION | Y | Y | | | | 2015-06-03T14:15 | | | LAST MEAL PRIOR TO | HYPO1 | 2015-06-03T19:20 |", "score": 0.52, "match_basis": "verbatim_token+domain_route:ML"}], "candidate_count": 5, "zero_candidate": false}
{"pdf_atom_id": "ig34_p0123_a010", "pdf_atom_type": "TABLE_ROW", "pdf_source": "SDTMIG v3.4 (no header footer).pdf", "pdf_page": 123, "pdf_parent_section": "§6.1.4 [Meal Data (ML)]", "pdf_verbatim": "Snack X Nutritional drink | Meal | 8 oz | 2015 Sep 03 | 8:30 | CE002", "figure_ref": null, "candidates": [{"md_atom_id": "md_dmML_ex_a010", "md_file": "knowledge_base/domains/ML/examples.md", "md_atom_type": "TABLE_ROW", "md_parent_section": "§ML.1 [Example 1]", "md_verbatim": "| [ ] Snack | [X] Nutritional drink | [ ] Meal | 8 oz | 2015 Sep 03 | 8:30 | CE002 |", "score": 1.0, "match_basis": "verbatim_token+domain_route:ML"}, {"md_atom_id": "md_dmML_ex_a009", "md_file": "knowledge_base/domains/ML/examples.md", "md_atom_type": "TABLE_ROW", "md_parent_section": "§ML.1 [Example 1]", "md_verbatim": "| [X] Snack | [ ] Nutritional drink | [ ] Meal | | 2015 Jun 03 | 14:15 | CE001 |", "score": 0.904, "match_basis": "verbatim_token+domain_route:ML"}, {"md_atom_id": "md_dmML_ex_a011", "md_file": "knowledge_base/domains/ML/examples.md", "md_atom_type": "TABLE_ROW", "md_parent_section": "§ML.1 [Example 1]", "md_verbatim": "| [ ] Snack | [ ] Nutritional drink | [X] Meal | | 2015 Dec 31 | 19:00 | CE003 |", "score": 0.904, "match_basis": "verbatim_token+domain_route:ML"}, {"md_atom_id": "md_dmML_ex_a026", "md_file": "knowledge_base/domains/ML/examples.md", "md_atom_type": "TABLE_ROW", "md_parent_section": "§ML.1 [Example 1]", "md_verbatim": "| 2 | XYZ | ML | XYZ-001-001 | 2 | NUTRITIONAL DRINK | HYPOGLYCEMIA EVALUATION | Y | Y | 8 | oz | | 2015-09-03T08:30 | | | LAST MEAL PRIOR TO | HYPO2 | 2015-09-03T17:00 |", "score": 0.5846, "match_basis": "verbatim_token+domain_route:ML"}, {"md_atom_id": "md_dmML_ex_a008", "md_file": "knowledge_base/domains/ML/examples.md", "md_atom_type": "TABLE_HEADER", "md_parent_section": "§ML.1 [Example 1]", "md_verbatim": "| Type | | | If Nutritional Drink, Volume (ounces) | Start Date | Start Time | Event ID |\n|------|---|---|---------------------------------------|------------|------------|----------|", "score": 0.5074, "match_basis": "verbatim_token+domain_route:ML"}], "candidate_count": 5, "zero_candidate": false}
{"pdf_atom_id": "ig34_p0123_a011", "pdf_atom_type": "TABLE_ROW", "pdf_source": "SDTMIG v3.4 (no header footer).pdf", "pdf_page": 123, "pdf_parent_section": "§6.1.4 [Meal Data (ML)]", "pdf_verbatim": "Snack | Nutritional drink | X Meal | | 2015 Dec 31 | 19:00 | CE003", "figure_ref": null, "candidates": [{"md_atom_id": "md_dmML_ex_a011", "md_file": "knowledge_base/domains/ML/examples.md", "md_atom_type": "TABLE_ROW", "md_parent_section": "§ML.1 [Example 1]", "md_verbatim": "| [ ] Snack | [ ] Nutritional drink | [X] Meal | | 2015 Dec 31 | 19:00 | CE003 |", "score": 1.0, "match_basis": "verbatim_token+domain_route:ML"}, {"md_atom_id": "md_dmML_ex_a009", "md_file": "knowledge_base/domains/ML/examples.md", "md_atom_type": "TABLE_ROW", "md_parent_section": "§ML.1 [Example 1]", "md_verbatim": "| [X] Snack | [ ] Nutritional drink | [ ] Meal | | 2015 Jun 03 | 14:15 | CE001 |", "score": 0.904, "match_basis": "verbatim_token+domain_route:ML"}, {"md_atom_id": "md_dmML_ex_a010", "md_file": "knowledge_base/domains/ML/examples.md", "md_atom_type": "TABLE_ROW", "md_parent_section": "§ML.1 [Example 1]", "md_verbatim": "| [ ] Snack | [X] Nutritional drink | [ ] Meal | 8 oz | 2015 Sep 03 | 8:30 | CE002 |", "score": 0.904, "match_basis": "verbatim_token+domain_route:ML"}, {"md_atom_id": "md_dmML_ex_a026", "md_file": "knowledge_base/domains/ML/examples.md", "md_atom_type": "TABLE_ROW", "md_parent_section": "§ML.1 [Example 1]", "md_verbatim": "| 2 | XYZ | ML | XYZ-001-001 | 2 | NUTRITIONAL DRINK | HYPOGLYCEMIA EVALUATION | Y | Y | 8 | oz | | 2015-09-03T08:30 | | | LAST MEAL PRIOR TO | HYPO2 | 2015-09-03T17:00 |", "score": 0.5846, "match_basis": "verbatim_token+domain_route:ML"}, {"md_atom_id": "md_dmML_ex_a008", "md_file": "knowledge_base/domains/ML/examples.md", "md_atom_type": "TABLE_HEADER", "md_parent_section": "§ML.1 [Example 1]", "md_verbatim": "| Type | | | If Nutritional Drink, Volume (ounces) | Start Date | Start Time | Event ID |\n|------|---|---|---------------------------------------|------------|------------|----------|", "score": 0.5074, "match_basis": "verbatim_token+domain_route:ML"}], "candidate_count": 5, "zero_candidate": false}
{"pdf_atom_id": "ig34_p0123_a012", "pdf_atom_type": "NOTE", "pdf_source": "SDTMIG v3.4 (no header footer).pdf", "pdf_page": 123, "pdf_parent_section": "§6.1.4 [Meal Data (ML)]", "pdf_verbatim": "Click here to add a row. ADD ROW", "figure_ref": null, "candidates": [{"md_atom_id": "md_dmML_ex_a012", "md_file": "knowledge_base/domains/ML/examples.md", "md_atom_type": "TABLE_ROW", "md_parent_section": "§ML.1 [Example 1]", "md_verbatim": "| Click here to add a row: **ADD ROW** | | | | | | |", "score": 0.79, "match_basis": "verbatim_token+domain_route:ML"}, {"md_atom_id": "md_dmML_ex_a021", "md_file": "knowledge_base/domains/ML/examples.md", "md_atom_type": "SENTENCE", "md_parent_section": "§ML.1 [Example 1]", "md_verbatim": "**Rows 1-3:** Show the last meal data for 3 hypoglycemic events.", "score": 0.3287, "match_basis": "verbatim_token+domain_route:ML"}, {"md_atom_id": "md_dmML_ex_a022", "md_file": "knowledge_base/domains/ML/examples.md", "md_atom_type": "SENTENCE", "md_parent_section": "§ML.1 [Example 1]", "md_verbatim": "**Rows 4-6:** Show the meal data collected relative to the suspected DILI.", "score": 0.3276, "match_basis": "verbatim_token+domain_route:ML"}, {"md_atom_id": "md_dmML_ex_a037", "md_file": "knowledge_base/domains/ML/examples.md", "md_atom_type": "SENTENCE", "md_parent_section": "§ML.2 [Example 2]", "md_verbatim": "Students who brought a lunch from home or those not eating lunch in the cafeteria on a study day were excluded.", "score": 0.322, "match_basis": "verbatim_token+domain_route:ML"}, {"md_atom_id": "md_dmML_ex_a003", "md_file": "knowledge_base/domains/ML/examples.md", "md_atom_type": "SENTENCE", "md_parent_section": "§ML.1 [Example 1]", "md_verbatim": "This example shows meal data collected in an effort to understand the causes of 2 different kinds of events.", "score": 0.3205, "match_basis": "verbatim_token+domain_route:ML"}], "candidate_count": 5, "zero_candidate": false}
{"pdf_atom_id": "ig34_p0123_a013", "pdf_atom_type": "HEADING", "pdf_source": "SDTMIG v3.4 (no header footer).pdf", "pdf_page": 123, "pdf_parent_section": "§6.1.4 [Meal Data (ML)]", "pdf_verbatim": "DILI Meal CRF", "figure_ref": null, "candidates": [{"md_atom_id": "md_dmML_assn_a001", "md_file": "knowledge_base/domains/ML/assumptions.md", "md_atom_type": "HEADING", "md_parent_section": "§ML [ML — Assumptions]", "md_verbatim": "# ML — Assumptions", "score": 0.4, "match_basis": "verbatim_token+domain_route:ML"}, {"md_atom_id": "md_dmML_ex_a001", "md_file": "knowledge_base/domains/ML/examples.md", "md_atom_type": "HEADING", "md_parent_section": "§ML [ML — Examples]", "md_verbatim": "# ML — Examples", "score": 0.4, "match_basis": "verbatim_token+domain_route:ML"}, {"md_atom_id": "md_dmML_ex_a002", "md_file": "knowledge_base/domains/ML/examples.md", "md_atom_type": "HEADING", "md_parent_section": "§ML [ML — Examples]", "md_verbatim": "## Example 1", "score": 0.4, "match_basis": "verbatim_token+domain_route:ML"}, {"md_atom_id": "md_dmML_ex_a031", "md_file": "knowledge_base/domains/ML/examples.md", "md_atom_type": "HEADING", "md_parent_section": "§ML [ML — Examples]", "md_verbatim": "## Example 2", "score": 0.4, "match_basis": "verbatim_token+domain_route:ML"}], "candidate_count": 4, "zero_candidate": false}
{"pdf_atom_id": "ig34_p0123_a014", "pdf_atom_type": "SENTENCE", "pdf_source": "SDTMIG v3.4 (no header footer).pdf", "pdf_page": 123, "pdf_parent_section": "§6.1.4 [Meal Data (ML)]", "pdf_verbatim": "If suspected DILI, did you consume any of the following in the past week?", "figure_ref": null, "candidates": [{"md_atom_id": "md_dmML_ex_a014", "md_file": "knowledge_base/domains/ML/examples.md", "md_atom_type": "SENTENCE", "md_parent_section": "§ML.1 [Example 1]", "md_verbatim": "If suspected DILI, did you consume any of the following in the past week?", "score": 1.0, "match_basis": "verbatim_token+domain_route:ML"}, {"md_atom_id": "md_dmML_ex_a022", "md_file": "knowledge_base/domains/ML/examples.md", "md_atom_type": "SENTENCE", "md_parent_section": "§ML.1 [Example 1]", "md_verbatim": "**Rows 4-6:** Show the meal data collected relative to the suspected DILI.", "score": 0.5435, "match_basis": "verbatim_token+domain_route:ML"}, {"md_atom_id": "md_dmML_ex_a038", "md_file": "knowledge_base/domains/ML/examples.md", "md_atom_type": "SENTENCE", "md_parent_section": "§ML.2 [Example 2]", "md_verbatim": "The dataset below shows the food-card data collected for the first 3 weeks for a subject.", "score": 0.4873, "match_basis": "verbatim_token+domain_route:ML"}, {"md_atom_id": "md_dmML_ex_a036", "md_file": "knowledge_base/domains/ML/examples.md", "md_atom_type": "SENTENCE", "md_parent_section": "§ML.2 [Example 2]", "md_verbatim": "Food-card data was collected over a 7-month period by students receiving a school meal 1 day per week.", "score": 0.4627, "match_basis": "verbatim_token+domain_route:ML"}, {"md_atom_id": "md_dmML_ex_a007", "md_file": "knowledge_base/domains/ML/examples.md", "md_atom_type": "SENTENCE", "md_parent_section": "§ML.1 [Example 1]", "md_verbatim": "Record the last type of meal/food consumption prior to the hypoglycemic event:", "score": 0.459, "match_basis": "verbatim_token+domain_route:ML"}], "candidate_count": 5, "zero_candidate": false}
{"pdf_atom_id": "ig34_p0123_a015", "pdf_atom_type": "TABLE_HEADER", "pdf_source": "SDTMIG v3.4 (no header footer).pdf", "pdf_page": 123, "pdf_parent_section": "§6.1.4 [Meal Data (ML)]", "pdf_verbatim": "Type | Occurrence | If yes, Date", "figure_ref": null, "candidates": [{"md_atom_id": "md_dmML_ex_a015", "md_file": "knowledge_base/domains/ML/examples.md", "md_atom_type": "TABLE_HEADER", "md_parent_section": "§ML.1 [Example 1]", "md_verbatim": "| Type | Occurrence | | If yes, Date |\n|------|------------|---|-------------|", "score": 1.0, "match_basis": "verbatim_token+domain_route:ML"}, {"md_atom_id": "md_dmML_ex_a008", "md_file": "knowledge_base/domains/ML/examples.md", "md_atom_type": "TABLE_HEADER", "md_parent_section": "§ML.1 [Example 1]", "md_verbatim": "| Type | | | If Nutritional Drink, Volume (ounces) | Start Date | Start Time | Event ID |\n|------|---|---|---------------------------------------|------------|------------|----------|", "score": 0.475, "match_basis": "verbatim_token+domain_route:ML"}, {"md_atom_id": "md_dmML_ex_a024", "md_file": "knowledge_base/domains/ML/examples.md", "md_atom_type": "TABLE_HEADER", "md_parent_section": "§ML.1 [Example 1]", "md_verbatim": "| Row | STUDYID | DOMAIN | USUBJID | MLSEQ | MLTRT | MLCAT | MLPRESP | MLOCCUR | MLDOSE | MLDOSU | MLDTC | MLSTDTC | MLENDTC | MLEVLINT | RELMIDS | MIDS | MIDSDTC |\n|-----|---------|--------|---------|-------|-------|-------|---------|---------|--------|--------|-------|---------|---------|----------|---------|------|---------|", "score": 0.4257, "match_basis": "verbatim_token+domain_route:ML"}, {"md_atom_id": "md_dmML_ex_a033", "md_file": "knowledge_base/domains/ML/examples.md", "md_atom_type": "TABLE_HEADER", "md_parent_section": "§ML.2 [Example 2]", "md_verbatim": "| Group | Arms | Details |\n|-------|------|---------|", "score": 0.4, "match_basis": "verbatim_token+domain_route:ML"}, {"md_atom_id": "md_dmML_ex_a040", "md_file": "knowledge_base/domains/ML/examples.md", "md_atom_type": "TABLE_HEADER", "md_parent_section": "§ML.2 [Example 2]", "md_verbatim": "| Row | STUDYID | DOMAIN | USUBJID | MLSEQ | MLTRT | VISITNUM | VISIT | MLSTDTC |\n|-----|---------|--------|---------|-------|-------|----------|-------|---------|", "score": 0.4, "match_basis": "verbatim_token+domain_route:ML"}], "candidate_count": 5, "zero_candidate": false}
{"pdf_atom_id": "ig34_p0123_a016", "pdf_atom_type": "TABLE_ROW", "pdf_source": "SDTMIG v3.4 (no header footer).pdf", "pdf_page": 123, "pdf_parent_section": "§6.1.4 [Meal Data (ML)]", "pdf_verbatim": "Wild mushrooms | X Yes | No | 2015 DEC 24", "figure_ref": null, "candidates": [{"md_atom_id": "md_dmML_ex_a016", "md_file": "knowledge_base/domains/ML/examples.md", "md_atom_type": "TABLE_ROW", "md_parent_section": "§ML.1 [Example 1]", "md_verbatim": "| Wild mushrooms | [X] Yes | [ ] No | 2015 DEC 24 |", "score": 1.0, "match_basis": "verbatim_token+domain_route:ML"}, {"md_atom_id": "md_dmML_ex_a028", "md_file": "knowledge_base/domains/ML/examples.md", "md_atom_type": "TABLE_ROW", "md_parent_section": "§ML.1 [Example 1]", "md_verbatim": "| 4 | XYZ | ML | XYZ-001-001 | 4 | WILD MUSHROOMS | DILI EVALUATION | Y | Y | | | 2015-12-27 | 2015-12-24 | | -P1W | | | |", "score": 0.6538, "match_basis": "verbatim_token+domain_route:ML"}, {"md_atom_id": "md_dmML_ex_a011", "md_file": "knowledge_base/domains/ML/examples.md", "md_atom_type": "TABLE_ROW", "md_parent_section": "§ML.1 [Example 1]", "md_verbatim": "| [ ] Snack | [ ] Nutritional drink | [X] Meal | | 2015 Dec 31 | 19:00 | CE003 |", "score": 0.4545, "match_basis": "verbatim_token+domain_route:ML"}, {"md_atom_id": "md_dmML_ex_a044", "md_file": "knowledge_base/domains/ML/examples.md", "md_atom_type": "TABLE_ROW", "md_parent_section": "§ML.2 [Example 2]", "md_verbatim": "| 4 | ABC123 | ML | ABC123-001 | 4 | BANANA | 2 | WEEK 2 | 2015-09-17 |", "score": 0.4522, "match_basis": "verbatim_token+domain_route:ML"}, {"md_atom_id": "md_dmML_ex_a046", "md_file": "knowledge_base/domains/ML/examples.md", "md_atom_type": "TABLE_ROW", "md_parent_section": "§ML.2 [Example 2]", "md_verbatim": "| 6 | ABC123 | ML | ABC123-001 | 6 | PIZZA | 2 | WEEK 2 | 2015-09-17 |", "score": 0.4522, "match_basis": "verbatim_token+domain_route:ML"}], "candidate_count": 5, "zero_candidate": false}
{"pdf_atom_id": "ig34_p0123_a017", "pdf_atom_type": "TABLE_ROW", "pdf_source": "SDTMIG v3.4 (no header footer).pdf", "pdf_page": 123, "pdf_parent_section": "§6.1.4 [Meal Data (ML)]", "pdf_verbatim": "Ackee fruit | Yes | X No | |", "figure_ref": null, "candidates": [{"md_atom_id": "md_dmML_ex_a017", "md_file": "knowledge_base/domains/ML/examples.md", "md_atom_type": "TABLE_ROW", "md_parent_section": "§ML.1 [Example 1]", "md_verbatim": "| Ackee fruit | [ ] Yes | [X] No | |", "score": 1.0, "match_basis": "verbatim_token+domain_route:ML"}, {"md_atom_id": "md_dmML_ex_a029", "md_file": "knowledge_base/domains/ML/examples.md", "md_atom_type": "TABLE_ROW", "md_parent_section": "§ML.1 [Example 1]", "md_verbatim": "| 5 | XYZ | ML | XYZ-001-001 | 5 | ACKEE FRUIT | DILI EVALUATION | Y | N | | | 2015-12-27 | | | -P1W | | | |", "score": 0.5636, "match_basis": "verbatim_token+domain_route:ML"}, {"md_atom_id": "md_dmML_ex_a041", "md_file": "knowledge_base/domains/ML/examples.md", "md_atom_type": "TABLE_ROW", "md_parent_section": "§ML.2 [Example 2]", "md_verbatim": "| 1 | ABC123 | ML | ABC123-001 | 1 | FRUIT ROLLUP | 1 | WEEK 1 | 2015-09-09 |", "score": 0.49, "match_basis": "verbatim_token+domain_route:ML"}, {"md_atom_id": "md_dmML_ex_a018", "md_file": "knowledge_base/domains/ML/examples.md", "md_atom_type": "TABLE_ROW", "md_parent_section": "§ML.1 [Example 1]", "md_verbatim": "| Cycad seeds | [ ] Yes | [X] No | |", "score": 0.4462, "match_basis": "verbatim_token+domain_route:ML"}, {"md_atom_id": "md_dmML_ex_a016", "md_file": "knowledge_base/domains/ML/examples.md", "md_atom_type": "TABLE_ROW", "md_parent_section": "§ML.1 [Example 1]", "md_verbatim": "| Wild mushrooms | [X] Yes | [ ] No | 2015 DEC 24 |", "score": 0.4316, "match_basis": "verbatim_token+domain_route:ML"}], "candidate_count": 5, "zero_candidate": false}
{"pdf_atom_id": "ig34_p0123_a018", "pdf_atom_type": "TABLE_ROW", "pdf_source": "SDTMIG v3.4 (no header footer).pdf", "pdf_page": 123, "pdf_parent_section": "§6.1.4 [Meal Data (ML)]", "pdf_verbatim": "Cycad seeds | Yes | X No | |", "figure_ref": null, "candidates": [{"md_atom_id": "md_dmML_ex_a018", "md_file": "knowledge_base/domains/ML/examples.md", "md_atom_type": "TABLE_ROW", "md_parent_section": "§ML.1 [Example 1]", "md_verbatim": "| Cycad seeds | [ ] Yes | [X] No | |", "score": 1.0, "match_basis": "verbatim_token+domain_route:ML"}, {"md_atom_id": "md_dmML_ex_a030", "md_file": "knowledge_base/domains/ML/examples.md", "md_atom_type": "TABLE_ROW", "md_parent_section": "§ML.1 [Example 1]", "md_verbatim": "| 6 | XYZ | ML | XYZ-001-001 | 6 | CYCAD SEEDS | DILI EVALUATION | Y | N | | | 2015-12-27 | | | -P1W | | | |", "score": 0.5636, "match_basis": "verbatim_token+domain_route:ML"}, {"md_atom_id": "md_dmML_ex_a017", "md_file": "knowledge_base/domains/ML/examples.md", "md_atom_type": "TABLE_ROW", "md_parent_section": "§ML.1 [Example 1]", "md_verbatim": "| Ackee fruit | [ ] Yes | [X] No | |", "score": 0.4462, "match_basis": "verbatim_token+domain_route:ML"}, {"md_atom_id": "md_dmML_ex_a016", "md_file": "knowledge_base/domains/ML/examples.md", "md_atom_type": "TABLE_ROW", "md_parent_section": "§ML.1 [Example 1]", "md_verbatim": "| Wild mushrooms | [X] Yes | [ ] No | 2015 DEC 24 |", "score": 0.4316, "match_basis": "verbatim_token+domain_route:ML"}, {"md_atom_id": "md_dmML_ex_a009", "md_file": "knowledge_base/domains/ML/examples.md", "md_atom_type": "TABLE_ROW", "md_parent_section": "§ML.1 [Example 1]", "md_verbatim": "| [X] Snack | [ ] Nutritional drink | [ ] Meal | | 2015 Jun 03 | 14:15 | CE001 |", "score": 0.4, "match_basis": "verbatim_token+domain_route:ML"}], "candidate_count": 5, "zero_candidate": false}
{"pdf_atom_id": "ig34_p0123_a019", "pdf_atom_type": "NOTE", "pdf_source": "SDTMIG v3.4 (no header footer).pdf", "pdf_page": 123, "pdf_parent_section": "§6.1.4 [Meal Data (ML)]", "pdf_verbatim": "Note that in this example MLENDTC is null. Because no end date was collected, the meal was represented as a point-in-time event, as described in Assumption 2b.", "figure_ref": null, "candidates": [{"md_atom_id": "md_dmML_ex_a020", "md_file": "knowledge_base/domains/ML/examples.md", "md_atom_type": "SENTENCE", "md_parent_section": "§ML.1 [Example 1]", "md_verbatim": "Because no end date was collected, the meal was represented as a point-in-time event, as described in Assumption 2b.", "score": 0.7555, "match_basis": "verbatim_token+domain_route:ML"}, {"md_atom_id": "md_dmML_ex_a019", "md_file": "knowledge_base/domains/ML/examples.md", "md_atom_type": "SENTENCE", "md_parent_section": "§ML.1 [Example 1]", "md_verbatim": "Note that in this example MLENDTC is null.", "score": 0.4736, "match_basis": "verbatim_token+domain_route:ML"}, {"md_atom_id": "md_dmML_ex_a003", "md_file": "knowledge_base/domains/ML/examples.md", "md_atom_type": "SENTENCE", "md_parent_section": "§ML.1 [Example 1]", "md_verbatim": "This example shows meal data collected in an effort to understand the causes of 2 different kinds of events.", "score": 0.4648, "match_basis": "verbatim_token+domain_route:ML"}, {"md_atom_id": "md_dmML_assn_a007", "md_file": "knowledge_base/domains/ML/assumptions.md", "md_atom_type": "SENTENCE", "md_parent_section": "§ML [ML — Assumptions]", "md_verbatim": "   The nutritional items represented in ML may be prospectively defined within a protocol, collected retrospectively as potential precipitants of clinical events, and/or to describe nutritional intake.", "score": 0.4481, "match_basis": "verbatim_token+domain_route:ML"}, {"md_atom_id": "md_dmML_ex_a032", "md_file": "knowledge_base/domains/ML/examples.md", "md_atom_type": "SENTENCE", "md_parent_section": "§ML.2 [Example 2]", "md_verbatim": "This example describes a study that examines the effect of physical modifications in a cafeteria on selection/consumption among school students.", "score": 0.4427, "match_basis": "verbatim_token+domain_route:ML"}], "candidate_count": 5, "zero_candidate": false}
{"pdf_atom_id": "ig34_p0123_a020", "pdf_atom_type": "SENTENCE", "pdf_source": "SDTMIG v3.4 (no header footer).pdf", "pdf_page": 123, "pdf_parent_section": "§6.1.4 [Meal Data (ML)]", "pdf_verbatim": "Rows 1-3: Show the last meal data for 3 hypoglycemic events.", "figure_ref": null, "candidates": [{"md_atom_id": "md_dmML_ex_a021", "md_file": "knowledge_base/domains/ML/examples.md", "md_atom_type": "SENTENCE", "md_parent_section": "§ML.1 [Example 1]", "md_verbatim": "**Rows 1-3:** Show the last meal data for 3 hypoglycemic events.", "score": 1.0, "match_basis": "verbatim_token+domain_route:ML"}, {"md_atom_id": "md_dmML_ex_a007", "md_file": "knowledge_base/domains/ML/examples.md", "md_atom_type": "SENTENCE", "md_parent_section": "§ML.1 [Example 1]", "md_verbatim": "Record the last type of meal/food consumption prior to the hypoglycemic event:", "score": 0.6348, "match_basis": "verbatim_token+domain_route:ML"}, {"md_atom_id": "md_dmML_ex_a004", "md_file": "knowledge_base/domains/ML/examples.md", "md_atom_type": "LIST_ITEM", "md_parent_section": "§ML.1 [Example 1]", "md_verbatim": "- Data was collected about the last meal before each hypoglycemic event", "score": 0.61, "match_basis": "verbatim_token+domain_route:ML"}, {"md_atom_id": "md_dmML_ex_a003", "md_file": "knowledge_base/domains/ML/examples.md", "md_atom_type": "SENTENCE", "md_parent_section": "§ML.1 [Example 1]", "md_verbatim": "This example shows meal data collected in an effort to understand the causes of 2 different kinds of events.", "score": 0.5219, "match_basis": "verbatim_token+domain_route:ML"}, {"md_atom_id": "md_dmML_ex_a022", "md_file": "knowledge_base/domains/ML/examples.md", "md_atom_type": "SENTENCE", "md_parent_section": "§ML.1 [Example 1]", "md_verbatim": "**Rows 4-6:** Show the meal data collected relative to the suspected DILI.", "score": 0.52, "match_basis": "verbatim_token+domain_route:ML"}], "candidate_count": 5, "zero_candidate": false}
{"pdf_atom_id": "ig34_p0123_a021", "pdf_atom_type": "SENTENCE", "pdf_source": "SDTMIG v3.4 (no header footer).pdf", "pdf_page": 123, "pdf_parent_section": "§6.1.4 [Meal Data (ML)]", "pdf_verbatim": "Rows 4-6: Show the meal data collected relative to the suspected DILI.", "figure_ref": null, "candidates": [{"md_atom_id": "md_dmML_ex_a022", "md_file": "knowledge_base/domains/ML/examples.md", "md_atom_type": "SENTENCE", "md_parent_section": "§ML.1 [Example 1]", "md_verbatim": "**Rows 4-6:** Show the meal data collected relative to the suspected DILI.", "score": 1.0, "match_basis": "verbatim_token+domain_route:ML"}, {"md_atom_id": "md_dmML_ex_a038", "md_file": "knowledge_base/domains/ML/examples.md", "md_atom_type": "SENTENCE", "md_parent_section": "§ML.2 [Example 2]", "md_verbatim": "The dataset below shows the food-card data collected for the first 3 weeks for a subject.", "score": 0.5592, "match_basis": "verbatim_token+domain_route:ML"}, {"md_atom_id": "md_dmML_ex_a014", "md_file": "knowledge_base/domains/ML/examples.md", "md_atom_type": "SENTENCE", "md_parent_section": "§ML.1 [Example 1]", "md_verbatim": "If suspected DILI, did you consume any of the following in the past week?", "score": 0.5435, "match_basis": "verbatim_token+domain_route:ML"}, {"md_atom_id": "md_dmML_ex_a003", "md_file": "knowledge_base/domains/ML/examples.md", "md_atom_type": "SENTENCE", "md_parent_section": "§ML.1 [Example 1]", "md_verbatim": "This example shows meal data collected in an effort to understand the causes of 2 different kinds of events.", "score": 0.5406, "match_basis": "verbatim_token+domain_route:ML"}, {"md_atom_id": "md_dmML_ex_a021", "md_file": "knowledge_base/domains/ML/examples.md", "md_atom_type": "SENTENCE", "md_parent_section": "§ML.1 [Example 1]", "md_verbatim": "**Rows 1-3:** Show the last meal data for 3 hypoglycemic events.", "score": 0.52, "match_basis": "verbatim_token+domain_route:ML"}], "candidate_count": 5, "zero_candidate": false}
{"pdf_atom_id": "ig34_p0123_a022", "pdf_atom_type": "HEADING", "pdf_source": "SDTMIG v3.4 (no header footer).pdf", "pdf_page": 123, "pdf_parent_section": "§6.1.4 [Meal Data (ML)]", "pdf_verbatim": "ml.xpt", "figure_ref": null, "candidates": [{"md_atom_id": "md_dmML_assn_a001", "md_file": "knowledge_base/domains/ML/assumptions.md", "md_atom_type": "HEADING", "md_parent_section": "§ML [ML — Assumptions]", "md_verbatim": "# ML — Assumptions", "score": 0.4, "match_basis": "verbatim_token+domain_route:ML"}, {"md_atom_id": "md_dmML_ex_a001", "md_file": "knowledge_base/domains/ML/examples.md", "md_atom_type": "HEADING", "md_parent_section": "§ML [ML — Examples]", "md_verbatim": "# ML — Examples", "score": 0.4, "match_basis": "verbatim_token+domain_route:ML"}, {"md_atom_id": "md_dmML_ex_a002", "md_file": "knowledge_base/domains/ML/examples.md", "md_atom_type": "HEADING", "md_parent_section": "§ML [ML — Examples]", "md_verbatim": "## Example 1", "score": 0.4, "match_basis": "verbatim_token+domain_route:ML"}, {"md_atom_id": "md_dmML_ex_a031", "md_file": "knowledge_base/domains/ML/examples.md", "md_atom_type": "HEADING", "md_parent_section": "§ML [ML — Examples]", "md_verbatim": "## Example 2", "score": 0.4, "match_basis": "verbatim_token+domain_route:ML"}], "candidate_count": 4, "zero_candidate": false}
{"pdf_atom_id": "ig34_p0123_a023", "pdf_atom_type": "TABLE_HEADER", "pdf_source": "SDTMIG v3.4 (no header footer).pdf", "pdf_page": 123, "pdf_parent_section": "§6.1.4 [Meal Data (ML)]", "pdf_verbatim": "Row | STUDYID | DOMAIN | USUBJID | MLSEQ | MLTRT | MLCAT | MLPRESP | MLOCCUR | MLDOSE | MLDOSU | MLDTC | MLSTDTC | MLENDTC | MLEVLINT | RELMIDS | MIDS | MIDSDTC", "figure_ref": null, "candidates": [{"md_atom_id": "md_dmML_ex_a024", "md_file": "knowledge_base/domains/ML/examples.md", "md_atom_type": "TABLE_HEADER", "md_parent_section": "§ML.1 [Example 1]", "md_verbatim": "| Row | STUDYID | DOMAIN | USUBJID | MLSEQ | MLTRT | MLCAT | MLPRESP | MLOCCUR | MLDOSE | MLDOSU | MLDTC | MLSTDTC | MLENDTC | MLEVLINT | RELMIDS | MIDS | MIDSDTC |\n|-----|---------|--------|---------|-------|-------|-------|---------|---------|--------|--------|-------|---------|---------|----------|---------|------|---------|", "score": 1.0, "match_basis": "verbatim_token+domain_route:ML"}, {"md_atom_id": "md_dmML_ex_a040", "md_file": "knowledge_base/domains/ML/examples.md", "md_atom_type": "TABLE_HEADER", "md_parent_section": "§ML.2 [Example 2]", "md_verbatim": "| Row | STUDYID | DOMAIN | USUBJID | MLSEQ | MLTRT | VISITNUM | VISIT | MLSTDTC |\n|-----|---------|--------|---------|-------|-------|----------|-------|---------|", "score": 0.6273, "match_basis": "verbatim_token+domain_route:ML"}, {"md_atom_id": "md_dmML_ex_a015", "md_file": "knowledge_base/domains/ML/examples.md", "md_atom_type": "TABLE_HEADER", "md_parent_section": "§ML.1 [Example 1]", "md_verbatim": "| Type | Occurrence | | If yes, Date |\n|------|------------|---|-------------|", "score": 0.4257, "match_basis": "verbatim_token+domain_route:ML"}, {"md_atom_id": "md_dmML_ex_a008", "md_file": "knowledge_base/domains/ML/examples.md", "md_atom_type": "TABLE_HEADER", "md_parent_section": "§ML.1 [Example 1]", "md_verbatim": "| Type | | | If Nutritional Drink, Volume (ounces) | Start Date | Start Time | Event ID |\n|------|---|---|---------------------------------------|------------|------------|----------|", "score": 0.4, "match_basis": "verbatim_token+domain_route:ML"}, {"md_atom_id": "md_dmML_ex_a033", "md_file": "knowledge_base/domains/ML/examples.md", "md_atom_type": "TABLE_HEADER", "md_parent_section": "§ML.2 [Example 2]", "md_verbatim": "| Group | Arms | Details |\n|-------|------|---------|", "score": 0.4, "match_basis": "verbatim_token+domain_route:ML"}], "candidate_count": 5, "zero_candidate": false}
{"pdf_atom_id": "ig34_p0123_a024", "pdf_atom_type": "TABLE_ROW", "pdf_source": "SDTMIG v3.4 (no header footer).pdf", "pdf_page": 123, "pdf_parent_section": "§6.1.4 [Meal Data (ML)]", "pdf_verbatim": "1 | XYZ | ML | XYZ-001-001 | 1 | SNACK | HYPOGLYCEMIA EVALUATION | Y | Y | | | | 2015-06-03T14:15 | | | LAST MEAL PRIOR TO | HYPO1 | 2015-06-03T19:20", "figure_ref": null, "candidates": [{"md_atom_id": "md_dmML_ex_a025", "md_file": "knowledge_base/domains/ML/examples.md", "md_atom_type": "TABLE_ROW", "md_parent_section": "§ML.1 [Example 1]", "md_verbatim": "| 1 | XYZ | ML | XYZ-001-001 | 1 | SNACK | HYPOGLYCEMIA EVALUATION | Y | Y | | | | 2015-06-03T14:15 | | | LAST MEAL PRIOR TO | HYPO1 | 2015-06-03T19:20 |", "score": 1.0, "match_basis": "verbatim_token+domain_route:ML"}, {"md_atom_id": "md_dmML_ex_a027", "md_file": "knowledge_base/domains/ML/examples.md", "md_atom_type": "TABLE_ROW", "md_parent_section": "§ML.1 [Example 1]", "md_verbatim": "| 3 | XYZ | ML | XYZ-001-001 | 3 | MEAL | HYPOGLYCEMIA EVALUATION | Y | Y | | | | 2015-12-31T19:00 | | | LAST MEAL PRIOR TO | HYPO3 | 2016-01-01T10:30 |", "score": 0.8186, "match_basis": "verbatim_token+domain_route:ML"}, {"md_atom_id": "md_dmML_ex_a026", "md_file": "knowledge_base/domains/ML/examples.md", "md_atom_type": "TABLE_ROW", "md_parent_section": "§ML.1 [Example 1]", "md_verbatim": "| 2 | XYZ | ML | XYZ-001-001 | 2 | NUTRITIONAL DRINK | HYPOGLYCEMIA EVALUATION | Y | Y | 8 | oz | | 2015-09-03T08:30 | | | LAST MEAL PRIOR TO | HYPO2 | 2015-09-03T17:00 |", "score": 0.7647, "match_basis": "verbatim_token+domain_route:ML"}, {"md_atom_id": "md_dmML_ex_a029", "md_file": "knowledge_base/domains/ML/examples.md", "md_atom_type": "TABLE_ROW", "md_parent_section": "§ML.1 [Example 1]", "md_verbatim": "| 5 | XYZ | ML | XYZ-001-001 | 5 | ACKEE FRUIT | DILI EVALUATION | Y | N | | | 2015-12-27 | | | -P1W | | | |", "score": 0.5733, "match_basis": "verbatim_token+domain_route:ML"}, {"md_atom_id": "md_dmML_ex_a030", "md_file": "knowledge_base/domains/ML/examples.md", "md_atom_type": "TABLE_ROW", "md_parent_section": "§ML.1 [Example 1]", "md_verbatim": "| 6 | XYZ | ML | XYZ-001-001 | 6 | CYCAD SEEDS | DILI EVALUATION | Y | N | | | 2015-12-27 | | | -P1W | | | |", "score": 0.5565, "match_basis": "verbatim_token+domain_route:ML"}], "candidate_count": 5, "zero_candidate": false}
{"pdf_atom_id": "ig34_p0124_a001", "pdf_atom_type": "TABLE_ROW", "pdf_source": "SDTMIG v3.4 (no header footer).pdf", "pdf_page": 124, "pdf_parent_section": "§6.1.4 [Meal Data (ML)]", "pdf_verbatim": "2 | XYZ | ML | XYZ-001-001 | 2 | NUTRITIONAL DRINK | HYPOGLYCEMIA EVALUATION | Y | Y | 8 | oz | | 2015-09-03T08:30 | | | LAST MEAL PRIOR TO | HYPO2 | 2015-09-03T17:00", "figure_ref": null, "candidates": [{"md_atom_id": "md_dmML_ex_a026", "md_file": "knowledge_base/domains/ML/examples.md", "md_atom_type": "TABLE_ROW", "md_parent_section": "§ML.1 [Example 1]", "md_verbatim": "| 2 | XYZ | ML | XYZ-001-001 | 2 | NUTRITIONAL DRINK | HYPOGLYCEMIA EVALUATION | Y | Y | 8 | oz | | 2015-09-03T08:30 | | | LAST MEAL PRIOR TO | HYPO2 | 2015-09-03T17:00 |", "score": 1.0, "match_basis": "verbatim_token+domain_route:ML"}, {"md_atom_id": "md_dmML_ex_a025", "md_file": "knowledge_base/domains/ML/examples.md", "md_atom_type": "TABLE_ROW", "md_parent_section": "§ML.1 [Example 1]", "md_verbatim": "| 1 | XYZ | ML | XYZ-001-001 | 1 | SNACK | HYPOGLYCEMIA EVALUATION | Y | Y | | | | 2015-06-03T14:15 | | | LAST MEAL PRIOR TO | HYPO1 | 2015-06-03T19:20 |", "score": 0.7647, "match_basis": "verbatim_token+domain_route:ML"}, {"md_atom_id": "md_dmML_ex_a027", "md_file": "knowledge_base/domains/ML/examples.md", "md_atom_type": "TABLE_ROW", "md_parent_section": "§ML.1 [Example 1]", "md_verbatim": "| 3 | XYZ | ML | XYZ-001-001 | 3 | MEAL | HYPOGLYCEMIA EVALUATION | Y | Y | | | | 2015-12-31T19:00 | | | LAST MEAL PRIOR TO | HYPO3 | 2016-01-01T10:30 |", "score": 0.7346, "match_basis": "verbatim_token+domain_route:ML"}, {"md_atom_id": "md_dmML_ex_a009", "md_file": "knowledge_base/domains/ML/examples.md", "md_atom_type": "TABLE_ROW", "md_parent_section": "§ML.1 [Example 1]", "md_verbatim": "| [X] Snack | [ ] Nutritional drink | [ ] Meal | | 2015 Jun 03 | 14:15 | CE001 |", "score": 0.6, "match_basis": "verbatim_token+domain_route:ML"}, {"md_atom_id": "md_dmML_ex_a010", "md_file": "knowledge_base/domains/ML/examples.md", "md_atom_type": "TABLE_ROW", "md_parent_section": "§ML.1 [Example 1]", "md_verbatim": "| [ ] Snack | [X] Nutritional drink | [ ] Meal | 8 oz | 2015 Sep 03 | 8:30 | CE002 |", "score": 0.5846, "match_basis": "verbatim_token+domain_route:ML"}], "candidate_count": 5, "zero_candidate": false}
{"pdf_atom_id": "ig34_p0124_a002", "pdf_atom_type": "TABLE_ROW", "pdf_source": "SDTMIG v3.4 (no header footer).pdf", "pdf_page": 124, "pdf_parent_section": "§6.1.4 [Meal Data (ML)]", "pdf_verbatim": "3 | XYZ | ML | XYZ-001-001 | 3 | MEAL | HYPOGLYCEMIA EVALUATION | Y | Y | | | | 2015-12-31T19:00 | | | LAST MEAL PRIOR TO | HYPO3 | 2016-01-01T10:30", "figure_ref": null, "candidates": [{"md_atom_id": "md_dmML_ex_a027", "md_file": "knowledge_base/domains/ML/examples.md", "md_atom_type": "TABLE_ROW", "md_parent_section": "§ML.1 [Example 1]", "md_verbatim": "| 3 | XYZ | ML | XYZ-001-001 | 3 | MEAL | HYPOGLYCEMIA EVALUATION | Y | Y | | | | 2015-12-31T19:00 | | | LAST MEAL PRIOR TO | HYPO3 | 2016-01-01T10:30 |", "score": 1.0, "match_basis": "verbatim_token+domain_route:ML"}, {"md_atom_id": "md_dmML_ex_a025", "md_file": "knowledge_base/domains/ML/examples.md", "md_atom_type": "TABLE_ROW", "md_parent_section": "§ML.1 [Example 1]", "md_verbatim": "| 1 | XYZ | ML | XYZ-001-001 | 1 | SNACK | HYPOGLYCEMIA EVALUATION | Y | Y | | | | 2015-06-03T14:15 | | | LAST MEAL PRIOR TO | HYPO1 | 2015-06-03T19:20 |", "score": 0.8186, "match_basis": "verbatim_token+domain_route:ML"}, {"md_atom_id": "md_dmML_ex_a026", "md_file": "knowledge_base/domains/ML/examples.md", "md_atom_type": "TABLE_ROW", "md_parent_section": "§ML.1 [Example 1]", "md_verbatim": "| 2 | XYZ | ML | XYZ-001-001 | 2 | NUTRITIONAL DRINK | HYPOGLYCEMIA EVALUATION | Y | Y | 8 | oz | | 2015-09-03T08:30 | | | LAST MEAL PRIOR TO | HYPO2 | 2015-09-03T17:00 |", "score": 0.7346, "match_basis": "verbatim_token+domain_route:ML"}, {"md_atom_id": "md_dmML_ex_a029", "md_file": "knowledge_base/domains/ML/examples.md", "md_atom_type": "TABLE_ROW", "md_parent_section": "§ML.1 [Example 1]", "md_verbatim": "| 5 | XYZ | ML | XYZ-001-001 | 5 | ACKEE FRUIT | DILI EVALUATION | Y | N | | | 2015-12-27 | | | -P1W | | | |", "score": 0.56, "match_basis": "verbatim_token+domain_route:ML"}, {"md_atom_id": "md_dmML_ex_a030", "md_file": "knowledge_base/domains/ML/examples.md", "md_atom_type": "TABLE_ROW", "md_parent_section": "§ML.1 [Example 1]", "md_verbatim": "| 6 | XYZ | ML | XYZ-001-001 | 6 | CYCAD SEEDS | DILI EVALUATION | Y | N | | | 2015-12-27 | | | -P1W | | | |", "score": 0.56, "match_basis": "verbatim_token+domain_route:ML"}], "candidate_count": 5, "zero_candidate": false}
{"pdf_atom_id": "ig34_p0124_a003", "pdf_atom_type": "TABLE_ROW", "pdf_source": "SDTMIG v3.4 (no header footer).pdf", "pdf_page": 124, "pdf_parent_section": "§6.1.4 [Meal Data (ML)]", "pdf_verbatim": "4 | XYZ | ML | XYZ-001-001 | 4 | WILD MUSHROOMS | DILI EVALUATION | Y | Y | | | 2015-12-27 | 2015-12-24 | | -P1W | | | |", "figure_ref": null, "candidates": [{"md_atom_id": "md_dmML_ex_a028", "md_file": "knowledge_base/domains/ML/examples.md", "md_atom_type": "TABLE_ROW", "md_parent_section": "§ML.1 [Example 1]", "md_verbatim": "| 4 | XYZ | ML | XYZ-001-001 | 4 | WILD MUSHROOMS | DILI EVALUATION | Y | Y | | | 2015-12-27 | 2015-12-24 | | -P1W | | | |", "score": 1.0, "match_basis": "verbatim_token+domain_route:ML"}, {"md_atom_id": "md_dmML_ex_a029", "md_file": "knowledge_base/domains/ML/examples.md", "md_atom_type": "TABLE_ROW", "md_parent_section": "§ML.1 [Example 1]", "md_verbatim": "| 5 | XYZ | ML | XYZ-001-001 | 5 | ACKEE FRUIT | DILI EVALUATION | Y | N | | | 2015-12-27 | | | -P1W | | | |", "score": 0.7, "match_basis": "verbatim_token+domain_route:ML"}, {"md_atom_id": "md_dmML_ex_a030", "md_file": "knowledge_base/domains/ML/examples.md", "md_atom_type": "TABLE_ROW", "md_parent_section": "§ML.1 [Example 1]", "md_verbatim": "| 6 | XYZ | ML | XYZ-001-001 | 6 | CYCAD SEEDS | DILI EVALUATION | Y | N | | | 2015-12-27 | | | -P1W | | | |", "score": 0.7, "match_basis": "verbatim_token+domain_route:ML"}, {"md_atom_id": "md_dmML_ex_a016", "md_file": "knowledge_base/domains/ML/examples.md", "md_atom_type": "TABLE_ROW", "md_parent_section": "§ML.1 [Example 1]", "md_verbatim": "| Wild mushrooms | [X] Yes | [ ] No | 2015 DEC 24 |", "score": 0.6538, "match_basis": "verbatim_token+domain_route:ML"}, {"md_atom_id": "md_dmML_ex_a027", "md_file": "knowledge_base/domains/ML/examples.md", "md_atom_type": "TABLE_ROW", "md_parent_section": "§ML.1 [Example 1]", "md_verbatim": "| 3 | XYZ | ML | XYZ-001-001 | 3 | MEAL | HYPOGLYCEMIA EVALUATION | Y | Y | | | | 2015-12-31T19:00 | | | LAST MEAL PRIOR TO | HYPO3 | 2016-01-01T10:30 |", "score": 0.55, "match_basis": "verbatim_token+domain_route:ML"}], "candidate_count": 5, "zero_candidate": false}
{"pdf_atom_id": "ig34_p0124_a004", "pdf_atom_type": "TABLE_ROW", "pdf_source": "SDTMIG v3.4 (no header footer).pdf", "pdf_page": 124, "pdf_parent_section": "§6.1.4 [Meal Data (ML)]", "pdf_verbatim": "5 | XYZ | ML | XYZ-001-001 | 5 | ACKEE FRUIT | DILI EVALUATION | Y | N | | | 2015-12-27 | | | -P1W | | | |", "figure_ref": null, "candidates": [{"md_atom_id": "md_dmML_ex_a029", "md_file": "knowledge_base/domains/ML/examples.md", "md_atom_type": "TABLE_ROW", "md_parent_section": "§ML.1 [Example 1]", "md_verbatim": "| 5 | XYZ | ML | XYZ-001-001 | 5 | ACKEE FRUIT | DILI EVALUATION | Y | N | | | 2015-12-27 | | | -P1W | | | |", "score": 1.0, "match_basis": "verbatim_token+domain_route:ML"}, {"md_atom_id": "md_dmML_ex_a030", "md_file": "knowledge_base/domains/ML/examples.md", "md_atom_type": "TABLE_ROW", "md_parent_section": "§ML.1 [Example 1]", "md_verbatim": "| 6 | XYZ | ML | XYZ-001-001 | 6 | CYCAD SEEDS | DILI EVALUATION | Y | N | | | 2015-12-27 | | | -P1W | | | |", "score": 0.7333, "match_basis": "verbatim_token+domain_route:ML"}, {"md_atom_id": "md_dmML_ex_a028", "md_file": "knowledge_base/domains/ML/examples.md", "md_atom_type": "TABLE_ROW", "md_parent_section": "§ML.1 [Example 1]", "md_verbatim": "| 4 | XYZ | ML | XYZ-001-001 | 4 | WILD MUSHROOMS | DILI EVALUATION | Y | Y | | | 2015-12-27 | 2015-12-24 | | -P1W | | | |", "score": 0.7, "match_basis": "verbatim_token+domain_route:ML"}, {"md_atom_id": "md_dmML_ex_a025", "md_file": "knowledge_base/domains/ML/examples.md", "md_atom_type": "TABLE_ROW", "md_parent_section": "§ML.1 [Example 1]", "md_verbatim": "| 1 | XYZ | ML | XYZ-001-001 | 1 | SNACK | HYPOGLYCEMIA EVALUATION | Y | Y | | | | 2015-06-03T14:15 | | | LAST MEAL PRIOR TO | HYPO1 | 2015-06-03T19:20 |", "score": 0.5733, "match_basis": "verbatim_token+domain_route:ML"}, {"md_atom_id": "md_dmML_ex_a017", "md_file": "knowledge_base/domains/ML/examples.md", "md_atom_type": "TABLE_ROW", "md_parent_section": "§ML.1 [Example 1]", "md_verbatim": "| Ackee fruit | [ ] Yes | [X] No | |", "score": 0.5636, "match_basis": "verbatim_token+domain_route:ML"}], "candidate_count": 5, "zero_candidate": false}
{"pdf_atom_id": "ig34_p0124_a005", "pdf_atom_type": "TABLE_ROW", "pdf_source": "SDTMIG v3.4 (no header footer).pdf", "pdf_page": 124, "pdf_parent_section": "§6.1.4 [Meal Data (ML)]", "pdf_verbatim": "6 | XYZ | ML | XYZ-001-001 | 6 | CYCAD SEEDS | DILI EVALUATION | Y | N | | | 2015-12-27 | | | -P1W | | | |", "figure_ref": null, "candidates": [{"md_atom_id": "md_dmML_ex_a030", "md_file": "knowledge_base/domains/ML/examples.md", "md_atom_type": "TABLE_ROW", "md_parent_section": "§ML.1 [Example 1]", "md_verbatim": "| 6 | XYZ | ML | XYZ-001-001 | 6 | CYCAD SEEDS | DILI EVALUATION | Y | N | | | 2015-12-27 | | | -P1W | | | |", "score": 1.0, "match_basis": "verbatim_token+domain_route:ML"}, {"md_atom_id": "md_dmML_ex_a029", "md_file": "knowledge_base/domains/ML/examples.md", "md_atom_type": "TABLE_ROW", "md_parent_section": "§ML.1 [Example 1]", "md_verbatim": "| 5 | XYZ | ML | XYZ-001-001 | 5 | ACKEE FRUIT | DILI EVALUATION | Y | N | | | 2015-12-27 | | | -P1W | | | |", "score": 0.7333, "match_basis": "verbatim_token+domain_route:ML"}, {"md_atom_id": "md_dmML_ex_a028", "md_file": "knowledge_base/domains/ML/examples.md", "md_atom_type": "TABLE_ROW", "md_parent_section": "§ML.1 [Example 1]", "md_verbatim": "| 4 | XYZ | ML | XYZ-001-001 | 4 | WILD MUSHROOMS | DILI EVALUATION | Y | Y | | | 2015-12-27 | 2015-12-24 | | -P1W | | | |", "score": 0.7, "match_basis": "verbatim_token+domain_route:ML"}, {"md_atom_id": "md_dmML_ex_a018", "md_file": "knowledge_base/domains/ML/examples.md", "md_atom_type": "TABLE_ROW", "md_parent_section": "§ML.1 [Example 1]", "md_verbatim": "| Cycad seeds | [ ] Yes | [X] No | |", "score": 0.5636, "match_basis": "verbatim_token+domain_route:ML"}, {"md_atom_id": "md_dmML_ex_a027", "md_file": "knowledge_base/domains/ML/examples.md", "md_atom_type": "TABLE_ROW", "md_parent_section": "§ML.1 [Example 1]", "md_verbatim": "| 3 | XYZ | ML | XYZ-001-001 | 3 | MEAL | HYPOGLYCEMIA EVALUATION | Y | Y | | | | 2015-12-31T19:00 | | | LAST MEAL PRIOR TO | HYPO3 | 2016-01-01T10:30 |", "score": 0.56, "match_basis": "verbatim_token+domain_route:ML"}], "candidate_count": 5, "zero_candidate": false}
{"pdf_atom_id": "ig34_p0124_a006", "pdf_atom_type": "HEADING", "pdf_source": "SDTMIG v3.4 (no header footer).pdf", "pdf_page": 124, "pdf_parent_section": "§6.1.4 [Meal Data (ML)]", "pdf_verbatim": "Example 2", "figure_ref": null, "candidates": [{"md_atom_id": "md_dmML_ex_a002", "md_file": "knowledge_base/domains/ML/examples.md", "md_atom_type": "HEADING", "md_parent_section": "§ML [ML — Examples]", "md_verbatim": "## Example 1", "score": 1.0, "match_basis": "verbatim_token+domain_route:ML"}, {"md_atom_id": "md_dmML_ex_a031", "md_file": "knowledge_base/domains/ML/examples.md", "md_atom_type": "HEADING", "md_parent_section": "§ML [ML — Examples]", "md_verbatim": "## Example 2", "score": 1.0, "match_basis": "verbatim_token+domain_route:ML"}, {"md_atom_id": "md_dmML_ex_a001", "md_file": "knowledge_base/domains/ML/examples.md", "md_atom_type": "HEADING", "md_parent_section": "§ML [ML — Examples]", "md_verbatim": "# ML — Examples", "score": 0.9, "match_basis": "verbatim_token+domain_route:ML"}, {"md_atom_id": "md_dmML_assn_a001", "md_file": "knowledge_base/domains/ML/assumptions.md", "md_atom_type": "HEADING", "md_parent_section": "§ML [ML — Assumptions]", "md_verbatim": "# ML — Assumptions", "score": 0.4, "match_basis": "verbatim_token+domain_route:ML"}], "candidate_count": 4, "zero_candidate": false}
{"pdf_atom_id": "ig34_p0124_a007", "pdf_atom_type": "SENTENCE", "pdf_source": "SDTMIG v3.4 (no header footer).pdf", "pdf_page": 124, "pdf_parent_section": "§6.1.4 [Meal Data (ML)]", "pdf_verbatim": "This example describes a study that examines the effect of physical modifications in a cafeteria on selection/consumption among school students.", "figure_ref": null, "candidates": [{"md_atom_id": "md_dmML_ex_a032", "md_file": "knowledge_base/domains/ML/examples.md", "md_atom_type": "SENTENCE", "md_parent_section": "§ML.2 [Example 2]", "md_verbatim": "This example describes a study that examines the effect of physical modifications in a cafeteria on selection/consumption among school students.", "score": 1.0, "match_basis": "verbatim_token+domain_route:ML"}, {"md_atom_id": "md_dmML_ex_a037", "md_file": "knowledge_base/domains/ML/examples.md", "md_atom_type": "SENTENCE", "md_parent_section": "§ML.2 [Example 2]", "md_verbatim": "Students who brought a lunch from home or those not eating lunch in the cafeteria on a study day were excluded.", "score": 0.496, "match_basis": "verbatim_token+domain_route:ML"}, {"md_atom_id": "md_dmML_ex_a020", "md_file": "knowledge_base/domains/ML/examples.md", "md_atom_type": "SENTENCE", "md_parent_section": "§ML.1 [Example 1]", "md_verbatim": "Because no end date was collected, the meal was represented as a point-in-time event, as described in Assumption 2b.", "score": 0.4914, "match_basis": "verbatim_token+domain_route:ML"}, {"md_atom_id": "md_dmML_ex_a003", "md_file": "knowledge_base/domains/ML/examples.md", "md_atom_type": "SENTENCE", "md_parent_section": "§ML.1 [Example 1]", "md_verbatim": "This example shows meal data collected in an effort to understand the causes of 2 different kinds of events.", "score": 0.4833, "match_basis": "verbatim_token+domain_route:ML"}, {"md_atom_id": "md_dmML_ex_a036", "md_file": "knowledge_base/domains/ML/examples.md", "md_atom_type": "SENTENCE", "md_parent_section": "§ML.2 [Example 2]", "md_verbatim": "Food-card data was collected over a 7-month period by students receiving a school meal 1 day per week.", "score": 0.4816, "match_basis": "verbatim_token+domain_route:ML"}], "candidate_count": 5, "zero_candidate": false}
