{"pdf_atom_id": "ig34_p0001_a001", "pdf_atom_type": "HEADING", "pdf_source": "SDTMIG_v3.4", "pdf_page": 1, "pdf_parent_section": "§0 [Cover]", "pdf_verbatim": "Study Data Tabulation Model Implementation Guide: Human Clinical Trials", "figure_ref": null, "candidates": [{"md_atom_id": "md_ch04_a007", "md_file": "knowledge_base/chapters/ch04_general_assumptions.md", "md_atom_type": "HEADING", "md_parent_section": "§4.1 [General Domain Assumptions]", "md_verbatim": "### 4.1.1 Review Study Data Tabulation Model and Implementation Guide", "score": 0.6652, "match_basis": "verbatim_token+global_search"}, {"md_atom_id": "md_ch01_a046", "md_file": "knowledge_base/chapters/ch01_introduction.md", "md_atom_type": "HEADING", "md_parent_section": "§1.3 [Relationship to Prior CDISC Documents]", "md_verbatim": "### Related Implementation Guides", "score": 0.5087, "match_basis": "verbatim_token+global_search"}, {"md_atom_id": "md_ch01_a051", "md_file": "knowledge_base/chapters/ch01_introduction.md", "md_atom_type": "HEADING", "md_parent_section": "§1 [Introduction]", "md_verbatim": "## 1.4 How to Read this Implementation Guide", "score": 0.4957, "match_basis": "verbatim_token+global_search"}, {"md_atom_id": "md_index_a015", "md_file": "knowledge_base/INDEX.md", "md_atom_type": "HEADING", "md_parent_section": "§ SDTM Knowledge Base — Index", "md_verbatim": "## Chapters (SDTMIG v3.4 Implementation Guide)", "score": 0.4765, "match_basis": "verbatim_token+global_search"}, {"md_atom_id": "md_ch02_a124", "md_file": "knowledge_base/chapters/ch02_fundamentals.md", "md_atom_type": "HEADING", "md_parent_section": "§2.7 [SDTM Variables Not Allowed in the SDTMIG]", "md_verbatim": "### Use with extreme caution (not fully evaluated for human clinical trials):", "score": 0.4524, "match_basis": "verbatim_token+global_search"}], "candidate_count": 5, "zero_candidate": false}
{"pdf_atom_id": "ig34_p0001_a002", "pdf_atom_type": "SENTENCE", "pdf_source": "SDTMIG_v3.4", "pdf_page": 1, "pdf_parent_section": "§0 [Cover]", "pdf_verbatim": "Version 3.4 (Final)", "figure_ref": null, "candidates": [{"md_atom_id": "md_dmRS_ex_a047", "md_file": "knowledge_base/domains/RS/examples.md", "md_atom_type": "SENTENCE", "md_parent_section": "§RS.2.1 [Example 1]", "md_verbatim": "**Glasgow Coma Scale NINDS Version (GCS NINDS VERSION)**", "score": 0.4364, "match_basis": "verbatim_token+global_search"}, {"md_atom_id": "md_ch01_a006", "md_file": "knowledge_base/chapters/ch01_introduction.md", "md_atom_type": "SENTENCE", "md_parent_section": "§1.1 [Purpose]", "md_verbatim": "Version 3.4 supersedes all prior versions of the SDTMIG.", "score": 0.42, "match_basis": "verbatim_token+global_search"}, {"md_atom_id": "md_dmTI_ex_a004", "md_file": "knowledge_base/domains/TI/examples.md", "md_atom_type": "SENTENCE", "md_parent_section": "§TI.1 [Example 1]", "md_verbatim": "**Rows 1-3:** Show the 2 inclusion criteria and 1 exclusion criterion for version 1 of the protocol.", "score": 0.3857, "match_basis": "verbatim_token+global_search"}, {"md_atom_id": "md_ch03_a099", "md_file": "knowledge_base/chapters/ch03_submitting_data.md", "md_atom_type": "SENTENCE", "md_parent_section": "§3.2.1.1 [Primary Keys]", "md_verbatim": "**Definitions:**", "score": 0.38, "match_basis": "verbatim_token+global_search"}, {"md_atom_id": "md_dmRS_ex_a048", "md_file": "knowledge_base/domains/RS/examples.md", "md_atom_type": "SENTENCE", "md_parent_section": "§RS.2.1 [Example 1]", "md_verbatim": "The rs.xpt dataset represents the items from the GCS NINDS VERSION instrument.", "score": 0.3769, "match_basis": "verbatim_token+global_search"}], "candidate_count": 5, "zero_candidate": false}
{"pdf_atom_id": "ig34_p0001_a003", "pdf_atom_type": "SENTENCE", "pdf_source": "SDTMIG_v3.4", "pdf_page": 1, "pdf_parent_section": "§0 [Cover]", "pdf_verbatim": "Developed by the CDISC Submission Data Standards Team", "figure_ref": null, "candidates": [{"md_atom_id": "md_ch03_a108", "md_file": "knowledge_base/chapters/ch03_submitting_data.md", "md_atom_type": "SENTENCE", "md_parent_section": "§3.2.1.2 [CDISC Submission Value-level Metadata]", "md_verbatim": "For details on the CDISC Define-XML standard, see https://www.cdisc.org/standards/data-exchange/define-xml.", "score": 0.4472, "match_basis": "verbatim_token+global_search"}, {"md_atom_id": "md_ch04_a286", "md_file": "knowledge_base/chapters/ch04_general_assumptions.md", "md_atom_type": "SENTENCE", "md_parent_section": "§4.2.7.1 [\"Specify\" Values for Non-Result Qualifier Variables]", "md_verbatim": "Several options are available for submission of this data:", "score": 0.4347, "match_basis": "verbatim_token+global_search"}, {"md_atom_id": "md_ch01_a004", "md_file": "knowledge_base/chapters/ch01_introduction.md", "md_atom_type": "SENTENCE", "md_parent_section": "§1.1 [Purpose]", "md_verbatim": "The Study Data Tabulation Model Implementation Guide for Human Clinical Trials (SDTMIG) Version 3.4 has been prepared by the Submissions Data Standards (SDS) team of the Clinical Data Interchange Standards Consortium (CDISC).", "score": 0.434, "match_basis": "verbatim_token+global_search"}, {"md_atom_id": "md_ch02_a069", "md_file": "knowledge_base/chapters/ch02_fundamentals.md", "md_atom_type": "SENTENCE", "md_parent_section": "§2.5 [The SDTM Standard Domain Models]", "md_verbatim": "Therapeutic-area standards projects and other projects may develop proposals for additional domains.", "score": 0.4254, "match_basis": "verbatim_token+global_search"}, {"md_atom_id": "md_ch01_a026", "md_file": "knowledge_base/chapters/ch01_introduction.md", "md_atom_type": "SENTENCE", "md_parent_section": "§1.3 [Relationship to Prior CDISC Documents]", "md_verbatim": "Version 3.1 was the first fully implementation-ready version of the CDISC submission data standards that was directly referenced by the US FDA for use in human clinical studies involving drug products.", "score": 0.4235, "match_basis": "verbatim_token+global_search"}], "candidate_count": 5, "zero_candidate": false}
{"pdf_atom_id": "ig34_p0001_a004", "pdf_atom_type": "HEADING", "pdf_source": "SDTMIG_v3.4", "pdf_page": 1, "pdf_parent_section": "§0 [Cover]", "pdf_verbatim": "Notes to Readers", "figure_ref": null, "candidates": [{"md_atom_id": "md_ch04_a894", "md_file": "knowledge_base/chapters/ch04_general_assumptions.md", "md_atom_type": "HEADING", "md_parent_section": "§4.5.3 [Text Strings that Exceed the Maximum Length for General Observation-class Domain Variables]", "md_verbatim": "#### 4.5.3.1 Test Name (--TEST) Greater than 40 Characters", "score": 0.3783, "match_basis": "verbatim_token+global_search"}, {"md_atom_id": "md_ch01_a066", "md_file": "knowledge_base/chapters/ch01_introduction.md", "md_atom_type": "HEADING", "md_parent_section": "§1.4 [How to Read this Implementation Guide]", "md_verbatim": "### 1.4.1 How to Read a Domain Specification", "score": 0.35, "match_basis": "verbatim_token+global_search"}, {"md_atom_id": "md_ch01_a051", "md_file": "knowledge_base/chapters/ch01_introduction.md", "md_atom_type": "HEADING", "md_parent_section": "§1 [Introduction]", "md_verbatim": "## 1.4 How to Read this Implementation Guide", "score": 0.3462, "match_basis": "verbatim_token+global_search"}, {"md_atom_id": "md_ch08_a199", "md_file": "knowledge_base/chapters/ch08_relationships.md", "md_atom_type": "HEADING", "md_parent_section": "§8.4 [Relating Non-standard Variable Values to a Parent Domain]", "md_verbatim": "### 8.4.4 When Not to Use Supplemental Qualifiers", "score": 0.3429, "match_basis": "verbatim_token+global_search"}, {"md_atom_id": "md_dmSUPPQUAL_assn_a010", "md_file": "knowledge_base/domains/SUPPQUAL/assumptions.md", "md_atom_type": "HEADING", "md_parent_section": "§SUPPQUAL [SUPPQUAL — Assumptions]", "md_verbatim": "## When Not to Use Supplemental Qualifiers", "score": 0.3429, "match_basis": "verbatim_token+global_search"}], "candidate_count": 5, "zero_candidate": false}
{"pdf_atom_id": "ig34_p0001_a005", "pdf_atom_type": "LIST_ITEM", "pdf_source": "SDTMIG_v3.4", "pdf_page": 1, "pdf_parent_section": "§0 [Cover]", "pdf_verbatim": "This is the implementation guide for human clinical trials corresponding to Version 2.0 of the CDISC Study Data Tabulation Model.", "figure_ref": null, "candidates": [{"md_atom_id": "md_ch10_a043", "md_file": "knowledge_base/chapters/ch10_appendices.md", "md_atom_type": "TABLE_ROW", "md_parent_section": "§10.B [Glossary and Abbreviations]", "md_verbatim": "| SDTMIG | Study Data Tabulation Model Implementation Guide: Human Clinical Trials |", "score": 0.5172, "match_basis": "verbatim_token+global_search"}, {"md_atom_id": "md_ch01_a004", "md_file": "knowledge_base/chapters/ch01_introduction.md", "md_atom_type": "SENTENCE", "md_parent_section": "§1.1 [Purpose]", "md_verbatim": "The Study Data Tabulation Model Implementation Guide for Human Clinical Trials (SDTMIG) Version 3.4 has been prepared by the Submissions Data Standards (SDS) team of the Clinical Data Interchange Standards Consortium (CDISC).", "score": 0.4852, "match_basis": "verbatim_token+global_search"}, {"md_atom_id": "md_ch04_a066", "md_file": "knowledge_base/chapters/ch04_general_assumptions.md", "md_atom_type": "LIST_ITEM", "md_parent_section": "§4.1.7 [Splitting Domains]", "md_verbatim": "9. See the SDTM Implementation Guide: Associated Persons (https://www.cdisc.org/standards/foundational/sdtmig/) for the naming of split AP datasets.", "score": 0.4346, "match_basis": "verbatim_token+global_search"}, {"md_atom_id": "md_dmTS_assn_a007", "md_file": "knowledge_base/domains/TS/assumptions.md", "md_atom_type": "LIST_ITEM", "md_parent_section": "§TS [TS — Assumptions]", "md_verbatim": "2. Recipients may specify their requirements for which trial summary parameters should be included under which conditions. For example, the US FDA includes such information in their Study Data Technical Conformance Guide.", "score": 0.4254, "match_basis": "verbatim_token+global_search"}, {"md_atom_id": "md_model04_a015", "md_file": "knowledge_base/model/04_associated_persons.md", "md_atom_type": "LIST_ITEM", "md_parent_section": "§4 [SDTM v2.0 — Chapter 4: Associated Persons Data]", "md_verbatim": "- AP domains are not part of the core SDTMIG for human clinical trials", "score": 0.4247, "match_basis": "verbatim_token+global_search"}], "candidate_count": 5, "zero_candidate": false}
{"pdf_atom_id": "ig34_p0001_a006", "pdf_atom_type": "HEADING", "pdf_source": "SDTMIG_v3.4", "pdf_page": 1, "pdf_parent_section": "§0 [Cover]", "pdf_verbatim": "Revision History", "figure_ref": null, "candidates": [{"md_atom_id": "md_ch10_a136", "md_file": "knowledge_base/chapters/ch10_appendices.md", "md_atom_type": "HEADING", "md_parent_section": "§10 [Appendices]", "md_verbatim": "## Appendix E: Revision History", "score": 0.6882, "match_basis": "verbatim_token+global_search"}, {"md_atom_id": "md_varindex_a830", "md_file": "knowledge_base/VARIABLE_INDEX.md", "md_atom_type": "HEADING", "md_parent_section": "§ 二、领域专属变量（仅 1 个域，共 1499 个），按域分组", "md_verbatim": "### MH — Medical History (Events)", "score": 0.45, "match_basis": "verbatim_token+global_search"}, {"md_atom_id": "md_ch04_a509", "md_file": "knowledge_base/chapters/ch04_general_assumptions.md", "md_atom_type": "HEADING", "md_parent_section": "§4.4 [Actual and Relative Time Assumptions]", "md_verbatim": "### 4.4.2 Date/Time Precision", "score": 0.3947, "match_basis": "verbatim_token+global_search"}, {"md_atom_id": "md_model05_a083", "md_file": "knowledge_base/model/05_study_level_data.md", "md_atom_type": "HEADING", "md_parent_section": "§ Trial Visits (TV)", "md_verbatim": "### Trial Visits (TV)", "score": 0.375, "match_basis": "verbatim_token+global_search"}, {"md_atom_id": "md_model03_a123", "md_file": "knowledge_base/model/03_special_purpose_domains.md", "md_atom_type": "HEADING", "md_parent_section": "§ Subject Visits (SV)", "md_verbatim": "## Subject Visits (SV)", "score": 0.3667, "match_basis": "verbatim_token+global_search"}], "candidate_count": 5, "zero_candidate": false}
{"pdf_atom_id": "ig34_p0001_a007", "pdf_atom_type": "TABLE_HEADER", "pdf_source": "SDTMIG_v3.4", "pdf_page": 1, "pdf_parent_section": "§0 [Cover]", "pdf_verbatim": "Date | Version | Summary of changes", "figure_ref": null, "candidates": [{"md_atom_id": "md_index_a137", "md_file": "knowledge_base/INDEX.md", "md_atom_type": "TABLE_HEADER", "md_parent_section": "§ Source Documents", "md_verbatim": "| Document | Version | Pages |\n|----------|---------|-------|", "score": 0.444, "match_basis": "verbatim_token+global_search"}, {"md_atom_id": "md_ch10_a170", "md_file": "knowledge_base/chapters/ch10_appendices.md", "md_atom_type": "TABLE_HEADER", "md_parent_section": "§10.E [Revision History]", "md_verbatim": "| Section Number | Section Name | Change(s) |\n|---------------|--------------|-----------|", "score": 0.4111, "match_basis": "verbatim_token+global_search"}, {"md_atom_id": "md_ch01_a012", "md_file": "knowledge_base/chapters/ch01_introduction.md", "md_atom_type": "TABLE_ROW", "md_parent_section": "§1.2 [Organization of this Document]", "md_verbatim": "| 1 | Introduction | Overall introduction to v3.4 models; changes from prior versions |", "score": 0.39, "match_basis": "verbatim_token+global_search"}, {"md_atom_id": "md_ch04_a518", "md_file": "knowledge_base/chapters/ch04_general_assumptions.md", "md_atom_type": "TABLE_HEADER", "md_parent_section": "§4.4.2 [Date/Time Precision]", "md_verbatim": "| # | Date and Time as Originally Recorded | Precision | ISO 8601 Date/Time |\n|---|--------------------------------------|-----------|-------------------|", "score": 0.3585, "match_basis": "verbatim_token+global_search"}, {"md_atom_id": "md_dmCE_ex_a028", "md_file": "knowledge_base/domains/CE/examples.md", "md_atom_type": "TABLE_HEADER", "md_parent_section": "§CE.2 [Example 2]", "md_verbatim": "| Event | | Date Started | Date Ended | Severity |\n|-------|---|-------------|-----------|----------|", "score": 0.3562, "match_basis": "verbatim_token+global_search"}], "candidate_count": 5, "zero_candidate": false}
{"pdf_atom_id": "ig34_p0001_a008", "pdf_atom_type": "TABLE_ROW", "pdf_source": "SDTMIG_v3.4", "pdf_page": 1, "pdf_parent_section": "§0 [Cover]", "pdf_verbatim": "2022-07-21 | 3.4 Final | Re-issue of PDF with images updated for clarity", "figure_ref": null, "candidates": [{"md_atom_id": "md_ch10_a188", "md_file": "knowledge_base/chapters/ch10_appendices.md", "md_atom_type": "TABLE_ROW", "md_parent_section": "§10.E [Revision History]", "md_verbatim": "| 5 | Models for Special-purpose Domains | All SDTMIG v3.4 metadata specifications updated to reflect ISO 8601 granularity |", "score": 0.3779, "match_basis": "verbatim_token+global_search"}, {"md_atom_id": "md_ch10_a183", "md_file": "knowledge_base/chapters/ch10_appendices.md", "md_atom_type": "TABLE_ROW", "md_parent_section": "§10.E [Revision History]", "md_verbatim": "| 4.1 | General Domain Assumptions | QRS Examples for splitting questionnaires updated; Origin Metadata traceability clarified |", "score": 0.375, "match_basis": "verbatim_token+global_search"}, {"md_atom_id": "md_dmSC_ex_a022", "md_file": "knowledge_base/domains/SC/examples.md", "md_atom_type": "TABLE_ROW", "md_parent_section": "§SC.2 [Example 2]", "md_verbatim": "| 3 | ABC-123 | SC | 101 | 3 | EGESTAGE | Estimated Gestational Age | PREGNANCY-RELATED FINDINGS | 265 | DAYS | 265 | 265 | DAYS | BALLARD | 13.1 | 2017-06-10 | 297 |", "score": 0.3727, "match_basis": "verbatim_token+global_search"}, {"md_atom_id": "md_ch10_a241", "md_file": "knowledge_base/chapters/ch10_appendices.md", "md_atom_type": "TABLE_ROW", "md_parent_section": "§10.E [Revision History]", "md_verbatim": "| Appendix A | CDISC SDS Team | The team list has been updated |", "score": 0.3682, "match_basis": "verbatim_token+global_search"}, {"md_atom_id": "md_index_a138", "md_file": "knowledge_base/INDEX.md", "md_atom_type": "TABLE_ROW", "md_parent_section": "§ Source Documents", "md_verbatim": "| SDTM (Study Data Tabulation Model) | v2.0 Final (2021-11-29) | 74 |", "score": 0.3682, "match_basis": "verbatim_token+global_search"}], "candidate_count": 5, "zero_candidate": false}
{"pdf_atom_id": "ig34_p0001_a009", "pdf_atom_type": "TABLE_ROW", "pdf_source": "SDTMIG_v3.4", "pdf_page": 1, "pdf_parent_section": "§0 [Cover]", "pdf_verbatim": "2021-11-29 | 3.4 Final | See Appendix E", "figure_ref": null, "candidates": [{"md_atom_id": "md_ch10_a240", "md_file": "knowledge_base/chapters/ch10_appendices.md", "md_atom_type": "TABLE_ROW", "md_parent_section": "§10.E [Revision History]", "md_verbatim": "| **Appendices** | | |", "score": 0.5, "match_basis": "verbatim_token+global_search"}, {"md_atom_id": "md_ch10_a241", "md_file": "knowledge_base/chapters/ch10_appendices.md", "md_atom_type": "TABLE_ROW", "md_parent_section": "§10.E [Revision History]", "md_verbatim": "| Appendix A | CDISC SDS Team | The team list has been updated |", "score": 0.4241, "match_basis": "verbatim_token+global_search"}, {"md_atom_id": "md_index_a138", "md_file": "knowledge_base/INDEX.md", "md_atom_type": "TABLE_ROW", "md_parent_section": "§ Source Documents", "md_verbatim": "| SDTM (Study Data Tabulation Model) | v2.0 Final (2021-11-29) | 74 |", "score": 0.4, "match_basis": "verbatim_token+global_search"}, {"md_atom_id": "md_ch10_a244", "md_file": "knowledge_base/chapters/ch10_appendices.md", "md_atom_type": "TABLE_ROW", "md_parent_section": "§10.E [Revision History]", "md_verbatim": "| Appendix E | This appendix | This appendix was updated to reflect an overview of changes from SDTMIG v3.3 to SDTMIG v3.4 |", "score": 0.3857, "match_basis": "verbatim_token+global_search"}, {"md_atom_id": "md_ch01_a021", "md_file": "knowledge_base/chapters/ch01_introduction.md", "md_atom_type": "TABLE_ROW", "md_parent_section": "§1.2 [Organization of this Document]", "md_verbatim": "| 10 | Appendices | Additional background material and supplemental material |", "score": 0.3766, "match_basis": "verbatim_token+global_search"}], "candidate_count": 5, "zero_candidate": false}
{"pdf_atom_id": "ig34_p0001_a010", "pdf_atom_type": "TABLE_ROW", "pdf_source": "SDTMIG_v3.4", "pdf_page": 1, "pdf_parent_section": "§0 [Cover]", "pdf_verbatim": "2018-02-20 | 3.3 Final | See Appendix E", "figure_ref": null, "candidates": [{"md_atom_id": "md_ch10_a240", "md_file": "knowledge_base/chapters/ch10_appendices.md", "md_atom_type": "TABLE_ROW", "md_parent_section": "§10.E [Revision History]", "md_verbatim": "| **Appendices** | | |", "score": 0.5, "match_basis": "verbatim_token+global_search"}, {"md_atom_id": "md_ch10_a241", "md_file": "knowledge_base/chapters/ch10_appendices.md", "md_atom_type": "TABLE_ROW", "md_parent_section": "§10.E [Revision History]", "md_verbatim": "| Appendix A | CDISC SDS Team | The team list has been updated |", "score": 0.4241, "match_basis": "verbatim_token+global_search"}, {"md_atom_id": "md_ch04_a852", "md_file": "knowledge_base/chapters/ch04_general_assumptions.md", "md_atom_type": "TABLE_ROW", "md_parent_section": "§4.5.1.3 [Examples of Original and Standard Units and Test Not Done]", "md_verbatim": "| 5 | RBC | URINALYSIS | 2+ | | 2+ | | | | | 1 | 2016-02-01 |", "score": 0.39, "match_basis": "verbatim_token+global_search"}, {"md_atom_id": "md_ch10_a244", "md_file": "knowledge_base/chapters/ch10_appendices.md", "md_atom_type": "TABLE_ROW", "md_parent_section": "§10.E [Revision History]", "md_verbatim": "| Appendix E | This appendix | This appendix was updated to reflect an overview of changes from SDTMIG v3.3 to SDTMIG v3.4 |", "score": 0.3857, "match_basis": "verbatim_token+global_search"}, {"md_atom_id": "md_ch04_a851", "md_file": "knowledge_base/chapters/ch04_general_assumptions.md", "md_atom_type": "TABLE_ROW", "md_parent_section": "§4.5.1.3 [Examples of Original and Standard Units and Test Not Done]", "md_verbatim": "| 4 | RBC | URINALYSIS | TRACE | | TRACE | | | | | 1 | 2016-02-01 |", "score": 0.3783, "match_basis": "verbatim_token+global_search"}], "candidate_count": 5, "zero_candidate": false}
{"pdf_atom_id": "ig34_p0001_a011", "pdf_atom_type": "TABLE_ROW", "pdf_source": "SDTMIG_v3.4", "pdf_page": 1, "pdf_parent_section": "§0 [Cover]", "pdf_verbatim": "2013-11-26 | 3.2 Final | See Appendix E", "figure_ref": null, "candidates": [{"md_atom_id": "md_ch10_a240", "md_file": "knowledge_base/chapters/ch10_appendices.md", "md_atom_type": "TABLE_ROW", "md_parent_section": "§10.E [Revision History]", "md_verbatim": "| **Appendices** | | |", "score": 0.5, "match_basis": "verbatim_token+global_search"}, {"md_atom_id": "md_ch10_a241", "md_file": "knowledge_base/chapters/ch10_appendices.md", "md_atom_type": "TABLE_ROW", "md_parent_section": "§10.E [Revision History]", "md_verbatim": "| Appendix A | CDISC SDS Team | The team list has been updated |", "score": 0.4241, "match_basis": "verbatim_token+global_search"}, {"md_atom_id": "md_ch04_a852", "md_file": "knowledge_base/chapters/ch04_general_assumptions.md", "md_atom_type": "TABLE_ROW", "md_parent_section": "§4.5.1.3 [Examples of Original and Standard Units and Test Not Done]", "md_verbatim": "| 5 | RBC | URINALYSIS | 2+ | | 2+ | | | | | 1 | 2016-02-01 |", "score": 0.39, "match_basis": "verbatim_token+global_search"}, {"md_atom_id": "md_ch10_a244", "md_file": "knowledge_base/chapters/ch10_appendices.md", "md_atom_type": "TABLE_ROW", "md_parent_section": "§10.E [Revision History]", "md_verbatim": "| Appendix E | This appendix | This appendix was updated to reflect an overview of changes from SDTMIG v3.3 to SDTMIG v3.4 |", "score": 0.3857, "match_basis": "verbatim_token+global_search"}, {"md_atom_id": "md_ch04_a851", "md_file": "knowledge_base/chapters/ch04_general_assumptions.md", "md_atom_type": "TABLE_ROW", "md_parent_section": "§4.5.1.3 [Examples of Original and Standard Units and Test Not Done]", "md_verbatim": "| 4 | RBC | URINALYSIS | TRACE | | TRACE | | | | | 1 | 2016-02-01 |", "score": 0.3783, "match_basis": "verbatim_token+global_search"}], "candidate_count": 5, "zero_candidate": false}
{"pdf_atom_id": "ig34_p0001_a012", "pdf_atom_type": "TABLE_ROW", "pdf_source": "SDTMIG_v3.4", "pdf_page": 1, "pdf_parent_section": "§0 [Cover]", "pdf_verbatim": "2012-07-16 | 3.1.3 Final | See SDTMIG v3.2", "figure_ref": null, "candidates": [{"md_atom_id": "md_routing_a045", "md_file": "knowledge_base/ROUTING.md", "md_atom_type": "TABLE_ROW", "md_parent_section": "§ 文件类型速查", "md_verbatim": "| chapters/*.md | chapters/ch01-10_*.md | SDTMIG 实施指南通用章节 | 查通用规则/关系/提交 |", "score": 0.4333, "match_basis": "verbatim_token+global_search"}, {"md_atom_id": "md_dmEX_ex_a109", "md_file": "knowledge_base/domains/EX/examples.md", "md_atom_type": "TABLE_ROW", "md_parent_section": "§EX.5 [Example 5]", "md_verbatim": "| A | AM | 1 | 2012-01-01 | 2012-01-08 |", "score": 0.42, "match_basis": "verbatim_token+global_search"}, {"md_atom_id": "md_dmEX_ex_a110", "md_file": "knowledge_base/domains/EX/examples.md", "md_atom_type": "TABLE_ROW", "md_parent_section": "§EX.5 [Example 5]", "md_verbatim": "| B | PM | 1 | 2012-01-01 | 2012-01-08 |", "score": 0.42, "match_basis": "verbatim_token+global_search"}, {"md_atom_id": "md_dmEX_ex_a113", "md_file": "knowledge_base/domains/EX/examples.md", "md_atom_type": "TABLE_ROW", "md_parent_section": "§EX.5 [Example 5]", "md_verbatim": "| A | AM | 1 | 2012-02-01 | 2012-02-08 |", "score": 0.42, "match_basis": "verbatim_token+global_search"}, {"md_atom_id": "md_dmEX_ex_a114", "md_file": "knowledge_base/domains/EX/examples.md", "md_atom_type": "TABLE_ROW", "md_parent_section": "§EX.5 [Example 5]", "md_verbatim": "| B | PM | 1 | 2012-02-01 | 2012-02-08 |", "score": 0.42, "match_basis": "verbatim_token+global_search"}], "candidate_count": 5, "zero_candidate": false}
{"pdf_atom_id": "ig34_p0001_a013", "pdf_atom_type": "TABLE_ROW", "pdf_source": "SDTMIG_v3.4", "pdf_page": 1, "pdf_parent_section": "§0 [Cover]", "pdf_verbatim": "2008-11-12 | 3.1.2 Final | See SDTMIG v3.2", "figure_ref": null, "candidates": [{"md_atom_id": "md_routing_a045", "md_file": "knowledge_base/ROUTING.md", "md_atom_type": "TABLE_ROW", "md_parent_section": "§ 文件类型速查", "md_verbatim": "| chapters/*.md | chapters/ch01-10_*.md | SDTMIG 实施指南通用章节 | 查通用规则/关系/提交 |", "score": 0.4333, "match_basis": "verbatim_token+global_search"}, {"md_atom_id": "md_index_a138", "md_file": "knowledge_base/INDEX.md", "md_atom_type": "TABLE_ROW", "md_parent_section": "§ Source Documents", "md_verbatim": "| SDTM (Study Data Tabulation Model) | v2.0 Final (2021-11-29) | 74 |", "score": 0.4071, "match_basis": "verbatim_token+global_search"}, {"md_atom_id": "md_ch01_a049", "md_file": "knowledge_base/chapters/ch01_introduction.md", "md_atom_type": "TABLE_ROW", "md_parent_section": "§1.3 [Relationship to Prior CDISC Documents]", "md_verbatim": "| SDTMIG-MD | Medical Devices — data about devices |", "score": 0.396, "match_basis": "verbatim_token+global_search"}, {"md_atom_id": "md_index_a139", "md_file": "knowledge_base/INDEX.md", "md_atom_type": "TABLE_ROW", "md_parent_section": "§ Source Documents", "md_verbatim": "| SDTMIG (Implementation Guide) | v3.4 | 461 |", "score": 0.3923, "match_basis": "verbatim_token+global_search"}, {"md_atom_id": "md_routing_a044", "md_file": "knowledge_base/ROUTING.md", "md_atom_type": "TABLE_ROW", "md_parent_section": "§ 文件类型速查", "md_verbatim": "| model/*.md | model/01-06_*.md | SDTM v2.0 概念模型 | 查模型定义/变量模板 |", "score": 0.3923, "match_basis": "verbatim_token+global_search"}], "candidate_count": 5, "zero_candidate": false}
{"pdf_atom_id": "ig34_p0001_a014", "pdf_atom_type": "TABLE_ROW", "pdf_source": "SDTMIG_v3.4", "pdf_page": 1, "pdf_parent_section": "§0 [Cover]", "pdf_verbatim": "2005-08-26 | 3.1.1 Final | See SDTMIG v3.2", "figure_ref": null, "candidates": [{"md_atom_id": "md_routing_a045", "md_file": "knowledge_base/ROUTING.md", "md_atom_type": "TABLE_ROW", "md_parent_section": "§ 文件类型速查", "md_verbatim": "| chapters/*.md | chapters/ch01-10_*.md | SDTMIG 实施指南通用章节 | 查通用规则/关系/提交 |", "score": 0.4333, "match_basis": "verbatim_token+global_search"}, {"md_atom_id": "md_index_a138", "md_file": "knowledge_base/INDEX.md", "md_atom_type": "TABLE_ROW", "md_parent_section": "§ Source Documents", "md_verbatim": "| SDTM (Study Data Tabulation Model) | v2.0 Final (2021-11-29) | 74 |", "score": 0.4071, "match_basis": "verbatim_token+global_search"}, {"md_atom_id": "md_ch01_a049", "md_file": "knowledge_base/chapters/ch01_introduction.md", "md_atom_type": "TABLE_ROW", "md_parent_section": "§1.3 [Relationship to Prior CDISC Documents]", "md_verbatim": "| SDTMIG-MD | Medical Devices — data about devices |", "score": 0.396, "match_basis": "verbatim_token+global_search"}, {"md_atom_id": "md_index_a139", "md_file": "knowledge_base/INDEX.md", "md_atom_type": "TABLE_ROW", "md_parent_section": "§ Source Documents", "md_verbatim": "| SDTMIG (Implementation Guide) | v3.4 | 461 |", "score": 0.3923, "match_basis": "verbatim_token+global_search"}, {"md_atom_id": "md_routing_a044", "md_file": "knowledge_base/ROUTING.md", "md_atom_type": "TABLE_ROW", "md_parent_section": "§ 文件类型速查", "md_verbatim": "| model/*.md | model/01-06_*.md | SDTM v2.0 概念模型 | 查模型定义/变量模板 |", "score": 0.3923, "match_basis": "verbatim_token+global_search"}], "candidate_count": 5, "zero_candidate": false}
{"pdf_atom_id": "ig34_p0001_a015", "pdf_atom_type": "TABLE_ROW", "pdf_source": "SDTMIG_v3.4", "pdf_page": 1, "pdf_parent_section": "§0 [Cover]", "pdf_verbatim": "2004-07-14 | 3.1 | See SDTMIG v3.2", "figure_ref": null, "candidates": [{"md_atom_id": "md_routing_a045", "md_file": "knowledge_base/ROUTING.md", "md_atom_type": "TABLE_ROW", "md_parent_section": "§ 文件类型速查", "md_verbatim": "| chapters/*.md | chapters/ch01-10_*.md | SDTMIG 实施指南通用章节 | 查通用规则/关系/提交 |", "score": 0.46, "match_basis": "verbatim_token+global_search"}, {"md_atom_id": "md_routing_a044", "md_file": "knowledge_base/ROUTING.md", "md_atom_type": "TABLE_ROW", "md_parent_section": "§ 文件类型速查", "md_verbatim": "| model/*.md | model/01-06_*.md | SDTM v2.0 概念模型 | 查模型定义/变量模板 |", "score": 0.42, "match_basis": "verbatim_token+global_search"}, {"md_atom_id": "md_dmDM_ex_a040", "md_file": "knowledge_base/domains/DM/examples.md", "md_atom_type": "TABLE_ROW", "md_parent_section": "§DM.2 [Example 2]", "md_verbatim": "| 9 | ABC | SE | 004 | 2 | RI | Run-In | 2006-05-21 | 2006-05-26 |", "score": 0.42, "match_basis": "verbatim_token+global_search"}, {"md_atom_id": "md_ch01_a049", "md_file": "knowledge_base/chapters/ch01_introduction.md", "md_atom_type": "TABLE_ROW", "md_parent_section": "§1.3 [Relationship to Prior CDISC Documents]", "md_verbatim": "| SDTMIG-MD | Medical Devices — data about devices |", "score": 0.4091, "match_basis": "verbatim_token+global_search"}, {"md_atom_id": "md_index_a139", "md_file": "knowledge_base/INDEX.md", "md_atom_type": "TABLE_ROW", "md_parent_section": "§ Source Documents", "md_verbatim": "| SDTMIG (Implementation Guide) | v3.4 | 461 |", "score": 0.4043, "match_basis": "verbatim_token+global_search"}], "candidate_count": 5, "zero_candidate": false}
{"pdf_atom_id": "ig34_p0001_a016", "pdf_atom_type": "CROSS_REF", "pdf_source": "SDTMIG_v3.4", "pdf_page": 1, "pdf_parent_section": "§0 [Cover]", "pdf_verbatim": "See Appendix F for representations and warranties, limitations of liability, and disclaimers.", "figure_ref": null, "candidates": [{"md_atom_id": "md_ch10_a245", "md_file": "knowledge_base/chapters/ch10_appendices.md", "md_atom_type": "HEADING", "md_parent_section": "§10 [Appendices]", "md_verbatim": "## Appendix F: Representations and Warranties, Limitations of Liability, and Disclaimers", "score": 0.666, "match_basis": "verbatim_token+global_search"}, {"md_atom_id": "md_ch10_a250", "md_file": "knowledge_base/chapters/ch10_appendices.md", "md_atom_type": "HEADING", "md_parent_section": "§10.F [Representations and Warranties, Limitations of Liability, and Disclaimers]", "md_verbatim": "### Representations and Warranties", "score": 0.354, "match_basis": "verbatim_token+global_search"}, {"md_atom_id": "md_ch10_a254", "md_file": "knowledge_base/chapters/ch10_appendices.md", "md_atom_type": "HEADING", "md_parent_section": "§10.F [Representations and Warranties, Limitations of Liability, and Disclaimers]", "md_verbatim": "### No Other Warranties/Disclaimers", "score": 0.2825, "match_basis": "verbatim_token+global_search"}, {"md_atom_id": "md_ch10_a256", "md_file": "knowledge_base/chapters/ch10_appendices.md", "md_atom_type": "HEADING", "md_parent_section": "§10.F [Representations and Warranties, Limitations of Liability, and Disclaimers]", "md_verbatim": "### Limitation of Liability", "score": 0.27, "match_basis": "verbatim_token+global_search"}, {"md_atom_id": "md_ch10_a222", "md_file": "knowledge_base/chapters/ch10_appendices.md", "md_atom_type": "TABLE_ROW", "md_parent_section": "§10.E [Revision History]", "md_verbatim": "| 6.4.5 | Skin Response (SR) | Updated CDISC Notes for USUBJID; revised representation of quadrants in Example 1; Example 3 updated per CDISC CT |", "score": 0.2156, "match_basis": "verbatim_token+global_search"}], "candidate_count": 5, "zero_candidate": false}
{"pdf_atom_id": "ig34_p0002_a001", "pdf_atom_type": "HEADING", "pdf_source": "SDTMIG_v3.4", "pdf_page": 2, "pdf_parent_section": "§0 [Table of Contents]", "pdf_verbatim": "CONTENTS", "figure_ref": null, "candidates": [{"md_atom_id": "md_model03_a063", "md_file": "knowledge_base/model/03_special_purpose_domains.md", "md_atom_type": "HEADING", "md_parent_section": "§ Comments (CO)", "md_verbatim": "## Comments (CO)", "score": 0.42, "match_basis": "verbatim_token+global_search"}, {"md_atom_id": "md_ch03_a003", "md_file": "knowledge_base/chapters/ch03_submitting_data.md", "md_atom_type": "HEADING", "md_parent_section": "§3 [Submitting Data in Standard Format]", "md_verbatim": "## 3.1 Standard Metadata for Dataset Contents and Attributes", "score": 0.42, "match_basis": "verbatim_token+global_search"}, {"md_atom_id": "md_dmTV_ex_a044", "md_file": "knowledge_base/domains/TV/examples.md", "md_atom_type": "HEADING", "md_parent_section": "§TV.2 [Trial Visits Issues]", "md_verbatim": "### Contingent Visits", "score": 0.42, "match_basis": "verbatim_token+global_search"}, {"md_atom_id": "md_ch04_a189", "md_file": "knowledge_base/chapters/ch04_general_assumptions.md", "md_atom_type": "HEADING", "md_parent_section": "§4.2.1 [Variable-Naming Conventions]", "md_verbatim": "#### 4.2.1.3 --TERM Conventions (Events)", "score": 0.4125, "match_basis": "verbatim_token+global_search"}, {"md_atom_id": "md_ch04_a186", "md_file": "knowledge_base/chapters/ch04_general_assumptions.md", "md_atom_type": "HEADING", "md_parent_section": "§4.2.1 [Variable-Naming Conventions]", "md_verbatim": "#### 4.2.1.2 --TRT Conventions (Interventions)", "score": 0.4, "match_basis": "verbatim_token+global_search"}], "candidate_count": 5, "zero_candidate": false}
{"pdf_atom_id": "ig34_p0002_a002", "pdf_atom_type": "CROSS_REF", "pdf_source": "SDTMIG_v3.4", "pdf_page": 2, "pdf_parent_section": "§0 [Table of Contents]", "pdf_verbatim": "1 INTRODUCTION .......................................................................................................7", "figure_ref": null, "candidates": [{"md_atom_id": "md_ch10_a171", "md_file": "knowledge_base/chapters/ch10_appendices.md", "md_atom_type": "TABLE_ROW", "md_parent_section": "§10.E [Revision History]", "md_verbatim": "| **Section 1. Introduction** | | |", "score": 0.59, "match_basis": "verbatim_token+global_search"}, {"md_atom_id": "md_ch01_a001", "md_file": "knowledge_base/chapters/ch01_introduction.md", "md_atom_type": "HEADING", "md_parent_section": "§1 [Introduction]", "md_verbatim": "# SDTMIG v3.4 — Chapter 1: Introduction", "score": 0.4058, "match_basis": "verbatim_token+global_search"}, {"md_atom_id": "md_ch01_a012", "md_file": "knowledge_base/chapters/ch01_introduction.md", "md_atom_type": "TABLE_ROW", "md_parent_section": "§1.2 [Organization of this Document]", "md_verbatim": "| 1 | Introduction | Overall introduction to v3.4 models; changes from prior versions |", "score": 0.2718, "match_basis": "verbatim_token+global_search"}, {"md_atom_id": "md_model05_a068", "md_file": "knowledge_base/model/05_study_level_data.md", "md_atom_type": "HEADING", "md_parent_section": "§ Trial Reproductive Paths (TP)", "md_verbatim": "### Trial Reproductive Paths (TP)", "score": 0.2329, "match_basis": "verbatim_token+global_search"}, {"md_atom_id": "md_model05_a056", "md_file": "knowledge_base/model/05_study_level_data.md", "md_atom_type": "HEADING", "md_parent_section": "§ Trial Reproductive Stages (TT)", "md_verbatim": "### Trial Reproductive Stages (TT)", "score": 0.2264, "match_basis": "verbatim_token+global_search"}], "candidate_count": 5, "zero_candidate": false}
{"pdf_atom_id": "ig34_p0002_a003", "pdf_atom_type": "CROSS_REF", "pdf_source": "SDTMIG_v3.4", "pdf_page": 2, "pdf_parent_section": "§0 [Table of Contents]", "pdf_verbatim": "1.1 PURPOSE.......................................................................................................................7", "figure_ref": null, "candidates": [{"md_atom_id": "md_ch01_a003", "md_file": "knowledge_base/chapters/ch01_introduction.md", "md_atom_type": "HEADING", "md_parent_section": "§1 [Introduction]", "md_verbatim": "## 1.1 Purpose", "score": 0.69, "match_basis": "verbatim_token+global_search"}, {"md_atom_id": "md_ch04_a707", "md_file": "knowledge_base/chapters/ch04_general_assumptions.md", "md_atom_type": "TABLE_HEADER", "md_parent_section": "§4.4.10 [Representing Time Points]", "md_verbatim": "| Variable | Purpose |\n|----------|---------|", "score": 0.3627, "match_basis": "verbatim_token+global_search"}, {"md_atom_id": "md_ch04_a790", "md_file": "knowledge_base/chapters/ch04_general_assumptions.md", "md_atom_type": "TABLE_HEADER", "md_parent_section": "§4.4.11 [Disease Milestones and Disease Milestone Timing Variables]", "md_verbatim": "| Variable | Purpose |\n|----------|---------|", "score": 0.3627, "match_basis": "verbatim_token+global_search"}, {"md_atom_id": "md_index_a028", "md_file": "knowledge_base/INDEX.md", "md_atom_type": "HEADING", "md_parent_section": "§ Domains (63 domains)", "md_verbatim": "### Special-purpose Domains", "score": 0.29, "match_basis": "verbatim_token+global_search"}, {"md_atom_id": "md_varindex_a245", "md_file": "knowledge_base/VARIABLE_INDEX.md", "md_atom_type": "HEADING", "md_parent_section": "§ 二、领域专属变量（仅 1 个域，共 1499 个），按域分组", "md_verbatim": "### CO — Comments (Special-Purpose)", "score": 0.2775, "match_basis": "verbatim_token+global_search"}, {"md_atom_id": "md_model01_a034", "md_file": "knowledge_base/model/01_concepts_and_terms.md", "md_atom_type": "TABLE_HEADER", "md_parent_section": "§2.1 [Model Concepts and Terms — Variables]", "md_verbatim": "| Subclass | Purpose | Examples |\n|----------|---------|----------|", "score": 0.2665, "match_basis": "verbatim_token+global_search"}, {"md_atom_id": "md_ch02_a015", "md_file": "knowledge_base/chapters/ch02_fundamentals.md", "md_atom_type": "TABLE_HEADER", "md_parent_section": "§2.1 [Observations and Variables]", "md_verbatim": "| Subclass | Purpose | Examples |\n|----------|---------|----------|", "score": 0.2665, "match_basis": "verbatim_token+global_search"}, {"md_atom_id": "md_varindex_a1489", "md_file": "knowledge_base/VARIABLE_INDEX.md", "md_atom_type": "HEADING", "md_parent_section": "§ 二、领域专属变量（仅 1 个域，共 1499 个），按域分组", "md_verbatim": "### SV — Subject Visits (Special-Purpose)", "score": 0.2479, "match_basis": "verbatim_token+global_search"}, {"md_atom_id": "md_model06_a102", "md_file": "knowledge_base/model/06_relationship_datasets.md", "md_atom_type": "TABLE_HEADER", "md_parent_section": "§ Summary of Relationship Datasets", "md_verbatim": "| Dataset | Code | Purpose | Subject-level? |\n|---------|------|---------|----------------|", "score": 0.24, "match_basis": "verbatim_token+global_search"}, {"md_atom_id": "md_ch04_a631", "md_file": "knowledge_base/chapters/ch04_general_assumptions.md", "md_atom_type": "TABLE_HEADER", "md_parent_section": "§4.4.7 [Use of Relative Timing Variables]", "md_verbatim": "| Variable | Allowable Values | Purpose |\n|----------|-----------------|---------|", "score": 0.24, "match_basis": "verbatim_token+global_search"}], "candidate_count": 10, "zero_candidate": false}
{"pdf_atom_id": "ig34_p0002_a004", "pdf_atom_type": "CROSS_REF", "pdf_source": "SDTMIG_v3.4", "pdf_page": 2, "pdf_parent_section": "§0 [Table of Contents]", "pdf_verbatim": "1.2 ORGANIZATION OF THIS DOCUMENT .........................................................................7", "figure_ref": null, "candidates": [{"md_atom_id": "md_ch01_a010", "md_file": "knowledge_base/chapters/ch01_introduction.md", "md_atom_type": "HEADING", "md_parent_section": "§1 [Introduction]", "md_verbatim": "## 1.2 Organization of this Document", "score": 0.69, "match_basis": "verbatim_token+global_search"}, {"md_atom_id": "md_ch10_a019", "md_file": "knowledge_base/chapters/ch10_appendices.md", "md_atom_type": "TABLE_ROW", "md_parent_section": "§10.B [Glossary and Abbreviations]", "md_verbatim": "| CRO | Contract research organization |", "score": 0.2835, "match_basis": "verbatim_token+global_search"}, {"md_atom_id": "md_ch01_a022", "md_file": "knowledge_base/chapters/ch01_introduction.md", "md_atom_type": "HEADING", "md_parent_section": "§1 [Introduction]", "md_verbatim": "## 1.3 Relationship to Prior CDISC Documents", "score": 0.2587, "match_basis": "verbatim_token+global_search"}, {"md_atom_id": "md_index_a137", "md_file": "knowledge_base/INDEX.md", "md_atom_type": "TABLE_HEADER", "md_parent_section": "§ Source Documents", "md_verbatim": "| Document | Version | Pages |\n|----------|---------|-------|", "score": 0.258, "match_basis": "verbatim_token+global_search"}, {"md_atom_id": "md_ch10_a032", "md_file": "knowledge_base/chapters/ch10_appendices.md", "md_atom_type": "TABLE_ROW", "md_parent_section": "§10.B [Glossary and Abbreviations]", "md_verbatim": "| ISO | International Organization for Standardization |", "score": 0.2567, "match_basis": "verbatim_token+global_search"}], "candidate_count": 5, "zero_candidate": false}
{"pdf_atom_id": "ig34_p0002_a005", "pdf_atom_type": "CROSS_REF", "pdf_source": "SDTMIG_v3.4", "pdf_page": 2, "pdf_parent_section": "§0 [Table of Contents]", "pdf_verbatim": "1.3 RELATIONSHIP TO PRIOR CDISC DOCUMENTS..........................................................7", "figure_ref": null, "candidates": [{"md_atom_id": "md_ch01_a022", "md_file": "knowledge_base/chapters/ch01_introduction.md", "md_atom_type": "HEADING", "md_parent_section": "§1 [Introduction]", "md_verbatim": "## 1.3 Relationship to Prior CDISC Documents", "score": 0.69, "match_basis": "verbatim_token+global_search"}, {"md_atom_id": "md_ch10_a104", "md_file": "knowledge_base/chapters/ch10_appendices.md", "md_atom_type": "TABLE_ROW", "md_parent_section": "§10.D [CDISC Variable-naming Fragments]", "md_verbatim": "| END | END, EN | | RELATIONSHIP | REL |", "score": 0.34, "match_basis": "verbatim_token+global_search"}, {"md_atom_id": "md_index_a096", "md_file": "knowledge_base/INDEX.md", "md_atom_type": "HEADING", "md_parent_section": "§ Domains (63 domains)", "md_verbatim": "### Relationship Domains", "score": 0.3043, "match_basis": "verbatim_token+global_search"}, {"md_atom_id": "md_varindex_a1285", "md_file": "knowledge_base/VARIABLE_INDEX.md", "md_atom_type": "HEADING", "md_parent_section": "§ 二、领域专属变量（仅 1 个域，共 1499 个），按域分组", "md_verbatim": "### RELSPEC — Related Specimens (Relationship)", "score": 0.29, "match_basis": "verbatim_token+global_search"}, {"md_atom_id": "md_dmRELSPEC_ex_a004", "md_file": "knowledge_base/domains/RELSPEC/examples.md", "md_atom_type": "SENTENCE", "md_parent_section": "§RELSPEC.1 [Example 1]", "md_verbatim": "**Specimen Relationship Diagram:**", "score": 0.29, "match_basis": "verbatim_token+global_search"}], "candidate_count": 5, "zero_candidate": false}
{"pdf_atom_id": "ig34_p0002_a006", "pdf_atom_type": "CROSS_REF", "pdf_source": "SDTMIG_v3.4", "pdf_page": 2, "pdf_parent_section": "§0 [Table of Contents]", "pdf_verbatim": "1.4 HOW TO READ THIS IMPLEMENTATION GUIDE .........................................................8", "figure_ref": null, "candidates": [{"md_atom_id": "md_ch01_a051", "md_file": "knowledge_base/chapters/ch01_introduction.md", "md_atom_type": "HEADING", "md_parent_section": "§1 [Introduction]", "md_verbatim": "## 1.4 How to Read this Implementation Guide", "score": 0.69, "match_basis": "verbatim_token+global_search"}, {"md_atom_id": "md_index_a139", "md_file": "knowledge_base/INDEX.md", "md_atom_type": "TABLE_ROW", "md_parent_section": "§ Source Documents", "md_verbatim": "| SDTMIG (Implementation Guide) | v3.4 | 461 |", "score": 0.45, "match_basis": "verbatim_token+global_search"}, {"md_atom_id": "md_ch01_a046", "md_file": "knowledge_base/chapters/ch01_introduction.md", "md_atom_type": "HEADING", "md_parent_section": "§1.3 [Relationship to Prior CDISC Documents]", "md_verbatim": "### Related Implementation Guides", "score": 0.4362, "match_basis": "verbatim_token+global_search"}, {"md_atom_id": "md_index_a015", "md_file": "knowledge_base/INDEX.md", "md_atom_type": "HEADING", "md_parent_section": "§ SDTM Knowledge Base — Index", "md_verbatim": "## Chapters (SDTMIG v3.4 Implementation Guide)", "score": 0.39, "match_basis": "verbatim_token+global_search"}, {"md_atom_id": "md_ch04_a007", "md_file": "knowledge_base/chapters/ch04_general_assumptions.md", "md_atom_type": "HEADING", "md_parent_section": "§4.1 [General Domain Assumptions]", "md_verbatim": "### 4.1.1 Review Study Data Tabulation Model and Implementation Guide", "score": 0.3268, "match_basis": "verbatim_token+global_search"}], "candidate_count": 5, "zero_candidate": false}
{"pdf_atom_id": "ig34_p0002_a007", "pdf_atom_type": "CROSS_REF", "pdf_source": "SDTMIG_v3.4", "pdf_page": 2, "pdf_parent_section": "§0 [Table of Contents]", "pdf_verbatim": "1.4.1 How to Read a Domain Specification .................................................................9", "figure_ref": null, "candidates": [{"md_atom_id": "md_ch01_a066", "md_file": "knowledge_base/chapters/ch01_introduction.md", "md_atom_type": "HEADING", "md_parent_section": "§1.4 [How to Read this Implementation Guide]", "md_verbatim": "### 1.4.1 How to Read a Domain Specification", "score": 0.69, "match_basis": "verbatim_token+global_search"}, {"md_atom_id": "md_ch02_a038", "md_file": "knowledge_base/chapters/ch02_fundamentals.md", "md_atom_type": "SENTENCE", "md_parent_section": "§2.2 [Datasets and Domains]", "md_verbatim": "See also Section 1.4.1, How to Read a Domain Specification.", "score": 0.54, "match_basis": "verbatim_token+global_search"}, {"md_atom_id": "md_ch08_a276", "md_file": "knowledge_base/chapters/ch08_relationships.md", "md_atom_type": "HEADING", "md_parent_section": "§8.7 [Related Subjects (RELSUB)]", "md_verbatim": "### Specification", "score": 0.4567, "match_basis": "verbatim_token+global_search"}, {"md_atom_id": "md_ch08_a318", "md_file": "knowledge_base/chapters/ch08_relationships.md", "md_atom_type": "HEADING", "md_parent_section": "§8.8 [Related Specimens (RELSPEC)]", "md_verbatim": "### Specification", "score": 0.4567, "match_basis": "verbatim_token+global_search"}, {"md_atom_id": "md_index_a140", "md_file": "knowledge_base/INDEX.md", "md_atom_type": "TABLE_ROW", "md_parent_section": "§ Source Documents", "md_verbatim": "| SDTMIG v3.4 xlsx | — | 63 domain specifications |", "score": 0.45, "match_basis": "verbatim_token+global_search"}], "candidate_count": 5, "zero_candidate": false}
{"pdf_atom_id": "ig34_p0002_a008", "pdf_atom_type": "CROSS_REF", "pdf_source": "SDTMIG_v3.4", "pdf_page": 2, "pdf_parent_section": "§0 [Table of Contents]", "pdf_verbatim": "1.5 KNOWN ISSUES..........................................................................................................10", "figure_ref": null, "candidates": [{"md_atom_id": "md_ch01_a078", "md_file": "knowledge_base/chapters/ch01_introduction.md", "md_atom_type": "HEADING", "md_parent_section": "§1 [Introduction]", "md_verbatim": "## 1.5 Known Issues", "score": 0.69, "match_basis": "verbatim_token+global_search"}, {"md_atom_id": "md_dmDM_ex_a182", "md_file": "knowledge_base/domains/DM/examples.md", "md_atom_type": "LIST_ITEM", "md_parent_section": "§DM.7 [Example 7]", "md_verbatim": "- Unknown", "score": 0.29, "match_basis": "verbatim_token+global_search"}, {"md_atom_id": "md_dmTA_ex_a252", "md_file": "knowledge_base/domains/TA/examples.md", "md_atom_type": "HEADING", "md_parent_section": "§TA [TA — Examples]", "md_verbatim": "## Trial Arms Issues", "score": 0.29, "match_basis": "verbatim_token+global_search"}, {"md_atom_id": "md_dmTV_ex_a030", "md_file": "knowledge_base/domains/TV/examples.md", "md_atom_type": "HEADING", "md_parent_section": "§TV [TV — Examples]", "md_verbatim": "## Trial Visits Issues", "score": 0.2614, "match_basis": "verbatim_token+global_search"}, {"md_atom_id": "md_ch08_a340", "md_file": "knowledge_base/chapters/ch08_relationships.md", "md_atom_type": "TABLE_ROW", "md_parent_section": "§8.8 [Related Specimens (RELSPEC)]", "md_verbatim": "| 1 | ABC-123 | 001-01 | SPC-001 | TISSUE | | 1 |", "score": 0.24, "match_basis": "verbatim_token+global_search"}], "candidate_count": 5, "zero_candidate": false}
{"pdf_atom_id": "ig34_p0002_a009", "pdf_atom_type": "CROSS_REF", "pdf_source": "SDTMIG_v3.4", "pdf_page": 2, "pdf_parent_section": "§0 [Table of Contents]", "pdf_verbatim": "2 FUNDAMENTALS OF THE SDTM...........................................................................11", "figure_ref": null, "candidates": [{"md_atom_id": "md_ch10_a173", "md_file": "knowledge_base/chapters/ch10_appendices.md", "md_atom_type": "TABLE_ROW", "md_parent_section": "§10.E [Revision History]", "md_verbatim": "| **Section 2. Fundamentals of the SDTM** | | |", "score": 0.5233, "match_basis": "verbatim_token+global_search"}, {"md_atom_id": "md_ch02_a001", "md_file": "knowledge_base/chapters/ch02_fundamentals.md", "md_atom_type": "HEADING", "md_parent_section": "§2 [Fundamentals of the SDTM]", "md_verbatim": "# SDTMIG v3.4 — Chapter 2: Fundamentals of the SDTM", "score": 0.48, "match_basis": "verbatim_token+global_search"}, {"md_atom_id": "md_ch01_a013", "md_file": "knowledge_base/chapters/ch01_introduction.md", "md_atom_type": "TABLE_ROW", "md_parent_section": "§1.2 [Organization of this Document]", "md_verbatim": "| 2 | Fundamentals of the SDTM | Basic concepts of the SDTM; how to use SDTMIG with SDTM |", "score": 0.3686, "match_basis": "verbatim_token+global_search"}, {"md_atom_id": "md_index_a018", "md_file": "knowledge_base/INDEX.md", "md_atom_type": "TABLE_ROW", "md_parent_section": "§ Chapters (SDTMIG v3.4 Implementation Guide)", "md_verbatim": "| [ch02_fundamentals.md](chapters/ch02_fundamentals.md) | SDTMIG Ch2 | Observations, variables, domains, GOC, creating new domains, disallowed variables |", "score": 0.208, "match_basis": "verbatim_token+global_search"}, {"md_atom_id": "md_index_a139", "md_file": "knowledge_base/INDEX.md", "md_atom_type": "TABLE_ROW", "md_parent_section": "§ Source Documents", "md_verbatim": "| SDTMIG (Implementation Guide) | v3.4 | 461 |", "score": 0.1971, "match_basis": "verbatim_token+global_search"}], "candidate_count": 5, "zero_candidate": false}
{"pdf_atom_id": "ig34_p0002_a010", "pdf_atom_type": "CROSS_REF", "pdf_source": "SDTMIG_v3.4", "pdf_page": 2, "pdf_parent_section": "§0 [Table of Contents]", "pdf_verbatim": "2.1 OBSERVATIONS AND VARIABLES ...............................................................................11", "figure_ref": null, "candidates": [{"md_atom_id": "md_ch02_a003", "md_file": "knowledge_base/chapters/ch02_fundamentals.md", "md_atom_type": "HEADING", "md_parent_section": "§2 [Fundamentals of the SDTM]", "md_verbatim": "## 2.1 Observations and Variables", "score": 0.69, "match_basis": "verbatim_token+global_search"}, {"md_atom_id": "md_ch10_a174", "md_file": "knowledge_base/chapters/ch10_appendices.md", "md_atom_type": "TABLE_ROW", "md_parent_section": "§10.E [Revision History]", "md_verbatim": "| 2.1 | Observations and Variables | Revised definition for Rule Variables |", "score": 0.4275, "match_basis": "verbatim_token+global_search"}, {"md_atom_id": "md_model01_a018", "md_file": "knowledge_base/model/01_concepts_and_terms.md", "md_atom_type": "SENTENCE", "md_parent_section": "§2.1 [Model Concepts and Terms — Variables]", "md_verbatim": "Each observation consists of a series of named variables.", "score": 0.419, "match_basis": "verbatim_token+global_search"}, {"md_atom_id": "md_ch02_a011", "md_file": "knowledge_base/chapters/ch02_fundamentals.md", "md_atom_type": "LIST_ITEM", "md_parent_section": "§2.1 [Observations and Variables]", "md_verbatim": "3. **Timing variables** — describe the timing of an observation (e.g., start date and end date)", "score": 0.3814, "match_basis": "verbatim_token+global_search"}, {"md_atom_id": "md_model01_a028", "md_file": "knowledge_base/model/01_concepts_and_terms.md", "md_atom_type": "LIST_ITEM", "md_parent_section": "§2.1 [Model Concepts and Terms — Variables]", "md_verbatim": "2. **Topic variables** — specify the focus of the observation (e.g., the name of a lab test)", "score": 0.3643, "match_basis": "verbatim_token+global_search"}], "candidate_count": 5, "zero_candidate": false}
{"pdf_atom_id": "ig34_p0002_a011", "pdf_atom_type": "CROSS_REF", "pdf_source": "SDTMIG_v3.4", "pdf_page": 2, "pdf_parent_section": "§0 [Table of Contents]", "pdf_verbatim": "2.2 DATASETS AND DOMAINS ..........................................................................................11", "figure_ref": null, "candidates": [{"md_atom_id": "md_ch02_a026", "md_file": "knowledge_base/chapters/ch02_fundamentals.md", "md_atom_type": "HEADING", "md_parent_section": "§2 [Fundamentals of the SDTM]", "md_verbatim": "## 2.2 Datasets and Domains", "score": 0.69, "match_basis": "verbatim_token+global_search"}, {"md_atom_id": "md_index_a023", "md_file": "knowledge_base/INDEX.md", "md_atom_type": "HEADING", "md_parent_section": "§ SDTM Knowledge Base — Index", "md_verbatim": "## Domains (63 domains)", "score": 0.34, "match_basis": "verbatim_token+global_search"}, {"md_atom_id": "md_dmTA_ex_a011", "md_file": "knowledge_base/domains/TA/examples.md", "md_atom_type": "LIST_ITEM", "md_parent_section": "§TA [TA — Examples]", "md_verbatim": "- The TA dataset", "score": 0.3208, "match_basis": "verbatim_token+global_search"}, {"md_atom_id": "md_model01_a043", "md_file": "knowledge_base/model/01_concepts_and_terms.md", "md_atom_type": "LIST_ITEM", "md_parent_section": "§2.1 [Model Concepts and Terms — Variables]", "md_verbatim": "- As the value of the DOMAIN variable in that dataset", "score": 0.315, "match_basis": "verbatim_token+global_search"}, {"md_atom_id": "md_ch02_a031", "md_file": "knowledge_base/chapters/ch02_fundamentals.md", "md_atom_type": "LIST_ITEM", "md_parent_section": "§2.2 [Datasets and Domains]", "md_verbatim": "2. As the value of the DOMAIN variable in that dataset", "score": 0.315, "match_basis": "verbatim_token+global_search"}], "candidate_count": 5, "zero_candidate": false}
{"pdf_atom_id": "ig34_p0002_a012", "pdf_atom_type": "CROSS_REF", "pdf_source": "SDTMIG_v3.4", "pdf_page": 2, "pdf_parent_section": "§0 [Table of Contents]", "pdf_verbatim": "2.3 THE GENERAL OBSERVATION CLASSES......................................................................12", "figure_ref": null, "candidates": [{"md_atom_id": "md_ch02_a044", "md_file": "knowledge_base/chapters/ch02_fundamentals.md", "md_atom_type": "HEADING", "md_parent_section": "§2 [Fundamentals of the SDTM]", "md_verbatim": "## 2.3 The General Observation Classes", "score": 0.69, "match_basis": "verbatim_token+global_search"}, {"md_atom_id": "md_model02_a001", "md_file": "knowledge_base/model/02_observation_classes.md", "md_atom_type": "HEADING", "md_parent_section": "§ SDTM v2.0 — Chapter 3.1: The General Observation Classes", "md_verbatim": "# SDTM v2.0 — Chapter 3.1: The General Observation Classes", "score": 0.5344, "match_basis": "verbatim_token+global_search"}, {"md_atom_id": "md_ch10_a194", "md_file": "knowledge_base/chapters/ch10_appendices.md", "md_atom_type": "TABLE_ROW", "md_parent_section": "§10.E [Revision History]", "md_verbatim": "| **Section 6. Domain Models Based on the General Observation Classes** | | |", "score": 0.4429, "match_basis": "verbatim_token+global_search"}, {"md_atom_id": "md_model02_a061", "md_file": "knowledge_base/model/02_observation_classes.md", "md_atom_type": "HEADING", "md_parent_section": "§3.1.2 The Events Observation Class", "md_verbatim": "## 3.1.2 The Events Observation Class", "score": 0.415, "match_basis": "verbatim_token+global_search"}, {"md_atom_id": "md_ch02_a054", "md_file": "knowledge_base/chapters/ch02_fundamentals.md", "md_atom_type": "HEADING", "md_parent_section": "§2 [Fundamentals of the SDTM]", "md_verbatim": "## 2.4 Datasets Other than General Observation Class Domains", "score": 0.3986, "match_basis": "verbatim_token+global_search"}], "candidate_count": 5, "zero_candidate": false}
{"pdf_atom_id": "ig34_p0002_a013", "pdf_atom_type": "CROSS_REF", "pdf_source": "SDTMIG_v3.4", "pdf_page": 2, "pdf_parent_section": "§0 [Table of Contents]", "pdf_verbatim": "2.4 DATASETS OTHER THAN GENERAL OBSERVATION CLASS DOMAINS .........................12", "figure_ref": null, "candidates": [{"md_atom_id": "md_ch02_a054", "md_file": "knowledge_base/chapters/ch02_fundamentals.md", "md_atom_type": "HEADING", "md_parent_section": "§2 [Fundamentals of the SDTM]", "md_verbatim": "## 2.4 Datasets Other than General Observation Class Domains", "score": 0.69, "match_basis": "verbatim_token+global_search"}, {"md_atom_id": "md_ch02_a055", "md_file": "knowledge_base/chapters/ch02_fundamentals.md", "md_atom_type": "SENTENCE", "md_parent_section": "§2.4 [Datasets Other than General Observation Class Domains]", "md_verbatim": "The SDTM includes 4 types of datasets other than those based on the general observation classes:", "score": 0.4194, "match_basis": "verbatim_token+global_search"}, {"md_atom_id": "md_ch10_a194", "md_file": "knowledge_base/chapters/ch10_appendices.md", "md_atom_type": "TABLE_ROW", "md_parent_section": "§10.E [Revision History]", "md_verbatim": "| **Section 6. Domain Models Based on the General Observation Classes** | | |", "score": 0.4036, "match_basis": "verbatim_token+global_search"}, {"md_atom_id": "md_ch02_a044", "md_file": "knowledge_base/chapters/ch02_fundamentals.md", "md_atom_type": "HEADING", "md_parent_section": "§2 [Fundamentals of the SDTM]", "md_verbatim": "## 2.3 The General Observation Classes", "score": 0.3986, "match_basis": "verbatim_token+global_search"}, {"md_atom_id": "md_model02_a161", "md_file": "knowledge_base/model/02_observation_classes.md", "md_atom_type": "SENTENCE", "md_parent_section": "§3.1.4 Identifiers for All Classes", "md_verbatim": "STUDYID, DOMAIN, and --SEQ are required in all domains based on one of the 3 general observation classes.", "score": 0.3617, "match_basis": "verbatim_token+global_search"}], "candidate_count": 5, "zero_candidate": false}
{"pdf_atom_id": "ig34_p0002_a014", "pdf_atom_type": "CROSS_REF", "pdf_source": "SDTMIG_v3.4", "pdf_page": 2, "pdf_parent_section": "§0 [Table of Contents]", "pdf_verbatim": "2.5 THE SDTM STANDARD DOMAIN MODELS ................................................................13", "figure_ref": null, "candidates": [{"md_atom_id": "md_ch02_a061", "md_file": "knowledge_base/chapters/ch02_fundamentals.md", "md_atom_type": "HEADING", "md_parent_section": "§2 [Fundamentals of the SDTM]", "md_verbatim": "## 2.5 The SDTM Standard Domain Models", "score": 0.69, "match_basis": "verbatim_token+global_search"}, {"md_atom_id": "md_model01_a061", "md_file": "knowledge_base/model/01_concepts_and_terms.md", "md_atom_type": "TABLE_ROW", "md_parent_section": "§2.2 [Table Structure]", "md_verbatim": "| **Variable Name** | The standard name (with `--` prefix for domain-prefixed variables) |", "score": 0.2786, "match_basis": "verbatim_token+global_search"}, {"md_atom_id": "md_ch04_a001", "md_file": "knowledge_base/chapters/ch04_general_assumptions.md", "md_atom_type": "HEADING", "md_parent_section": "§4 [Assumptions for Domain Models]", "md_verbatim": "# SDTMIG v3.4 — Chapter 4: Assumptions for Domain Models", "score": 0.2665, "match_basis": "verbatim_token+global_search"}, {"md_atom_id": "md_routing_a044", "md_file": "knowledge_base/ROUTING.md", "md_atom_type": "TABLE_ROW", "md_parent_section": "§ 文件类型速查", "md_verbatim": "| model/*.md | model/01-06_*.md | SDTM v2.0 概念模型 | 查模型定义/变量模板 |", "score": 0.2665, "match_basis": "verbatim_token+global_search"}, {"md_atom_id": "md_index_a011", "md_file": "knowledge_base/INDEX.md", "md_atom_type": "TABLE_ROW", "md_parent_section": "§ Model (SDTM v2.0 Conceptual Model)", "md_verbatim": "| [special_purpose_domains.md](model/03_special_purpose_domains.md) | SDTM v2.0 Ch3.2 | DM (38 vars), CO (15 vars), SE (13 vars), SJ (10 vars), SV (16 vars), SM (10 vars) |", "score": 0.2642, "match_basis": "verbatim_token+global_search"}], "candidate_count": 5, "zero_candidate": false}
{"pdf_atom_id": "ig34_p0002_a015", "pdf_atom_type": "CROSS_REF", "pdf_source": "SDTMIG_v3.4", "pdf_page": 2, "pdf_parent_section": "§0 [Table of Contents]", "pdf_verbatim": "2.6 CREATING A NEW DOMAIN ........................................................................................13", "figure_ref": null, "candidates": [{"md_atom_id": "md_ch02_a079", "md_file": "knowledge_base/chapters/ch02_fundamentals.md", "md_atom_type": "HEADING", "md_parent_section": "§2 [Fundamentals of the SDTM]", "md_verbatim": "## 2.6 Creating a New Domain", "score": 0.69, "match_basis": "verbatim_token+global_search"}, {"md_atom_id": "md_ch02_a081", "md_file": "knowledge_base/chapters/ch02_fundamentals.md", "md_atom_type": "SENTENCE", "md_parent_section": "§2.6 [Creating a New Domain]", "md_verbatim": "Process for creating a custom domain (must be based on 1 of the 3 GOC):", "score": 0.3122, "match_basis": "verbatim_token+global_search"}, {"md_atom_id": "md_varindex_a005", "md_file": "knowledge_base/VARIABLE_INDEX.md", "md_atom_type": "SENTENCE", "md_parent_section": "§ 使用说明", "md_verbatim": "查询变量时，在本文件搜索变量名即可找到它出现在哪些 domain、属于什么角色/类型/核心程度。", "score": 0.3082, "match_basis": "verbatim_token+global_search"}, {"md_atom_id": "md_ch04_a049", "md_file": "knowledge_base/chapters/ch04_general_assumptions.md", "md_atom_type": "HEADING", "md_parent_section": "§4.1 [General Domain Assumptions]", "md_verbatim": "### 4.1.7 Splitting Domains", "score": 0.3018, "match_basis": "verbatim_token+global_search"}, {"md_atom_id": "md_index_a023", "md_file": "knowledge_base/INDEX.md", "md_atom_type": "HEADING", "md_parent_section": "§ SDTM Knowledge Base — Index", "md_verbatim": "## Domains (63 domains)", "score": 0.29, "match_basis": "verbatim_token+global_search"}], "candidate_count": 5, "zero_candidate": false}
{"pdf_atom_id": "ig34_p0002_a016", "pdf_atom_type": "CROSS_REF", "pdf_source": "SDTMIG_v3.4", "pdf_page": 2, "pdf_parent_section": "§0 [Table of Contents]", "pdf_verbatim": "2.7 SDTM VARIABLES NOT ALLOWED IN THE SDTMIG.................................................15", "figure_ref": null, "candidates": [{"md_atom_id": "md_ch02_a103", "md_file": "knowledge_base/chapters/ch02_fundamentals.md", "md_atom_type": "HEADING", "md_parent_section": "§2 [Fundamentals of the SDTM]", "md_verbatim": "## 2.7 SDTM Variables Not Allowed in the SDTMIG", "score": 0.69, "match_basis": "verbatim_token+global_search"}, {"md_atom_id": "md_ch08_a135", "md_file": "knowledge_base/chapters/ch08_relationships.md", "md_atom_type": "SENTENCE", "md_parent_section": "§8.4 [Relating Non-standard Variable Values to a Parent Domain]", "md_verbatim": "The SDTM does not allow the addition of new variables.", "score": 0.4011, "match_basis": "verbatim_token+global_search"}, {"md_atom_id": "md_dmDM_ex_a188", "md_file": "knowledge_base/domains/DM/examples.md", "md_atom_type": "NOTE", "md_parent_section": "§DM.7 [Example 7]", "md_verbatim": "**Note:** Not all DM variables are shown.", "score": 0.3248, "match_basis": "verbatim_token+global_search"}, {"md_atom_id": "md_model06_a017", "md_file": "knowledge_base/model/06_relationship_datasets.md", "md_atom_type": "HEADING", "md_parent_section": "§6.1 Related Records (RELREC)", "md_verbatim": "### Variables (10 variables)", "score": 0.3233, "match_basis": "verbatim_token+global_search"}, {"md_atom_id": "md_model06_a038", "md_file": "knowledge_base/model/06_relationship_datasets.md", "md_atom_type": "HEADING", "md_parent_section": "§6.2 Supplemental Qualifiers (SUPP--)", "md_verbatim": "### Variables (13 variables)", "score": 0.3233, "match_basis": "verbatim_token+global_search"}], "candidate_count": 5, "zero_candidate": false}
{"pdf_atom_id": "ig34_p0002_a017", "pdf_atom_type": "CROSS_REF", "pdf_source": "SDTMIG_v3.4", "pdf_page": 2, "pdf_parent_section": "§0 [Table of Contents]", "pdf_verbatim": "3 SUBMITTING DATA IN STANDARD FORMAT .........................................................17", "figure_ref": null, "candidates": [{"md_atom_id": "md_ch10_a178", "md_file": "knowledge_base/chapters/ch10_appendices.md", "md_atom_type": "TABLE_ROW", "md_parent_section": "§10.E [Revision History]", "md_verbatim": "| **Section 3. Submitting Data in a Standard Format** | | |", "score": 0.57, "match_basis": "verbatim_token+global_search"}, {"md_atom_id": "md_ch03_a001", "md_file": "knowledge_base/chapters/ch03_submitting_data.md", "md_atom_type": "HEADING", "md_parent_section": "§3 [Submitting Data in Standard Format]", "md_verbatim": "# SDTMIG v3.4 — Chapter 3: Submitting Data in Standard Format", "score": 0.5038, "match_basis": "verbatim_token+global_search"}, {"md_atom_id": "md_ch01_a014", "md_file": "knowledge_base/chapters/ch01_introduction.md", "md_atom_type": "TABLE_ROW", "md_parent_section": "§1.2 [Organization of this Document]", "md_verbatim": "| 3 | Submitting Data in Standard Format | How to describe metadata for regulatory submissions; conformance assessment |", "score": 0.2934, "match_basis": "verbatim_token+global_search"}, {"md_atom_id": "md_index_a019", "md_file": "knowledge_base/INDEX.md", "md_atom_type": "TABLE_ROW", "md_parent_section": "§ Chapters (SDTMIG v3.4 Implementation Guide)", "md_verbatim": "| [ch03_submitting_data.md](chapters/ch03_submitting_data.md) | SDTMIG Ch3 | Standard metadata, dataset metadata, primary keys, value-level metadata |", "score": 0.2711, "match_basis": "verbatim_token+global_search"}, {"md_atom_id": "md_model01_a064", "md_file": "knowledge_base/model/01_concepts_and_terms.md", "md_atom_type": "TABLE_ROW", "md_parent_section": "§2.2 [Table Structure]", "md_verbatim": "| **Format** | ISO format standard or description (e.g., \"number-number\") |", "score": 0.2665, "match_basis": "verbatim_token+global_search"}], "candidate_count": 5, "zero_candidate": false}
{"pdf_atom_id": "ig34_p0002_a018", "pdf_atom_type": "CROSS_REF", "pdf_source": "SDTMIG_v3.4", "pdf_page": 2, "pdf_parent_section": "§0 [Table of Contents]", "pdf_verbatim": "3.1 STANDARD METADATA FOR DATASET CONTENTS AND ATTRIBUTES.........................17", "figure_ref": null, "candidates": [{"md_atom_id": "md_ch03_a003", "md_file": "knowledge_base/chapters/ch03_submitting_data.md", "md_atom_type": "HEADING", "md_parent_section": "§3 [Submitting Data in Standard Format]", "md_verbatim": "## 3.1 Standard Metadata for Dataset Contents and Attributes", "score": 0.69, "match_basis": "verbatim_token+global_search"}, {"md_atom_id": "md_ch02_a067", "md_file": "knowledge_base/chapters/ch02_fundamentals.md", "md_atom_type": "SENTENCE", "md_parent_section": "§2.5 [The SDTM Standard Domain Models]", "md_verbatim": "A list of standard domains is provided in Section 3.2.1, Dataset-level Metadata.", "score": 0.2665, "match_basis": "verbatim_token+global_search"}, {"md_atom_id": "md_ch03_a004", "md_file": "knowledge_base/chapters/ch03_submitting_data.md", "md_atom_type": "SENTENCE", "md_parent_section": "§3.1 [Standard Metadata for Dataset Contents and Attributes]", "md_verbatim": "The SDTMIG provides standard descriptions of some of the most commonly used data domains, with metadata attributes.", "score": 0.2639, "match_basis": "verbatim_token+global_search"}, {"md_atom_id": "md_ch03_a021", "md_file": "knowledge_base/chapters/ch03_submitting_data.md", "md_atom_type": "HEADING", "md_parent_section": "§3.2 [Using the CDISC Domain Models in Regulatory Submissions — Dataset Metadata]", "md_verbatim": "### 3.2.1 Dataset-level Metadata", "score": 0.2536, "match_basis": "verbatim_token+global_search"}, {"md_atom_id": "md_ch02_a097", "md_file": "knowledge_base/chapters/ch02_fundamentals.md", "md_atom_type": "LIST_ITEM", "md_parent_section": "§2.6 [Creating a New Domain]", "md_verbatim": "   - k. Place non-standard variables in a SUPP-- dataset", "score": 0.2435, "match_basis": "verbatim_token+global_search"}], "candidate_count": 5, "zero_candidate": false}
{"pdf_atom_id": "ig34_p0002_a019", "pdf_atom_type": "CROSS_REF", "pdf_source": "SDTMIG_v3.4", "pdf_page": 2, "pdf_parent_section": "§0 [Table of Contents]", "pdf_verbatim": "3.2 USING THE CDISC DOMAIN MODELS IN REGULATORY SUBMISSIONS – DATASET METADATA .....17", "figure_ref": null, "candidates": [{"md_atom_id": "md_ch03_a013", "md_file": "knowledge_base/chapters/ch03_submitting_data.md", "md_atom_type": "HEADING", "md_parent_section": "§3 [Submitting Data in Standard Format]", "md_verbatim": "## 3.2 Using the CDISC Domain Models in Regulatory Submissions — Dataset Metadata", "score": 0.69, "match_basis": "verbatim_token+global_search"}, {"md_atom_id": "md_ch10_a179", "md_file": "knowledge_base/chapters/ch10_appendices.md", "md_atom_type": "TABLE_ROW", "md_parent_section": "§10.E [Revision History]", "md_verbatim": "| 3.2 | Using the CDISC Domain Models in Regulatory Submissions — Dataset Metadata | Removed paragraph about empty datasets for small PK studies per MSG v2.0 and Define-XML v2.1 standard |", "score": 0.39, "match_basis": "verbatim_token+global_search"}, {"md_atom_id": "md_ch04_a136", "md_file": "knowledge_base/chapters/ch04_general_assumptions.md", "md_atom_type": "SENTENCE", "md_parent_section": "§4.1.9 [Assigning Natural Keys in the Metadata]", "md_verbatim": "Section 3.2, Using the CDISC Domain Models in Regulatory Submissions — Dataset Metadata, indicates that a sponsor should include in the metadata the variables that contribute to the natural key for a domain.", "score": 0.3664, "match_basis": "verbatim_token+global_search"}, {"md_atom_id": "md_ch03_a102", "md_file": "knowledge_base/chapters/ch03_submitting_data.md", "md_atom_type": "HEADING", "md_parent_section": "§3.2.1 [Dataset-level Metadata]", "md_verbatim": "### 3.2.1.2 CDISC Submission Value-level Metadata", "score": 0.307, "match_basis": "verbatim_token+global_search"}, {"md_atom_id": "md_ch01_a014", "md_file": "knowledge_base/chapters/ch01_introduction.md", "md_atom_type": "TABLE_ROW", "md_parent_section": "§1.2 [Organization of this Document]", "md_verbatim": "| 3 | Submitting Data in Standard Format | How to describe metadata for regulatory submissions; conformance assessment |", "score": 0.2795, "match_basis": "verbatim_token+global_search"}], "candidate_count": 5, "zero_candidate": false}
{"pdf_atom_id": "ig34_p0002_a020", "pdf_atom_type": "CROSS_REF", "pdf_source": "SDTMIG_v3.4", "pdf_page": 2, "pdf_parent_section": "§0 [Table of Contents]", "pdf_verbatim": "3.2.1 Dataset-level Metadata .....................................................................................17", "figure_ref": null, "candidates": [{"md_atom_id": "md_ch03_a021", "md_file": "knowledge_base/chapters/ch03_submitting_data.md", "md_atom_type": "HEADING", "md_parent_section": "§3.2 [Using the CDISC Domain Models in Regulatory Submissions — Dataset Metadata]", "md_verbatim": "### 3.2.1 Dataset-level Metadata", "score": 0.69, "match_basis": "verbatim_token+global_search"}, {"md_atom_id": "md_dmDM_ex_a085", "md_file": "knowledge_base/domains/DM/examples.md", "md_atom_type": "SENTENCE", "md_parent_section": "§DM.4 [Example 4]", "md_verbatim": "**CRF Metadata**", "score": 0.3669, "match_basis": "verbatim_token+global_search"}, {"md_atom_id": "md_dmDM_ex_a143", "md_file": "knowledge_base/domains/DM/examples.md", "md_atom_type": "SENTENCE", "md_parent_section": "§DM.6 [Example 6]", "md_verbatim": "**CRF Metadata**", "score": 0.3669, "match_basis": "verbatim_token+global_search"}, {"md_atom_id": "md_dmTA_ex_a011", "md_file": "knowledge_base/domains/TA/examples.md", "md_atom_type": "LIST_ITEM", "md_parent_section": "§TA [TA — Examples]", "md_verbatim": "- The TA dataset", "score": 0.3208, "match_basis": "verbatim_token+global_search"}, {"md_atom_id": "md_ch04_a123", "md_file": "knowledge_base/chapters/ch04_general_assumptions.md", "md_atom_type": "HEADING", "md_parent_section": "§4.1.8 [Origin Metadata]", "md_verbatim": "### 4.1.8 Origin Metadata", "score": 0.315, "match_basis": "verbatim_token+global_search"}], "candidate_count": 5, "zero_candidate": false}
{"pdf_atom_id": "ig34_p0002_a021", "pdf_atom_type": "CROSS_REF", "pdf_source": "SDTMIG_v3.4", "pdf_page": 2, "pdf_parent_section": "§0 [Table of Contents]", "pdf_verbatim": "3.2.1.1 Primary Keys................................................................................................20", "figure_ref": null, "candidates": [{"md_atom_id": "md_ch03_a090", "md_file": "knowledge_base/chapters/ch03_submitting_data.md", "md_atom_type": "HEADING", "md_parent_section": "§3.2.1 [Dataset-level Metadata]", "md_verbatim": "### 3.2.1.1 Primary Keys", "score": 0.69, "match_basis": "verbatim_token+global_search"}, {"md_atom_id": "md_ch04_a245", "md_file": "knowledge_base/chapters/ch04_general_assumptions.md", "md_atom_type": "SENTENCE", "md_parent_section": "§4.2.6 [Grouping Variables and Categorization]", "md_verbatim": "The primary distinctions between --CAT/--SCAT and --GRPID are:", "score": 0.19, "match_basis": "verbatim_token+global_search"}, {"md_atom_id": "md_dmTS_ex_a043", "md_file": "knowledge_base/domains/TS/examples.md", "md_atom_type": "TABLE_ROW", "md_parent_section": "§TS.1 [Example 1]", "md_verbatim": "| 38 | XYZ | TS | 1 | PA | DCUTDESC | Data Cutoff Description | PRIMARY ANALYSIS | | | | |", "score": 0.1837, "match_basis": "verbatim_token+global_search"}, {"md_atom_id": "md_model05_a130", "md_file": "knowledge_base/model/05_study_level_data.md", "md_atom_type": "HEADING", "md_parent_section": "§ Trial Summary (TS)", "md_verbatim": "### Trial Summary (TS)", "score": 0.1823, "match_basis": "verbatim_token+global_search"}, {"md_atom_id": "md_dmDD_ex_a011", "md_file": "knowledge_base/domains/DD/examples.md", "md_atom_type": "TABLE_ROW", "md_parent_section": "§DD.1 [Example 1]", "md_verbatim": "| 3 | ABC123 | DD | ABC12301002 | 1 | PRCDTH | Primary Cause of Death | UNKNOWN | UNKNOWN | 2011-03-15 |", "score": 0.1809, "match_basis": "verbatim_token+global_search"}], "candidate_count": 5, "zero_candidate": false}
{"pdf_atom_id": "ig34_p0002_a022", "pdf_atom_type": "CROSS_REF", "pdf_source": "SDTMIG_v3.4", "pdf_page": 2, "pdf_parent_section": "§0 [Table of Contents]", "pdf_verbatim": "3.2.1.2 CDISC Submission Value-level Metadata ....................................................20", "figure_ref": null, "candidates": [{"md_atom_id": "md_ch03_a102", "md_file": "knowledge_base/chapters/ch03_submitting_data.md", "md_atom_type": "HEADING", "md_parent_section": "§3.2.1 [Dataset-level Metadata]", "md_verbatim": "### 3.2.1.2 CDISC Submission Value-level Metadata", "score": 0.69, "match_basis": "verbatim_token+global_search"}, {"md_atom_id": "md_ch10_a181", "md_file": "knowledge_base/chapters/ch10_appendices.md", "md_atom_type": "TABLE_ROW", "md_parent_section": "§10.E [Revision History]", "md_verbatim": "| 3.2.1.2 | CDISC Submission Value-level Metadata | The phrase \"the SDTMIG V3.x\" removed from the first sentence |", "score": 0.3775, "match_basis": "verbatim_token+global_search"}, {"md_atom_id": "md_ch03_a013", "md_file": "knowledge_base/chapters/ch03_submitting_data.md", "md_atom_type": "HEADING", "md_parent_section": "§3 [Submitting Data in Standard Format]", "md_verbatim": "## 3.2 Using the CDISC Domain Models in Regulatory Submissions — Dataset Metadata", "score": 0.307, "match_basis": "verbatim_token+global_search"}, {"md_atom_id": "md_ch03_a021", "md_file": "knowledge_base/chapters/ch03_submitting_data.md", "md_atom_type": "HEADING", "md_parent_section": "§3.2 [Using the CDISC Domain Models in Regulatory Submissions — Dataset Metadata]", "md_verbatim": "### 3.2.1 Dataset-level Metadata", "score": 0.2977, "match_basis": "verbatim_token+global_search"}, {"md_atom_id": "md_index_a019", "md_file": "knowledge_base/INDEX.md", "md_atom_type": "TABLE_ROW", "md_parent_section": "§ Chapters (SDTMIG v3.4 Implementation Guide)", "md_verbatim": "| [ch03_submitting_data.md](chapters/ch03_submitting_data.md) | SDTMIG Ch3 | Standard metadata, dataset metadata, primary keys, value-level metadata |", "score": 0.2479, "match_basis": "verbatim_token+global_search"}], "candidate_count": 5, "zero_candidate": false}
{"pdf_atom_id": "ig34_p0002_a023", "pdf_atom_type": "CROSS_REF", "pdf_source": "SDTMIG_v3.4", "pdf_page": 2, "pdf_parent_section": "§0 [Table of Contents]", "pdf_verbatim": "3.2.2 Conformance.....................................................................................................21", "figure_ref": null, "candidates": [{"md_atom_id": "md_ch03_a109", "md_file": "knowledge_base/chapters/ch03_submitting_data.md", "md_atom_type": "HEADING", "md_parent_section": "§3.2 [Using the CDISC Domain Models in Regulatory Submissions — Dataset Metadata]", "md_verbatim": "## 3.2.2 Conformance", "score": 0.69, "match_basis": "verbatim_token+global_search"}, {"md_atom_id": "md_ch03_a110", "md_file": "knowledge_base/chapters/ch03_submitting_data.md", "md_atom_type": "SENTENCE", "md_parent_section": "§3.2.2 [Conformance]", "md_verbatim": "Conformance with the SDTMIG domain models is minimally indicated by:", "score": 0.2321, "match_basis": "verbatim_token+global_search"}, {"md_atom_id": "md_dmCP_assn_a031", "md_file": "knowledge_base/domains/CP/assumptions.md", "md_atom_type": "LIST_ITEM", "md_parent_section": "§CP [CP — Assumptions]", "md_verbatim": "      iv. other formats (e.g., -/low, -/lo, low, lo, mid, -/+, +++)", "score": 0.2025, "match_basis": "verbatim_token+global_search"}, {"md_atom_id": "md_ch04_a350", "md_file": "knowledge_base/chapters/ch04_general_assumptions.md", "md_atom_type": "SENTENCE", "md_parent_section": "§4.2.8.1 [Multiple Values for an Intervention or Event Topic Variable]", "md_verbatim": "By the time of submission, datasets should be in conformance with the record structures described in the SDTMIG.", "score": 0.1882, "match_basis": "verbatim_token+global_search"}, {"md_atom_id": "md_model03_a061", "md_file": "knowledge_base/model/03_special_purpose_domains.md", "md_atom_type": "TABLE_ROW", "md_parent_section": "§ Demographics (DM) > Key Reference Date Variables", "md_verbatim": "| RFICDTC | Date/Time of Informed Consent | Consent date |", "score": 0.186, "match_basis": "verbatim_token+global_search"}], "candidate_count": 5, "zero_candidate": false}
{"pdf_atom_id": "ig34_p0002_a024", "pdf_atom_type": "CROSS_REF", "pdf_source": "SDTMIG_v3.4", "pdf_page": 2, "pdf_parent_section": "§0 [Table of Contents]", "pdf_verbatim": "4 ASSUMPTIONS FOR DOMAIN MODELS ................................................................22", "figure_ref": null, "candidates": [{"md_atom_id": "md_ch10_a182", "md_file": "knowledge_base/chapters/ch10_appendices.md", "md_atom_type": "TABLE_ROW", "md_parent_section": "§10.E [Revision History]", "md_verbatim": "| **Section 4. Assumptions for Domain Models** | | |", "score": 0.6043, "match_basis": "verbatim_token+global_search"}, {"md_atom_id": "md_ch01_a056", "md_file": "knowledge_base/chapters/ch01_introduction.md", "md_atom_type": "LIST_ITEM", "md_parent_section": "§1.4 [How to Read this Implementation Guide]", "md_verbatim": "3. Read Section 4, Assumptions for Domain Models", "score": 0.5596, "match_basis": "verbatim_token+global_search"}, {"md_atom_id": "md_routing_a042", "md_file": "knowledge_base/ROUTING.md", "md_atom_type": "TABLE_ROW", "md_parent_section": "§ 文件类型速查", "md_verbatim": "| assumptions.md | domains/{DOMAIN}/assumptions.md | 域专属业务规则，编号列表 | 查数据收集/处理规则 |", "score": 0.5005, "match_basis": "verbatim_token+global_search"}, {"md_atom_id": "md_ch04_a001", "md_file": "knowledge_base/chapters/ch04_general_assumptions.md", "md_atom_type": "HEADING", "md_parent_section": "§4 [Assumptions for Domain Models]", "md_verbatim": "# SDTMIG v3.4 — Chapter 4: Assumptions for Domain Models", "score": 0.49, "match_basis": "verbatim_token+global_search"}, {"md_atom_id": "md_ch04_a006", "md_file": "knowledge_base/chapters/ch04_general_assumptions.md", "md_atom_type": "HEADING", "md_parent_section": "§4 [Assumptions for Domain Models]", "md_verbatim": "## 4.1 General Domain Assumptions", "score": 0.4291, "match_basis": "verbatim_token+global_search"}], "candidate_count": 5, "zero_candidate": false}
{"pdf_atom_id": "ig34_p0002_a025", "pdf_atom_type": "CROSS_REF", "pdf_source": "SDTMIG_v3.4", "pdf_page": 2, "pdf_parent_section": "§0 [Table of Contents]", "pdf_verbatim": "4.1 GENERAL DOMAIN ASSUMPTIONS..............................................................................22", "figure_ref": null, "candidates": [{"md_atom_id": "md_ch04_a006", "md_file": "knowledge_base/chapters/ch04_general_assumptions.md", "md_atom_type": "HEADING", "md_parent_section": "§4 [Assumptions for Domain Models]", "md_verbatim": "## 4.1 General Domain Assumptions", "score": 0.69, "match_basis": "verbatim_token+global_search"}, {"md_atom_id": "md_routing_a037", "md_file": "knowledge_base/ROUTING.md", "md_atom_type": "LIST_ITEM", "md_parent_section": "§ 多文件查询策略", "md_verbatim": "4. **通用规则兜底**: ch04_general_assumptions.md（如果主文件未覆盖）", "score": 0.51, "match_basis": "verbatim_token+global_search"}, {"md_atom_id": "md_routing_a042", "md_file": "knowledge_base/ROUTING.md", "md_atom_type": "TABLE_ROW", "md_parent_section": "§ 文件类型速查", "md_verbatim": "| assumptions.md | domains/{DOMAIN}/assumptions.md | 域专属业务规则，编号列表 | 查数据收集/处理规则 |", "score": 0.5005, "match_basis": "verbatim_token+global_search"}, {"md_atom_id": "md_ch04_a172", "md_file": "knowledge_base/chapters/ch04_general_assumptions.md", "md_atom_type": "HEADING", "md_parent_section": "§4 [Assumptions for Domain Models]", "md_verbatim": "## 4.2 General Variable Assumptions", "score": 0.44, "match_basis": "verbatim_token+global_search"}, {"md_atom_id": "md_dmCM_assn_a001", "md_file": "knowledge_base/domains/CM/assumptions.md", "md_atom_type": "HEADING", "md_parent_section": "§CM [CM — Assumptions]", "md_verbatim": "# CM — Assumptions", "score": 0.39, "match_basis": "verbatim_token+global_search"}], "candidate_count": 5, "zero_candidate": false}
{"pdf_atom_id": "ig34_p0002_a026", "pdf_atom_type": "CROSS_REF", "pdf_source": "SDTMIG_v3.4", "pdf_page": 2, "pdf_parent_section": "§0 [Table of Contents]", "pdf_verbatim": "4.1.1 Review Study Data Tabulation Model and Implementation Guide.....................22", "figure_ref": null, "candidates": [{"md_atom_id": "md_ch04_a007", "md_file": "knowledge_base/chapters/ch04_general_assumptions.md", "md_atom_type": "HEADING", "md_parent_section": "§4.1 [General Domain Assumptions]", "md_verbatim": "### 4.1.1 Review Study Data Tabulation Model and Implementation Guide", "score": 0.69, "match_basis": "verbatim_token+global_search"}, {"md_atom_id": "md_ch10_a045", "md_file": "knowledge_base/chapters/ch10_appendices.md", "md_atom_type": "TABLE_ROW", "md_parent_section": "§10.B [Glossary and Abbreviations]", "md_verbatim": "| SDTMIG-MD | Study Data Tabulation Model Implementation Guide for Medical Devices |", "score": 0.4602, "match_basis": "verbatim_token+global_search"}, {"md_atom_id": "md_ch10_a043", "md_file": "knowledge_base/chapters/ch10_appendices.md", "md_atom_type": "TABLE_ROW", "md_parent_section": "§10.B [Glossary and Abbreviations]", "md_verbatim": "| SDTMIG | Study Data Tabulation Model Implementation Guide: Human Clinical Trials |", "score": 0.426, "match_basis": "verbatim_token+global_search"}, {"md_atom_id": "md_ch10_a044", "md_file": "knowledge_base/chapters/ch10_appendices.md", "md_atom_type": "TABLE_ROW", "md_parent_section": "§10.B [Glossary and Abbreviations]", "md_verbatim": "| SDTMIG-AP | Study Data Tabulation Model Implementation Guide: Associated Persons |", "score": 0.426, "match_basis": "verbatim_token+global_search"}, {"md_atom_id": "md_ch10_a046", "md_file": "knowledge_base/chapters/ch10_appendices.md", "md_atom_type": "TABLE_ROW", "md_parent_section": "§10.B [Glossary and Abbreviations]", "md_verbatim": "| SDTMIG-PGx | Study Data Tabulation Model Implementation Guide: Pharmacogenomics/Genetics |", "score": 0.39, "match_basis": "verbatim_token+global_search"}], "candidate_count": 5, "zero_candidate": false}
{"pdf_atom_id": "ig34_p0002_a027", "pdf_atom_type": "CROSS_REF", "pdf_source": "SDTMIG_v3.4", "pdf_page": 2, "pdf_parent_section": "§0 [Table of Contents]", "pdf_verbatim": "4.1.2 Relationship to Analysis Datasets ...................................................................22", "figure_ref": null, "candidates": [{"md_atom_id": "md_ch04_a010", "md_file": "knowledge_base/chapters/ch04_general_assumptions.md", "md_atom_type": "HEADING", "md_parent_section": "§4.1 [General Domain Assumptions]", "md_verbatim": "### 4.1.2 Relationship to Analysis Datasets", "score": 0.69, "match_basis": "verbatim_token+global_search"}, {"md_atom_id": "md_model06_a101", "md_file": "knowledge_base/model/06_relationship_datasets.md", "md_atom_type": "HEADING", "md_parent_section": "§ Summary of Relationship Datasets", "md_verbatim": "## Summary of Relationship Datasets", "score": 0.4456, "match_basis": "verbatim_token+global_search"}, {"md_atom_id": "md_dmRELREC_ex_a033", "md_file": "knowledge_base/domains/RELREC/examples.md", "md_atom_type": "HEADING", "md_parent_section": "§RELREC [RELREC — Examples]", "md_verbatim": "## Dataset Relationship Example", "score": 0.4233, "match_basis": "verbatim_token+global_search"}, {"md_atom_id": "md_ch08_a114", "md_file": "knowledge_base/chapters/ch08_relationships.md", "md_atom_type": "HEADING", "md_parent_section": "§8.3 [Relating Datasets Using RELREC]", "md_verbatim": "### 8.3.1 RELREC Dataset Relationship Example", "score": 0.39, "match_basis": "verbatim_token+global_search"}, {"md_atom_id": "md_ch10_a104", "md_file": "knowledge_base/chapters/ch10_appendices.md", "md_atom_type": "TABLE_ROW", "md_parent_section": "§10.D [CDISC Variable-naming Fragments]", "md_verbatim": "| END | END, EN | | RELATIONSHIP | REL |", "score": 0.3509, "match_basis": "verbatim_token+global_search"}], "candidate_count": 5, "zero_candidate": false}
{"pdf_atom_id": "ig34_p0002_a028", "pdf_atom_type": "CROSS_REF", "pdf_source": "SDTMIG_v3.4", "pdf_page": 2, "pdf_parent_section": "§0 [Table of Contents]", "pdf_verbatim": "4.1.3 Additional Timing Variables.............................................................................22", "figure_ref": null, "candidates": [{"md_atom_id": "md_ch04_a012", "md_file": "knowledge_base/chapters/ch04_general_assumptions.md", "md_atom_type": "HEADING", "md_parent_section": "§4.1 [General Domain Assumptions]", "md_verbatim": "### 4.1.3 Additional Timing Variables", "score": 0.69, "match_basis": "verbatim_token+global_search"}, {"md_atom_id": "md_dmML_assn_a008", "md_file": "knowledge_base/domains/ML/assumptions.md", "md_atom_type": "LIST_ITEM", "md_parent_section": "§ML [ML — Assumptions]", "md_verbatim": "2. Additional timing variables", "score": 0.69, "match_basis": "verbatim_token+global_search"}, {"md_atom_id": "md_dmML_assn_a009", "md_file": "knowledge_base/domains/ML/assumptions.md", "md_atom_type": "LIST_ITEM", "md_parent_section": "§ML [ML — Assumptions]", "md_verbatim": "   a. Any additional timing variables may be added to this domain.", "score": 0.4831, "match_basis": "verbatim_token+global_search"}, {"md_atom_id": "md_dmSE_assn_a014", "md_file": "knowledge_base/domains/SE/assumptions.md", "md_atom_type": "LIST_ITEM", "md_parent_section": "§SE [SE — Assumptions]", "md_verbatim": "11. Care should be taken in adding additional timing variables:", "score": 0.4831, "match_basis": "verbatim_token+global_search"}, {"md_atom_id": "md_dmSV_assn_a020", "md_file": "knowledge_base/domains/SV/assumptions.md", "md_atom_type": "LIST_ITEM", "md_parent_section": "§SV [SV — Assumptions]", "md_verbatim": "15. Care should be taken in adding additional timing variables:", "score": 0.4831, "match_basis": "verbatim_token+global_search"}], "candidate_count": 5, "zero_candidate": false}
{"pdf_atom_id": "ig34_p0002_a029", "pdf_atom_type": "CROSS_REF", "pdf_source": "SDTMIG_v3.4", "pdf_page": 2, "pdf_parent_section": "§0 [Table of Contents]", "pdf_verbatim": "4.1.3.1 EPOCH Variable Guidance............................................................................22", "figure_ref": null, "candidates": [{"md_atom_id": "md_ch04_a016", "md_file": "knowledge_base/chapters/ch04_general_assumptions.md", "md_atom_type": "HEADING", "md_parent_section": "§4.1.3 [Additional Timing Variables]", "md_verbatim": "#### 4.1.3.1 EPOCH Variable Guidance", "score": 0.69, "match_basis": "verbatim_token+global_search"}, {"md_atom_id": "md_model02_a183", "md_file": "knowledge_base/model/02_observation_classes.md", "md_atom_type": "HEADING", "md_parent_section": "§3.1.5 > Visit and Epoch Variables", "md_verbatim": "### Visit and Epoch Variables", "score": 0.36, "match_basis": "verbatim_token+global_search"}, {"md_atom_id": "md_ch10_a134", "md_file": "knowledge_base/chapters/ch10_appendices.md", "md_atom_type": "TABLE_ROW", "md_parent_section": "§10.D [CDISC Variable-naming Fragments]", "md_verbatim": "| | | | VARIABLE | VAR |", "score": 0.33, "match_basis": "verbatim_token+global_search"}, {"md_atom_id": "md_model06_a017", "md_file": "knowledge_base/model/06_relationship_datasets.md", "md_atom_type": "HEADING", "md_parent_section": "§6.1 Related Records (RELREC)", "md_verbatim": "### Variables (10 variables)", "score": 0.315, "match_basis": "verbatim_token+global_search"}, {"md_atom_id": "md_model06_a038", "md_file": "knowledge_base/model/06_relationship_datasets.md", "md_atom_type": "HEADING", "md_parent_section": "§6.2 Supplemental Qualifiers (SUPP--)", "md_verbatim": "### Variables (13 variables)", "score": 0.315, "match_basis": "verbatim_token+global_search"}], "candidate_count": 5, "zero_candidate": false}
{"pdf_atom_id": "ig34_p0002_a030", "pdf_atom_type": "CROSS_REF", "pdf_source": "SDTMIG_v3.4", "pdf_page": 2, "pdf_parent_section": "§0 [Table of Contents]", "pdf_verbatim": "4.1.4 Order of the Variables ......................................................................................22", "figure_ref": null, "candidates": [{"md_atom_id": "md_ch04_a027", "md_file": "knowledge_base/chapters/ch04_general_assumptions.md", "md_atom_type": "HEADING", "md_parent_section": "§4.1 [General Domain Assumptions]", "md_verbatim": "### 4.1.4 Order of the Variables", "score": 0.69, "match_basis": "verbatim_token+global_search"}, {"md_atom_id": "md_model06_a017", "md_file": "knowledge_base/model/06_relationship_datasets.md", "md_atom_type": "HEADING", "md_parent_section": "§6.1 Related Records (RELREC)", "md_verbatim": "### Variables (10 variables)", "score": 0.4718, "match_basis": "verbatim_token+global_search"}, {"md_atom_id": "md_model06_a038", "md_file": "knowledge_base/model/06_relationship_datasets.md", "md_atom_type": "HEADING", "md_parent_section": "§6.2 Supplemental Qualifiers (SUPP--)", "md_verbatim": "### Variables (13 variables)", "score": 0.4718, "match_basis": "verbatim_token+global_search"}, {"md_atom_id": "md_model03_a013", "md_file": "knowledge_base/model/03_special_purpose_domains.md", "md_atom_type": "HEADING", "md_parent_section": "§ Demographics (DM) > Variables (38 variables)", "md_verbatim": "### Variables (38 variables)", "score": 0.4718, "match_basis": "verbatim_token+global_search"}, {"md_atom_id": "md_model03_a068", "md_file": "knowledge_base/model/03_special_purpose_domains.md", "md_atom_type": "HEADING", "md_parent_section": "§ Comments (CO) > Variables (15 variables)", "md_verbatim": "### Variables (15 variables)", "score": 0.4718, "match_basis": "verbatim_token+global_search"}], "candidate_count": 5, "zero_candidate": false}
{"pdf_atom_id": "ig34_p0002_a031", "pdf_atom_type": "CROSS_REF", "pdf_source": "SDTMIG_v3.4", "pdf_page": 2, "pdf_parent_section": "§0 [Table of Contents]", "pdf_verbatim": "4.1.5 SDTM Core Designations ................................................................................22", "figure_ref": null, "candidates": [{"md_atom_id": "md_ch04_a032", "md_file": "knowledge_base/chapters/ch04_general_assumptions.md", "md_atom_type": "HEADING", "md_parent_section": "§4.1 [General Domain Assumptions]", "md_verbatim": "### 4.1.5 SDTM Core Designations", "score": 0.69, "match_basis": "verbatim_token+global_search"}, {"md_atom_id": "md_ch04_a559", "md_file": "knowledge_base/chapters/ch04_general_assumptions.md", "md_atom_type": "SENTENCE", "md_parent_section": "§4.4.3.1 [Intervals of Time and Use of Duration]", "md_verbatim": "where the letter designation is defined as:", "score": 0.29, "match_basis": "verbatim_token+global_search"}, {"md_atom_id": "md_ch03_a008", "md_file": "knowledge_base/chapters/ch03_submitting_data.md", "md_atom_type": "LIST_ITEM", "md_parent_section": "§3.1 [Standard Metadata for Dataset Contents and Attributes]", "md_verbatim": "- **Core column** — indicates how a variable is classified (see Section 4.1.5, SDTM Core Designations)", "score": 0.2809, "match_basis": "verbatim_token+global_search"}, {"md_atom_id": "md_ch04_a564", "md_file": "knowledge_base/chapters/ch04_general_assumptions.md", "md_atom_type": "LIST_ITEM", "md_parent_section": "§4.4.3.1 [Intervals of Time and Use of Duration]", "md_verbatim": "- [D] is used as day designator.", "score": 0.2795, "match_basis": "verbatim_token+global_search"}, {"md_atom_id": "md_ch04_a562", "md_file": "knowledge_base/chapters/ch04_general_assumptions.md", "md_atom_type": "LIST_ITEM", "md_parent_section": "§4.4.3.1 [Intervals of Time and Use of Duration]", "md_verbatim": "- [Y] is used as year designator.", "score": 0.27, "match_basis": "verbatim_token+global_search"}], "candidate_count": 5, "zero_candidate": false}
{"pdf_atom_id": "ig34_p0002_a032", "pdf_atom_type": "CROSS_REF", "pdf_source": "SDTMIG_v3.4", "pdf_page": 2, "pdf_parent_section": "§0 [Table of Contents]", "pdf_verbatim": "4.1.6 Additional Guidance on Dataset Naming..........................................................23", "figure_ref": null, "candidates": [{"md_atom_id": "md_ch04_a041", "md_file": "knowledge_base/chapters/ch04_general_assumptions.md", "md_atom_type": "HEADING", "md_parent_section": "§4.1 [General Domain Assumptions]", "md_verbatim": "### 4.1.6 Additional Guidance on Dataset Naming", "score": 0.69, "match_basis": "verbatim_token+global_search"}, {"md_atom_id": "md_ch02_a130", "md_file": "knowledge_base/chapters/ch02_fundamentals.md", "md_atom_type": "LIST_ITEM", "md_parent_section": "§2.7 [SDTM Variables Not Allowed in the SDTMIG]", "md_verbatim": "- POOLID — additionally requires the Pool Definition dataset", "score": 0.2802, "match_basis": "verbatim_token+global_search"}, {"md_atom_id": "md_ch04_a012", "md_file": "knowledge_base/chapters/ch04_general_assumptions.md", "md_atom_type": "HEADING", "md_parent_section": "§4.1 [General Domain Assumptions]", "md_verbatim": "### 4.1.3 Additional Timing Variables", "score": 0.2775, "match_basis": "verbatim_token+global_search"}, {"md_atom_id": "md_dmML_assn_a008", "md_file": "knowledge_base/domains/ML/assumptions.md", "md_atom_type": "LIST_ITEM", "md_parent_section": "§ML [ML — Assumptions]", "md_verbatim": "2. Additional timing variables", "score": 0.2775, "match_basis": "verbatim_token+global_search"}, {"md_atom_id": "md_dmCE_ex_a036", "md_file": "knowledge_base/domains/CE/examples.md", "md_atom_type": "SENTENCE", "md_parent_section": "§CE.2 [Example 2]", "md_verbatim": "The record includes additional data about the event.", "score": 0.24, "match_basis": "verbatim_token+global_search"}], "candidate_count": 5, "zero_candidate": false}
{"pdf_atom_id": "ig34_p0002_a033", "pdf_atom_type": "CROSS_REF", "pdf_source": "SDTMIG_v3.4", "pdf_page": 2, "pdf_parent_section": "§0 [Table of Contents]", "pdf_verbatim": "4.1.7 Splitting Domains.............................................................................................23", "figure_ref": null, "candidates": [{"md_atom_id": "md_ch04_a049", "md_file": "knowledge_base/chapters/ch04_general_assumptions.md", "md_atom_type": "HEADING", "md_parent_section": "§4.1 [General Domain Assumptions]", "md_verbatim": "### 4.1.7 Splitting Domains", "score": 0.69, "match_basis": "verbatim_token+global_search"}, {"md_atom_id": "md_index_a023", "md_file": "knowledge_base/INDEX.md", "md_atom_type": "HEADING", "md_parent_section": "§ SDTM Knowledge Base — Index", "md_verbatim": "## Domains (63 domains)", "score": 0.34, "match_basis": "verbatim_token+global_search"}, {"md_atom_id": "md_ch04_a102", "md_file": "knowledge_base/chapters/ch04_general_assumptions.md", "md_atom_type": "SENTENCE", "md_parent_section": "§4.1.7.1 [Example of Splitting Questionnaires]", "md_verbatim": "**SUPP-- Domains**", "score": 0.3043, "match_basis": "verbatim_token+global_search"}, {"md_atom_id": "md_ch02_a079", "md_file": "knowledge_base/chapters/ch02_fundamentals.md", "md_atom_type": "HEADING", "md_parent_section": "§2 [Fundamentals of the SDTM]", "md_verbatim": "## 2.6 Creating a New Domain", "score": 0.3018, "match_basis": "verbatim_token+global_search"}, {"md_atom_id": "md_index_a053", "md_file": "knowledge_base/INDEX.md", "md_atom_type": "HEADING", "md_parent_section": "§ Domains (63 domains)", "md_verbatim": "### Findings Domains", "score": 0.3018, "match_basis": "verbatim_token+global_search"}], "candidate_count": 5, "zero_candidate": false}
{"pdf_atom_id": "ig34_p0002_a034", "pdf_atom_type": "CROSS_REF", "pdf_source": "SDTMIG_v3.4", "pdf_page": 2, "pdf_parent_section": "§0 [Table of Contents]", "pdf_verbatim": "4.1.7.1 Example of Splitting Questionnaires............................................................24", "figure_ref": null, "candidates": [{"md_atom_id": "md_ch04_a069", "md_file": "knowledge_base/chapters/ch04_general_assumptions.md", "md_atom_type": "HEADING", "md_parent_section": "§4.1.7 [Splitting Domains]", "md_verbatim": "#### 4.1.7.1 Example of Splitting Questionnaires", "score": 0.69, "match_basis": "verbatim_token+global_search"}, {"md_atom_id": "md_varindex_a1212", "md_file": "knowledge_base/VARIABLE_INDEX.md", "md_atom_type": "HEADING", "md_parent_section": "§ 二、领域专属变量（仅 1 个域，共 1499 个），按域分组", "md_verbatim": "### QS — Questionnaires (Findings)", "score": 0.359, "match_basis": "verbatim_token+global_search"}, {"md_atom_id": "md_index_a076", "md_file": "knowledge_base/INDEX.md", "md_atom_type": "TABLE_ROW", "md_parent_section": "§ Domains (63 domains)", "md_verbatim": "| [QS](domains/QS/) | Questionnaires | [spec](domains/QS/spec.md) · [assumptions](domains/QS/assumptions.md) · [examples](domains/QS/examples.md) |", "score": 0.3515, "match_basis": "verbatim_token+global_search"}, {"md_atom_id": "md_dmFT_assn_a012", "md_file": "knowledge_base/domains/FT/assumptions.md", "md_atom_type": "LIST_ITEM", "md_parent_section": "§FT [FT — Assumptions]", "md_verbatim": "      iii. Category of Questionnaire", "score": 0.3029, "match_basis": "verbatim_token+global_search"}, {"md_atom_id": "md_index_a130", "md_file": "knowledge_base/INDEX.md", "md_atom_type": "HEADING", "md_parent_section": "§ Terminology (91 files)", "md_verbatim": "### Questionnaires Terminology (43 files)", "score": 0.29, "match_basis": "verbatim_token+global_search"}], "candidate_count": 5, "zero_candidate": false}
{"pdf_atom_id": "ig34_p0002_a035", "pdf_atom_type": "CROSS_REF", "pdf_source": "SDTMIG_v3.4", "pdf_page": 2, "pdf_parent_section": "§0 [Table of Contents]", "pdf_verbatim": "4.1.8 Origin Metadata................................................................................................26", "figure_ref": null, "candidates": [{"md_atom_id": "md_ch04_a123", "md_file": "knowledge_base/chapters/ch04_general_assumptions.md", "md_atom_type": "HEADING", "md_parent_section": "§4.1.8 [Origin Metadata]", "md_verbatim": "### 4.1.8 Origin Metadata", "score": 0.69, "match_basis": "verbatim_token+global_search"}, {"md_atom_id": "md_ch04_a130", "md_file": "knowledge_base/chapters/ch04_general_assumptions.md", "md_atom_type": "HEADING", "md_parent_section": "§4.1.8.2 [Origin Metadata for Records]", "md_verbatim": "#### 4.1.8.2 Origin Metadata for Records", "score": 0.465, "match_basis": "verbatim_token+global_search"}, {"md_atom_id": "md_ch04_a124", "md_file": "knowledge_base/chapters/ch04_general_assumptions.md", "md_atom_type": "HEADING", "md_parent_section": "§4.1.8.1 [Origin Metadata for Variables]", "md_verbatim": "#### 4.1.8.1 Origin Metadata for Variables", "score": 0.4233, "match_basis": "verbatim_token+global_search"}, {"md_atom_id": "md_dmDM_ex_a085", "md_file": "knowledge_base/domains/DM/examples.md", "md_atom_type": "SENTENCE", "md_parent_section": "§DM.4 [Example 4]", "md_verbatim": "**CRF Metadata**", "score": 0.4173, "match_basis": "verbatim_token+global_search"}, {"md_atom_id": "md_dmDM_ex_a143", "md_file": "knowledge_base/domains/DM/examples.md", "md_atom_type": "SENTENCE", "md_parent_section": "§DM.6 [Example 6]", "md_verbatim": "**CRF Metadata**", "score": 0.4173, "match_basis": "verbatim_token+global_search"}], "candidate_count": 5, "zero_candidate": false}
{"pdf_atom_id": "ig34_p0002_a036", "pdf_atom_type": "CROSS_REF", "pdf_source": "SDTMIG_v3.4", "pdf_page": 2, "pdf_parent_section": "§0 [Table of Contents]", "pdf_verbatim": "4.1.8.1 Origin Metadata for Variables......................................................................26", "figure_ref": null, "candidates": [{"md_atom_id": "md_ch04_a124", "md_file": "knowledge_base/chapters/ch04_general_assumptions.md", "md_atom_type": "HEADING", "md_parent_section": "§4.1.8.1 [Origin Metadata for Variables]", "md_verbatim": "#### 4.1.8.1 Origin Metadata for Variables", "score": 0.69, "match_basis": "verbatim_token+global_search"}, {"md_atom_id": "md_ch04_a123", "md_file": "knowledge_base/chapters/ch04_general_assumptions.md", "md_atom_type": "HEADING", "md_parent_section": "§4.1.8 [Origin Metadata]", "md_verbatim": "### 4.1.8 Origin Metadata", "score": 0.4233, "match_basis": "verbatim_token+global_search"}, {"md_atom_id": "md_ch04_a130", "md_file": "knowledge_base/chapters/ch04_general_assumptions.md", "md_atom_type": "HEADING", "md_parent_section": "§4.1.8.2 [Origin Metadata for Records]", "md_verbatim": "#### 4.1.8.2 Origin Metadata for Records", "score": 0.377, "match_basis": "verbatim_token+global_search"}, {"md_atom_id": "md_model06_a017", "md_file": "knowledge_base/model/06_relationship_datasets.md", "md_atom_type": "HEADING", "md_parent_section": "§6.1 Related Records (RELREC)", "md_verbatim": "### Variables (10 variables)", "score": 0.3233, "match_basis": "verbatim_token+global_search"}, {"md_atom_id": "md_model06_a038", "md_file": "knowledge_base/model/06_relationship_datasets.md", "md_atom_type": "HEADING", "md_parent_section": "§6.2 Supplemental Qualifiers (SUPP--)", "md_verbatim": "### Variables (13 variables)", "score": 0.3233, "match_basis": "verbatim_token+global_search"}], "candidate_count": 5, "zero_candidate": false}
{"pdf_atom_id": "ig34_p0002_a037", "pdf_atom_type": "CROSS_REF", "pdf_source": "SDTMIG_v3.4", "pdf_page": 2, "pdf_parent_section": "§0 [Table of Contents]", "pdf_verbatim": "4.1.8.2 Origin Metadata for Records .......................................................................26", "figure_ref": null, "candidates": [{"md_atom_id": "md_ch04_a130", "md_file": "knowledge_base/chapters/ch04_general_assumptions.md", "md_atom_type": "HEADING", "md_parent_section": "§4.1.8.2 [Origin Metadata for Records]", "md_verbatim": "#### 4.1.8.2 Origin Metadata for Records", "score": 0.69, "match_basis": "verbatim_token+global_search"}, {"md_atom_id": "md_ch04_a123", "md_file": "knowledge_base/chapters/ch04_general_assumptions.md", "md_atom_type": "HEADING", "md_parent_section": "§4.1.8 [Origin Metadata]", "md_verbatim": "### 4.1.8 Origin Metadata", "score": 0.465, "match_basis": "verbatim_token+global_search"}, {"md_atom_id": "md_ch04_a124", "md_file": "knowledge_base/chapters/ch04_general_assumptions.md", "md_atom_type": "HEADING", "md_parent_section": "§4.1.8.1 [Origin Metadata for Variables]", "md_verbatim": "#### 4.1.8.1 Origin Metadata for Variables", "score": 0.377, "match_basis": "verbatim_token+global_search"}, {"md_atom_id": "md_dmDM_ex_a085", "md_file": "knowledge_base/domains/DM/examples.md", "md_atom_type": "SENTENCE", "md_parent_section": "§DM.4 [Example 4]", "md_verbatim": "**CRF Metadata**", "score": 0.3018, "match_basis": "verbatim_token+global_search"}, {"md_atom_id": "md_dmDM_ex_a143", "md_file": "knowledge_base/domains/DM/examples.md", "md_atom_type": "SENTENCE", "md_parent_section": "§DM.6 [Example 6]", "md_verbatim": "**CRF Metadata**", "score": 0.3018, "match_basis": "verbatim_token+global_search"}], "candidate_count": 5, "zero_candidate": false}
{"pdf_atom_id": "ig34_p0002_a038", "pdf_atom_type": "CROSS_REF", "pdf_source": "SDTMIG_v3.4", "pdf_page": 2, "pdf_parent_section": "§0 [Table of Contents]", "pdf_verbatim": "4.1.9 Assigning Natural Keys in the Metadata ..........................................................26", "figure_ref": null, "candidates": [{"md_atom_id": "md_ch04_a135", "md_file": "knowledge_base/chapters/ch04_general_assumptions.md", "md_atom_type": "HEADING", "md_parent_section": "§4.1.9 [Assigning Natural Keys in the Metadata]", "md_verbatim": "### 4.1.9 Assigning Natural Keys in the Metadata", "score": 0.69, "match_basis": "verbatim_token+global_search"}, {"md_atom_id": "md_ch04_a358", "md_file": "knowledge_base/chapters/ch04_general_assumptions.md", "md_atom_type": "SENTENCE", "md_parent_section": "§4.2.8.2 [Multiple Values for a Findings Result Variable]", "md_verbatim": "See Section 4.1.9, Assigning Natural Keys in the Metadata.", "score": 0.5567, "match_basis": "verbatim_token+global_search"}, {"md_atom_id": "md_ch04_a406", "md_file": "knowledge_base/chapters/ch04_general_assumptions.md", "md_atom_type": "SENTENCE", "md_parent_section": "§4.2.8.4 [Multiple Values for a Parameter]", "md_verbatim": "See Section 4.1.9, Assigning Natural Keys in the Metadata.", "score": 0.5567, "match_basis": "verbatim_token+global_search"}, {"md_atom_id": "md_ch03_a098", "md_file": "knowledge_base/chapters/ch03_submitting_data.md", "md_atom_type": "SENTENCE", "md_parent_section": "§3.2.1.1 [Primary Keys]", "md_verbatim": "See Section 4.1.9, Assigning Natural Keys in the Metadata, for how this should be represented, and for additional information on keys.", "score": 0.3111, "match_basis": "verbatim_token+global_search"}, {"md_atom_id": "md_dmDM_ex_a085", "md_file": "knowledge_base/domains/DM/examples.md", "md_atom_type": "SENTENCE", "md_parent_section": "§DM.4 [Example 4]", "md_verbatim": "**CRF Metadata**", "score": 0.2536, "match_basis": "verbatim_token+global_search"}], "candidate_count": 5, "zero_candidate": false}
{"pdf_atom_id": "ig34_p0002_a039", "pdf_atom_type": "CROSS_REF", "pdf_source": "SDTMIG_v3.4", "pdf_page": 2, "pdf_parent_section": "§0 [Table of Contents]", "pdf_verbatim": "4.2 GENERAL VARIABLE ASSUMPTIONS ............................................................................28", "figure_ref": null, "candidates": [{"md_atom_id": "md_ch04_a172", "md_file": "knowledge_base/chapters/ch04_general_assumptions.md", "md_atom_type": "HEADING", "md_parent_section": "§4 [Assumptions for Domain Models]", "md_verbatim": "## 4.2 General Variable Assumptions", "score": 0.69, "match_basis": "verbatim_token+global_search"}, {"md_atom_id": "md_routing_a037", "md_file": "knowledge_base/ROUTING.md", "md_atom_type": "LIST_ITEM", "md_parent_section": "§ 多文件查询策略", "md_verbatim": "4. **通用规则兜底**: ch04_general_assumptions.md（如果主文件未覆盖）", "score": 0.4718, "match_basis": "verbatim_token+global_search"}, {"md_atom_id": "md_ch04_a006", "md_file": "knowledge_base/chapters/ch04_general_assumptions.md", "md_atom_type": "HEADING", "md_parent_section": "§4 [Assumptions for Domain Models]", "md_verbatim": "## 4.1 General Domain Assumptions", "score": 0.44, "match_basis": "verbatim_token+global_search"}, {"md_atom_id": "md_dmCM_assn_a001", "md_file": "knowledge_base/domains/CM/assumptions.md", "md_atom_type": "HEADING", "md_parent_section": "§CM [CM — Assumptions]", "md_verbatim": "# CM — Assumptions", "score": 0.36, "match_basis": "verbatim_token+global_search"}, {"md_atom_id": "md_ch08_a283", "md_file": "knowledge_base/chapters/ch08_relationships.md", "md_atom_type": "HEADING", "md_parent_section": "§8.7 [Related Subjects (RELSUB)]", "md_verbatim": "### Assumptions", "score": 0.36, "match_basis": "verbatim_token+global_search"}], "candidate_count": 5, "zero_candidate": false}
{"pdf_atom_id": "ig34_p0002_a040", "pdf_atom_type": "CROSS_REF", "pdf_source": "SDTMIG_v3.4", "pdf_page": 2, "pdf_parent_section": "§0 [Table of Contents]", "pdf_verbatim": "4.2.1 Variable-naming Conventions...........................................................................28", "figure_ref": null, "candidates": [{"md_atom_id": "md_ch04_a173", "md_file": "knowledge_base/chapters/ch04_general_assumptions.md", "md_atom_type": "HEADING", "md_parent_section": "§4.2 [General Variable Assumptions]", "md_verbatim": "### 4.2.1 Variable-Naming Conventions", "score": 0.69, "match_basis": "verbatim_token+global_search"}, {"md_atom_id": "md_model06_a053", "md_file": "knowledge_base/model/06_relationship_datasets.md", "md_atom_type": "HEADING", "md_parent_section": "§6.2 Supplemental Qualifiers (SUPP--)", "md_verbatim": "### Naming Convention", "score": 0.4689, "match_basis": "verbatim_token+global_search"}, {"md_atom_id": "md_ch04_a189", "md_file": "knowledge_base/chapters/ch04_general_assumptions.md", "md_atom_type": "HEADING", "md_parent_section": "§4.2.1 [Variable-Naming Conventions]", "md_verbatim": "#### 4.2.1.3 --TERM Conventions (Events)", "score": 0.3248, "match_basis": "verbatim_token+global_search"}, {"md_atom_id": "md_dmAE_assn_a016", "md_file": "knowledge_base/domains/AE/assumptions.md", "md_atom_type": "LIST_ITEM", "md_parent_section": "§AE [AE — Assumptions]", "md_verbatim": "5. **Timing variables**", "score": 0.3082, "match_basis": "verbatim_token+global_search"}, {"md_atom_id": "md_dmBE_assn_a007", "md_file": "knowledge_base/domains/BE/assumptions.md", "md_atom_type": "LIST_ITEM", "md_parent_section": "§BE [BE — Assumptions]", "md_verbatim": "6. Timing variables:", "score": 0.3082, "match_basis": "verbatim_token+global_search"}], "candidate_count": 5, "zero_candidate": false}
{"pdf_atom_id": "ig34_p0002_a041", "pdf_atom_type": "CROSS_REF", "pdf_source": "SDTMIG_v3.4", "pdf_page": 2, "pdf_parent_section": "§0 [Table of Contents]", "pdf_verbatim": "4.2.2 Two-character Domain Identifier ......................................................................28", "figure_ref": null, "candidates": [{"md_atom_id": "md_ch04_a192", "md_file": "knowledge_base/chapters/ch04_general_assumptions.md", "md_atom_type": "HEADING", "md_parent_section": "§4.2 [General Variable Assumptions]", "md_verbatim": "### 4.2.2 Two-character Domain Identifier", "score": 0.69, "match_basis": "verbatim_token+global_search"}, {"md_atom_id": "md_model02_a166", "md_file": "knowledge_base/model/02_observation_classes.md", "md_atom_type": "TABLE_ROW", "md_parent_section": "§3.1.4 Identifiers for All Classes", "md_verbatim": "| 2 | DOMAIN | Domain Abbreviation | Char | Identifier | Two-character abbreviation for the domain |", "score": 0.465, "match_basis": "verbatim_token+global_search"}, {"md_atom_id": "md_model06_a078", "md_file": "knowledge_base/model/06_relationship_datasets.md", "md_atom_type": "TABLE_ROW", "md_parent_section": "§6.5 Device-subject Relationships (DR)", "md_verbatim": "| 2 | DOMAIN | Domain Abbreviation | Char | Identifier |", "score": 0.37, "match_basis": "verbatim_token+global_search"}, {"md_atom_id": "md_model03_a016", "md_file": "knowledge_base/model/03_special_purpose_domains.md", "md_atom_type": "TABLE_ROW", "md_parent_section": "§ Demographics (DM) > Variables (38 variables)", "md_verbatim": "| 2 | DOMAIN | Domain Abbreviation | Char | Identifier | \"DM\" |", "score": 0.37, "match_basis": "verbatim_token+global_search"}, {"md_atom_id": "md_model03_a071", "md_file": "knowledge_base/model/03_special_purpose_domains.md", "md_atom_type": "TABLE_ROW", "md_parent_section": "§ Comments (CO) > Variables (15 variables)", "md_verbatim": "| 2 | DOMAIN | Domain Abbreviation | Char | Identifier |", "score": 0.37, "match_basis": "verbatim_token+global_search"}], "candidate_count": 5, "zero_candidate": false}
{"pdf_atom_id": "ig34_p0002_a042", "pdf_atom_type": "CROSS_REF", "pdf_source": "SDTMIG_v3.4", "pdf_page": 2, "pdf_parent_section": "§0 [Table of Contents]", "pdf_verbatim": "4.2.3 Use of \"Subject\" and USUBJID .......................................................................29", "figure_ref": null, "candidates": [{"md_atom_id": "md_ch04_a201", "md_file": "knowledge_base/chapters/ch04_general_assumptions.md", "md_atom_type": "HEADING", "md_parent_section": "§4.2 [General Variable Assumptions]", "md_verbatim": "### 4.2.3 Use of \"Subject\" and USUBJID", "score": 0.69, "match_basis": "verbatim_token+global_search"}, {"md_atom_id": "md_ch04_a222", "md_file": "knowledge_base/chapters/ch04_general_assumptions.md", "md_atom_type": "NOTE", "md_parent_section": "§4.2.6 [Grouping Variables and Categorization]", "md_verbatim": "**For the subject:**", "score": 0.34, "match_basis": "verbatim_token+global_search"}, {"md_atom_id": "md_model03_a123", "md_file": "knowledge_base/model/03_special_purpose_domains.md", "md_atom_type": "HEADING", "md_parent_section": "§ Subject Visits (SV)", "md_verbatim": "## Subject Visits (SV)", "score": 0.3043, "match_basis": "verbatim_token+global_search"}, {"md_atom_id": "md_routing_a012", "md_file": "knowledge_base/ROUTING.md", "md_atom_type": "SENTENCE", "md_parent_section": "§ 路由规则", "md_verbatim": "**问法示例**: \"AETERM 是什么？\"、\"AE 域有哪些变量？\"、\"USUBJID 出现在哪些域？\"", "score": 0.3043, "match_basis": "verbatim_token+global_search"}, {"md_atom_id": "md_model06_a042", "md_file": "knowledge_base/model/06_relationship_datasets.md", "md_atom_type": "TABLE_ROW", "md_parent_section": "§6.2 Supplemental Qualifiers (SUPP--)", "md_verbatim": "| 3 | USUBJID | Unique Subject Identifier | Char | Identifier | |", "score": 0.29, "match_basis": "verbatim_token+global_search"}], "candidate_count": 5, "zero_candidate": false}
{"pdf_atom_id": "ig34_p0002_a043", "pdf_atom_type": "CROSS_REF", "pdf_source": "SDTMIG_v3.4", "pdf_page": 2, "pdf_parent_section": "§0 [Table of Contents]", "pdf_verbatim": "4.2.4 Text Case in Submitted Data ............................................................................29", "figure_ref": null, "candidates": [{"md_atom_id": "md_ch04_a213", "md_file": "knowledge_base/chapters/ch04_general_assumptions.md", "md_atom_type": "HEADING", "md_parent_section": "§4.2 [General Variable Assumptions]", "md_verbatim": "### 4.2.4 Text Case in Submitted Data", "score": 0.69, "match_basis": "verbatim_token+global_search"}, {"md_atom_id": "md_ch04_a428", "md_file": "knowledge_base/chapters/ch04_general_assumptions.md", "md_atom_type": "SENTENCE", "md_parent_section": "§4.3.2 [Controlled Terminology Text Case]", "md_verbatim": "See Section 4.2.4, Text Case in Submitted Data.", "score": 0.5005, "match_basis": "verbatim_token+global_search"}, {"md_atom_id": "md_ch04_a257", "md_file": "knowledge_base/chapters/ch04_general_assumptions.md", "md_atom_type": "HEADING", "md_parent_section": "§4.2 [General Variable Assumptions]", "md_verbatim": "### 4.2.7 Submitting Free Text from the CRF", "score": 0.2809, "match_basis": "verbatim_token+global_search"}, {"md_atom_id": "md_ch04_a260", "md_file": "knowledge_base/chapters/ch04_general_assumptions.md", "md_atom_type": "SENTENCE", "md_parent_section": "§4.2.7 [Submitting Free Text from the CRF]", "md_verbatim": "The manner in which these data are submitted will vary based on their role.", "score": 0.2665, "match_basis": "verbatim_token+global_search"}, {"md_atom_id": "md_ch10_a178", "md_file": "knowledge_base/chapters/ch10_appendices.md", "md_atom_type": "TABLE_ROW", "md_parent_section": "§10.E [Revision History]", "md_verbatim": "| **Section 3. Submitting Data in a Standard Format** | | |", "score": 0.2255, "match_basis": "verbatim_token+global_search"}], "candidate_count": 5, "zero_candidate": false}
{"pdf_atom_id": "ig34_p0002_a044", "pdf_atom_type": "CROSS_REF", "pdf_source": "SDTMIG_v3.4", "pdf_page": 2, "pdf_parent_section": "§0 [Table of Contents]", "pdf_verbatim": "4.2.5 Convention for Missing Values..........................................................................29", "figure_ref": null, "candidates": [{"md_atom_id": "md_ch04_a215", "md_file": "knowledge_base/chapters/ch04_general_assumptions.md", "md_atom_type": "HEADING", "md_parent_section": "§4.2 [General Variable Assumptions]", "md_verbatim": "### 4.2.5 Convention for Missing Values", "score": 0.69, "match_basis": "verbatim_token+global_search"}, {"md_atom_id": "md_model06_a053", "md_file": "knowledge_base/model/06_relationship_datasets.md", "md_atom_type": "HEADING", "md_parent_section": "§6.2 Supplemental Qualifiers (SUPP--)", "md_verbatim": "### Naming Convention", "score": 0.3471, "match_basis": "verbatim_token+global_search"}, {"md_atom_id": "md_ch04_a189", "md_file": "knowledge_base/chapters/ch04_general_assumptions.md", "md_atom_type": "HEADING", "md_parent_section": "§4.2.1 [Variable-Naming Conventions]", "md_verbatim": "#### 4.2.1.3 --TERM Conventions (Events)", "score": 0.2987, "match_basis": "verbatim_token+global_search"}, {"md_atom_id": "md_ch04_a173", "md_file": "knowledge_base/chapters/ch04_general_assumptions.md", "md_atom_type": "HEADING", "md_parent_section": "§4.2 [General Variable Assumptions]", "md_verbatim": "### 4.2.1 Variable-Naming Conventions", "score": 0.2829, "match_basis": "verbatim_token+global_search"}, {"md_atom_id": "md_ch04_a186", "md_file": "knowledge_base/chapters/ch04_general_assumptions.md", "md_atom_type": "HEADING", "md_parent_section": "§4.2.1 [Variable-Naming Conventions]", "md_verbatim": "#### 4.2.1.2 --TRT Conventions (Interventions)", "score": 0.282, "match_basis": "verbatim_token+global_search"}], "candidate_count": 5, "zero_candidate": false}
{"pdf_atom_id": "ig34_p0002_a045", "pdf_atom_type": "CROSS_REF", "pdf_source": "SDTMIG_v3.4", "pdf_page": 2, "pdf_parent_section": "§0 [Table of Contents]", "pdf_verbatim": "4.2.6 Grouping Variables and Categorization ...........................................................29", "figure_ref": null, "candidates": [{"md_atom_id": "md_ch04_a217", "md_file": "knowledge_base/chapters/ch04_general_assumptions.md", "md_atom_type": "HEADING", "md_parent_section": "§4.2 [General Variable Assumptions]", "md_verbatim": "### 4.2.6 Grouping Variables and Categorization", "score": 0.69, "match_basis": "verbatim_token+global_search"}, {"md_atom_id": "md_dmEX_assn_a017", "md_file": "knowledge_base/domains/EX/assumptions.md", "md_atom_type": "LIST_ITEM", "md_parent_section": "§EX [EX — Assumptions]", "md_verbatim": "3. Categorization and grouping", "score": 0.5285, "match_basis": "verbatim_token+global_search"}, {"md_atom_id": "md_dmAE_assn_a008", "md_file": "knowledge_base/domains/AE/assumptions.md", "md_atom_type": "LIST_ITEM", "md_parent_section": "§AE [AE — Assumptions]", "md_verbatim": "3. **Additional categorization and grouping**", "score": 0.4463, "match_basis": "verbatim_token+global_search"}, {"md_atom_id": "md_dmMH_assn_a009", "md_file": "knowledge_base/domains/MH/assumptions.md", "md_atom_type": "LIST_ITEM", "md_parent_section": "§MH [MH — Assumptions]", "md_verbatim": "3. **Additional categorization and grouping**", "score": 0.4463, "match_basis": "verbatim_token+global_search"}, {"md_atom_id": "md_dmSU_assn_a009", "md_file": "knowledge_base/domains/SU/assumptions.md", "md_atom_type": "LIST_ITEM", "md_parent_section": "§SU [SU — Assumptions]", "md_verbatim": "3. Additional categorization and grouping", "score": 0.4463, "match_basis": "verbatim_token+global_search"}], "candidate_count": 5, "zero_candidate": false}
{"pdf_atom_id": "ig34_p0002_a046", "pdf_atom_type": "CROSS_REF", "pdf_source": "SDTMIG_v3.4", "pdf_page": 2, "pdf_parent_section": "§0 [Table of Contents]", "pdf_verbatim": "4.2.7 Submitting Free Text from the CRF..................................................................31", "figure_ref": null, "candidates": [{"md_atom_id": "md_ch04_a257", "md_file": "knowledge_base/chapters/ch04_general_assumptions.md", "md_atom_type": "HEADING", "md_parent_section": "§4.2 [General Variable Assumptions]", "md_verbatim": "### 4.2.7 Submitting Free Text from the CRF", "score": 0.69, "match_basis": "verbatim_token+global_search"}, {"md_atom_id": "md_ch04_a213", "md_file": "knowledge_base/chapters/ch04_general_assumptions.md", "md_atom_type": "HEADING", "md_parent_section": "§4.2 [General Variable Assumptions]", "md_verbatim": "### 4.2.4 Text Case in Submitted Data", "score": 0.2809, "match_basis": "verbatim_token+global_search"}, {"md_atom_id": "md_ch04_a428", "md_file": "knowledge_base/chapters/ch04_general_assumptions.md", "md_atom_type": "SENTENCE", "md_parent_section": "§4.3.2 [Controlled Terminology Text Case]", "md_verbatim": "See Section 4.2.4, Text Case in Submitted Data.", "score": 0.24, "match_basis": "verbatim_token+global_search"}, {"md_atom_id": "md_ch10_a178", "md_file": "knowledge_base/chapters/ch10_appendices.md", "md_atom_type": "TABLE_ROW", "md_parent_section": "§10.E [Revision History]", "md_verbatim": "| **Section 3. Submitting Data in a Standard Format** | | |", "score": 0.2355, "match_basis": "verbatim_token+global_search"}, {"md_atom_id": "md_ch03_a001", "md_file": "knowledge_base/chapters/ch03_submitting_data.md", "md_atom_type": "HEADING", "md_parent_section": "§3 [Submitting Data in Standard Format]", "md_verbatim": "# SDTMIG v3.4 — Chapter 3: Submitting Data in Standard Format", "score": 0.2197, "match_basis": "verbatim_token+global_search"}], "candidate_count": 5, "zero_candidate": false}
{"pdf_atom_id": "ig34_p0002_a047", "pdf_atom_type": "CROSS_REF", "pdf_source": "SDTMIG_v3.4", "pdf_page": 2, "pdf_parent_section": "§0 [Table of Contents]", "pdf_verbatim": "4.2.7.1 \"Specify\" Values for Non-result Qualifier Variables ....................................31", "figure_ref": null, "candidates": [{"md_atom_id": "md_ch04_a261", "md_file": "knowledge_base/chapters/ch04_general_assumptions.md", "md_atom_type": "HEADING", "md_parent_section": "§4.2.7 [Submitting Free Text from the CRF]", "md_verbatim": "#### 4.2.7.1 \"Specify\" Values for Non-Result Qualifier Variables", "score": 0.69, "match_basis": "verbatim_token+global_search"}, {"md_atom_id": "md_ch04_a296", "md_file": "knowledge_base/chapters/ch04_general_assumptions.md", "md_atom_type": "HEADING", "md_parent_section": "§4.2.7 [Submitting Free Text from the CRF]", "md_verbatim": "#### 4.2.7.2 \"Specify\" Values for Result Qualifier Variables", "score": 0.6693, "match_basis": "verbatim_token+global_search"}, {"md_atom_id": "md_ch04_a359", "md_file": "knowledge_base/chapters/ch04_general_assumptions.md", "md_atom_type": "HEADING", "md_parent_section": "§4.2.8 [Multiple Values for a Variable]", "md_verbatim": "#### 4.2.8.3 Multiple Values for a Non-result Qualifier Variable", "score": 0.4959, "match_basis": "verbatim_token+global_search"}, {"md_atom_id": "md_ch04_a316", "md_file": "knowledge_base/chapters/ch04_general_assumptions.md", "md_atom_type": "HEADING", "md_parent_section": "§4.2.7 [Submitting Free Text from the CRF]", "md_verbatim": "#### 4.2.7.3 \"Specify\" Values for Topic Variables", "score": 0.4087, "match_basis": "verbatim_token+global_search"}, {"md_atom_id": "md_model02_a022", "md_file": "knowledge_base/model/02_observation_classes.md", "md_atom_type": "TABLE_ROW", "md_parent_section": "§3.1.1 > Topic and Qualifier Variables (43 variables)", "md_verbatim": "| 7 | --PRESP | Pre-Specified | Char | Variable Qualifier (--TRT) | Values: \"Y\" or null. Not in nonclinical trials |", "score": 0.3716, "match_basis": "verbatim_token+global_search"}], "candidate_count": 5, "zero_candidate": false}
{"pdf_atom_id": "ig34_p0002_a048", "pdf_atom_type": "CROSS_REF", "pdf_source": "SDTMIG_v3.4", "pdf_page": 2, "pdf_parent_section": "§0 [Table of Contents]", "pdf_verbatim": "4.2.7.2 \"Specify\" Values for Result Qualifier Variables ...........................................33", "figure_ref": null, "candidates": [{"md_atom_id": "md_ch04_a296", "md_file": "knowledge_base/chapters/ch04_general_assumptions.md", "md_atom_type": "HEADING", "md_parent_section": "§4.2.7 [Submitting Free Text from the CRF]", "md_verbatim": "#### 4.2.7.2 \"Specify\" Values for Result Qualifier Variables", "score": 0.69, "match_basis": "verbatim_token+global_search"}, {"md_atom_id": "md_ch04_a261", "md_file": "knowledge_base/chapters/ch04_general_assumptions.md", "md_atom_type": "HEADING", "md_parent_section": "§4.2.7 [Submitting Free Text from the CRF]", "md_verbatim": "#### 4.2.7.1 \"Specify\" Values for Non-Result Qualifier Variables", "score": 0.6693, "match_basis": "verbatim_token+global_search"}, {"md_atom_id": "md_ch04_a359", "md_file": "knowledge_base/chapters/ch04_general_assumptions.md", "md_atom_type": "HEADING", "md_parent_section": "§4.2.8 [Multiple Values for a Variable]", "md_verbatim": "#### 4.2.8.3 Multiple Values for a Non-result Qualifier Variable", "score": 0.4782, "match_basis": "verbatim_token+global_search"}, {"md_atom_id": "md_ch04_a316", "md_file": "knowledge_base/chapters/ch04_general_assumptions.md", "md_atom_type": "HEADING", "md_parent_section": "§4.2.7 [Submitting Free Text from the CRF]", "md_verbatim": "#### 4.2.7.3 \"Specify\" Values for Topic Variables", "score": 0.419, "match_basis": "verbatim_token+global_search"}, {"md_atom_id": "md_dmAE_assn_a025", "md_file": "knowledge_base/domains/AE/assumptions.md", "md_atom_type": "LIST_ITEM", "md_parent_section": "§AE [AE — Assumptions]", "md_verbatim": "7. **Other qualifier variables**", "score": 0.361, "match_basis": "verbatim_token+global_search"}], "candidate_count": 5, "zero_candidate": false}
{"pdf_atom_id": "ig34_p0002_a049", "pdf_atom_type": "CROSS_REF", "pdf_source": "SDTMIG_v3.4", "pdf_page": 2, "pdf_parent_section": "§0 [Table of Contents]", "pdf_verbatim": "4.2.7.3 \"Specify\" Values for Topic Variables ...........................................................33", "figure_ref": null, "candidates": [{"md_atom_id": "md_ch04_a316", "md_file": "knowledge_base/chapters/ch04_general_assumptions.md", "md_atom_type": "HEADING", "md_parent_section": "§4.2.7 [Submitting Free Text from the CRF]", "md_verbatim": "#### 4.2.7.3 \"Specify\" Values for Topic Variables", "score": 0.69, "match_basis": "verbatim_token+global_search"}, {"md_atom_id": "md_ch04_a296", "md_file": "knowledge_base/chapters/ch04_general_assumptions.md", "md_atom_type": "HEADING", "md_parent_section": "§4.2.7 [Submitting Free Text from the CRF]", "md_verbatim": "#### 4.2.7.2 \"Specify\" Values for Result Qualifier Variables", "score": 0.419, "match_basis": "verbatim_token+global_search"}, {"md_atom_id": "md_ch04_a261", "md_file": "knowledge_base/chapters/ch04_general_assumptions.md", "md_atom_type": "HEADING", "md_parent_section": "§4.2.7 [Submitting Free Text from the CRF]", "md_verbatim": "#### 4.2.7.1 \"Specify\" Values for Non-Result Qualifier Variables", "score": 0.4087, "match_basis": "verbatim_token+global_search"}, {"md_atom_id": "md_model02_a129", "md_file": "knowledge_base/model/02_observation_classes.md", "md_atom_type": "NOTE", "md_parent_section": "§3.1.3 > Topic and Qualifier Variables (100 variables)", "md_verbatim": "**Topic Variables:**", "score": 0.39, "match_basis": "verbatim_token+global_search"}, {"md_atom_id": "md_ch02_a022", "md_file": "knowledge_base/chapters/ch02_fundamentals.md", "md_atom_type": "LIST_ITEM", "md_parent_section": "§2.1 [Observations and Variables]", "md_verbatim": "- Topic variable value = \"NAUSEA\"", "score": 0.39, "match_basis": "verbatim_token+global_search"}], "candidate_count": 5, "zero_candidate": false}
{"pdf_atom_id": "ig34_p0002_a050", "pdf_atom_type": "CROSS_REF", "pdf_source": "SDTMIG_v3.4", "pdf_page": 2, "pdf_parent_section": "§0 [Table of Contents]", "pdf_verbatim": "4.2.7.4 \"Specify\" Values for --OBJ ...........................................................................34", "figure_ref": null, "candidates": [{"md_atom_id": "md_ch04_a341", "md_file": "knowledge_base/chapters/ch04_general_assumptions.md", "md_atom_type": "HEADING", "md_parent_section": "§4.2.7 [Submitting Free Text from the CRF]", "md_verbatim": "#### 4.2.7.4 \"Specify\" Values for --OBJ", "score": 0.69, "match_basis": "verbatim_token+global_search"}, {"md_atom_id": "md_ch04_a316", "md_file": "knowledge_base/chapters/ch04_general_assumptions.md", "md_atom_type": "HEADING", "md_parent_section": "§4.2.7 [Submitting Free Text from the CRF]", "md_verbatim": "#### 4.2.7.3 \"Specify\" Values for Topic Variables", "score": 0.3757, "match_basis": "verbatim_token+global_search"}, {"md_atom_id": "md_ch04_a284", "md_file": "knowledge_base/chapters/ch04_general_assumptions.md", "md_atom_type": "TABLE_ROW", "md_parent_section": "§4.2.7.1 [\"Specify\" Values for Non-Result Qualifier Variables]", "md_verbatim": "|                          | [ ] Other, specify: _________  |", "score": 0.3043, "match_basis": "verbatim_token+global_search"}, {"md_atom_id": "md_ch04_a304", "md_file": "knowledge_base/chapters/ch04_general_assumptions.md", "md_atom_type": "TABLE_ROW", "md_parent_section": "§4.2.7.2 [\"Specify\" Values for Result Qualifier Variables]", "md_verbatim": "|           | [ ] Other, specify: _________ |", "score": 0.3043, "match_basis": "verbatim_token+global_search"}, {"md_atom_id": "md_ch04_a326", "md_file": "knowledge_base/chapters/ch04_general_assumptions.md", "md_atom_type": "TABLE_ROW", "md_parent_section": "§4.2.7.3 [\"Specify\" Values for Topic Variables]", "md_verbatim": "|                                                                                                    | [ ] Other, specify: _________ |", "score": 0.3043, "match_basis": "verbatim_token+global_search"}], "candidate_count": 5, "zero_candidate": false}
{"pdf_atom_id": "ig34_p0003_a001", "pdf_atom_type": "CROSS_REF", "pdf_source": "SDTMIG_v3.4", "pdf_page": 3, "pdf_parent_section": "§0 [Table of Contents]", "pdf_verbatim": "4.2.8 Multiple Values for a Variable...........................................................................34", "figure_ref": null, "candidates": [{"md_atom_id": "md_ch04_a346", "md_file": "knowledge_base/chapters/ch04_general_assumptions.md", "md_atom_type": "HEADING", "md_parent_section": "§4.2 [General Variable Assumptions]", "md_verbatim": "### 4.2.8 Multiple Values for a Variable", "score": 0.69, "match_basis": "verbatim_token+global_search"}, {"md_atom_id": "md_ch04_a352", "md_file": "knowledge_base/chapters/ch04_general_assumptions.md", "md_atom_type": "HEADING", "md_parent_section": "§4.2.8 [Multiple Values for a Variable]", "md_verbatim": "#### 4.2.8.2 Multiple Values for a Findings Result Variable", "score": 0.4823, "match_basis": "verbatim_token+global_search"}, {"md_atom_id": "md_ch04_a359", "md_file": "knowledge_base/chapters/ch04_general_assumptions.md", "md_atom_type": "HEADING", "md_parent_section": "§4.2.8 [Multiple Values for a Variable]", "md_verbatim": "#### 4.2.8.3 Multiple Values for a Non-result Qualifier Variable", "score": 0.4543, "match_basis": "verbatim_token+global_search"}, {"md_atom_id": "md_ch04_a347", "md_file": "knowledge_base/chapters/ch04_general_assumptions.md", "md_atom_type": "HEADING", "md_parent_section": "§4.2.8 [Multiple Values for a Variable]", "md_verbatim": "#### 4.2.8.1 Multiple Values for an Intervention or Event Topic Variable", "score": 0.419, "match_basis": "verbatim_token+global_search"}, {"md_atom_id": "md_ch04_a400", "md_file": "knowledge_base/chapters/ch04_general_assumptions.md", "md_atom_type": "HEADING", "md_parent_section": "§4.2.8 [Multiple Values for a Variable]", "md_verbatim": "#### 4.2.8.4 Multiple Values for a Parameter", "score": 0.365, "match_basis": "verbatim_token+global_search"}], "candidate_count": 5, "zero_candidate": false}
{"pdf_atom_id": "ig34_p0003_a002", "pdf_atom_type": "CROSS_REF", "pdf_source": "SDTMIG_v3.4", "pdf_page": 3, "pdf_parent_section": "§0 [Table of Contents]", "pdf_verbatim": "4.2.8.1 Multiple Values for an Intervention or Event Topic Variable.........................34", "figure_ref": null, "candidates": [{"md_atom_id": "md_ch04_a347", "md_file": "knowledge_base/chapters/ch04_general_assumptions.md", "md_atom_type": "HEADING", "md_parent_section": "§4.2.8 [Multiple Values for a Variable]", "md_verbatim": "#### 4.2.8.1 Multiple Values for an Intervention or Event Topic Variable", "score": 0.69, "match_basis": "verbatim_token+global_search"}, {"md_atom_id": "md_ch04_a449", "md_file": "knowledge_base/chapters/ch04_general_assumptions.md", "md_atom_type": "LIST_ITEM", "md_parent_section": "§4.3.5 [Storing Controlled Terminology for Synonym Qualifier Variables (MedDRA and WHODrug)]", "md_verbatim": "- If coding to multiple classes, follow Section 4.2.8.1 (Multiple Values for an Intervention or Event Topic Variable), or omit CMCLAS", "score": 0.4547, "match_basis": "verbatim_token+global_search"}, {"md_atom_id": "md_ch04_a346", "md_file": "knowledge_base/chapters/ch04_general_assumptions.md", "md_atom_type": "HEADING", "md_parent_section": "§4.2 [General Variable Assumptions]", "md_verbatim": "### 4.2.8 Multiple Values for a Variable", "score": 0.419, "match_basis": "verbatim_token+global_search"}, {"md_atom_id": "md_ch04_a455", "md_file": "knowledge_base/chapters/ch04_general_assumptions.md", "md_atom_type": "SENTENCE", "md_parent_section": "§4.3.6 [Storing Topic Variables for General Domain Models]", "md_verbatim": "For an Interventions domain, the topic variable is --TRT.", "score": 0.4058, "match_basis": "verbatim_token+global_search"}, {"md_atom_id": "md_ch04_a352", "md_file": "knowledge_base/chapters/ch04_general_assumptions.md", "md_atom_type": "HEADING", "md_parent_section": "§4.2.8 [Multiple Values for a Variable]", "md_verbatim": "#### 4.2.8.2 Multiple Values for a Findings Result Variable", "score": 0.345, "match_basis": "verbatim_token+global_search"}], "candidate_count": 5, "zero_candidate": false}
{"pdf_atom_id": "ig34_p0003_a003", "pdf_atom_type": "CROSS_REF", "pdf_source": "SDTMIG_v3.4", "pdf_page": 3, "pdf_parent_section": "§0 [Table of Contents]", "pdf_verbatim": "4.2.8.2 Multiple Values for a Findings Result Variable ..............................................34", "figure_ref": null, "candidates": [{"md_atom_id": "md_ch04_a352", "md_file": "knowledge_base/chapters/ch04_general_assumptions.md", "md_atom_type": "HEADING", "md_parent_section": "§4.2.8 [Multiple Values for a Variable]", "md_verbatim": "#### 4.2.8.2 Multiple Values for a Findings Result Variable", "score": 0.69, "match_basis": "verbatim_token+global_search"}, {"md_atom_id": "md_ch04_a346", "md_file": "knowledge_base/chapters/ch04_general_assumptions.md", "md_atom_type": "HEADING", "md_parent_section": "§4.2 [General Variable Assumptions]", "md_verbatim": "### 4.2.8 Multiple Values for a Variable", "score": 0.4823, "match_basis": "verbatim_token+global_search"}, {"md_atom_id": "md_ch04_a359", "md_file": "knowledge_base/chapters/ch04_general_assumptions.md", "md_atom_type": "HEADING", "md_parent_section": "§4.2.8 [Multiple Values for a Variable]", "md_verbatim": "#### 4.2.8.3 Multiple Values for a Non-result Qualifier Variable", "score": 0.4429, "match_basis": "verbatim_token+global_search"}, {"md_atom_id": "md_ch04_a347", "md_file": "knowledge_base/chapters/ch04_general_assumptions.md", "md_atom_type": "HEADING", "md_parent_section": "§4.2.8 [Multiple Values for a Variable]", "md_verbatim": "#### 4.2.8.1 Multiple Values for an Intervention or Event Topic Variable", "score": 0.345, "match_basis": "verbatim_token+global_search"}, {"md_atom_id": "md_ch04_a296", "md_file": "knowledge_base/chapters/ch04_general_assumptions.md", "md_atom_type": "HEADING", "md_parent_section": "§4.2.7 [Submitting Free Text from the CRF]", "md_verbatim": "#### 4.2.7.2 \"Specify\" Values for Result Qualifier Variables", "score": 0.3208, "match_basis": "verbatim_token+global_search"}], "candidate_count": 5, "zero_candidate": false}
{"pdf_atom_id": "ig34_p0003_a004", "pdf_atom_type": "CROSS_REF", "pdf_source": "SDTMIG_v3.4", "pdf_page": 3, "pdf_parent_section": "§0 [Table of Contents]", "pdf_verbatim": "4.2.8.3 Multiple Values for a Non-result Qualifier Variable........................................35", "figure_ref": null, "candidates": [{"md_atom_id": "md_ch04_a359", "md_file": "knowledge_base/chapters/ch04_general_assumptions.md", "md_atom_type": "HEADING", "md_parent_section": "§4.2.8 [Multiple Values for a Variable]", "md_verbatim": "#### 4.2.8.3 Multiple Values for a Non-result Qualifier Variable", "score": 0.69, "match_basis": "verbatim_token+global_search"}, {"md_atom_id": "md_ch04_a261", "md_file": "knowledge_base/chapters/ch04_general_assumptions.md", "md_atom_type": "HEADING", "md_parent_section": "§4.2.7 [Submitting Free Text from the CRF]", "md_verbatim": "#### 4.2.7.1 \"Specify\" Values for Non-Result Qualifier Variables", "score": 0.4959, "match_basis": "verbatim_token+global_search"}, {"md_atom_id": "md_ch04_a296", "md_file": "knowledge_base/chapters/ch04_general_assumptions.md", "md_atom_type": "HEADING", "md_parent_section": "§4.2.7 [Submitting Free Text from the CRF]", "md_verbatim": "#### 4.2.7.2 \"Specify\" Values for Result Qualifier Variables", "score": 0.4782, "match_basis": "verbatim_token+global_search"}, {"md_atom_id": "md_ch04_a346", "md_file": "knowledge_base/chapters/ch04_general_assumptions.md", "md_atom_type": "HEADING", "md_parent_section": "§4.2 [General Variable Assumptions]", "md_verbatim": "### 4.2.8 Multiple Values for a Variable", "score": 0.4543, "match_basis": "verbatim_token+global_search"}, {"md_atom_id": "md_ch04_a352", "md_file": "knowledge_base/chapters/ch04_general_assumptions.md", "md_atom_type": "HEADING", "md_parent_section": "§4.2.8 [Multiple Values for a Variable]", "md_verbatim": "#### 4.2.8.2 Multiple Values for a Findings Result Variable", "score": 0.4429, "match_basis": "verbatim_token+global_search"}], "candidate_count": 5, "zero_candidate": false}
{"pdf_atom_id": "ig34_p0003_a005", "pdf_atom_type": "CROSS_REF", "pdf_source": "SDTMIG_v3.4", "pdf_page": 3, "pdf_parent_section": "§0 [Table of Contents]", "pdf_verbatim": "4.2.8.4 Multiple Values for a Parameter....................................................................36", "figure_ref": null, "candidates": [{"md_atom_id": "md_ch04_a400", "md_file": "knowledge_base/chapters/ch04_general_assumptions.md", "md_atom_type": "HEADING", "md_parent_section": "§4.2.8 [Multiple Values for a Variable]", "md_verbatim": "#### 4.2.8.4 Multiple Values for a Parameter", "score": 0.69, "match_basis": "verbatim_token+global_search"}, {"md_atom_id": "md_ch04_a346", "md_file": "knowledge_base/chapters/ch04_general_assumptions.md", "md_atom_type": "HEADING", "md_parent_section": "§4.2 [General Variable Assumptions]", "md_verbatim": "### 4.2.8 Multiple Values for a Variable", "score": 0.365, "match_basis": "verbatim_token+global_search"}, {"md_atom_id": "md_dmTA_assn_a012", "md_file": "knowledge_base/domains/TA/assumptions.md", "md_atom_type": "LIST_ITEM", "md_parent_section": "§TA [TA — Assumptions]", "md_verbatim": "10. EPOCH values for multiple similar epochs:", "score": 0.3344, "match_basis": "verbatim_token+global_search"}, {"md_atom_id": "md_model05_a055", "md_file": "knowledge_base/model/05_study_level_data.md", "md_atom_type": "TABLE_ROW", "md_parent_section": "§ Trial Sets (TX)", "md_verbatim": "| 8 | TXVAL | Parameter Value | Char | Result Qualifier |", "score": 0.2963, "match_basis": "verbatim_token+global_search"}, {"md_atom_id": "md_model05_a140", "md_file": "knowledge_base/model/05_study_level_data.md", "md_atom_type": "TABLE_ROW", "md_parent_section": "§ Trial Summary (TS)", "md_verbatim": "| 7 | TSVAL | Parameter Value | Char | Result Qualifier |", "score": 0.2963, "match_basis": "verbatim_token+global_search"}], "candidate_count": 5, "zero_candidate": false}
{"pdf_atom_id": "ig34_p0003_a006", "pdf_atom_type": "CROSS_REF", "pdf_source": "SDTMIG_v3.4", "pdf_page": 3, "pdf_parent_section": "§0 [Table of Contents]", "pdf_verbatim": "4.2.9 Variable Lengths ..............................................................................................36", "figure_ref": null, "candidates": [{"md_atom_id": "md_ch04_a407", "md_file": "knowledge_base/chapters/ch04_general_assumptions.md", "md_atom_type": "HEADING", "md_parent_section": "§4.2 [General Variable Assumptions]", "md_verbatim": "### 4.2.9 Variable Lengths", "score": 0.69, "match_basis": "verbatim_token+global_search"}, {"md_atom_id": "md_ch10_a134", "md_file": "knowledge_base/chapters/ch10_appendices.md", "md_atom_type": "TABLE_ROW", "md_parent_section": "§10.D [CDISC Variable-naming Fragments]", "md_verbatim": "| | | | VARIABLE | VAR |", "score": 0.4173, "match_basis": "verbatim_token+global_search"}, {"md_atom_id": "md_model06_a017", "md_file": "knowledge_base/model/06_relationship_datasets.md", "md_atom_type": "HEADING", "md_parent_section": "§6.1 Related Records (RELREC)", "md_verbatim": "### Variables (10 variables)", "score": 0.39, "match_basis": "verbatim_token+global_search"}, {"md_atom_id": "md_model06_a038", "md_file": "knowledge_base/model/06_relationship_datasets.md", "md_atom_type": "HEADING", "md_parent_section": "§6.2 Supplemental Qualifiers (SUPP--)", "md_verbatim": "### Variables (13 variables)", "score": 0.39, "match_basis": "verbatim_token+global_search"}, {"md_atom_id": "md_model03_a013", "md_file": "knowledge_base/model/03_special_purpose_domains.md", "md_atom_type": "HEADING", "md_parent_section": "§ Demographics (DM) > Variables (38 variables)", "md_verbatim": "### Variables (38 variables)", "score": 0.39, "match_basis": "verbatim_token+global_search"}], "candidate_count": 5, "zero_candidate": false}
{"pdf_atom_id": "ig34_p0003_a007", "pdf_atom_type": "CROSS_REF", "pdf_source": "SDTMIG_v3.4", "pdf_page": 3, "pdf_parent_section": "§0 [Table of Contents]", "pdf_verbatim": "4.3 CODING AND CONTROLLED TERMINOLOGY ASSUMPTIONS ............................................36", "figure_ref": null, "candidates": [{"md_atom_id": "md_ch04_a417", "md_file": "knowledge_base/chapters/ch04_general_assumptions.md", "md_atom_type": "HEADING", "md_parent_section": "§4 [General Assumptions]", "md_verbatim": "## 4.3 Coding and Controlled Terminology Assumptions", "score": 0.69, "match_basis": "verbatim_token+global_search"}, {"md_atom_id": "md_ch01_a030", "md_file": "knowledge_base/chapters/ch01_introduction.md", "md_atom_type": "SENTENCE", "md_parent_section": "§1.3 [Relationship to Prior CDISC Documents]", "md_verbatim": "See Section 4.3, Coding and Controlled Terminology Assumptions, for the most up-to-date information on applying Controlled Terminology.", "score": 0.4477, "match_basis": "verbatim_token+global_search"}, {"md_atom_id": "md_ch04_a995", "md_file": "knowledge_base/chapters/ch04_general_assumptions.md", "md_atom_type": "SENTENCE", "md_parent_section": "§4.5.7 [Presence or Absence of Prespecified Interventions and Events]", "md_verbatim": "It has controlled terminology of \"Y\" and \"N\" (for \"Yes\" and \"No\").", "score": 0.4076, "match_basis": "verbatim_token+global_search"}, {"md_atom_id": "md_varindex_a008", "md_file": "knowledge_base/VARIABLE_INDEX.md", "md_atom_type": "LIST_ITEM", "md_parent_section": "§ 使用说明", "md_verbatim": "- **CT 交叉引用**：按 CDISC Controlled Terminology Code 分组，列出所有引用该 CT 的变量", "score": 0.3986, "match_basis": "verbatim_token+global_search"}, {"md_atom_id": "md_varindex_a1662", "md_file": "knowledge_base/VARIABLE_INDEX.md", "md_atom_type": "HEADING", "md_parent_section": "§ SDTM Variable Index", "md_verbatim": "## 三、CDISC Controlled Terminology 交叉引用（共 135 个 CT Code）", "score": 0.39, "match_basis": "verbatim_token+global_search"}], "candidate_count": 5, "zero_candidate": false}
{"pdf_atom_id": "ig34_p0003_a008", "pdf_atom_type": "CROSS_REF", "pdf_source": "SDTMIG_v3.4", "pdf_page": 3, "pdf_parent_section": "§0 [Table of Contents]", "pdf_verbatim": "4.3.1 Controlled Terms, Codelist or Format Column ..................................................36", "figure_ref": null, "candidates": [{"md_atom_id": "md_ch04_a419", "md_file": "knowledge_base/chapters/ch04_general_assumptions.md", "md_atom_type": "HEADING", "md_parent_section": "§4.3 [Coding and Controlled Terminology Assumptions]", "md_verbatim": "### 4.3.1 Controlled Terms, Codelist or Format Column", "score": 0.69, "match_basis": "verbatim_token+global_search"}, {"md_atom_id": "md_ch04_a425", "md_file": "knowledge_base/chapters/ch04_general_assumptions.md", "md_atom_type": "SENTENCE", "md_parent_section": "§4.3.1 [Controlled Terms, Codelist or Format Column]", "md_verbatim": "In addition, the Controlled Terms, Codelist or Format column has been used to indicate variables that use an ISO 8601 format.", "score": 0.3627, "match_basis": "verbatim_token+global_search"}, {"md_atom_id": "md_ch08_a072", "md_file": "knowledge_base/chapters/ch08_relationships.md", "md_atom_type": "TABLE_HEADER", "md_parent_section": "§8.2.1 [Related Records (RELREC)]", "md_verbatim": "| Variable Name | Variable Label | Type | Controlled Terms, Codelist or Format | Role | CDISC Notes | Core |\n|--------------|----------------|------|--------------------------------------|------|-------------|------|", "score": 0.3581, "match_basis": "verbatim_token+global_search"}, {"md_atom_id": "md_ch08_a157", "md_file": "knowledge_base/chapters/ch08_relationships.md", "md_atom_type": "TABLE_HEADER", "md_parent_section": "§8.4.1 [Supplemental Qualifiers (SUPP--)]", "md_verbatim": "| Variable Name | Variable Label | Type | Controlled Terms, Codelist or Format | Role | CDISC Notes | Core |\n|--------------|----------------|------|--------------------------------------|------|-------------|------|", "score": 0.3581, "match_basis": "verbatim_token+global_search"}, {"md_atom_id": "md_ch08_a320", "md_file": "knowledge_base/chapters/ch08_relationships.md", "md_atom_type": "TABLE_HEADER", "md_parent_section": "§8.8 [Related Specimens (RELSPEC)]", "md_verbatim": "| Variable Name | Variable Label | Type | Controlled Terms, Codelist or Format | Role | CDISC Notes | Core |\n|--------------|----------------|------|--------------------------------------|------|-------------|------|", "score": 0.3581, "match_basis": "verbatim_token+global_search"}], "candidate_count": 5, "zero_candidate": false}
{"pdf_atom_id": "ig34_p0003_a009", "pdf_atom_type": "CROSS_REF", "pdf_source": "SDTMIG_v3.4", "pdf_page": 3, "pdf_parent_section": "§0 [Table of Contents]", "pdf_verbatim": "4.3.2 Controlled Terminology Text Case ....................................................................37", "figure_ref": null, "candidates": [{"md_atom_id": "md_ch04_a426", "md_file": "knowledge_base/chapters/ch04_general_assumptions.md", "md_atom_type": "HEADING", "md_parent_section": "§4.3 [Coding and Controlled Terminology Assumptions]", "md_verbatim": "### 4.3.2 Controlled Terminology Text Case", "score": 0.69, "match_basis": "verbatim_token+global_search"}, {"md_atom_id": "md_ch04_a429", "md_file": "knowledge_base/chapters/ch04_general_assumptions.md", "md_atom_type": "HEADING", "md_parent_section": "§4.3 [Coding and Controlled Terminology Assumptions]", "md_verbatim": "### 4.3.3 Controlled Terminology Values", "score": 0.498, "match_basis": "verbatim_token+global_search"}, {"md_atom_id": "md_ch04_a995", "md_file": "knowledge_base/chapters/ch04_general_assumptions.md", "md_atom_type": "SENTENCE", "md_parent_section": "§4.5.7 [Presence or Absence of Prespecified Interventions and Events]", "md_verbatim": "It has controlled terminology of \"Y\" and \"N\" (for \"Yes\" and \"No\").", "score": 0.498, "match_basis": "verbatim_token+global_search"}, {"md_atom_id": "md_varindex_a008", "md_file": "knowledge_base/VARIABLE_INDEX.md", "md_atom_type": "LIST_ITEM", "md_parent_section": "§ 使用说明", "md_verbatim": "- **CT 交叉引用**：按 CDISC Controlled Terminology Code 分组，列出所有引用该 CT 的变量", "score": 0.4823, "match_basis": "verbatim_token+global_search"}, {"md_atom_id": "md_ch10_a053", "md_file": "knowledge_base/chapters/ch10_appendices.md", "md_atom_type": "HEADING", "md_parent_section": "§10 [Appendices]", "md_verbatim": "## Appendix C: Controlled Terminology", "score": 0.4678, "match_basis": "verbatim_token+global_search"}], "candidate_count": 5, "zero_candidate": false}
{"pdf_atom_id": "ig34_p0003_a010", "pdf_atom_type": "CROSS_REF", "pdf_source": "SDTMIG_v3.4", "pdf_page": 3, "pdf_parent_section": "§0 [Table of Contents]", "pdf_verbatim": "4.3.3 Controlled Terminology Values ..........................................................................37", "figure_ref": null, "candidates": [{"md_atom_id": "md_ch04_a429", "md_file": "knowledge_base/chapters/ch04_general_assumptions.md", "md_atom_type": "HEADING", "md_parent_section": "§4.3 [Coding and Controlled Terminology Assumptions]", "md_verbatim": "### 4.3.3 Controlled Terminology Values", "score": 0.69, "match_basis": "verbatim_token+global_search"}, {"md_atom_id": "md_ch04_a991", "md_file": "knowledge_base/chapters/ch04_general_assumptions.md", "md_atom_type": "SENTENCE", "md_parent_section": "§4.5.7 [Presence or Absence of Prespecified Interventions and Events]", "md_verbatim": "It has controlled terminology of \"Y\" (for \"Yes\") or a null value.", "score": 0.5515, "match_basis": "verbatim_token+global_search"}, {"md_atom_id": "md_ch04_a426", "md_file": "knowledge_base/chapters/ch04_general_assumptions.md", "md_atom_type": "HEADING", "md_parent_section": "§4.3 [Coding and Controlled Terminology Assumptions]", "md_verbatim": "### 4.3.2 Controlled Terminology Text Case", "score": 0.498, "match_basis": "verbatim_token+global_search"}, {"md_atom_id": "md_ch04_a995", "md_file": "knowledge_base/chapters/ch04_general_assumptions.md", "md_atom_type": "SENTENCE", "md_parent_section": "§4.5.7 [Presence or Absence of Prespecified Interventions and Events]", "md_verbatim": "It has controlled terminology of \"Y\" and \"N\" (for \"Yes\" and \"No\").", "score": 0.498, "match_basis": "verbatim_token+global_search"}, {"md_atom_id": "md_varindex_a008", "md_file": "knowledge_base/VARIABLE_INDEX.md", "md_atom_type": "LIST_ITEM", "md_parent_section": "§ 使用说明", "md_verbatim": "- **CT 交叉引用**：按 CDISC Controlled Terminology Code 分组，列出所有引用该 CT 的变量", "score": 0.4823, "match_basis": "verbatim_token+global_search"}], "candidate_count": 5, "zero_candidate": false}
{"pdf_atom_id": "ig34_p0003_a011", "pdf_atom_type": "CROSS_REF", "pdf_source": "SDTMIG_v3.4", "pdf_page": 3, "pdf_parent_section": "§0 [Table of Contents]", "pdf_verbatim": "4.3.4 Use of Controlled Terminology and Arbitrary Number Codes ............................37", "figure_ref": null, "candidates": [{"md_atom_id": "md_ch04_a437", "md_file": "knowledge_base/chapters/ch04_general_assumptions.md", "md_atom_type": "HEADING", "md_parent_section": "§4.3 [Coding and Controlled Terminology Assumptions]", "md_verbatim": "### 4.3.4 Use of Controlled Terminology and Arbitrary Number Codes", "score": 0.69, "match_basis": "verbatim_token+global_search"}, {"md_atom_id": "md_varindex_a008", "md_file": "knowledge_base/VARIABLE_INDEX.md", "md_atom_type": "LIST_ITEM", "md_parent_section": "§ 使用说明", "md_verbatim": "- **CT 交叉引用**：按 CDISC Controlled Terminology Code 分组，列出所有引用该 CT 的变量", "score": 0.4067, "match_basis": "verbatim_token+global_search"}, {"md_atom_id": "md_varindex_a1662", "md_file": "knowledge_base/VARIABLE_INDEX.md", "md_atom_type": "HEADING", "md_parent_section": "§ SDTM Variable Index", "md_verbatim": "## 三、CDISC Controlled Terminology 交叉引用（共 135 个 CT Code）", "score": 0.3981, "match_basis": "verbatim_token+global_search"}, {"md_atom_id": "md_ch04_a995", "md_file": "knowledge_base/chapters/ch04_general_assumptions.md", "md_atom_type": "SENTENCE", "md_parent_section": "§4.5.7 [Presence or Absence of Prespecified Interventions and Events]", "md_verbatim": "It has controlled terminology of \"Y\" and \"N\" (for \"Yes\" and \"No\").", "score": 0.39, "match_basis": "verbatim_token+global_search"}, {"md_atom_id": "md_ch04_a426", "md_file": "knowledge_base/chapters/ch04_general_assumptions.md", "md_atom_type": "HEADING", "md_parent_section": "§4.3 [Coding and Controlled Terminology Assumptions]", "md_verbatim": "### 4.3.2 Controlled Terminology Text Case", "score": 0.3657, "match_basis": "verbatim_token+global_search"}], "candidate_count": 5, "zero_candidate": false}
{"pdf_atom_id": "ig34_p0003_a012", "pdf_atom_type": "CROSS_REF", "pdf_source": "SDTMIG_v3.4", "pdf_page": 3, "pdf_parent_section": "§0 [Table of Contents]", "pdf_verbatim": "4.3.5 Storing Controlled Terminology for Synonym Qualifier Variables ......................37", "figure_ref": null, "candidates": [{"md_atom_id": "md_ch04_a441", "md_file": "knowledge_base/chapters/ch04_general_assumptions.md", "md_atom_type": "HEADING", "md_parent_section": "§4.3 [Coding and Controlled Terminology Assumptions]", "md_verbatim": "### 4.3.5 Storing Controlled Terminology for Synonym Qualifier Variables (MedDRA and WHODrug)", "score": 0.5746, "match_basis": "verbatim_token+global_search"}, {"md_atom_id": "md_model04_a013", "md_file": "knowledge_base/model/04_associated_persons.md", "md_atom_type": "LIST_ITEM", "md_parent_section": "§4 [SDTM v2.0 — Chapter 4: Associated Persons Data]", "md_verbatim": "- The same variables, roles, and controlled terminology apply", "score": 0.378, "match_basis": "verbatim_token+global_search"}, {"md_atom_id": "md_model01_a066", "md_file": "knowledge_base/model/01_concepts_and_terms.md", "md_atom_type": "TABLE_ROW", "md_parent_section": "§2.2 [Table Structure]", "md_verbatim": "| **Variable(s) Qualified** | For variables with a role of Variable Qualifier or Synonym Qualifier |", "score": 0.3639, "match_basis": "verbatim_token+global_search"}, {"md_atom_id": "md_model03_a036", "md_file": "knowledge_base/model/03_special_purpose_domains.md", "md_atom_type": "TABLE_ROW", "md_parent_section": "§ Demographics (DM) > Variables (38 variables)", "md_verbatim": "| 22 | SEX | Sex | Char | Record Qualifier | Subject to controlled terminology |", "score": 0.3567, "match_basis": "verbatim_token+global_search"}, {"md_atom_id": "md_ch04_a416", "md_file": "knowledge_base/chapters/ch04_general_assumptions.md", "md_atom_type": "LIST_ITEM", "md_parent_section": "§4.2.9 [Variable Lengths]", "md_verbatim": "    - The length for variables that use controlled terminology can be set to the length of the longest term.", "score": 0.3532, "match_basis": "verbatim_token+global_search"}], "candidate_count": 5, "zero_candidate": false}
{"pdf_atom_id": "ig34_p0003_a013", "pdf_atom_type": "CROSS_REF", "pdf_source": "SDTMIG_v3.4", "pdf_page": 3, "pdf_parent_section": "§0 [Table of Contents]", "pdf_verbatim": "4.3.6 Storing Topic Variables for General Domain Models..........................................37", "figure_ref": null, "candidates": [{"md_atom_id": "md_ch04_a452", "md_file": "knowledge_base/chapters/ch04_general_assumptions.md", "md_atom_type": "HEADING", "md_parent_section": "§4.3 [Coding and Controlled Terminology Assumptions]", "md_verbatim": "### 4.3.6 Storing Topic Variables for General Domain Models", "score": 0.69, "match_basis": "verbatim_token+global_search"}, {"md_atom_id": "md_ch04_a454", "md_file": "knowledge_base/chapters/ch04_general_assumptions.md", "md_atom_type": "SENTENCE", "md_parent_section": "§4.3.6 [Storing Topic Variables for General Domain Models]", "md_verbatim": "For an Events domain, the topic variable is --TERM.", "score": 0.3233, "match_basis": "verbatim_token+global_search"}, {"md_atom_id": "md_model02_a129", "md_file": "knowledge_base/model/02_observation_classes.md", "md_atom_type": "NOTE", "md_parent_section": "§3.1.3 > Topic and Qualifier Variables (100 variables)", "md_verbatim": "**Topic Variables:**", "score": 0.2969, "match_basis": "verbatim_token+global_search"}, {"md_atom_id": "md_ch04_a455", "md_file": "knowledge_base/chapters/ch04_general_assumptions.md", "md_atom_type": "SENTENCE", "md_parent_section": "§4.3.6 [Storing Topic Variables for General Domain Models]", "md_verbatim": "For an Interventions domain, the topic variable is --TRT.", "score": 0.29, "match_basis": "verbatim_token+global_search"}, {"md_atom_id": "md_ch04_a453", "md_file": "knowledge_base/chapters/ch04_general_assumptions.md", "md_atom_type": "SENTENCE", "md_parent_section": "§4.3.6 [Storing Topic Variables for General Domain Models]", "md_verbatim": "The topic variable for the Interventions and Events general observation-class models is often stored as verbatim text.", "score": 0.2838, "match_basis": "verbatim_token+global_search"}], "candidate_count": 5, "zero_candidate": false}
{"pdf_atom_id": "ig34_p0003_a014", "pdf_atom_type": "CROSS_REF", "pdf_source": "SDTMIG_v3.4", "pdf_page": 3, "pdf_parent_section": "§0 [Table of Contents]", "pdf_verbatim": "4.3.7 Use of \"Yes\" and \"No\" Values .........................................................................38", "figure_ref": null, "candidates": [{"md_atom_id": "md_ch04_a467", "md_file": "knowledge_base/chapters/ch04_general_assumptions.md", "md_atom_type": "HEADING", "md_parent_section": "§4.3 [Coding and Controlled Terminology Assumptions]", "md_verbatim": "### 4.3.7 Use of \"Yes\" and \"No\" Values", "score": 0.69, "match_basis": "verbatim_token+global_search"}, {"md_atom_id": "md_ch10_a133", "md_file": "knowledge_base/chapters/ch10_appendices.md", "md_atom_type": "TABLE_ROW", "md_parent_section": "§10.D [CDISC Variable-naming Fragments]", "md_verbatim": "| | | | VALUE | VAL |", "score": 0.3471, "match_basis": "verbatim_token+global_search"}, {"md_atom_id": "md_dmPC_ex_a382", "md_file": "knowledge_base/domains/PC/examples.md", "md_atom_type": "SENTENCE", "md_parent_section": "§PC.2.7 [Example 4 (Complex exclusions)]", "md_verbatim": "Method D uses only PCSEQ and PPSEQ values.", "score": 0.2795, "match_basis": "verbatim_token+global_search"}, {"md_atom_id": "md_ch04_a1028", "md_file": "knowledge_base/chapters/ch04_general_assumptions.md", "md_atom_type": "HEADING", "md_parent_section": "§4.5 [Other Assumptions]", "md_verbatim": "### 4.5.9 Baseline Values", "score": 0.2746, "match_basis": "verbatim_token+global_search"}, {"md_atom_id": "md_ch04_a341", "md_file": "knowledge_base/chapters/ch04_general_assumptions.md", "md_atom_type": "HEADING", "md_parent_section": "§4.2.7 [Submitting Free Text from the CRF]", "md_verbatim": "#### 4.2.7.4 \"Specify\" Values for --OBJ", "score": 0.2614, "match_basis": "verbatim_token+global_search"}], "candidate_count": 5, "zero_candidate": false}
{"pdf_atom_id": "ig34_p0003_a015", "pdf_atom_type": "CROSS_REF", "pdf_source": "SDTMIG_v3.4", "pdf_page": 3, "pdf_parent_section": "§0 [Table of Contents]", "pdf_verbatim": "4.4 ACTUAL AND RELATIVE TIME ASSUMPTIONS................................................................38", "figure_ref": null, "candidates": [{"md_atom_id": "md_ch04_a474", "md_file": "knowledge_base/chapters/ch04_general_assumptions.md", "md_atom_type": "HEADING", "md_parent_section": "§4 [General Assumptions]", "md_verbatim": "## 4.4 Actual and Relative Time Assumptions", "score": 0.69, "match_basis": "verbatim_token+global_search"}, {"md_atom_id": "md_dmCM_assn_a001", "md_file": "knowledge_base/domains/CM/assumptions.md", "md_atom_type": "HEADING", "md_parent_section": "§CM [CM — Assumptions]", "md_verbatim": "# CM — Assumptions", "score": 0.3355, "match_basis": "verbatim_token+global_search"}, {"md_atom_id": "md_ch08_a283", "md_file": "knowledge_base/chapters/ch08_relationships.md", "md_atom_type": "HEADING", "md_parent_section": "§8.7 [Related Subjects (RELSUB)]", "md_verbatim": "### Assumptions", "score": 0.3355, "match_basis": "verbatim_token+global_search"}, {"md_atom_id": "md_ch08_a327", "md_file": "knowledge_base/chapters/ch08_relationships.md", "md_atom_type": "HEADING", "md_parent_section": "§8.8 [Related Specimens (RELSPEC)]", "md_verbatim": "### Assumptions", "score": 0.3355, "match_basis": "verbatim_token+global_search"}, {"md_atom_id": "md_dmAE_assn_a001", "md_file": "knowledge_base/domains/AE/assumptions.md", "md_atom_type": "HEADING", "md_parent_section": "§AE [AE — Assumptions]", "md_verbatim": "# AE — Assumptions", "score": 0.3355, "match_basis": "verbatim_token+global_search"}], "candidate_count": 5, "zero_candidate": false}
{"pdf_atom_id": "ig34_p0003_a016", "pdf_atom_type": "CROSS_REF", "pdf_source": "SDTMIG_v3.4", "pdf_page": 3, "pdf_parent_section": "§0 [Table of Contents]", "pdf_verbatim": "4.4.1 Formats for Date/Time Variables ......................................................................38", "figure_ref": null, "candidates": [{"md_atom_id": "md_ch04_a481", "md_file": "knowledge_base/chapters/ch04_general_assumptions.md", "md_atom_type": "HEADING", "md_parent_section": "§4.4 [Actual and Relative Time Assumptions]", "md_verbatim": "### 4.4.1 Formats for Date/Time Variables", "score": 0.69, "match_basis": "verbatim_token+global_search"}, {"md_atom_id": "md_model02_a194", "md_file": "knowledge_base/model/02_observation_classes.md", "md_atom_type": "HEADING", "md_parent_section": "§3.1.5 > Date/Time Variables", "md_verbatim": "### Date/Time Variables", "score": 0.5025, "match_basis": "verbatim_token+global_search"}, {"md_atom_id": "md_model02_a216", "md_file": "knowledge_base/model/02_observation_classes.md", "md_atom_type": "HEADING", "md_parent_section": "§3.1.5 > Time Point Variables", "md_verbatim": "### Time Point Variables", "score": 0.3742, "match_basis": "verbatim_token+global_search"}, {"md_atom_id": "md_model06_a017", "md_file": "knowledge_base/model/06_relationship_datasets.md", "md_atom_type": "HEADING", "md_parent_section": "§6.1 Related Records (RELREC)", "md_verbatim": "### Variables (10 variables)", "score": 0.3525, "match_basis": "verbatim_token+global_search"}, {"md_atom_id": "md_model06_a038", "md_file": "knowledge_base/model/06_relationship_datasets.md", "md_atom_type": "HEADING", "md_parent_section": "§6.2 Supplemental Qualifiers (SUPP--)", "md_verbatim": "### Variables (13 variables)", "score": 0.3525, "match_basis": "verbatim_token+global_search"}], "candidate_count": 5, "zero_candidate": false}
{"pdf_atom_id": "ig34_p0003_a017", "pdf_atom_type": "CROSS_REF", "pdf_source": "SDTMIG_v3.4", "pdf_page": 3, "pdf_parent_section": "§0 [Table of Contents]", "pdf_verbatim": "4.4.2 Date/Time Precision .........................................................................................39", "figure_ref": null, "candidates": [{"md_atom_id": "md_ch04_a509", "md_file": "knowledge_base/chapters/ch04_general_assumptions.md", "md_atom_type": "HEADING", "md_parent_section": "§4.4 [Actual and Relative Time Assumptions]", "md_verbatim": "### 4.4.2 Date/Time Precision", "score": 0.69, "match_basis": "verbatim_token+global_search"}, {"md_atom_id": "md_ch04_a518", "md_file": "knowledge_base/chapters/ch04_general_assumptions.md", "md_atom_type": "TABLE_HEADER", "md_parent_section": "§4.4.2 [Date/Time Precision]", "md_verbatim": "| # | Date and Time as Originally Recorded | Precision | ISO 8601 Date/Time |\n|---|--------------------------------------|-----------|-------------------|", "score": 0.3257, "match_basis": "verbatim_token+global_search"}, {"md_atom_id": "md_ch04_a510", "md_file": "knowledge_base/chapters/ch04_general_assumptions.md", "md_atom_type": "SENTENCE", "md_parent_section": "§4.4.2 [Date/Time Precision]", "md_verbatim": "The concept of representing date/time precision is handled through use of the ISO 8601 standard.", "score": 0.2367, "match_basis": "verbatim_token+global_search"}, {"md_atom_id": "md_model02_a194", "md_file": "knowledge_base/model/02_observation_classes.md", "md_atom_type": "HEADING", "md_parent_section": "§3.1.5 > Date/Time Variables", "md_verbatim": "### Date/Time Variables", "score": 0.2233, "match_basis": "verbatim_token+global_search"}, {"md_atom_id": "md_model03_a142", "md_file": "knowledge_base/model/03_special_purpose_domains.md", "md_atom_type": "TABLE_ROW", "md_parent_section": "§ Subject Visits (SV) > Variables (16 variables)", "md_verbatim": "| 13 | SVENDTC | End Date/Time of Visit | Char | Timing | |", "score": 0.2204, "match_basis": "verbatim_token+global_search"}], "candidate_count": 5, "zero_candidate": false}
{"pdf_atom_id": "ig34_p0003_a018", "pdf_atom_type": "CROSS_REF", "pdf_source": "SDTMIG_v3.4", "pdf_page": 3, "pdf_parent_section": "§0 [Table of Contents]", "pdf_verbatim": "4.4.3 Intervals of Time and Use of Duration for --DUR Variables .............................40", "figure_ref": null, "candidates": [{"md_atom_id": "md_ch04_a546", "md_file": "knowledge_base/chapters/ch04_general_assumptions.md", "md_atom_type": "HEADING", "md_parent_section": "§4.4 [Actual and Relative Time Assumptions]", "md_verbatim": "### 4.4.3 Intervals of Time and Use of Duration for --DUR Variables", "score": 0.69, "match_basis": "verbatim_token+global_search"}, {"md_atom_id": "md_ch04_a547", "md_file": "knowledge_base/chapters/ch04_general_assumptions.md", "md_atom_type": "HEADING", "md_parent_section": "§4.4.3 [Intervals of Time and Use of Duration for --DUR Variables]", "md_verbatim": "#### 4.4.3.1 Intervals of Time and Use of Duration", "score": 0.498, "match_basis": "verbatim_token+global_search"}, {"md_atom_id": "md_ch02_a003", "md_file": "knowledge_base/chapters/ch02_fundamentals.md", "md_atom_type": "HEADING", "md_parent_section": "§2 [Fundamentals of the SDTM]", "md_verbatim": "## 2.1 Observations and Variables", "score": 0.35, "match_basis": "verbatim_token+global_search"}, {"md_atom_id": "md_model02_a238", "md_file": "knowledge_base/model/02_observation_classes.md", "md_atom_type": "HEADING", "md_parent_section": "§3.1.5 > Assessment Interval and Other Timing Variables", "md_verbatim": "### Assessment Interval and Other Timing Variables", "score": 0.3208, "match_basis": "verbatim_token+global_search"}, {"md_atom_id": "md_model02_a216", "md_file": "knowledge_base/model/02_observation_classes.md", "md_atom_type": "HEADING", "md_parent_section": "§3.1.5 > Time Point Variables", "md_verbatim": "### Time Point Variables", "score": 0.3122, "match_basis": "verbatim_token+global_search"}], "candidate_count": 5, "zero_candidate": false}
{"pdf_atom_id": "ig34_p0003_a019", "pdf_atom_type": "CROSS_REF", "pdf_source": "SDTMIG_v3.4", "pdf_page": 3, "pdf_parent_section": "§0 [Table of Contents]", "pdf_verbatim": "4.4.3.1 Intervals of Time and Use of Duration .........................................................40", "figure_ref": null, "candidates": [{"md_atom_id": "md_ch04_a547", "md_file": "knowledge_base/chapters/ch04_general_assumptions.md", "md_atom_type": "HEADING", "md_parent_section": "§4.4.3 [Intervals of Time and Use of Duration for --DUR Variables]", "md_verbatim": "#### 4.4.3.1 Intervals of Time and Use of Duration", "score": 0.69, "match_basis": "verbatim_token+global_search"}, {"md_atom_id": "md_ch04_a546", "md_file": "knowledge_base/chapters/ch04_general_assumptions.md", "md_atom_type": "HEADING", "md_parent_section": "§4.4 [Actual and Relative Time Assumptions]", "md_verbatim": "### 4.4.3 Intervals of Time and Use of Duration for --DUR Variables", "score": 0.498, "match_basis": "verbatim_token+global_search"}, {"md_atom_id": "md_model02_a227", "md_file": "knowledge_base/model/02_observation_classes.md", "md_atom_type": "TABLE_ROW", "md_parent_section": "§3.1.5 > Relative Timing Variables", "md_verbatim": "| 35 | --EVLINT | Evaluation Interval | Char | ISO 8601 duration or interval |", "score": 0.3383, "match_basis": "verbatim_token+global_search"}, {"md_atom_id": "md_varindex_a1003", "md_file": "knowledge_base/VARIABLE_INDEX.md", "md_atom_type": "TABLE_ROW", "md_parent_section": "§ 二、领域专属变量（仅 1 个域，共 1499 个），按域分组", "md_verbatim": "| MSEVLINT | Evaluation Interval | Char | Timing | Perm | ISO 8601 duration or interval |", "score": 0.3067, "match_basis": "verbatim_token+global_search"}, {"md_atom_id": "md_varindex_a1125", "md_file": "knowledge_base/VARIABLE_INDEX.md", "md_atom_type": "TABLE_ROW", "md_parent_section": "§ 二、领域专属变量（仅 1 个域，共 1499 个），按域分组", "md_verbatim": "| PCEVLINT | Evaluation Interval | Char | Timing | Perm | ISO 8601 duration or interval |", "score": 0.3067, "match_basis": "verbatim_token+global_search"}], "candidate_count": 5, "zero_candidate": false}
{"pdf_atom_id": "ig34_p0003_a020", "pdf_atom_type": "CROSS_REF", "pdf_source": "SDTMIG_v3.4", "pdf_page": 3, "pdf_parent_section": "§0 [Table of Contents]", "pdf_verbatim": "4.4.3.2 Interval with Uncertainty..............................................................................41", "figure_ref": null, "candidates": [{"md_atom_id": "md_ch04_a591", "md_file": "knowledge_base/chapters/ch04_general_assumptions.md", "md_atom_type": "HEADING", "md_parent_section": "§4.4.3 [Intervals of Time and Use of Duration for --DUR Variables]", "md_verbatim": "#### 4.4.3.2 Interval with Uncertainty", "score": 0.69, "match_basis": "verbatim_token+global_search"}, {"md_atom_id": "md_ch04_a528", "md_file": "knowledge_base/chapters/ch04_general_assumptions.md", "md_atom_type": "TABLE_HEADER", "md_parent_section": "§4.4.2 [Date/Time Precision]", "md_verbatim": "| # | Interval of Uncertainty | ISO 8601 Date/Time |\n|---|------------------------|-------------------|", "score": 0.4552, "match_basis": "verbatim_token+global_search"}, {"md_atom_id": "md_ch04_a533", "md_file": "knowledge_base/chapters/ch04_general_assumptions.md", "md_atom_type": "SENTENCE", "md_parent_section": "§4.4.2 [Date/Time Precision]", "md_verbatim": "Other uncertainty intervals may be represented by the omission of components of the date when these components are unknown or missing.", "score": 0.2427, "match_basis": "verbatim_token+global_search"}, {"md_atom_id": "md_ch04_a691", "md_file": "knowledge_base/chapters/ch04_general_assumptions.md", "md_atom_type": "TABLE_ROW", "md_parent_section": "§4.4.8 [Date and Time Reported in a Domain Based on Findings]", "md_verbatim": "| Interval Collection | X | | X |", "score": 0.24, "match_basis": "verbatim_token+global_search"}, {"md_atom_id": "md_ch04_a547", "md_file": "knowledge_base/chapters/ch04_general_assumptions.md", "md_atom_type": "HEADING", "md_parent_section": "§4.4.3 [Intervals of Time and Use of Duration for --DUR Variables]", "md_verbatim": "#### 4.4.3.1 Intervals of Time and Use of Duration", "score": 0.2233, "match_basis": "verbatim_token+global_search"}], "candidate_count": 5, "zero_candidate": false}
{"pdf_atom_id": "ig34_p0003_a021", "pdf_atom_type": "CROSS_REF", "pdf_source": "SDTMIG_v3.4", "pdf_page": 3, "pdf_parent_section": "§0 [Table of Contents]", "pdf_verbatim": "4.4.4 Use of the Study Day Variables .........................................................................41", "figure_ref": null, "candidates": [{"md_atom_id": "md_model02_a199", "md_file": "knowledge_base/model/02_observation_classes.md", "md_atom_type": "HEADING", "md_parent_section": "§3.1.5 > Study Day Variables", "md_verbatim": "### Study Day Variables", "score": 0.5977, "match_basis": "verbatim_token+global_search"}, {"md_atom_id": "md_ch04_a599", "md_file": "knowledge_base/chapters/ch04_general_assumptions.md", "md_atom_type": "HEADING", "md_parent_section": "§4.4 [Actual and Relative Time Assumptions]", "md_verbatim": "### 4.4.4 Study Day Variables", "score": 0.5977, "match_basis": "verbatim_token+global_search"}, {"md_atom_id": "md_model06_a017", "md_file": "knowledge_base/model/06_relationship_datasets.md", "md_atom_type": "HEADING", "md_parent_section": "§6.1 Related Records (RELREC)", "md_verbatim": "### Variables (10 variables)", "score": 0.4131, "match_basis": "verbatim_token+global_search"}, {"md_atom_id": "md_model06_a038", "md_file": "knowledge_base/model/06_relationship_datasets.md", "md_atom_type": "HEADING", "md_parent_section": "§6.2 Supplemental Qualifiers (SUPP--)", "md_verbatim": "### Variables (13 variables)", "score": 0.4131, "match_basis": "verbatim_token+global_search"}, {"md_atom_id": "md_model03_a013", "md_file": "knowledge_base/model/03_special_purpose_domains.md", "md_atom_type": "HEADING", "md_parent_section": "§ Demographics (DM) > Variables (38 variables)", "md_verbatim": "### Variables (38 variables)", "score": 0.4131, "match_basis": "verbatim_token+global_search"}], "candidate_count": 5, "zero_candidate": false}
{"pdf_atom_id": "ig34_p0003_a022", "pdf_atom_type": "CROSS_REF", "pdf_source": "SDTMIG_v3.4", "pdf_page": 3, "pdf_parent_section": "§0 [Table of Contents]", "pdf_verbatim": "4.4.5 Clinical Encounters and Visits ..........................................................................42", "figure_ref": null, "candidates": [{"md_atom_id": "md_ch04_a605", "md_file": "knowledge_base/chapters/ch04_general_assumptions.md", "md_atom_type": "HEADING", "md_parent_section": "§4.4 [Actual and Relative Time Assumptions]", "md_verbatim": "### 4.4.5 Clinical Encounters and Visits", "score": 0.69, "match_basis": "verbatim_token+global_search"}, {"md_atom_id": "md_varindex_a178", "md_file": "knowledge_base/VARIABLE_INDEX.md", "md_atom_type": "HEADING", "md_parent_section": "§ 二、领域专属变量（仅 1 个域，共 1499 个），按域分组", "md_verbatim": "### CE — Clinical Events (Events)", "score": 0.2465, "match_basis": "verbatim_token+global_search"}, {"md_atom_id": "md_varindex_a654", "md_file": "knowledge_base/VARIABLE_INDEX.md", "md_atom_type": "HEADING", "md_parent_section": "§ 二、领域专属变量（仅 1 个域，共 1499 个），按域分组", "md_verbatim": "### HO — Healthcare Encounters (Events)", "score": 0.2448, "match_basis": "verbatim_token+global_search"}, {"md_atom_id": "md_ch10_a086", "md_file": "knowledge_base/chapters/ch10_appendices.md", "md_atom_type": "TABLE_ROW", "md_parent_section": "§10.D [CDISC Variable-naming Fragments]", "md_verbatim": "| CLINICAL | CL | | NUMERIC | N |", "score": 0.24, "match_basis": "verbatim_token+global_search"}, {"md_atom_id": "md_ch10_a017", "md_file": "knowledge_base/chapters/ch10_appendices.md", "md_atom_type": "TABLE_ROW", "md_parent_section": "§10.B [Glossary and Abbreviations]", "md_verbatim": "| CDISC | Clinical Data Interchange Standards Consortium |", "score": 0.21, "match_basis": "verbatim_token+global_search"}], "candidate_count": 5, "zero_candidate": false}
{"pdf_atom_id": "ig34_p0003_a023", "pdf_atom_type": "CROSS_REF", "pdf_source": "SDTMIG_v3.4", "pdf_page": 3, "pdf_parent_section": "§0 [Table of Contents]", "pdf_verbatim": "4.4.6 Representing Additional Study Days .................................................................43", "figure_ref": null, "candidates": [{"md_atom_id": "md_ch04_a624", "md_file": "knowledge_base/chapters/ch04_general_assumptions.md", "md_atom_type": "HEADING", "md_parent_section": "§4.4 [Actual and Relative Time Assumptions]", "md_verbatim": "### 4.4.6 Representing Additional Study Days", "score": 0.69, "match_basis": "verbatim_token+global_search"}, {"md_atom_id": "md_ch04_a704", "md_file": "knowledge_base/chapters/ch04_general_assumptions.md", "md_atom_type": "HEADING", "md_parent_section": "§4.4 [Use of Timing Variables]", "md_verbatim": "### 4.4.10 Representing Time Points", "score": 0.2969, "match_basis": "verbatim_token+global_search"}, {"md_atom_id": "md_ch10_a231", "md_file": "knowledge_base/chapters/ch10_appendices.md", "md_atom_type": "TABLE_ROW", "md_parent_section": "§10.E [Revision History]", "md_verbatim": "| **Section 8. Representing Relationships and Data** | | |", "score": 0.2795, "match_basis": "verbatim_token+global_search"}, {"md_atom_id": "md_dmDS_assn_a006", "md_file": "knowledge_base/domains/DS/assumptions.md", "md_atom_type": "LIST_ITEM", "md_parent_section": "§DS [DS — Assumptions]", "md_verbatim": "      i. DSSCAT = \"STUDY PARTICIPATION\" is used to represent disposition of study participation.", "score": 0.2673, "match_basis": "verbatim_token+global_search"}, {"md_atom_id": "md_dmMH_ex_a058", "md_file": "knowledge_base/domains/MH/examples.md", "md_atom_type": "SENTENCE", "md_parent_section": "§MH.3 [Example 3]", "md_verbatim": "Presence or absence of the condition is represented in MHOCCUR.", "score": 0.2637, "match_basis": "verbatim_token+global_search"}], "candidate_count": 5, "zero_candidate": false}
{"pdf_atom_id": "ig34_p0003_a024", "pdf_atom_type": "CROSS_REF", "pdf_source": "SDTMIG_v3.4", "pdf_page": 3, "pdf_parent_section": "§0 [Table of Contents]", "pdf_verbatim": "4.4.7 Use of Relative Timing Variables ......................................................................43", "figure_ref": null, "candidates": [{"md_atom_id": "md_ch04_a627", "md_file": "knowledge_base/chapters/ch04_general_assumptions.md", "md_atom_type": "HEADING", "md_parent_section": "§4.4 [Actual and Relative Time Assumptions]", "md_verbatim": "### 4.4.7 Use of Relative Timing Variables", "score": 0.69, "match_basis": "verbatim_token+global_search"}, {"md_atom_id": "md_model02_a223", "md_file": "knowledge_base/model/02_observation_classes.md", "md_atom_type": "HEADING", "md_parent_section": "§3.1.5 > Relative Timing Variables", "md_verbatim": "### Relative Timing Variables", "score": 0.6567, "match_basis": "verbatim_token+global_search"}, {"md_atom_id": "md_dmAE_assn_a016", "md_file": "knowledge_base/domains/AE/assumptions.md", "md_atom_type": "LIST_ITEM", "md_parent_section": "§AE [AE — Assumptions]", "md_verbatim": "5. **Timing variables**", "score": 0.4567, "match_basis": "verbatim_token+global_search"}, {"md_atom_id": "md_dmBE_assn_a007", "md_file": "knowledge_base/domains/BE/assumptions.md", "md_atom_type": "LIST_ITEM", "md_parent_section": "§BE [BE — Assumptions]", "md_verbatim": "6. Timing variables:", "score": 0.4567, "match_basis": "verbatim_token+global_search"}, {"md_atom_id": "md_dmCE_assn_a014", "md_file": "knowledge_base/domains/CE/assumptions.md", "md_atom_type": "LIST_ITEM", "md_parent_section": "§CE [CE — Assumptions]", "md_verbatim": "5. Timing variables", "score": 0.4567, "match_basis": "verbatim_token+global_search"}], "candidate_count": 5, "zero_candidate": false}
{"pdf_atom_id": "ig34_p0003_a025", "pdf_atom_type": "CROSS_REF", "pdf_source": "SDTMIG_v3.4", "pdf_page": 3, "pdf_parent_section": "§0 [Table of Contents]", "pdf_verbatim": "4.4.8 Date and Time Reported in a Domain Based on Findings ..................................45", "figure_ref": null, "candidates": [{"md_atom_id": "md_ch04_a680", "md_file": "knowledge_base/chapters/ch04_general_assumptions.md", "md_atom_type": "HEADING", "md_parent_section": "§4.4 [Use of Timing Variables]", "md_verbatim": "### 4.4.8 Date and Time Reported in a Domain Based on Findings", "score": 0.69, "match_basis": "verbatim_token+global_search"}, {"md_atom_id": "md_index_a053", "md_file": "knowledge_base/INDEX.md", "md_atom_type": "HEADING", "md_parent_section": "§ Domains (63 domains)", "md_verbatim": "### Findings Domains", "score": 0.33, "match_basis": "verbatim_token+global_search"}, {"md_atom_id": "md_dmLB_assn_a005", "md_file": "knowledge_base/domains/LB/assumptions.md", "md_atom_type": "LIST_ITEM", "md_parent_section": "§LB [LB — Assumptions]", "md_verbatim": "4. For lab tests where the specimen is collected over time (e.g., 24-hour urine collection), the start date/time of the collection goes into LBDTC and the end date/time of collection goes into LBENDTC. See Section 4.4.8, Date and Time Reported in a Domain Based on Findings.", "score": 0.2957, "match_basis": "verbatim_token+global_search"}, {"md_atom_id": "md_model02_a243", "md_file": "knowledge_base/model/02_observation_classes.md", "md_atom_type": "TABLE_ROW", "md_parent_section": "§3.1.5 > Assessment Interval and Other Timing Variables", "md_verbatim": "| 47 | --PTFL | Point in Time Flag | Char | Only in Findings class specimen-based domains |", "score": 0.2945, "match_basis": "verbatim_token+global_search"}, {"md_atom_id": "md_routing_a027", "md_file": "knowledge_base/ROUTING.md", "md_atom_type": "SENTENCE", "md_parent_section": "§ 路由规则", "md_verbatim": "**问法示例**: \"SDTM 的数据模型是什么？\"、\"怎么创建新 domain？\"、\"Events 和 Findings 有什么区别？\"", "score": 0.29, "match_basis": "verbatim_token+global_search"}], "candidate_count": 5, "zero_candidate": false}
{"pdf_atom_id": "ig34_p0003_a026", "pdf_atom_type": "CROSS_REF", "pdf_source": "SDTMIG_v3.4", "pdf_page": 3, "pdf_parent_section": "§0 [Table of Contents]", "pdf_verbatim": "4.4.9 Use of Dates as Result Variables.......................................................................45", "figure_ref": null, "candidates": [{"md_atom_id": "md_ch04_a693", "md_file": "knowledge_base/chapters/ch04_general_assumptions.md", "md_atom_type": "HEADING", "md_parent_section": "§4.4 [Use of Timing Variables]", "md_verbatim": "### 4.4.9 Use of Dates as Result Variables", "score": 0.69, "match_basis": "verbatim_token+global_search"}, {"md_atom_id": "md_model02_a133", "md_file": "knowledge_base/model/02_observation_classes.md", "md_atom_type": "NOTE", "md_parent_section": "§3.1.3 > Topic and Qualifier Variables (100 variables)", "md_verbatim": "**Result Variables:**", "score": 0.53, "match_basis": "verbatim_token+global_search"}, {"md_atom_id": "md_model02_a194", "md_file": "knowledge_base/model/02_observation_classes.md", "md_atom_type": "HEADING", "md_parent_section": "§3.1.5 > Date/Time Variables", "md_verbatim": "### Date/Time Variables", "score": 0.4076, "match_basis": "verbatim_token+global_search"}, {"md_atom_id": "md_model06_a017", "md_file": "knowledge_base/model/06_relationship_datasets.md", "md_atom_type": "HEADING", "md_parent_section": "§6.1 Related Records (RELREC)", "md_verbatim": "### Variables (10 variables)", "score": 0.37, "match_basis": "verbatim_token+global_search"}, {"md_atom_id": "md_model06_a038", "md_file": "knowledge_base/model/06_relationship_datasets.md", "md_atom_type": "HEADING", "md_parent_section": "§6.2 Supplemental Qualifiers (SUPP--)", "md_verbatim": "### Variables (13 variables)", "score": 0.37, "match_basis": "verbatim_token+global_search"}], "candidate_count": 5, "zero_candidate": false}
{"pdf_atom_id": "ig34_p0003_a027", "pdf_atom_type": "CROSS_REF", "pdf_source": "SDTMIG_v3.4", "pdf_page": 3, "pdf_parent_section": "§0 [Table of Contents]", "pdf_verbatim": "4.4.10 Representing Time Points ................................................................................46", "figure_ref": null, "candidates": [{"md_atom_id": "md_ch04_a704", "md_file": "knowledge_base/chapters/ch04_general_assumptions.md", "md_atom_type": "HEADING", "md_parent_section": "§4.4 [Use of Timing Variables]", "md_verbatim": "### 4.4.10 Representing Time Points", "score": 0.69, "match_basis": "verbatim_token+global_search"}, {"md_atom_id": "md_ch04_a624", "md_file": "knowledge_base/chapters/ch04_general_assumptions.md", "md_atom_type": "HEADING", "md_parent_section": "§4.4 [Actual and Relative Time Assumptions]", "md_verbatim": "### 4.4.6 Representing Additional Study Days", "score": 0.2969, "match_basis": "verbatim_token+global_search"}, {"md_atom_id": "md_ch04_a504", "md_file": "knowledge_base/chapters/ch04_general_assumptions.md", "md_atom_type": "LIST_ITEM", "md_parent_section": "§4.4.1 [Formats for Date/Time Variables]", "md_verbatim": "- ISO 8601 represents times as a text string using the notation hh:mm:ss(.n+)?(((+|-)hh:mm)|Z)?.", "score": 0.2841, "match_basis": "verbatim_token+global_search"}, {"md_atom_id": "md_ch10_a231", "md_file": "knowledge_base/chapters/ch10_appendices.md", "md_atom_type": "TABLE_ROW", "md_parent_section": "§10.E [Revision History]", "md_verbatim": "| **Section 8. Representing Relationships and Data** | | |", "score": 0.2718, "match_basis": "verbatim_token+global_search"}, {"md_atom_id": "md_ch10_a124", "md_file": "knowledge_base/chapters/ch10_appendices.md", "md_atom_type": "TABLE_ROW", "md_parent_section": "§10.D [CDISC Variable-naming Fragments]", "md_verbatim": "| | | | TIME POINT | TPT |", "score": 0.2665, "match_basis": "verbatim_token+global_search"}], "candidate_count": 5, "zero_candidate": false}
{"pdf_atom_id": "ig34_p0003_a028", "pdf_atom_type": "CROSS_REF", "pdf_source": "SDTMIG_v3.4", "pdf_page": 3, "pdf_parent_section": "§0 [Table of Contents]", "pdf_verbatim": "4.4.11 Disease Milestones and Disease Milestone Timing Variables ............................48", "figure_ref": null, "candidates": [{"md_atom_id": "md_ch04_a775", "md_file": "knowledge_base/chapters/ch04_general_assumptions.md", "md_atom_type": "HEADING", "md_parent_section": "§4.4 [Use of Timing Variables]", "md_verbatim": "### 4.4.11 Disease Milestones and Disease Milestone Timing Variables", "score": 0.69, "match_basis": "verbatim_token+global_search"}, {"md_atom_id": "md_model02_a233", "md_file": "knowledge_base/model/02_observation_classes.md", "md_atom_type": "HEADING", "md_parent_section": "§3.1.5 > Disease Milestone Variables", "md_verbatim": "### Disease Milestone Variables", "score": 0.54, "match_basis": "verbatim_token+global_search"}, {"md_atom_id": "md_ch04_a801", "md_file": "knowledge_base/chapters/ch04_general_assumptions.md", "md_atom_type": "HEADING", "md_parent_section": "§4.4.11 [Disease Milestones and Disease Milestone Timing Variables]", "md_verbatim": "#### Use of Disease Milestone Timing Variables with Other Timing Variables", "score": 0.53, "match_basis": "verbatim_token+global_search"}, {"md_atom_id": "md_model05_a109", "md_file": "knowledge_base/model/05_study_level_data.md", "md_atom_type": "HEADING", "md_parent_section": "§ Trial Disease Milestones (TM)", "md_verbatim": "### Trial Disease Milestones (TM)", "score": 0.4131, "match_basis": "verbatim_token+global_search"}, {"md_atom_id": "md_ch04_a809", "md_file": "knowledge_base/chapters/ch04_general_assumptions.md", "md_atom_type": "HEADING", "md_parent_section": "§4.4.11 [Disease Milestones and Disease Milestone Timing Variables]", "md_verbatim": "#### Linking and Disease Milestones", "score": 0.4114, "match_basis": "verbatim_token+global_search"}], "candidate_count": 5, "zero_candidate": false}
{"pdf_atom_id": "ig34_p0003_a029", "pdf_atom_type": "CROSS_REF", "pdf_source": "SDTMIG_v3.4", "pdf_page": 3, "pdf_parent_section": "§0 [Table of Contents]", "pdf_verbatim": "4.5 OTHER ASSUMPTIONS ................................................................................................51", "figure_ref": null, "candidates": [{"md_atom_id": "md_ch04_a814", "md_file": "knowledge_base/chapters/ch04_general_assumptions.md", "md_atom_type": "HEADING", "md_parent_section": "§4 [General Assumptions]", "md_verbatim": "## 4.5 Other Assumptions", "score": 0.69, "match_basis": "verbatim_token+global_search"}, {"md_atom_id": "md_dmCM_assn_a001", "md_file": "knowledge_base/domains/CM/assumptions.md", "md_atom_type": "HEADING", "md_parent_section": "§CM [CM — Assumptions]", "md_verbatim": "# CM — Assumptions", "score": 0.54, "match_basis": "verbatim_token+global_search"}, {"md_atom_id": "md_ch08_a283", "md_file": "knowledge_base/chapters/ch08_relationships.md", "md_atom_type": "HEADING", "md_parent_section": "§8.7 [Related Subjects (RELSUB)]", "md_verbatim": "### Assumptions", "score": 0.54, "match_basis": "verbatim_token+global_search"}, {"md_atom_id": "md_ch08_a327", "md_file": "knowledge_base/chapters/ch08_relationships.md", "md_atom_type": "HEADING", "md_parent_section": "§8.8 [Related Specimens (RELSPEC)]", "md_verbatim": "### Assumptions", "score": 0.54, "match_basis": "verbatim_token+global_search"}, {"md_atom_id": "md_dmAE_assn_a001", "md_file": "knowledge_base/domains/AE/assumptions.md", "md_atom_type": "HEADING", "md_parent_section": "§AE [AE — Assumptions]", "md_verbatim": "# AE — Assumptions", "score": 0.54, "match_basis": "verbatim_token+global_search"}], "candidate_count": 5, "zero_candidate": false}
{"pdf_atom_id": "ig34_p0003_a030", "pdf_atom_type": "CROSS_REF", "pdf_source": "SDTMIG_v3.4", "pdf_page": 3, "pdf_parent_section": "§0 [Table of Contents]", "pdf_verbatim": "4.5.1 Original and Standardized Results of Findings and Tests Not Done....................51", "figure_ref": null, "candidates": [{"md_atom_id": "md_ch04_a815", "md_file": "knowledge_base/chapters/ch04_general_assumptions.md", "md_atom_type": "HEADING", "md_parent_section": "§4.5 [Other Assumptions]", "md_verbatim": "### 4.5.1 Original and Standardized Results", "score": 0.4718, "match_basis": "verbatim_token+global_search"}, {"md_atom_id": "md_dmTR_assn_a015", "md_file": "knowledge_base/domains/TR/assumptions.md", "md_atom_type": "NOTE", "md_parent_section": "§TR [TR — Assumptions]", "md_verbatim": "**Note:** This is an exception to SDTMIG general variable rule 4.1.5.1, Original and Standardized Results of Findings and Tests Not Done.", "score": 0.42, "match_basis": "verbatim_token+global_search"}, {"md_atom_id": "md_ch04_a831", "md_file": "knowledge_base/chapters/ch04_general_assumptions.md", "md_atom_type": "HEADING", "md_parent_section": "§4.5.1 [Original and Standardized Results]", "md_verbatim": "#### 4.5.1.3 Examples of Original and Standard Units and Test Not Done", "score": 0.3329, "match_basis": "verbatim_token+global_search"}, {"md_atom_id": "md_varindex_a476", "md_file": "knowledge_base/VARIABLE_INDEX.md", "md_atom_type": "HEADING", "md_parent_section": "§ 二、领域专属变量（仅 1 个域，共 1499 个），按域分组", "md_verbatim": "### EG — ECG Test Results (Findings)", "score": 0.3194, "match_basis": "verbatim_token+global_search"}, {"md_atom_id": "md_model02_a138", "md_file": "knowledge_base/model/02_observation_classes.md", "md_atom_type": "TABLE_ROW", "md_parent_section": "§3.1.3 > Topic and Qualifier Variables (100 variables)", "md_verbatim": "| --STRESN | Numeric Result/Finding in Standard Units | Num | Result Qualifier | Numeric standardized result |", "score": 0.3135, "match_basis": "verbatim_token+global_search"}], "candidate_count": 5, "zero_candidate": false}
{"pdf_atom_id": "ig34_p0003_a031", "pdf_atom_type": "CROSS_REF", "pdf_source": "SDTMIG_v3.4", "pdf_page": 3, "pdf_parent_section": "§0 [Table of Contents]", "pdf_verbatim": "4.5.1.1 Original and Standardized Results ................................................................51", "figure_ref": null, "candidates": [{"md_atom_id": "md_ch04_a815", "md_file": "knowledge_base/chapters/ch04_general_assumptions.md", "md_atom_type": "HEADING", "md_parent_section": "§4.5 [Other Assumptions]", "md_verbatim": "### 4.5.1 Original and Standardized Results", "score": 0.69, "match_basis": "verbatim_token+global_search"}, {"md_atom_id": "md_ch04_a822", "md_file": "knowledge_base/chapters/ch04_general_assumptions.md", "md_atom_type": "LIST_ITEM", "md_parent_section": "§4.5.1 [Original and Standardized Results]", "md_verbatim": "- --ORRESU / --STRESU: original and standard units", "score": 0.39, "match_basis": "verbatim_token+global_search"}, {"md_atom_id": "md_ch04_a461", "md_file": "knowledge_base/chapters/ch04_general_assumptions.md", "md_atom_type": "TABLE_HEADER", "md_parent_section": "§4.3.6 [Storing Topic Variables for General Domain Models]", "md_verbatim": "| Domain | Original Verbatim | Modified Verbatim | Standardized Value |\n|--------|-------------------|-------------------|--------------------|", "score": 0.33, "match_basis": "verbatim_token+global_search"}, {"md_atom_id": "md_dmLB_ex_a029", "md_file": "knowledge_base/domains/LB/examples.md", "md_atom_type": "SENTENCE", "md_parent_section": "§LB.3 [Example 3]", "md_verbatim": "**Row 1:** Shows a pregnancy test with an original result of \"-\" (negative sign) standardized to the text value \"NEGATIVE\" in LBSTRESC.", "score": 0.3082, "match_basis": "verbatim_token+global_search"}, {"md_atom_id": "md_dmTR_assn_a015", "md_file": "knowledge_base/domains/TR/assumptions.md", "md_atom_type": "NOTE", "md_parent_section": "§TR [TR — Assumptions]", "md_verbatim": "**Note:** This is an exception to SDTMIG general variable rule 4.1.5.1, Original and Standardized Results of Findings and Tests Not Done.", "score": 0.3, "match_basis": "verbatim_token+global_search"}], "candidate_count": 5, "zero_candidate": false}
{"pdf_atom_id": "ig34_p0003_a032", "pdf_atom_type": "CROSS_REF", "pdf_source": "SDTMIG_v3.4", "pdf_page": 3, "pdf_parent_section": "§0 [Table of Contents]", "pdf_verbatim": "4.5.1.2 Tests Not Done.............................................................................................52", "figure_ref": null, "candidates": [{"md_atom_id": "md_ch04_a824", "md_file": "knowledge_base/chapters/ch04_general_assumptions.md", "md_atom_type": "SENTENCE", "md_parent_section": "§4.5.1 [Original and Standardized Results]", "md_verbatim": "**Tests Not Done (§4.5.1.2):**", "score": 0.69, "match_basis": "verbatim_token+global_search"}, {"md_atom_id": "md_model02_a059", "md_file": "knowledge_base/model/02_observation_classes.md", "md_atom_type": "CODE_LITERAL", "md_parent_section": "§3.1.1 > Topic and Qualifier Variables (43 variables)", "md_verbatim": "\"NOT DONE\"", "score": 0.39, "match_basis": "verbatim_token+global_search"}, {"md_atom_id": "md_ch04_a886", "md_file": "knowledge_base/chapters/ch04_general_assumptions.md", "md_atom_type": "TABLE_ROW", "md_parent_section": "§4.5.1.3 [Examples of Original and Standard Units and Test Not Done]", "md_verbatim": "| 3 | HR | | | | | | NOT DONE | | 1 | 2016-07-18 |", "score": 0.315, "match_basis": "verbatim_token+global_search"}, {"md_atom_id": "md_ch04_a875", "md_file": "knowledge_base/chapters/ch04_general_assumptions.md", "md_atom_type": "TABLE_ROW", "md_parent_section": "§4.5.1.3 [Examples of Original and Standard Units and Test Not Done]", "md_verbatim": "| 7 | EGALL | ECG Test Results | | | | | | NOT DONE | 3 | 2015-03-21 |", "score": 0.2665, "match_basis": "verbatim_token+global_search"}, {"md_atom_id": "md_ch04_a857", "md_file": "knowledge_base/chapters/ch04_general_assumptions.md", "md_atom_type": "TABLE_ROW", "md_parent_section": "§4.5.1.3 [Examples of Original and Standard Units and Test Not Done]", "md_verbatim": "| 10 | LBALL | | | | | | | NOT DONE | | 4 | 2016-02-22 |", "score": 0.2536, "match_basis": "verbatim_token+global_search"}], "candidate_count": 5, "zero_candidate": false}
{"pdf_atom_id": "ig34_p0003_a033", "pdf_atom_type": "CROSS_REF", "pdf_source": "SDTMIG_v3.4", "pdf_page": 3, "pdf_parent_section": "§0 [Table of Contents]", "pdf_verbatim": "4.5.1.3 Examples of Original and Standard Units and Test Not Done .........................52", "figure_ref": null, "candidates": [{"md_atom_id": "md_ch04_a831", "md_file": "knowledge_base/chapters/ch04_general_assumptions.md", "md_atom_type": "HEADING", "md_parent_section": "§4.5.1 [Original and Standardized Results]", "md_verbatim": "#### 4.5.1.3 Examples of Original and Standard Units and Test Not Done", "score": 0.69, "match_basis": "verbatim_token+global_search"}, {"md_atom_id": "md_ch04_a822", "md_file": "knowledge_base/chapters/ch04_general_assumptions.md", "md_atom_type": "LIST_ITEM", "md_parent_section": "§4.5.1 [Original and Standardized Results]", "md_verbatim": "- --ORRESU / --STRESU: original and standard units", "score": 0.3712, "match_basis": "verbatim_token+global_search"}, {"md_atom_id": "md_ch04_a815", "md_file": "knowledge_base/chapters/ch04_general_assumptions.md", "md_atom_type": "HEADING", "md_parent_section": "§4.5 [Other Assumptions]", "md_verbatim": "### 4.5.1 Original and Standardized Results", "score": 0.2957, "match_basis": "verbatim_token+global_search"}, {"md_atom_id": "md_ch04_a837", "md_file": "knowledge_base/chapters/ch04_general_assumptions.md", "md_atom_type": "LIST_ITEM", "md_parent_section": "§4.5.1.3 [Examples of Original and Standard Units and Test Not Done]", "md_verbatim": "- **Row 2:** A numeric value was copied; the original unit was the standard unit so conversion was not needed.", "score": 0.2598, "match_basis": "verbatim_token+global_search"}, {"md_atom_id": "md_dmTR_assn_a015", "md_file": "knowledge_base/domains/TR/assumptions.md", "md_atom_type": "NOTE", "md_parent_section": "§TR [TR — Assumptions]", "md_verbatim": "**Note:** This is an exception to SDTMIG general variable rule 4.1.5.1, Original and Standardized Results of Findings and Tests Not Done.", "score": 0.2378, "match_basis": "verbatim_token+global_search"}], "candidate_count": 5, "zero_candidate": false}
{"pdf_atom_id": "ig34_p0003_a034", "pdf_atom_type": "CROSS_REF", "pdf_source": "SDTMIG_v3.4", "pdf_page": 3, "pdf_parent_section": "§0 [Table of Contents]", "pdf_verbatim": "4.5.2 Linking Multiple Observations...........................................................................54", "figure_ref": null, "candidates": [{"md_atom_id": "md_ch04_a891", "md_file": "knowledge_base/chapters/ch04_general_assumptions.md", "md_atom_type": "HEADING", "md_parent_section": "§4.5 [Other Assumptions]", "md_verbatim": "### 4.5.2 Linking Multiple Observations", "score": 0.69, "match_basis": "verbatim_token+global_search"}, {"md_atom_id": "md_ch02_a003", "md_file": "knowledge_base/chapters/ch02_fundamentals.md", "md_atom_type": "HEADING", "md_parent_section": "§2 [Fundamentals of the SDTM]", "md_verbatim": "## 2.1 Observations and Variables", "score": 0.2969, "match_basis": "verbatim_token+global_search"}, {"md_atom_id": "md_model02_a122", "md_file": "knowledge_base/model/02_observation_classes.md", "md_atom_type": "HEADING", "md_parent_section": "§3.1.3 The Findings Observation Class", "md_verbatim": "## 3.1.3 The Findings Observation Class", "score": 0.29, "match_basis": "verbatim_token+global_search"}, {"md_atom_id": "md_model02_a203", "md_file": "knowledge_base/model/02_observation_classes.md", "md_atom_type": "TABLE_ROW", "md_parent_section": "§3.1.5 > Study Day Variables", "md_verbatim": "| 15 | --ENDY | Study Day of End of Observation | Num | |", "score": 0.2829, "match_basis": "verbatim_token+global_search"}, {"md_atom_id": "md_model03_a010", "md_file": "knowledge_base/model/03_special_purpose_domains.md", "md_atom_type": "SENTENCE", "md_parent_section": "§ Demographics (DM)", "md_verbatim": "It is the parent domain to which all other observations are linked.", "score": 0.2795, "match_basis": "verbatim_token+global_search"}], "candidate_count": 5, "zero_candidate": false}
