{"pdf_atom_id": "ig34_p0059_a020", "pdf_atom_type": "SENTENCE", "pdf_source": "SDTMIG_v3.4", "pdf_page": 59, "pdf_parent_section": "§4.5.8 [Accounting for Long-term Follow-up]", "pdf_verbatim": "Therefore, in this example the subject could have 3 disposition records in DS, with the following-up epoch disposition and the overall study conclusion disposition being collected at the final telephone contact.", "figure_ref": null, "candidates": [{"md_atom_id": "md_ch04_a1024", "md_file": "knowledge_base/chapters/ch04_general_assumptions.md", "md_atom_type": "LIST_ITEM", "md_parent_section": "§4.5.8 [Accounting for Long-term Follow-up]", "md_verbatim": "3. The disposition of the subject at the time of the final follow-up contact should be stored in DS. Note that overall study conclusion is the point where any contact with the subject ceases, which in this example is also the conclusion of long-term follow-up. The disposition of the subject at the conclusion of the 2-month clinical treatment phase would be stored in DS as the conclusion to that epoch. Long-term follow-up would be represented as a separate epoch. Therefore, in this example the subject could have 3 disposition records in DS, with both the follow-up epoch disposition and the overall study conclusion disposition being collected at the final telephone contact. See Section 6.2.4, Disposition, for detailed assumptions and examples.", "score": 0.5172, "match_basis": "verbatim_token+chapter_route:ch04"}, {"md_atom_id": "md_ch04_a1013", "md_file": "knowledge_base/chapters/ch04_general_assumptions.md", "md_atom_type": "SENTENCE", "md_parent_section": "§4.5.8 [Accounting for Long-term Follow-up]", "md_verbatim": "Overall study conclusion in the Disposition (DS) domain occurs once all contact with the subject ceases.", "score": 0.516, "match_basis": "verbatim_token+chapter_route:ch04"}, {"md_atom_id": "md_ch04_a1014", "md_file": "knowledge_base/chapters/ch04_general_assumptions.md", "md_atom_type": "SENTENCE", "md_parent_section": "§4.5.8 [Accounting for Long-term Follow-up]", "md_verbatim": "If a study has a clinical treatment phase followed by a long-term follow-up phase, these 2 segments of the study can be represented as separate epochs within the overall study, each with its own epoch disposition record.", "score": 0.4478, "match_basis": "verbatim_token+chapter_route:ch04"}, {"md_atom_id": "md_ch04_a150", "md_file": "knowledge_base/chapters/ch04_general_assumptions.md", "md_atom_type": "SENTENCE", "md_parent_section": "§4.1.9 [Assigning Natural Keys in the Metadata]", "md_verbatim": "In this example, sponsor B might have collected data that used different imaging methods, using imaging devices with different makes and models, and using different hand positions.", "score": 0.4349, "match_basis": "verbatim_token+chapter_route:ch04"}, {"md_atom_id": "md_ch04_a1018", "md_file": "knowledge_base/chapters/ch04_general_assumptions.md", "md_atom_type": "SENTENCE", "md_parent_section": "§4.5.8 [Accounting for Long-term Follow-up]", "md_verbatim": "During the telephone contact, the investigator collects information on the subject's survival status and medication use.", "score": 0.4317, "match_basis": "verbatim_token+chapter_route:ch04"}], "candidate_count": 5, "zero_candidate": false}
{"pdf_atom_id": "ig34_p0059_a021", "pdf_atom_type": "LIST_ITEM", "pdf_source": "SDTMIG_v3.4", "pdf_page": 59, "pdf_parent_section": "§4.5.8 [Accounting for Long-term Follow-up]", "pdf_verbatim": "If the subject's survival status is \"dead\", the Demographics (DM) variables DTHDT and DTHFL must be appropriately populated.", "figure_ref": null, "candidates": [{"md_atom_id": "md_ch04_a1025", "md_file": "knowledge_base/chapters/ch04_general_assumptions.md", "md_atom_type": "LIST_ITEM", "md_parent_section": "§4.5.8 [Accounting for Long-term Follow-up]", "md_verbatim": "4. If the subject's survival status is \"dead\", the Demographics (DM) variables DTHDTC and DTHFL must be appropriately populated.", "score": 0.89, "match_basis": "verbatim_token+chapter_route:ch04"}, {"md_atom_id": "md_ch04_a198", "md_file": "knowledge_base/chapters/ch04_general_assumptions.md", "md_atom_type": "LIST_ITEM", "md_parent_section": "§4.2.2 [Two-character Domain Identifier]", "md_verbatim": "- All Demographics (DM) domain variables other than DMDTC and DMDY", "score": 0.4583, "match_basis": "verbatim_token+chapter_route:ch04"}, {"md_atom_id": "md_ch04_a1023", "md_file": "knowledge_base/chapters/ch04_general_assumptions.md", "md_atom_type": "LIST_ITEM", "md_parent_section": "§4.5.8 [Accounting for Long-term Follow-up]", "md_verbatim": "2. The subject's survival status should be stored in the Subject Status (SS) domain.", "score": 0.4352, "match_basis": "verbatim_token+chapter_route:ch04"}, {"md_atom_id": "md_ch04_a413", "md_file": "knowledge_base/chapters/ch04_general_assumptions.md", "md_atom_type": "LIST_ITEM", "md_parent_section": "§4.2.9 [Variable Lengths]", "md_verbatim": "- Sponsors should consider the nature of the data and apply reasonable, appropriate lengths to variables. For example:", "score": 0.4102, "match_basis": "verbatim_token+chapter_route:ch04"}, {"md_atom_id": "md_ch04_a731", "md_file": "knowledge_base/chapters/ch04_general_assumptions.md", "md_atom_type": "LIST_ITEM", "md_parent_section": "§4.4.10 [Representing Time Points]", "md_verbatim": "2. A trial might have time points that do not relate to any visit, such as time points relative to a dose of drug self-administered by the subject at home. (Visit variables would not be included, but --TPTREF and other time point variables would be populated.)", "score": 0.405, "match_basis": "verbatim_token+chapter_route:ch04"}], "candidate_count": 5, "zero_candidate": false}
{"pdf_atom_id": "ig34_p0059_a022", "pdf_atom_type": "HEADING", "pdf_source": "SDTMIG_v3.4", "pdf_page": 59, "pdf_parent_section": "§4.5.9 [Baseline Values]", "pdf_verbatim": "4.5.9 Baseline Values", "figure_ref": null, "candidates": [{"md_atom_id": "md_ch04_a1028", "md_file": "knowledge_base/chapters/ch04_general_assumptions.md", "md_atom_type": "HEADING", "md_parent_section": "§4.5 [Other Assumptions]", "md_verbatim": "### 4.5.9 Baseline Values", "score": 0.9, "match_basis": "verbatim_token+chapter_route:ch04"}, {"md_atom_id": "md_ch04_a467", "md_file": "knowledge_base/chapters/ch04_general_assumptions.md", "md_atom_type": "HEADING", "md_parent_section": "§4.3 [Coding and Controlled Terminology Assumptions]", "md_verbatim": "### 4.3.7 Use of \"Yes\" and \"No\" Values", "score": 0.4846, "match_basis": "verbatim_token+chapter_route:ch04"}, {"md_atom_id": "md_ch04_a341", "md_file": "knowledge_base/chapters/ch04_general_assumptions.md", "md_atom_type": "HEADING", "md_parent_section": "§4.2.7 [Submitting Free Text from the CRF]", "md_verbatim": "#### 4.2.7.4 \"Specify\" Values for --OBJ", "score": 0.4412, "match_basis": "verbatim_token+chapter_route:ch04"}, {"md_atom_id": "md_ch04_a346", "md_file": "knowledge_base/chapters/ch04_general_assumptions.md", "md_atom_type": "HEADING", "md_parent_section": "§4.2 [General Variable Assumptions]", "md_verbatim": "### 4.2.8 Multiple Values for a Variable", "score": 0.4043, "match_basis": "verbatim_token+chapter_route:ch04"}, {"md_atom_id": "md_ch04_a215", "md_file": "knowledge_base/chapters/ch04_general_assumptions.md", "md_atom_type": "HEADING", "md_parent_section": "§4.2 [General Variable Assumptions]", "md_verbatim": "### 4.2.5 Convention for Missing Values", "score": 0.4, "match_basis": "verbatim_token+chapter_route:ch04"}], "candidate_count": 5, "zero_candidate": false}
{"pdf_atom_id": "ig34_p0059_a023", "pdf_atom_type": "SENTENCE", "pdf_source": "SDTMIG_v3.4", "pdf_page": 59, "pdf_parent_section": "§4.5.9 [Baseline Values]", "pdf_verbatim": "The variable --LOBXFL was introduced in SDTMIG v3.3 to address the need for a consistent definition of a value that can serve as a reference with which to compare post-treatment values.", "figure_ref": null, "candidates": [{"md_atom_id": "md_ch04_a1029", "md_file": "knowledge_base/chapters/ch04_general_assumptions.md", "md_atom_type": "SENTENCE", "md_parent_section": "§4.5.9 [Baseline Values]", "md_verbatim": "The variable --LOBXFL was introduced in SDTMIG v3.3 to address the need for a consistent definition of a value that can serve as a reference with which to compare post-treatment values.", "score": 0.9, "match_basis": "verbatim_token+chapter_route:ch04"}, {"md_atom_id": "md_ch04_a1031", "md_file": "knowledge_base/chapters/ch04_general_assumptions.md", "md_atom_type": "SENTENCE", "md_parent_section": "§4.5.9 [Baseline Values]", "md_verbatim": "In domains where --BLFL was expected, its core value was changed from expected to permissible and the variable --LOBXFL was added to contain the consistent definition, with a core value of expected.", "score": 0.4721, "match_basis": "verbatim_token+chapter_route:ch04"}, {"md_atom_id": "md_ch04_a977", "md_file": "knowledge_base/chapters/ch04_general_assumptions.md", "md_atom_type": "SENTENCE", "md_parent_section": "§4.5.6 [Supplemental Reason Variables]", "md_verbatim": "For Events and Interventions domains where prespecified occurrences have a reason for the \"Y\" or \"N\" value of --OCCUR, the reason can be represented with the variable --REASOC.", "score": 0.4317, "match_basis": "verbatim_token+chapter_route:ch04"}, {"md_atom_id": "md_ch04_a145", "md_file": "knowledge_base/chapters/ch04_general_assumptions.md", "md_atom_type": "SENTENCE", "md_parent_section": "§4.1.9 [Assigning Natural Keys in the Metadata]", "md_verbatim": "In certain instances a Supplemental Qualifier variable (i.e., a QNAM value; see Section 8.4, Relating Non-standard Variable Values to a Parent Domain) might also contribute to the natural key of a record, and therefore needs to be referenced as part of the natural key for a domain.", "score": 0.4208, "match_basis": "verbatim_token+chapter_route:ch04"}, {"md_atom_id": "md_ch04_a906", "md_file": "knowledge_base/chapters/ch04_general_assumptions.md", "md_atom_type": "SENTENCE", "md_parent_section": "§4.5.3.2 [Text Strings Greater than 200 Characters in Other Variables]", "md_verbatim": "Therefore, the SDTMIG has defined conventions for storing long text strings using multiple variables.", "score": 0.4158, "match_basis": "verbatim_token+chapter_route:ch04"}], "candidate_count": 5, "zero_candidate": false}
{"pdf_atom_id": "ig34_p0059_a024", "pdf_atom_type": "SENTENCE", "pdf_source": "SDTMIG_v3.4", "pdf_page": 59, "pdf_parent_section": "§4.5.9 [Baseline Values]", "pdf_verbatim": "This generic baseline definition approximates the concept of baseline and can be used to calculate post-treatment changes.", "figure_ref": null, "candidates": [{"md_atom_id": "md_ch04_a1030", "md_file": "knowledge_base/chapters/ch04_general_assumptions.md", "md_atom_type": "SENTENCE", "md_parent_section": "§4.5.9 [Baseline Values]", "md_verbatim": "This generic definition approximates the concept of baseline and can be used to calculate post-treatment changes.", "score": 0.9, "match_basis": "verbatim_token+chapter_route:ch04"}, {"md_atom_id": "md_ch04_a1029", "md_file": "knowledge_base/chapters/ch04_general_assumptions.md", "md_atom_type": "SENTENCE", "md_parent_section": "§4.5.9 [Baseline Values]", "md_verbatim": "The variable --LOBXFL was introduced in SDTMIG v3.3 to address the need for a consistent definition of a value that can serve as a reference with which to compare post-treatment values.", "score": 0.4024, "match_basis": "verbatim_token+chapter_route:ch04"}, {"md_atom_id": "md_ch04_a1014", "md_file": "knowledge_base/chapters/ch04_general_assumptions.md", "md_atom_type": "SENTENCE", "md_parent_section": "§4.5.8 [Accounting for Long-term Follow-up]", "md_verbatim": "If a study has a clinical treatment phase followed by a long-term follow-up phase, these 2 segments of the study can be represented as separate epochs within the overall study, each with its own epoch disposition record.", "score": 0.3934, "match_basis": "verbatim_token+chapter_route:ch04"}, {"md_atom_id": "md_ch04_a202", "md_file": "knowledge_base/chapters/ch04_general_assumptions.md", "md_atom_type": "SENTENCE", "md_parent_section": "§4.2.3 [Use of \"Subject\" and USUBJID]", "md_verbatim": "\"Subject\" is used to generically refer to both patients and healthy volunteers in order to be consistent with the recommendation in FDA guidance. The term \"subject\" should be used consistently in all labels and Define-XML document comments.", "score": 0.3896, "match_basis": "verbatim_token+chapter_route:ch04"}, {"md_atom_id": "md_ch04_a687", "md_file": "knowledge_base/chapters/ch04_general_assumptions.md", "md_atom_type": "SENTENCE", "md_parent_section": "§4.4.8 [Date and Time Reported in a Domain Based on Findings]", "md_verbatim": "This approach allows the single-point and interval collections to use the same date/time variables consistently across all datasets for the Findings general observation class.", "score": 0.3837, "match_basis": "verbatim_token+chapter_route:ch04"}], "candidate_count": 5, "zero_candidate": false}
{"pdf_atom_id": "ig34_p0059_a025", "pdf_atom_type": "SENTENCE", "pdf_source": "SDTMIG_v3.4", "pdf_page": 59, "pdf_parent_section": "§4.5.9 [Baseline Values]", "pdf_verbatim": "In domains where --BLFL was expected, its core value was changed from expected to permissible and the variable --LOBXFL with a core value of expected, was added to contain the consistent definition.", "figure_ref": null, "candidates": [{"md_atom_id": "md_ch04_a1031", "md_file": "knowledge_base/chapters/ch04_general_assumptions.md", "md_atom_type": "SENTENCE", "md_parent_section": "§4.5.9 [Baseline Values]", "md_verbatim": "In domains where --BLFL was expected, its core value was changed from expected to permissible and the variable --LOBXFL was added to contain the consistent definition, with a core value of expected.", "score": 0.9, "match_basis": "verbatim_token+chapter_route:ch04"}, {"md_atom_id": "md_ch04_a1032", "md_file": "knowledge_base/chapters/ch04_general_assumptions.md", "md_atom_type": "SENTENCE", "md_parent_section": "§4.5.9 [Baseline Values]", "md_verbatim": "In domains where --BLFL was permissible, the variable --LOBXFL was added with a core value of permissible.", "score": 0.6243, "match_basis": "verbatim_token+chapter_route:ch04"}, {"md_atom_id": "md_ch04_a1029", "md_file": "knowledge_base/chapters/ch04_general_assumptions.md", "md_atom_type": "SENTENCE", "md_parent_section": "§4.5.9 [Baseline Values]", "md_verbatim": "The variable --LOBXFL was introduced in SDTMIG v3.3 to address the need for a consistent definition of a value that can serve as a reference with which to compare post-treatment values.", "score": 0.4721, "match_basis": "verbatim_token+chapter_route:ch04"}, {"md_atom_id": "md_ch04_a996", "md_file": "knowledge_base/chapters/ch04_general_assumptions.md", "md_atom_type": "SENTENCE", "md_parent_section": "§4.5.7 [Presence or Absence of Prespecified Interventions and Events]", "md_verbatim": "It is a permissible variable and may be omitted from the dataset if no topic-variable values were prespecified.", "score": 0.4469, "match_basis": "verbatim_token+chapter_route:ch04"}, {"md_atom_id": "md_ch04_a992", "md_file": "knowledge_base/chapters/ch04_general_assumptions.md", "md_atom_type": "SENTENCE", "md_parent_section": "§4.5.7 [Presence or Absence of Prespecified Interventions and Events]", "md_verbatim": "It is a permissible variable, and should only be used when the topic variable values come from a prespecified list.", "score": 0.4455, "match_basis": "verbatim_token+chapter_route:ch04"}], "candidate_count": 5, "zero_candidate": false}
{"pdf_atom_id": "ig34_p0059_a026", "pdf_atom_type": "SENTENCE", "pdf_source": "SDTMIG_v3.4", "pdf_page": 59, "pdf_parent_section": "§4.5.9 [Baseline Values]", "pdf_verbatim": "In domains where --BLFL was permissible, the variable --LOBXFL was added with a core value of permissible.", "figure_ref": null, "candidates": [{"md_atom_id": "md_ch04_a1032", "md_file": "knowledge_base/chapters/ch04_general_assumptions.md", "md_atom_type": "SENTENCE", "md_parent_section": "§4.5.9 [Baseline Values]", "md_verbatim": "In domains where --BLFL was permissible, the variable --LOBXFL was added with a core value of permissible.", "score": 0.9, "match_basis": "verbatim_token+chapter_route:ch04"}, {"md_atom_id": "md_ch04_a1031", "md_file": "knowledge_base/chapters/ch04_general_assumptions.md", "md_atom_type": "SENTENCE", "md_parent_section": "§4.5.9 [Baseline Values]", "md_verbatim": "In domains where --BLFL was expected, its core value was changed from expected to permissible and the variable --LOBXFL was added to contain the consistent definition, with a core value of expected.", "score": 0.6243, "match_basis": "verbatim_token+chapter_route:ch04"}, {"md_atom_id": "md_ch04_a996", "md_file": "knowledge_base/chapters/ch04_general_assumptions.md", "md_atom_type": "SENTENCE", "md_parent_section": "§4.5.7 [Presence or Absence of Prespecified Interventions and Events]", "md_verbatim": "It is a permissible variable and may be omitted from the dataset if no topic-variable values were prespecified.", "score": 0.4652, "match_basis": "verbatim_token+chapter_route:ch04"}, {"md_atom_id": "md_ch04_a992", "md_file": "knowledge_base/chapters/ch04_general_assumptions.md", "md_atom_type": "SENTENCE", "md_parent_section": "§4.5.7 [Presence or Absence of Prespecified Interventions and Events]", "md_verbatim": "It is a permissible variable, and should only be used when the topic variable values come from a prespecified list.", "score": 0.4629, "match_basis": "verbatim_token+chapter_route:ch04"}, {"md_atom_id": "md_ch04_a432", "md_file": "knowledge_base/chapters/ch04_general_assumptions.md", "md_atom_type": "SENTENCE", "md_parent_section": "§4.3.3 [Controlled Terminology Values]", "md_verbatim": "Note that a null value should not be included in the permissible value set.", "score": 0.45, "match_basis": "verbatim_token+chapter_route:ch04"}], "candidate_count": 5, "zero_candidate": false}
{"pdf_atom_id": "ig34_p0059_a027", "pdf_atom_type": "TABLE_HEADER", "pdf_source": "SDTMIG_v3.4", "pdf_page": 59, "pdf_parent_section": "§4.5.9 [Baseline Values]", "pdf_verbatim": "Variable Name | Structure Where It is Defined | Requirement in That Structure | Definition | Intended Use", "figure_ref": null, "candidates": [{"md_atom_id": "md_ch04_a1034", "md_file": "knowledge_base/chapters/ch04_general_assumptions.md", "md_atom_type": "TABLE_HEADER", "md_parent_section": "§4.5.9 [Baseline Values]", "md_verbatim": "| Variable | Structure Where It Is Defined | Requirement in That Structure | Definition | Intended Use |\n|----------|-------------------------------|-------------------------------|------------|--------------|", "score": 0.8739, "match_basis": "verbatim_token+chapter_route:ch04"}, {"md_atom_id": "md_ch04_a947", "md_file": "knowledge_base/chapters/ch04_general_assumptions.md", "md_atom_type": "TABLE_HEADER", "md_parent_section": "§4.5.3.2 [Text Strings Greater than 200 Characters in Other Variables]", "md_verbatim": "| Convention | General Observation Class and Supplemental Qualifier Variables | CO.COVAL | TS.TSVAL | TI.IETEST and IE.IETEST |\n|------------|---------------------------------------------------------------|----------|----------|------------------------|", "score": 0.3725, "match_basis": "verbatim_token+chapter_route:ch04"}, {"md_atom_id": "md_ch04_a707", "md_file": "knowledge_base/chapters/ch04_general_assumptions.md", "md_atom_type": "TABLE_HEADER", "md_parent_section": "§4.4.10 [Representing Time Points]", "md_verbatim": "| Variable | Purpose |\n|----------|---------|", "score": 0.3706, "match_basis": "verbatim_token+chapter_route:ch04"}, {"md_atom_id": "md_ch04_a790", "md_file": "knowledge_base/chapters/ch04_general_assumptions.md", "md_atom_type": "TABLE_HEADER", "md_parent_section": "§4.4.11 [Disease Milestones and Disease Milestone Timing Variables]", "md_verbatim": "| Variable | Purpose |\n|----------|---------|", "score": 0.3706, "match_basis": "verbatim_token+chapter_route:ch04"}, {"md_atom_id": "md_ch04_a631", "md_file": "knowledge_base/chapters/ch04_general_assumptions.md", "md_atom_type": "TABLE_HEADER", "md_parent_section": "§4.4.7 [Use of Relative Timing Variables]", "md_verbatim": "| Variable | Allowable Values | Purpose |\n|----------|-----------------|---------|", "score": 0.36, "match_basis": "verbatim_token+chapter_route:ch04"}], "candidate_count": 5, "zero_candidate": false}
{"pdf_atom_id": "ig34_p0059_a028", "pdf_atom_type": "TABLE_ROW", "pdf_source": "SDTMIG_v3.4", "pdf_page": 59, "pdf_parent_section": "§4.5.9 [Baseline Values]", "pdf_verbatim": "--LOBXFL | SDTM Findings | Expected or Permissible | Last non-missing value prior to RFXSTDTC (operationally derived) | Consistent pre-treatment reference value baseline for use across all studies and sponsors", "figure_ref": null, "candidates": [{"md_atom_id": "md_ch04_a1035", "md_file": "knowledge_base/chapters/ch04_general_assumptions.md", "md_atom_type": "TABLE_ROW", "md_parent_section": "§4.5.9 [Baseline Values]", "md_verbatim": "| --LOBXFL | SDTM Findings | Expected or Permissible | Last non-missing value prior to RFXSTDTC (operationally derived) | Consistent pre-treatment reference value baseline for use across all studies and sponsors |", "score": 0.9, "match_basis": "verbatim_token+chapter_route:ch04"}, {"md_atom_id": "md_ch04_a1037", "md_file": "knowledge_base/chapters/ch04_general_assumptions.md", "md_atom_type": "TABLE_ROW", "md_parent_section": "§4.5.9 [Baseline Values]", "md_verbatim": "| --BLFL | SDTM Findings | Permissible (formerly Expected in some domains) | A baseline defined by the sponsor (could be derived in the same manner as --LOBXFL or ABLFL, but is not required to be) | Any sponsor-defined baseline use |", "score": 0.4929, "match_basis": "verbatim_token+chapter_route:ch04"}, {"md_atom_id": "md_ch04_a1036", "md_file": "knowledge_base/chapters/ch04_general_assumptions.md", "md_atom_type": "TABLE_ROW", "md_parent_section": "§4.5.9 [Baseline Values]", "md_verbatim": "| ABLFL | ADaM BDS | Conditionally Required | Flags the record that is the source of the baseline value for a given parameter specified in the statistical analysis plan (SAP; may differ both across and within studies and datasets) | Baseline for ADaM analysis as specified in the SAP |", "score": 0.4159, "match_basis": "verbatim_token+chapter_route:ch04"}, {"md_atom_id": "md_ch04_a633", "md_file": "knowledge_base/chapters/ch04_general_assumptions.md", "md_atom_type": "TABLE_ROW", "md_parent_section": "§4.4.7 [Use of Relative Timing Variables]", "md_verbatim": "| --ENRF | BEFORE, DURING, DURING/AFTER, AFTER, UNKNOWN | End relative to the sponsor-defined reference period |", "score": 0.3977, "match_basis": "verbatim_token+chapter_route:ch04"}, {"md_atom_id": "md_ch04_a632", "md_file": "knowledge_base/chapters/ch04_general_assumptions.md", "md_atom_type": "TABLE_ROW", "md_parent_section": "§4.4.7 [Use of Relative Timing Variables]", "md_verbatim": "| --STRF | BEFORE, DURING, DURING/AFTER, AFTER, UNKNOWN | Start relative to the sponsor-defined reference period |", "score": 0.3962, "match_basis": "verbatim_token+chapter_route:ch04"}], "candidate_count": 5, "zero_candidate": false}
{"pdf_atom_id": "ig34_p0059_a029", "pdf_atom_type": "TABLE_ROW", "pdf_source": "SDTMIG_v3.4", "pdf_page": 59, "pdf_parent_section": "§4.5.9 [Baseline Values]", "pdf_verbatim": "ABLFL | ADaM BDS | Conditionally Required | Flags the record that is the source of the baseline value for a given parameter specified in the statistical analysis plan (SAP; may differ both across and within studies and datasets) | Baseline for ADaM analysis as specified in the SAP", "figure_ref": null, "candidates": [{"md_atom_id": "md_ch04_a1036", "md_file": "knowledge_base/chapters/ch04_general_assumptions.md", "md_atom_type": "TABLE_ROW", "md_parent_section": "§4.5.9 [Baseline Values]", "md_verbatim": "| ABLFL | ADaM BDS | Conditionally Required | Flags the record that is the source of the baseline value for a given parameter specified in the statistical analysis plan (SAP; may differ both across and within studies and datasets) | Baseline for ADaM analysis as specified in the SAP |", "score": 0.9, "match_basis": "verbatim_token+chapter_route:ch04"}, {"md_atom_id": "md_ch04_a1035", "md_file": "knowledge_base/chapters/ch04_general_assumptions.md", "md_atom_type": "TABLE_ROW", "md_parent_section": "§4.5.9 [Baseline Values]", "md_verbatim": "| --LOBXFL | SDTM Findings | Expected or Permissible | Last non-missing value prior to RFXSTDTC (operationally derived) | Consistent pre-treatment reference value baseline for use across all studies and sponsors |", "score": 0.4159, "match_basis": "verbatim_token+chapter_route:ch04"}, {"md_atom_id": "md_ch04_a034", "md_file": "knowledge_base/chapters/ch04_general_assumptions.md", "md_atom_type": "TABLE_ROW", "md_parent_section": "§4.1.5 [SDTM Core Designations]", "md_verbatim": "| **Req** (Required) | A Required variable is any variable that is basic to the identification of a data record (i.e., essential key variables and a topic variable) or is necessary to make the record meaningful. Required variables must always be included in the dataset and cannot be null for any record. | Must always be populated; cannot be null for any record |", "score": 0.3936, "match_basis": "verbatim_token+chapter_route:ch04"}, {"md_atom_id": "md_ch04_a948", "md_file": "knowledge_base/chapters/ch04_general_assumptions.md", "md_atom_type": "TABLE_ROW", "md_parent_section": "§4.5.3.2 [Text Strings Greater than 200 Characters in Other Variables]", "md_verbatim": "| Storage | First 200 chars in parent domain variable; each additional 200 chars in a SUPP-- record | First 200 chars in COVAL; each additional 200 chars in a CO domain record linked to COVALn | First 200 chars in TSVAL; each additional 200 chars in a TS domain record linked to TSVALn | If text >200 chars, put meaningful text in IETEST and describe full text in study metadata |", "score": 0.3781, "match_basis": "verbatim_token+chapter_route:ch04"}, {"md_atom_id": "md_ch04_a1037", "md_file": "knowledge_base/chapters/ch04_general_assumptions.md", "md_atom_type": "TABLE_ROW", "md_parent_section": "§4.5.9 [Baseline Values]", "md_verbatim": "| --BLFL | SDTM Findings | Permissible (formerly Expected in some domains) | A baseline defined by the sponsor (could be derived in the same manner as --LOBXFL or ABLFL, but is not required to be) | Any sponsor-defined baseline use |", "score": 0.375, "match_basis": "verbatim_token+chapter_route:ch04"}], "candidate_count": 5, "zero_candidate": false}
{"pdf_atom_id": "ig34_p0059_a030", "pdf_atom_type": "TABLE_ROW", "pdf_source": "SDTMIG_v3.4", "pdf_page": 59, "pdf_parent_section": "§4.5.9 [Baseline Values]", "pdf_verbatim": "--BLFL | SDTM Findings | Permissible (formerly Expected in some domains) | A baseline defined by the sponsor (could be derived in the same manner as --LOBXFL or --BE, but is required to be) | Any sponsor-defined baseline use", "figure_ref": null, "candidates": [{"md_atom_id": "md_ch04_a1037", "md_file": "knowledge_base/chapters/ch04_general_assumptions.md", "md_atom_type": "TABLE_ROW", "md_parent_section": "§4.5.9 [Baseline Values]", "md_verbatim": "| --BLFL | SDTM Findings | Permissible (formerly Expected in some domains) | A baseline defined by the sponsor (could be derived in the same manner as --LOBXFL or ABLFL, but is not required to be) | Any sponsor-defined baseline use |", "score": 0.8854, "match_basis": "verbatim_token+chapter_route:ch04"}, {"md_atom_id": "md_ch04_a1035", "md_file": "knowledge_base/chapters/ch04_general_assumptions.md", "md_atom_type": "TABLE_ROW", "md_parent_section": "§4.5.9 [Baseline Values]", "md_verbatim": "| --LOBXFL | SDTM Findings | Expected or Permissible | Last non-missing value prior to RFXSTDTC (operationally derived) | Consistent pre-treatment reference value baseline for use across all studies and sponsors |", "score": 0.4957, "match_basis": "verbatim_token+chapter_route:ch04"}, {"md_atom_id": "md_ch04_a036", "md_file": "knowledge_base/chapters/ch04_general_assumptions.md", "md_atom_type": "TABLE_ROW", "md_parent_section": "§4.1.5 [SDTM Core Designations]", "md_verbatim": "| **Perm** (Permissible) | May be included in the dataset | If a study includes a data item that would be represented in a Permissible variable, then that variable must be included (even if null) and declared in Define-XML; if a study did not collect the data, do not include the variable and do not declare it in Define-XML |", "score": 0.3902, "match_basis": "verbatim_token+chapter_route:ch04"}, {"md_atom_id": "md_ch04_a633", "md_file": "knowledge_base/chapters/ch04_general_assumptions.md", "md_atom_type": "TABLE_ROW", "md_parent_section": "§4.4.7 [Use of Relative Timing Variables]", "md_verbatim": "| --ENRF | BEFORE, DURING, DURING/AFTER, AFTER, UNKNOWN | End relative to the sponsor-defined reference period |", "score": 0.3865, "match_basis": "verbatim_token+chapter_route:ch04"}, {"md_atom_id": "md_ch04_a632", "md_file": "knowledge_base/chapters/ch04_general_assumptions.md", "md_atom_type": "TABLE_ROW", "md_parent_section": "§4.4.7 [Use of Relative Timing Variables]", "md_verbatim": "| --STRF | BEFORE, DURING, DURING/AFTER, AFTER, UNKNOWN | Start relative to the sponsor-defined reference period |", "score": 0.385, "match_basis": "verbatim_token+chapter_route:ch04"}], "candidate_count": 5, "zero_candidate": false}
{"pdf_atom_id": "ig34_p0059_a031", "pdf_atom_type": "SENTENCE", "pdf_source": "SDTMIG_v3.4", "pdf_page": 59, "pdf_parent_section": "§4.5.9 [Baseline Values]", "pdf_verbatim": "As shown in the table, each variable serves a specific need.", "figure_ref": null, "candidates": [{"md_atom_id": "md_ch04_a1038", "md_file": "knowledge_base/chapters/ch04_general_assumptions.md", "md_atom_type": "SENTENCE", "md_parent_section": "§4.5.9 [Baseline Values]", "md_verbatim": "As shown in the table, each variable serves a specific need.", "score": 0.9, "match_basis": "verbatim_token+chapter_route:ch04"}, {"md_atom_id": "md_ch04_a990", "md_file": "knowledge_base/chapters/ch04_general_assumptions.md", "md_atom_type": "SENTENCE", "md_parent_section": "§4.5.7 [Presence or Absence of Prespecified Interventions and Events]", "md_verbatim": "The --PRESP variable is used to indicate whether a specific intervention (--TRT) or event (--TERM) was solicited.", "score": 0.4525, "match_basis": "verbatim_token+chapter_route:ch04"}, {"md_atom_id": "md_ch04_a994", "md_file": "knowledge_base/chapters/ch04_general_assumptions.md", "md_atom_type": "SENTENCE", "md_parent_section": "§4.5.7 [Presence or Absence of Prespecified Interventions and Events]", "md_verbatim": "The --OCCUR variable is used to indicate whether a prespecified intervention or event occurred or did not occur.", "score": 0.4424, "match_basis": "verbatim_token+chapter_route:ch04"}, {"md_atom_id": "md_ch04_a360", "md_file": "knowledge_base/chapters/ch04_general_assumptions.md", "md_atom_type": "SENTENCE", "md_parent_section": "§4.2.8.3 [Multiple Values for a Non-result Qualifier Variable]", "md_verbatim": "The SDTM permits 1 value for each qualifier variable per record.", "score": 0.4304, "match_basis": "verbatim_token+chapter_route:ch04"}, {"md_atom_id": "md_ch04_a992", "md_file": "knowledge_base/chapters/ch04_general_assumptions.md", "md_atom_type": "SENTENCE", "md_parent_section": "§4.5.7 [Presence or Absence of Prespecified Interventions and Events]", "md_verbatim": "It is a permissible variable, and should only be used when the topic variable values come from a prespecified list.", "score": 0.4279, "match_basis": "verbatim_token+chapter_route:ch04"}], "candidate_count": 5, "zero_candidate": false}
{"pdf_atom_id": "ig34_p0059_a032", "pdf_atom_type": "SENTENCE", "pdf_source": "SDTMIG_v3.4", "pdf_page": 59, "pdf_parent_section": "§4.5.9 [Baseline Values]", "pdf_verbatim": "The SDTM variable --LOBXFL (and/or --BLFL, if used) can be copied to ADaM for traceability and transparency, but only the ADaM variable ABLFL would be used to signify baseline for analysis.", "figure_ref": null, "candidates": [{"md_atom_id": "md_ch04_a1039", "md_file": "knowledge_base/chapters/ch04_general_assumptions.md", "md_atom_type": "SENTENCE", "md_parent_section": "§4.5.9 [Baseline Values]", "md_verbatim": "The SDTM variable --LOBXFL (and/or --BLFL, if used) can be copied to ADaM for traceability and transparency, but only the ADaM variable ABLFL would be used to signify baseline for analysis.", "score": 0.9, "match_basis": "verbatim_token+chapter_route:ch04"}, {"md_atom_id": "md_ch04_a1040", "md_file": "knowledge_base/chapters/ch04_general_assumptions.md", "md_atom_type": "SENTENCE", "md_parent_section": "§4.5.9 [Baseline Values]", "md_verbatim": "The content of --LOBXFL and ABLFL will be exactly the same when the SAP specifies that the baseline used for analysis is the last non-missing value prior to RFXSTDTC.", "score": 0.4263, "match_basis": "verbatim_token+chapter_route:ch04"}, {"md_atom_id": "md_ch04_a992", "md_file": "knowledge_base/chapters/ch04_general_assumptions.md", "md_atom_type": "SENTENCE", "md_parent_section": "§4.5.7 [Presence or Absence of Prespecified Interventions and Events]", "md_verbatim": "It is a permissible variable, and should only be used when the topic variable values come from a prespecified list.", "score": 0.395, "match_basis": "verbatim_token+chapter_route:ch04"}, {"md_atom_id": "md_ch04_a1029", "md_file": "knowledge_base/chapters/ch04_general_assumptions.md", "md_atom_type": "SENTENCE", "md_parent_section": "§4.5.9 [Baseline Values]", "md_verbatim": "The variable --LOBXFL was introduced in SDTMIG v3.3 to address the need for a consistent definition of a value that can serve as a reference with which to compare post-treatment values.", "score": 0.3916, "match_basis": "verbatim_token+chapter_route:ch04"}, {"md_atom_id": "md_ch04_a905", "md_file": "knowledge_base/chapters/ch04_general_assumptions.md", "md_atom_type": "SENTENCE", "md_parent_section": "§4.5.3.2 [Text Strings Greater than 200 Characters in Other Variables]", "md_verbatim": "Because of the current requirement for the SAS V5 transport file format, it is not possible to store long text strings using only 1 variable.", "score": 0.385, "match_basis": "verbatim_token+chapter_route:ch04"}], "candidate_count": 5, "zero_candidate": false}
{"pdf_atom_id": "ig34_p0059_a033", "pdf_atom_type": "SENTENCE", "pdf_source": "SDTMIG_v3.4", "pdf_page": 59, "pdf_parent_section": "§4.5.9 [Baseline Values]", "pdf_verbatim": "The content of --LOBXFL and ABLFL will be exactly the same when the SAP specifies that the baseline used for analysis is the last non-missing value prior to RFXSTDTC.", "figure_ref": null, "candidates": [{"md_atom_id": "md_ch04_a1040", "md_file": "knowledge_base/chapters/ch04_general_assumptions.md", "md_atom_type": "SENTENCE", "md_parent_section": "§4.5.9 [Baseline Values]", "md_verbatim": "The content of --LOBXFL and ABLFL will be exactly the same when the SAP specifies that the baseline used for analysis is the last non-missing value prior to RFXSTDTC.", "score": 0.9, "match_basis": "verbatim_token+chapter_route:ch04"}, {"md_atom_id": "md_ch04_a276", "md_file": "knowledge_base/chapters/ch04_general_assumptions.md", "md_atom_type": "SENTENCE", "md_parent_section": "§4.2.7.1 [\"Specify\" Values for Non-Result Qualifier Variables]", "md_verbatim": "When the CRF includes a list of values for a qualifier field that includes \"Other\" and the \"Other\" is supplemented with a \"Specify\" free-text field, then the manner in which the free-text \"Specify\" value is submitted will vary based on the sponsor's coding practice and analysis requirements.", "score": 0.4338, "match_basis": "verbatim_token+chapter_route:ch04"}, {"md_atom_id": "md_ch04_a297", "md_file": "knowledge_base/chapters/ch04_general_assumptions.md", "md_atom_type": "SENTENCE", "md_parent_section": "§4.2.7.2 [\"Specify\" Values for Result Qualifier Variables]", "md_verbatim": "When the CRF includes a list of values for a result field that includes \"Other\" and the \"Other\" is supplemented with a \"Specify\" free-text field, then the manner in which the free-text \"Specify\" value is submitted will vary based on the sponsor's coding practice and analysis requirements.", "score": 0.4304, "match_basis": "verbatim_token+chapter_route:ch04"}, {"md_atom_id": "md_ch04_a1039", "md_file": "knowledge_base/chapters/ch04_general_assumptions.md", "md_atom_type": "SENTENCE", "md_parent_section": "§4.5.9 [Baseline Values]", "md_verbatim": "The SDTM variable --LOBXFL (and/or --BLFL, if used) can be copied to ADaM for traceability and transparency, but only the ADaM variable ABLFL would be used to signify baseline for analysis.", "score": 0.4263, "match_basis": "verbatim_token+chapter_route:ch04"}, {"md_atom_id": "md_ch04_a992", "md_file": "knowledge_base/chapters/ch04_general_assumptions.md", "md_atom_type": "SENTENCE", "md_parent_section": "§4.5.7 [Presence or Absence of Prespecified Interventions and Events]", "md_verbatim": "It is a permissible variable, and should only be used when the topic variable values come from a prespecified list.", "score": 0.414, "match_basis": "verbatim_token+chapter_route:ch04"}], "candidate_count": 5, "zero_candidate": false}
{"pdf_atom_id": "ig34_p0060_a001", "pdf_atom_type": "HEADING", "pdf_source": "SDTMIG_v3.4", "pdf_page": 60, "pdf_parent_section": "§5 [Models for Special-purpose Domains]", "pdf_verbatim": "5  Models for Special-purpose Domains", "figure_ref": null, "candidates": [{"md_atom_id": "md_index_a028", "md_file": "knowledge_base/INDEX.md", "md_atom_type": "HEADING", "md_parent_section": "§ Domains (63 domains)", "md_verbatim": "### Special-purpose Domains", "score": 0.75, "match_basis": "verbatim_token+global_search"}, {"md_atom_id": "md_model03_a001", "md_file": "knowledge_base/model/03_special_purpose_domains.md", "md_atom_type": "HEADING", "md_parent_section": "§ SDTM v2.0 — Chapter 3.2: Special-purpose Domains", "md_verbatim": "# SDTM v2.0 — Chapter 3.2: Special-purpose Domains", "score": 0.6333, "match_basis": "verbatim_token+global_search"}, {"md_atom_id": "md_varindex_a245", "md_file": "knowledge_base/VARIABLE_INDEX.md", "md_atom_type": "HEADING", "md_parent_section": "§ 二、领域专属变量（仅 1 个域，共 1499 个），按域分组", "md_verbatim": "### CO — Comments (Special-Purpose)", "score": 0.5308, "match_basis": "verbatim_token+global_search"}, {"md_atom_id": "md_varindex_a1489", "md_file": "knowledge_base/VARIABLE_INDEX.md", "md_atom_type": "HEADING", "md_parent_section": "§ 二、领域专属变量（仅 1 个域，共 1499 个），按域分组", "md_verbatim": "### SV — Subject Visits (Special-Purpose)", "score": 0.5069, "match_basis": "verbatim_token+global_search"}, {"md_atom_id": "md_varindex_a378", "md_file": "knowledge_base/VARIABLE_INDEX.md", "md_atom_type": "HEADING", "md_parent_section": "§ 二、领域专属变量（仅 1 个域，共 1499 个），按域分组", "md_verbatim": "### DM — Demographics (Special-Purpose)", "score": 0.5, "match_basis": "verbatim_token+global_search"}], "candidate_count": 5, "zero_candidate": false}
{"pdf_atom_id": "ig34_p0060_a002", "pdf_atom_type": "SENTENCE", "pdf_source": "SDTMIG_v3.4", "pdf_page": 60, "pdf_parent_section": "§5 [Models for Special-purpose Domains]", "pdf_verbatim": "Special-purpose Domains is an SDTM class in its own right.", "figure_ref": null, "candidates": [{"md_atom_id": "md_model03_a006", "md_file": "knowledge_base/model/03_special_purpose_domains.md", "md_atom_type": "SENTENCE", "md_parent_section": "§ Overview", "md_verbatim": "Other special-purpose domains may be included.", "score": 0.5571, "match_basis": "verbatim_token+global_search"}, {"md_atom_id": "md_model01_a052", "md_file": "knowledge_base/model/01_concepts_and_terms.md", "md_atom_type": "SENTENCE", "md_parent_section": "§2.1 [Model Concepts and Terms — Variables]", "md_verbatim": "The Comments special-purpose domain includes the variable RDOMAIN, but other special-purpose domains do not.", "score": 0.4837, "match_basis": "verbatim_token+global_search"}, {"md_atom_id": "md_ch04_a014", "md_file": "knowledge_base/chapters/ch04_general_assumptions.md", "md_atom_type": "SENTENCE", "md_parent_section": "§4.1.3 [Additional Timing Variables]", "md_verbatim": "Timing variables can be added to special-purpose domains only where specified in the SDTMIG domain model assumptions.", "score": 0.4714, "match_basis": "verbatim_token+global_search"}, {"md_atom_id": "md_model03_a065", "md_file": "knowledge_base/model/03_special_purpose_domains.md", "md_atom_type": "SENTENCE", "md_parent_section": "§ Comments (CO)", "md_verbatim": "The Comments special-purpose domain is used to capture free-text comments that are not a part of normal domain data.", "score": 0.4527, "match_basis": "verbatim_token+global_search"}, {"md_atom_id": "md_model03_a005", "md_file": "knowledge_base/model/03_special_purpose_domains.md", "md_atom_type": "SENTENCE", "md_parent_section": "§ Overview", "md_verbatim": "A Demographics special-purpose domain is included with human and animal studies.", "score": 0.45, "match_basis": "verbatim_token+global_search"}], "candidate_count": 5, "zero_candidate": false}
{"pdf_atom_id": "ig34_p0060_a003", "pdf_atom_type": "SENTENCE", "pdf_source": "SDTMIG_v3.4", "pdf_page": 60, "pdf_parent_section": "§5 [Models for Special-purpose Domains]", "pdf_verbatim": "Special-purpose domains provide specific, standardized structures to represent additional important information that does not fit any of the general observation classes.", "figure_ref": null, "candidates": [{"md_atom_id": "md_model03_a004", "md_file": "knowledge_base/model/03_special_purpose_domains.md", "md_atom_type": "SENTENCE", "md_parent_section": "§ Overview", "md_verbatim": "In addition to the 3 general observation classes, a submission will generally include a set of other special-purpose datasets of specific standardized structures to represent additional important information.", "score": 0.6879, "match_basis": "verbatim_token+global_search"}, {"md_atom_id": "md_ch02_a037", "md_file": "knowledge_base/chapters/ch02_fundamentals.md", "md_atom_type": "SENTENCE", "md_parent_section": "§2.2 [Datasets and Domains]", "md_verbatim": "The domain dataset models in Section 5, Models for Special-purpose Domains, and Section 6, Domain Models Based on the General Observation Classes, provide additional information about controlled terms or format, notes on proper usage, and examples.", "score": 0.5418, "match_basis": "verbatim_token+global_search"}, {"md_atom_id": "md_model04_a005", "md_file": "knowledge_base/model/04_associated_persons.md", "md_atom_type": "SENTENCE", "md_parent_section": "§4 [SDTM v2.0 — Chapter 4: Associated Persons Data]", "md_verbatim": "The structures of SDTM datasets that represent data about associated persons are based on the structures for data about study subjects, either general observation class structures or special-purpose domain structures.", "score": 0.5279, "match_basis": "verbatim_token+global_search"}, {"md_atom_id": "md_ch04_a1007", "md_file": "knowledge_base/chapters/ch04_general_assumptions.md", "md_atom_type": "SENTENCE", "md_parent_section": "§4.5.7 [Presence or Absence of Prespecified Interventions and Events]", "md_verbatim": "Refer to the standard domains in the Events and Interventions general observation classes for additional assumptions and examples.", "score": 0.5035, "match_basis": "verbatim_token+global_search"}, {"md_atom_id": "md_ch04_a013", "md_file": "knowledge_base/chapters/ch04_general_assumptions.md", "md_atom_type": "SENTENCE", "md_parent_section": "§4.1.3 [Additional Timing Variables]", "md_verbatim": "Additional Timing variables can be added as needed to a standard domain model based on the 3 general observation classes, except for the cases specified in Assumption 4.4.8, Date and Time Reported in a Domain Based on Findings.", "score": 0.4957, "match_basis": "verbatim_token+global_search"}], "candidate_count": 5, "zero_candidate": false}
{"pdf_atom_id": "ig34_p0060_a004", "pdf_atom_type": "HEADING", "pdf_source": "SDTMIG_v3.4", "pdf_page": 60, "pdf_parent_section": "§5.1 [Comments (CO)]", "pdf_verbatim": "5.1 Comments (CO)", "figure_ref": null, "candidates": [{"md_atom_id": "md_dmCO_assn_a001", "md_file": "knowledge_base/domains/CO/assumptions.md", "md_atom_type": "HEADING", "md_parent_section": "§CO [CO — Assumptions]", "md_verbatim": "# CO — Assumptions", "score": 0.4, "match_basis": "verbatim_token+domain_route:CO"}, {"md_atom_id": "md_dmCO_ex_a001", "md_file": "knowledge_base/domains/CO/examples.md", "md_atom_type": "HEADING", "md_parent_section": "§CO [CO — Examples]", "md_verbatim": "# CO — Examples", "score": 0.4, "match_basis": "verbatim_token+domain_route:CO"}, {"md_atom_id": "md_dmCO_ex_a002", "md_file": "knowledge_base/domains/CO/examples.md", "md_atom_type": "HEADING", "md_parent_section": "§CO [CO — Examples]", "md_verbatim": "## Example 1", "score": 0.4, "match_basis": "verbatim_token+domain_route:CO"}], "candidate_count": 3, "zero_candidate": false}
{"pdf_atom_id": "ig34_p0060_a005", "pdf_atom_type": "HEADING", "pdf_source": "SDTMIG_v3.4", "pdf_page": 60, "pdf_parent_section": "§5.1 [Comments (CO)]", "pdf_verbatim": "CO – Description/Overview", "figure_ref": null, "candidates": [{"md_atom_id": "md_dmCO_assn_a001", "md_file": "knowledge_base/domains/CO/assumptions.md", "md_atom_type": "HEADING", "md_parent_section": "§CO [CO — Assumptions]", "md_verbatim": "# CO — Assumptions", "score": 0.4857, "match_basis": "verbatim_token+domain_route:CO"}, {"md_atom_id": "md_dmCO_ex_a001", "md_file": "knowledge_base/domains/CO/examples.md", "md_atom_type": "HEADING", "md_parent_section": "§CO [CO — Examples]", "md_verbatim": "# CO — Examples", "score": 0.4, "match_basis": "verbatim_token+domain_route:CO"}, {"md_atom_id": "md_dmCO_ex_a002", "md_file": "knowledge_base/domains/CO/examples.md", "md_atom_type": "HEADING", "md_parent_section": "§CO [CO — Examples]", "md_verbatim": "## Example 1", "score": 0.4, "match_basis": "verbatim_token+domain_route:CO"}], "candidate_count": 3, "zero_candidate": false}
{"pdf_atom_id": "ig34_p0060_a006", "pdf_atom_type": "SENTENCE", "pdf_source": "SDTMIG_v3.4", "pdf_page": 60, "pdf_parent_section": "§5.1 [Comments (CO)]", "pdf_verbatim": "A special-purpose domain that contains comments that may be collected alongside other data.", "figure_ref": null, "candidates": [{"md_atom_id": "md_dmCO_ex_a003", "md_file": "knowledge_base/domains/CO/examples.md", "md_atom_type": "SENTENCE", "md_parent_section": "§CO.1 [Example 1]", "md_verbatim": "**Row 1:** Shows a comment collected on a separate comments page. Since it was unrelated to any specific domain or record, RDOMAIN, IDVAR, and IDVARVAL are null.", "score": 0.5379, "match_basis": "verbatim_token+domain_route:CO"}, {"md_atom_id": "md_dmCO_ex_a004", "md_file": "knowledge_base/domains/CO/examples.md", "md_atom_type": "SENTENCE", "md_parent_section": "§CO.1 [Example 1]", "md_verbatim": "**Row 2:** Shows a comment that was collected on the bottom of the PE page for Visit 7, without any indication of specific records it applied to. Since the comment related to a specific domain, RDOMAIN is populated. Since it was related to a specific visit, VISIT, COREF is \"VISIT 7\". However, since it does not relate to a specific record, IDVAR and IDVARVAL are null.", "score": 0.51, "match_basis": "verbatim_token+domain_route:CO"}, {"md_atom_id": "md_dmCO_ex_a008", "md_file": "knowledge_base/domains/CO/examples.md", "md_atom_type": "SENTENCE", "md_parent_section": "§CO.1 [Example 1]", "md_verbatim": "**Row 6:** Shows one option for representing a comment collected on a visit-specific comments page not associated with a particular domain. In this case, the comment is linked to the Subject Visit record in SV (RDOMAIN = \"SV\") and IDVAR and IDVARVAL are populated link the comment to the particular visit.", "score": 0.51, "match_basis": "verbatim_token+domain_route:CO"}, {"md_atom_id": "md_dmCO_ex_a009", "md_file": "knowledge_base/domains/CO/examples.md", "md_atom_type": "SENTENCE", "md_parent_section": "§CO.1 [Example 1]", "md_verbatim": "**Row 7:** Shows a second option for representing a comment associated only with a visit. In this case, COREF is used to show that the comment is related to the particular visit.", "score": 0.4653, "match_basis": "verbatim_token+domain_route:CO"}, {"md_atom_id": "md_dmCO_ex_a010", "md_file": "knowledge_base/domains/CO/examples.md", "md_atom_type": "SENTENCE", "md_parent_section": "§CO.1 [Example 1]", "md_verbatim": "**Row 8:** Shows a third option for representing a comment associated only with a visit. In this case, the VISITNUM variable was populated to indicate that the comment was associated with a particular visit.", "score": 0.4541, "match_basis": "verbatim_token+domain_route:CO"}], "candidate_count": 5, "zero_candidate": false}
{"pdf_atom_id": "ig34_p0060_a007", "pdf_atom_type": "HEADING", "pdf_source": "SDTMIG_v3.4", "pdf_page": 60, "pdf_parent_section": "§5.1 [Comments (CO)]", "pdf_verbatim": "CO – Specification", "figure_ref": null, "candidates": [{"md_atom_id": "md_dmCO_assn_a001", "md_file": "knowledge_base/domains/CO/assumptions.md", "md_atom_type": "HEADING", "md_parent_section": "§CO [CO — Assumptions]", "md_verbatim": "# CO — Assumptions", "score": 0.4667, "match_basis": "verbatim_token+domain_route:CO"}, {"md_atom_id": "md_dmCO_ex_a001", "md_file": "knowledge_base/domains/CO/examples.md", "md_atom_type": "HEADING", "md_parent_section": "§CO [CO — Examples]", "md_verbatim": "# CO — Examples", "score": 0.4, "match_basis": "verbatim_token+domain_route:CO"}, {"md_atom_id": "md_dmCO_ex_a002", "md_file": "knowledge_base/domains/CO/examples.md", "md_atom_type": "HEADING", "md_parent_section": "§CO [CO — Examples]", "md_verbatim": "## Example 1", "score": 0.4, "match_basis": "verbatim_token+domain_route:CO"}], "candidate_count": 3, "zero_candidate": false}
{"pdf_atom_id": "ig34_p0060_a008", "pdf_atom_type": "SENTENCE", "pdf_source": "SDTMIG_v3.4", "pdf_page": 60, "pdf_parent_section": "§5.1 [Comments (CO)]", "pdf_verbatim": "co.xpt, Comments — Special Purpose. One record per comment per subject, Tabulation.", "figure_ref": null, "candidates": [{"md_atom_id": "md_dmCO_ex_a008", "md_file": "knowledge_base/domains/CO/examples.md", "md_atom_type": "SENTENCE", "md_parent_section": "§CO.1 [Example 1]", "md_verbatim": "**Row 6:** Shows one option for representing a comment collected on a visit-specific comments page not associated with a particular domain. In this case, the comment is linked to the Subject Visit record in SV (RDOMAIN = \"SV\") and IDVAR and IDVARVAL are populated link the comment to the particular visit.", "score": 0.5346, "match_basis": "verbatim_token+domain_route:CO"}, {"md_atom_id": "md_dmCO_ex_a003", "md_file": "knowledge_base/domains/CO/examples.md", "md_atom_type": "SENTENCE", "md_parent_section": "§CO.1 [Example 1]", "md_verbatim": "**Row 1:** Shows a comment collected on a separate comments page. Since it was unrelated to any specific domain or record, RDOMAIN, IDVAR, and IDVARVAL are null.", "score": 0.5111, "match_basis": "verbatim_token+domain_route:CO"}, {"md_atom_id": "md_dmCO_ex_a005", "md_file": "knowledge_base/domains/CO/examples.md", "md_atom_type": "SENTENCE", "md_parent_section": "§CO.1 [Example 1]", "md_verbatim": "**Row 3:** Shows a comment related to a single AE record having its AESEQ=7.", "score": 0.5091, "match_basis": "verbatim_token+domain_route:CO"}, {"md_atom_id": "md_dmCO_ex_a007", "md_file": "knowledge_base/domains/CO/examples.md", "md_atom_type": "SENTENCE", "md_parent_section": "§CO.1 [Example 1]", "md_verbatim": "**Row 5:** Shows a comment related to multiple VS records with VSGRPID = \"VS2\".", "score": 0.5017, "match_basis": "verbatim_token+domain_route:CO"}, {"md_atom_id": "md_dmCO_ex_a006", "md_file": "knowledge_base/domains/CO/examples.md", "md_atom_type": "SENTENCE", "md_parent_section": "§CO.1 [Example 1]", "md_verbatim": "**Row 4:** Shows a comment related to multiple EX records with EXGRPID = \"COMBO1\".", "score": 0.4984, "match_basis": "verbatim_token+domain_route:CO"}], "candidate_count": 5, "zero_candidate": false}
{"pdf_atom_id": "ig34_p0060_a009", "pdf_atom_type": "CODE_LITERAL", "pdf_source": "SDTMIG_v3.4", "pdf_page": 60, "pdf_parent_section": "§5.1 [Comments (CO)]", "pdf_verbatim": "co.xpt", "figure_ref": null, "candidates": [{"md_atom_id": "md_dmCO_ex_a011", "md_file": "knowledge_base/domains/CO/examples.md", "md_atom_type": "SENTENCE", "md_parent_section": "§CO.1 [Example 1]", "md_verbatim": "**co.xpt**", "score": 0.79, "match_basis": "verbatim_token+domain_route:CO"}, {"md_atom_id": "md_dmCO_assn_a001", "md_file": "knowledge_base/domains/CO/assumptions.md", "md_atom_type": "HEADING", "md_parent_section": "§CO [CO — Assumptions]", "md_verbatim": "# CO — Assumptions", "score": 0.19, "match_basis": "verbatim_token+domain_route:CO"}, {"md_atom_id": "md_dmCO_assn_a002", "md_file": "knowledge_base/domains/CO/assumptions.md", "md_atom_type": "LIST_ITEM", "md_parent_section": "§CO [CO — Assumptions]", "md_verbatim": "1. The Comments special-purpose domain provides a solution for submitting free-text comments related to data in 1 or more SDTM domains (as described in Section 8.5, Relating Comments to a Parent Domain) or collected on a separate CRF page dedicated to comments. Comments are generally not responses to specific questions; instead, comments usually consist of voluntary free-text or unsolicited observations.", "score": 0.19, "match_basis": "verbatim_token+domain_route:CO"}, {"md_atom_id": "md_dmCO_assn_a003", "md_file": "knowledge_base/domains/CO/assumptions.md", "md_atom_type": "LIST_ITEM", "md_parent_section": "§CO [CO — Assumptions]", "md_verbatim": "2. Although the structure for the Comments domain in the SDTM is \"One record per comment\", USUBJID is required in the comments domain for human clinical trials, so the structure of the Comments domain in the SDTMIG is \"One record per comment per subject.\"", "score": 0.19, "match_basis": "verbatim_token+domain_route:CO"}, {"md_atom_id": "md_dmCO_assn_a004", "md_file": "knowledge_base/domains/CO/assumptions.md", "md_atom_type": "LIST_ITEM", "md_parent_section": "§CO [CO — Assumptions]", "md_verbatim": "3. The CO dataset accommodates 3 sources of comments:", "score": 0.19, "match_basis": "verbatim_token+domain_route:CO"}, {"md_atom_id": "md_dmCO_assn_a005", "md_file": "knowledge_base/domains/CO/assumptions.md", "md_atom_type": "LIST_ITEM", "md_parent_section": "§CO [CO — Assumptions]", "md_verbatim": "   a. Those unrelated to a specific domain or parent record(s), in which case the values of the variables RDOMAIN, IDVAR, and IDVARVAL are null. CODTC should be populated if captured. See Example 1, row 1.", "score": 0.19, "match_basis": "verbatim_token+domain_route:CO"}, {"md_atom_id": "md_dmCO_assn_a006", "md_file": "knowledge_base/domains/CO/assumptions.md", "md_atom_type": "LIST_ITEM", "md_parent_section": "§CO [CO — Assumptions]", "md_verbatim": "   b. Those related to a domain but not to specific parent record(s), in which case the value of the variable RDOMAIN is set to the DOMAIN code of the parent domain and the variables IDVAR and IDVARVAL are null. CODTC should be populated if captured. See Example 1, row 2.", "score": 0.19, "match_basis": "verbatim_token+domain_route:CO"}, {"md_atom_id": "md_dmCO_assn_a007", "md_file": "knowledge_base/domains/CO/assumptions.md", "md_atom_type": "LIST_ITEM", "md_parent_section": "§CO [CO — Assumptions]", "md_verbatim": "   c. Those related to a specific parent record or group of parent records, in which case the value of the variable RDOMAIN is set to the DOMAIN code of the parent record(s) and the variables IDVAR and IDVARVAL are populated with the key variable name and value of the parent record(s). Assumptions for populating IDVAR and IDVARVAL are further described in Section 8.5, Relating Comments to a Parent Domain. CODTC should be null because the timing of the parent record(s) is inherited by the comment record. See Example 1, rows 3-5.", "score": 0.19, "match_basis": "verbatim_token+domain_route:CO"}, {"md_atom_id": "md_dmCO_assn_a008", "md_file": "knowledge_base/domains/CO/assumptions.md", "md_atom_type": "LIST_ITEM", "md_parent_section": "§CO [CO — Assumptions]", "md_verbatim": "4. When the comment text is longer than 200 characters, the first 200 characters of the comment will be in COVAL, the next 200 in COVAL1, and additional text stored as needed to COVALn. See Example 1, rows 3-4. Additional information about how to relate comments to parent SDTM records is provided in Section 8.5, Relating Comments to a Parent Domain.", "score": 0.19, "match_basis": "verbatim_token+domain_route:CO"}, {"md_atom_id": "md_dmCO_assn_a009", "md_file": "knowledge_base/domains/CO/assumptions.md", "md_atom_type": "LIST_ITEM", "md_parent_section": "§CO [CO — Assumptions]", "md_verbatim": "5. The variable COREF may be null unless it is used to identify the source of the comment. See Example 1, rows 1 and 5.", "score": 0.19, "match_basis": "verbatim_token+domain_route:CO"}], "candidate_count": 10, "zero_candidate": false}
{"pdf_atom_id": "ig34_p0060_a010", "pdf_atom_type": "TABLE_HEADER", "pdf_source": "SDTMIG_v3.4", "pdf_page": 60, "pdf_parent_section": "§5.1 [Comments (CO)]", "pdf_verbatim": "| Variable Name | Variable Label | Type | Controlled Terms, Codelist or Format¹ | Role | CDISC Notes | Core |", "figure_ref": null, "candidates": [{"md_atom_id": "md_dmCO_ex_a012", "md_file": "knowledge_base/domains/CO/examples.md", "md_atom_type": "TABLE_HEADER", "md_parent_section": "§CO.1 [Example 1]", "md_verbatim": "| Row | STUDYID | DOMAIN | RDOMAIN | USUBJID | COSEQ | IDVAR | IDVARVAL | COREF | COVAL | COVAL1 | COVAL2 | COEVAL | VISITNUM | CODTC |\n|-----|---------|--------|---------|---------|-------|-------|----------|-------|-------|--------|--------|--------|----------|-------|", "score": 0.4289, "match_basis": "verbatim_token+domain_route:CO"}, {"md_atom_id": "md_dmCO_ex_a015", "md_file": "knowledge_base/domains/CO/examples.md", "md_atom_type": "TABLE_ROW", "md_parent_section": "§CO.1 [Example 1]", "md_verbatim": "| 3 | 1234 | CO | AE | AB-99 | 3 | AESEQ | 7 | PAGE 650 | First 200 characters | Next 200 characters | Remaining text | PRINCIPAL INVESTIGATOR | | |", "score": 0.3467, "match_basis": "verbatim_token+domain_route:CO"}, {"md_atom_id": "md_dmCO_ex_a016", "md_file": "knowledge_base/domains/CO/examples.md", "md_atom_type": "TABLE_ROW", "md_parent_section": "§CO.1 [Example 1]", "md_verbatim": "| 4 | 1234 | CO | EX | AB-99 | 4 | EXGRPID | COMBO1 | PAGE 320-355 | First 200 characters | | Remaining text | PRINCIPAL INVESTIGATOR | | |", "score": 0.3463, "match_basis": "verbatim_token+domain_route:CO"}, {"md_atom_id": "md_dmCO_ex_a013", "md_file": "knowledge_base/domains/CO/examples.md", "md_atom_type": "TABLE_ROW", "md_parent_section": "§CO.1 [Example 1]", "md_verbatim": "| 1 | 1234 | CO | | AB-99 | 1 | | | | Comment text | | | PRINCIPAL INVESTIGATOR | | 2003-11-08 |", "score": 0.34, "match_basis": "verbatim_token+domain_route:CO"}, {"md_atom_id": "md_dmCO_ex_a014", "md_file": "knowledge_base/domains/CO/examples.md", "md_atom_type": "TABLE_ROW", "md_parent_section": "§CO.1 [Example 1]", "md_verbatim": "| 2 | 1234 | CO | PE | AB-99 | 2 | | | VISIT 7 | Comment text | | | PRINCIPAL INVESTIGATOR | | 2004-01-14 |", "score": 0.34, "match_basis": "verbatim_token+domain_route:CO"}], "candidate_count": 5, "zero_candidate": false}
{"pdf_atom_id": "ig34_p0060_a011", "pdf_atom_type": "TABLE_ROW", "pdf_source": "SDTMIG_v3.4", "pdf_page": 60, "pdf_parent_section": "§5.1 [Comments (CO)]", "pdf_verbatim": "| STUDYID | Study Identifier | Char | | Identifier | Unique identifier for a study. | Req |", "figure_ref": null, "candidates": [{"md_atom_id": "md_dmCO_ex_a015", "md_file": "knowledge_base/domains/CO/examples.md", "md_atom_type": "TABLE_ROW", "md_parent_section": "§CO.1 [Example 1]", "md_verbatim": "| 3 | 1234 | CO | AE | AB-99 | 3 | AESEQ | 7 | PAGE 650 | First 200 characters | Next 200 characters | Remaining text | PRINCIPAL INVESTIGATOR | | |", "score": 0.4182, "match_basis": "verbatim_token+domain_route:CO"}, {"md_atom_id": "md_dmCO_ex_a016", "md_file": "knowledge_base/domains/CO/examples.md", "md_atom_type": "TABLE_ROW", "md_parent_section": "§CO.1 [Example 1]", "md_verbatim": "| 4 | 1234 | CO | EX | AB-99 | 4 | EXGRPID | COMBO1 | PAGE 320-355 | First 200 characters | | Remaining text | PRINCIPAL INVESTIGATOR | | |", "score": 0.4167, "match_basis": "verbatim_token+domain_route:CO"}, {"md_atom_id": "md_dmCO_ex_a020", "md_file": "knowledge_base/domains/CO/examples.md", "md_atom_type": "TABLE_ROW", "md_parent_section": "§CO.1 [Example 1]", "md_verbatim": "| 8 | 1234 | CO | | AB-99 | 8 | | | | Comment Text | | | PRINCIPAL INVESTIGATOR | 4 | |", "score": 0.413, "match_basis": "verbatim_token+domain_route:CO"}, {"md_atom_id": "md_dmCO_ex_a013", "md_file": "knowledge_base/domains/CO/examples.md", "md_atom_type": "TABLE_ROW", "md_parent_section": "§CO.1 [Example 1]", "md_verbatim": "| 1 | 1234 | CO | | AB-99 | 1 | | | | Comment text | | | PRINCIPAL INVESTIGATOR | | 2003-11-08 |", "score": 0.4125, "match_basis": "verbatim_token+domain_route:CO"}, {"md_atom_id": "md_dmCO_ex_a019", "md_file": "knowledge_base/domains/CO/examples.md", "md_atom_type": "TABLE_ROW", "md_parent_section": "§CO.1 [Example 1]", "md_verbatim": "| 7 | 1234 | CO | | AB-99 | 7 | | | VISIT 4 | Comment Text | | | PRINCIPAL INVESTIGATOR | | |", "score": 0.4122, "match_basis": "verbatim_token+domain_route:CO"}], "candidate_count": 5, "zero_candidate": false}
{"pdf_atom_id": "ig34_p0060_a012", "pdf_atom_type": "TABLE_ROW", "pdf_source": "SDTMIG_v3.4", "pdf_page": 60, "pdf_parent_section": "§5.1 [Comments (CO)]", "pdf_verbatim": "| DOMAIN | Domain Abbreviation | Char | CO | Identifier | Two-character abbreviation for the domain. | Req |", "figure_ref": null, "candidates": [{"md_atom_id": "md_dmCO_ex_a015", "md_file": "knowledge_base/domains/CO/examples.md", "md_atom_type": "TABLE_ROW", "md_parent_section": "§CO.1 [Example 1]", "md_verbatim": "| 3 | 1234 | CO | AE | AB-99 | 3 | AESEQ | 7 | PAGE 650 | First 200 characters | Next 200 characters | Remaining text | PRINCIPAL INVESTIGATOR | | |", "score": 0.4761, "match_basis": "verbatim_token+domain_route:CO"}, {"md_atom_id": "md_dmCO_ex_a016", "md_file": "knowledge_base/domains/CO/examples.md", "md_atom_type": "TABLE_ROW", "md_parent_section": "§CO.1 [Example 1]", "md_verbatim": "| 4 | 1234 | CO | EX | AB-99 | 4 | EXGRPID | COMBO1 | PAGE 320-355 | First 200 characters | | Remaining text | PRINCIPAL INVESTIGATOR | | |", "score": 0.4701, "match_basis": "verbatim_token+domain_route:CO"}, {"md_atom_id": "md_dmCO_ex_a020", "md_file": "knowledge_base/domains/CO/examples.md", "md_atom_type": "TABLE_ROW", "md_parent_section": "§CO.1 [Example 1]", "md_verbatim": "| 8 | 1234 | CO | | AB-99 | 8 | | | | Comment Text | | | PRINCIPAL INVESTIGATOR | 4 | |", "score": 0.4103, "match_basis": "verbatim_token+domain_route:CO"}, {"md_atom_id": "md_dmCO_ex_a013", "md_file": "knowledge_base/domains/CO/examples.md", "md_atom_type": "TABLE_ROW", "md_parent_section": "§CO.1 [Example 1]", "md_verbatim": "| 1 | 1234 | CO | | AB-99 | 1 | | | | Comment text | | | PRINCIPAL INVESTIGATOR | | 2003-11-08 |", "score": 0.41, "match_basis": "verbatim_token+domain_route:CO"}, {"md_atom_id": "md_dmCO_ex_a019", "md_file": "knowledge_base/domains/CO/examples.md", "md_atom_type": "TABLE_ROW", "md_parent_section": "§CO.1 [Example 1]", "md_verbatim": "| 7 | 1234 | CO | | AB-99 | 7 | | | VISIT 4 | Comment Text | | | PRINCIPAL INVESTIGATOR | | |", "score": 0.4098, "match_basis": "verbatim_token+domain_route:CO"}], "candidate_count": 5, "zero_candidate": false}
{"pdf_atom_id": "ig34_p0060_a013", "pdf_atom_type": "TABLE_ROW", "pdf_source": "SDTMIG_v3.4", "pdf_page": 60, "pdf_parent_section": "§5.1 [Comments (CO)]", "pdf_verbatim": "| RDOMAIN | Related Domain Abbreviation | Char | (DOMAIN) | Record Qualifier | Two-character abbreviation for the domain of the parent record(s). Null for comments collected on a general comments or additional information CRF page. | Perm |", "figure_ref": null, "candidates": [{"md_atom_id": "md_dmCO_ex_a016", "md_file": "knowledge_base/domains/CO/examples.md", "md_atom_type": "TABLE_ROW", "md_parent_section": "§CO.1 [Example 1]", "md_verbatim": "| 4 | 1234 | CO | EX | AB-99 | 4 | EXGRPID | COMBO1 | PAGE 320-355 | First 200 characters | | Remaining text | PRINCIPAL INVESTIGATOR | | |", "score": 0.4605, "match_basis": "verbatim_token+domain_route:CO"}, {"md_atom_id": "md_dmCO_ex_a015", "md_file": "knowledge_base/domains/CO/examples.md", "md_atom_type": "TABLE_ROW", "md_parent_section": "§CO.1 [Example 1]", "md_verbatim": "| 3 | 1234 | CO | AE | AB-99 | 3 | AESEQ | 7 | PAGE 650 | First 200 characters | Next 200 characters | Remaining text | PRINCIPAL INVESTIGATOR | | |", "score": 0.4579, "match_basis": "verbatim_token+domain_route:CO"}, {"md_atom_id": "md_dmCO_ex_a020", "md_file": "knowledge_base/domains/CO/examples.md", "md_atom_type": "TABLE_ROW", "md_parent_section": "§CO.1 [Example 1]", "md_verbatim": "| 8 | 1234 | CO | | AB-99 | 8 | | | | Comment Text | | | PRINCIPAL INVESTIGATOR | 4 | |", "score": 0.4303, "match_basis": "verbatim_token+domain_route:CO"}, {"md_atom_id": "md_dmCO_ex_a013", "md_file": "knowledge_base/domains/CO/examples.md", "md_atom_type": "TABLE_ROW", "md_parent_section": "§CO.1 [Example 1]", "md_verbatim": "| 1 | 1234 | CO | | AB-99 | 1 | | | | Comment text | | | PRINCIPAL INVESTIGATOR | | 2003-11-08 |", "score": 0.4297, "match_basis": "verbatim_token+domain_route:CO"}, {"md_atom_id": "md_dmCO_ex_a019", "md_file": "knowledge_base/domains/CO/examples.md", "md_atom_type": "TABLE_ROW", "md_parent_section": "§CO.1 [Example 1]", "md_verbatim": "| 7 | 1234 | CO | | AB-99 | 7 | | | VISIT 4 | Comment Text | | | PRINCIPAL INVESTIGATOR | | |", "score": 0.4294, "match_basis": "verbatim_token+domain_route:CO"}], "candidate_count": 5, "zero_candidate": false}
{"pdf_atom_id": "ig34_p0060_a014", "pdf_atom_type": "TABLE_ROW", "pdf_source": "SDTMIG_v3.4", "pdf_page": 60, "pdf_parent_section": "§5.1 [Comments (CO)]", "pdf_verbatim": "| USUBJID | Unique Subject Identifier | Char | | Identifier | Identifier used to uniquely identify a subject across all studies for all applications or submissions involving the product. | Req |", "figure_ref": null, "candidates": [{"md_atom_id": "md_dmCO_ex_a015", "md_file": "knowledge_base/domains/CO/examples.md", "md_atom_type": "TABLE_ROW", "md_parent_section": "§CO.1 [Example 1]", "md_verbatim": "| 3 | 1234 | CO | AE | AB-99 | 3 | AESEQ | 7 | PAGE 650 | First 200 characters | Next 200 characters | Remaining text | PRINCIPAL INVESTIGATOR | | |", "score": 0.4216, "match_basis": "verbatim_token+domain_route:CO"}, {"md_atom_id": "md_dmCO_ex_a016", "md_file": "knowledge_base/domains/CO/examples.md", "md_atom_type": "TABLE_ROW", "md_parent_section": "§CO.1 [Example 1]", "md_verbatim": "| 4 | 1234 | CO | EX | AB-99 | 4 | EXGRPID | COMBO1 | PAGE 320-355 | First 200 characters | | Remaining text | PRINCIPAL INVESTIGATOR | | |", "score": 0.4205, "match_basis": "verbatim_token+domain_route:CO"}, {"md_atom_id": "md_dmCO_ex_a020", "md_file": "knowledge_base/domains/CO/examples.md", "md_atom_type": "TABLE_ROW", "md_parent_section": "§CO.1 [Example 1]", "md_verbatim": "| 8 | 1234 | CO | | AB-99 | 8 | | | | Comment Text | | | PRINCIPAL INVESTIGATOR | 4 | |", "score": 0.413, "match_basis": "verbatim_token+domain_route:CO"}, {"md_atom_id": "md_dmCO_ex_a013", "md_file": "knowledge_base/domains/CO/examples.md", "md_atom_type": "TABLE_ROW", "md_parent_section": "§CO.1 [Example 1]", "md_verbatim": "| 1 | 1234 | CO | | AB-99 | 1 | | | | Comment text | | | PRINCIPAL INVESTIGATOR | | 2003-11-08 |", "score": 0.4128, "match_basis": "verbatim_token+domain_route:CO"}, {"md_atom_id": "md_dmCO_ex_a019", "md_file": "knowledge_base/domains/CO/examples.md", "md_atom_type": "TABLE_ROW", "md_parent_section": "§CO.1 [Example 1]", "md_verbatim": "| 7 | 1234 | CO | | AB-99 | 7 | | | VISIT 4 | Comment Text | | | PRINCIPAL INVESTIGATOR | | |", "score": 0.4126, "match_basis": "verbatim_token+domain_route:CO"}], "candidate_count": 5, "zero_candidate": false}
{"pdf_atom_id": "ig34_p0060_a015", "pdf_atom_type": "TABLE_ROW", "pdf_source": "SDTMIG_v3.4", "pdf_page": 60, "pdf_parent_section": "§5.1 [Comments (CO)]", "pdf_verbatim": "| COSEQ | Sequence Number | Num | | Identifier | Sequence Number given to ensure uniqueness of subject records within a domain. May be any valid number. | Req |", "figure_ref": null, "candidates": [{"md_atom_id": "md_dmCO_ex_a012", "md_file": "knowledge_base/domains/CO/examples.md", "md_atom_type": "TABLE_HEADER", "md_parent_section": "§CO.1 [Example 1]", "md_verbatim": "| Row | STUDYID | DOMAIN | RDOMAIN | USUBJID | COSEQ | IDVAR | IDVARVAL | COREF | COVAL | COVAL1 | COVAL2 | COEVAL | VISITNUM | CODTC |\n|-----|---------|--------|---------|---------|-------|-------|----------|-------|-------|--------|--------|--------|----------|-------|", "score": 0.4209, "match_basis": "verbatim_token+domain_route:CO"}, {"md_atom_id": "md_dmCO_ex_a015", "md_file": "knowledge_base/domains/CO/examples.md", "md_atom_type": "TABLE_ROW", "md_parent_section": "§CO.1 [Example 1]", "md_verbatim": "| 3 | 1234 | CO | AE | AB-99 | 3 | AESEQ | 7 | PAGE 650 | First 200 characters | Next 200 characters | Remaining text | PRINCIPAL INVESTIGATOR | | |", "score": 0.4178, "match_basis": "verbatim_token+domain_route:CO"}, {"md_atom_id": "md_dmCO_ex_a018", "md_file": "knowledge_base/domains/CO/examples.md", "md_atom_type": "TABLE_ROW", "md_parent_section": "§CO.1 [Example 1]", "md_verbatim": "| 6 | 1234 | CO | SV | AB-99 | 6 | VISITNUM | 4 | | Comment Text | | | PRINCIPAL INVESTIGATOR | | |", "score": 0.4138, "match_basis": "verbatim_token+domain_route:CO"}, {"md_atom_id": "md_dmCO_ex_a016", "md_file": "knowledge_base/domains/CO/examples.md", "md_atom_type": "TABLE_ROW", "md_parent_section": "§CO.1 [Example 1]", "md_verbatim": "| 4 | 1234 | CO | EX | AB-99 | 4 | EXGRPID | COMBO1 | PAGE 320-355 | First 200 characters | | Remaining text | PRINCIPAL INVESTIGATOR | | |", "score": 0.4111, "match_basis": "verbatim_token+domain_route:CO"}, {"md_atom_id": "md_dmCO_ex_a020", "md_file": "knowledge_base/domains/CO/examples.md", "md_atom_type": "TABLE_ROW", "md_parent_section": "§CO.1 [Example 1]", "md_verbatim": "| 8 | 1234 | CO | | AB-99 | 8 | | | | Comment Text | | | PRINCIPAL INVESTIGATOR | 4 | |", "score": 0.4073, "match_basis": "verbatim_token+domain_route:CO"}], "candidate_count": 5, "zero_candidate": false}
{"pdf_atom_id": "ig34_p0060_a016", "pdf_atom_type": "TABLE_ROW", "pdf_source": "SDTMIG_v3.4", "pdf_page": 60, "pdf_parent_section": "§5.1 [Comments (CO)]", "pdf_verbatim": "| IDVAR | Identifying Variable | Char | * | Record Qualifier | Identifying variable in the parent dataset that identifies the record(s) to which the comment applies. Examples AESEQ or CMGRPID. Used only when individual comments are related to domain records. Null for comments collected on separate CRFs. | Perm |", "figure_ref": null, "candidates": [{"md_atom_id": "md_dmCO_ex_a016", "md_file": "knowledge_base/domains/CO/examples.md", "md_atom_type": "TABLE_ROW", "md_parent_section": "§CO.1 [Example 1]", "md_verbatim": "| 4 | 1234 | CO | EX | AB-99 | 4 | EXGRPID | COMBO1 | PAGE 320-355 | First 200 characters | | Remaining text | PRINCIPAL INVESTIGATOR | | |", "score": 0.444, "match_basis": "verbatim_token+domain_route:CO"}, {"md_atom_id": "md_dmCO_ex_a015", "md_file": "knowledge_base/domains/CO/examples.md", "md_atom_type": "TABLE_ROW", "md_parent_section": "§CO.1 [Example 1]", "md_verbatim": "| 3 | 1234 | CO | AE | AB-99 | 3 | AESEQ | 7 | PAGE 650 | First 200 characters | Next 200 characters | Remaining text | PRINCIPAL INVESTIGATOR | | |", "score": 0.4414, "match_basis": "verbatim_token+domain_route:CO"}, {"md_atom_id": "md_dmCO_ex_a017", "md_file": "knowledge_base/domains/CO/examples.md", "md_atom_type": "TABLE_ROW", "md_parent_section": "§CO.1 [Example 1]", "md_verbatim": "| 5 | 1234 | CO | VS | AB-99 | 5 | VSGRPID | VS2 | | Comment text | | | PRINCIPAL INVESTIGATOR | | |", "score": 0.4364, "match_basis": "verbatim_token+domain_route:CO"}, {"md_atom_id": "md_dmCO_ex_a020", "md_file": "knowledge_base/domains/CO/examples.md", "md_atom_type": "TABLE_ROW", "md_parent_section": "§CO.1 [Example 1]", "md_verbatim": "| 8 | 1234 | CO | | AB-99 | 8 | | | | Comment Text | | | PRINCIPAL INVESTIGATOR | 4 | |", "score": 0.4233, "match_basis": "verbatim_token+domain_route:CO"}, {"md_atom_id": "md_dmCO_ex_a013", "md_file": "knowledge_base/domains/CO/examples.md", "md_atom_type": "TABLE_ROW", "md_parent_section": "§CO.1 [Example 1]", "md_verbatim": "| 1 | 1234 | CO | | AB-99 | 1 | | | | Comment text | | | PRINCIPAL INVESTIGATOR | | 2003-11-08 |", "score": 0.4229, "match_basis": "verbatim_token+domain_route:CO"}], "candidate_count": 5, "zero_candidate": false}
{"pdf_atom_id": "ig34_p0060_a017", "pdf_atom_type": "TABLE_ROW", "pdf_source": "SDTMIG_v3.4", "pdf_page": 60, "pdf_parent_section": "§5.1 [Comments (CO)]", "pdf_verbatim": "| IDVARVAL | Identifying Variable Value | Char | | Record Qualifier | Value of identifying variable of the parent record(s). Used only when individual comments are related to domain records. Null for comments collected on separate CRFs. | Perm |", "figure_ref": null, "candidates": [{"md_atom_id": "md_dmCO_ex_a003", "md_file": "knowledge_base/domains/CO/examples.md", "md_atom_type": "SENTENCE", "md_parent_section": "§CO.1 [Example 1]", "md_verbatim": "**Row 1:** Shows a comment collected on a separate comments page. Since it was unrelated to any specific domain or record, RDOMAIN, IDVAR, and IDVARVAL are null.", "score": 0.4508, "match_basis": "verbatim_token+domain_route:CO"}, {"md_atom_id": "md_dmCO_ex_a016", "md_file": "knowledge_base/domains/CO/examples.md", "md_atom_type": "TABLE_ROW", "md_parent_section": "§CO.1 [Example 1]", "md_verbatim": "| 4 | 1234 | CO | EX | AB-99 | 4 | EXGRPID | COMBO1 | PAGE 320-355 | First 200 characters | | Remaining text | PRINCIPAL INVESTIGATOR | | |", "score": 0.4372, "match_basis": "verbatim_token+domain_route:CO"}, {"md_atom_id": "md_dmCO_ex_a015", "md_file": "knowledge_base/domains/CO/examples.md", "md_atom_type": "TABLE_ROW", "md_parent_section": "§CO.1 [Example 1]", "md_verbatim": "| 3 | 1234 | CO | AE | AB-99 | 3 | AESEQ | 7 | PAGE 650 | First 200 characters | Next 200 characters | Remaining text | PRINCIPAL INVESTIGATOR | | |", "score": 0.4339, "match_basis": "verbatim_token+domain_route:CO"}, {"md_atom_id": "md_dmCO_ex_a020", "md_file": "knowledge_base/domains/CO/examples.md", "md_atom_type": "TABLE_ROW", "md_parent_section": "§CO.1 [Example 1]", "md_verbatim": "| 8 | 1234 | CO | | AB-99 | 8 | | | | Comment Text | | | PRINCIPAL INVESTIGATOR | 4 | |", "score": 0.4286, "match_basis": "verbatim_token+domain_route:CO"}, {"md_atom_id": "md_dmCO_ex_a013", "md_file": "knowledge_base/domains/CO/examples.md", "md_atom_type": "TABLE_ROW", "md_parent_section": "§CO.1 [Example 1]", "md_verbatim": "| 1 | 1234 | CO | | AB-99 | 1 | | | | Comment text | | | PRINCIPAL INVESTIGATOR | | 2003-11-08 |", "score": 0.428, "match_basis": "verbatim_token+domain_route:CO"}], "candidate_count": 5, "zero_candidate": false}
{"pdf_atom_id": "ig34_p0060_a018", "pdf_atom_type": "TABLE_ROW", "pdf_source": "SDTMIG_v3.4", "pdf_page": 60, "pdf_parent_section": "§5.1 [Comments (CO)]", "pdf_verbatim": "| COREF | Comment Reference | Char | | Record Qualifier | Sponsor-defined reference associated with the comment. May be the CRF page number (e.g., 650), or a module name (e.g., DEMOG), or a combination of information that identifies the reference (e.g. 650-VITALS-VISIT 2). | Perm |", "figure_ref": null, "candidates": [{"md_atom_id": "md_dmCO_ex_a018", "md_file": "knowledge_base/domains/CO/examples.md", "md_atom_type": "TABLE_ROW", "md_parent_section": "§CO.1 [Example 1]", "md_verbatim": "| 6 | 1234 | CO | SV | AB-99 | 6 | VISITNUM | 4 | | Comment Text | | | PRINCIPAL INVESTIGATOR | | |", "score": 0.4458, "match_basis": "verbatim_token+domain_route:CO"}, {"md_atom_id": "md_dmCO_ex_a019", "md_file": "knowledge_base/domains/CO/examples.md", "md_atom_type": "TABLE_ROW", "md_parent_section": "§CO.1 [Example 1]", "md_verbatim": "| 7 | 1234 | CO | | AB-99 | 7 | | | VISIT 4 | Comment Text | | | PRINCIPAL INVESTIGATOR | | |", "score": 0.4414, "match_basis": "verbatim_token+domain_route:CO"}, {"md_atom_id": "md_dmCO_ex_a014", "md_file": "knowledge_base/domains/CO/examples.md", "md_atom_type": "TABLE_ROW", "md_parent_section": "§CO.1 [Example 1]", "md_verbatim": "| 2 | 1234 | CO | PE | AB-99 | 2 | | | VISIT 7 | Comment text | | | PRINCIPAL INVESTIGATOR | | 2004-01-14 |", "score": 0.4407, "match_basis": "verbatim_token+domain_route:CO"}, {"md_atom_id": "md_dmCO_ex_a020", "md_file": "knowledge_base/domains/CO/examples.md", "md_atom_type": "TABLE_ROW", "md_parent_section": "§CO.1 [Example 1]", "md_verbatim": "| 8 | 1234 | CO | | AB-99 | 8 | | | | Comment Text | | | PRINCIPAL INVESTIGATOR | 4 | |", "score": 0.4259, "match_basis": "verbatim_token+domain_route:CO"}, {"md_atom_id": "md_dmCO_ex_a013", "md_file": "knowledge_base/domains/CO/examples.md", "md_atom_type": "TABLE_ROW", "md_parent_section": "§CO.1 [Example 1]", "md_verbatim": "| 1 | 1234 | CO | | AB-99 | 1 | | | | Comment text | | | PRINCIPAL INVESTIGATOR | | 2003-11-08 |", "score": 0.4254, "match_basis": "verbatim_token+domain_route:CO"}], "candidate_count": 5, "zero_candidate": false}
{"pdf_atom_id": "ig34_p0060_a019", "pdf_atom_type": "TABLE_ROW", "pdf_source": "SDTMIG_v3.4", "pdf_page": 60, "pdf_parent_section": "§5.1 [Comments (CO)]", "pdf_verbatim": "| COVAL | Comment | Char | | Topic | The text of the comment. Text over 200 characters can be added to additional columns COVAL1-COVALn. See Assumption 3. | Req |", "figure_ref": null, "candidates": [{"md_atom_id": "md_dmCO_ex_a016", "md_file": "knowledge_base/domains/CO/examples.md", "md_atom_type": "TABLE_ROW", "md_parent_section": "§CO.1 [Example 1]", "md_verbatim": "| 4 | 1234 | CO | EX | AB-99 | 4 | EXGRPID | COMBO1 | PAGE 320-355 | First 200 characters | | Remaining text | PRINCIPAL INVESTIGATOR | | |", "score": 0.4783, "match_basis": "verbatim_token+domain_route:CO"}, {"md_atom_id": "md_dmCO_ex_a015", "md_file": "knowledge_base/domains/CO/examples.md", "md_atom_type": "TABLE_ROW", "md_parent_section": "§CO.1 [Example 1]", "md_verbatim": "| 3 | 1234 | CO | AE | AB-99 | 3 | AESEQ | 7 | PAGE 650 | First 200 characters | Next 200 characters | Remaining text | PRINCIPAL INVESTIGATOR | | |", "score": 0.4759, "match_basis": "verbatim_token+domain_route:CO"}, {"md_atom_id": "md_dmCO_ex_a013", "md_file": "knowledge_base/domains/CO/examples.md", "md_atom_type": "TABLE_ROW", "md_parent_section": "§CO.1 [Example 1]", "md_verbatim": "| 1 | 1234 | CO | | AB-99 | 1 | | | | Comment text | | | PRINCIPAL INVESTIGATOR | | 2003-11-08 |", "score": 0.4676, "match_basis": "verbatim_token+domain_route:CO"}, {"md_atom_id": "md_dmCO_ex_a014", "md_file": "knowledge_base/domains/CO/examples.md", "md_atom_type": "TABLE_ROW", "md_parent_section": "§CO.1 [Example 1]", "md_verbatim": "| 2 | 1234 | CO | PE | AB-99 | 2 | | | VISIT 7 | Comment text | | | PRINCIPAL INVESTIGATOR | | 2004-01-14 |", "score": 0.4649, "match_basis": "verbatim_token+domain_route:CO"}, {"md_atom_id": "md_dmCO_ex_a020", "md_file": "knowledge_base/domains/CO/examples.md", "md_atom_type": "TABLE_ROW", "md_parent_section": "§CO.1 [Example 1]", "md_verbatim": "| 8 | 1234 | CO | | AB-99 | 8 | | | | Comment Text | | | PRINCIPAL INVESTIGATOR | 4 | |", "score": 0.46, "match_basis": "verbatim_token+domain_route:CO"}], "candidate_count": 5, "zero_candidate": false}
{"pdf_atom_id": "ig34_p0060_a020", "pdf_atom_type": "TABLE_ROW", "pdf_source": "SDTMIG_v3.4", "pdf_page": 60, "pdf_parent_section": "§5.1 [Comments (CO)]", "pdf_verbatim": "| COEVAL | Evaluator | Char | (EVAL) | Record Qualifier | Role of the person who provided the evaluation. Used only for results that are subjective (e.g., assigned by a person or a group). Example: “INVESTIGATOR”. | Perm |", "figure_ref": null, "candidates": [{"md_atom_id": "md_dmCO_ex_a015", "md_file": "knowledge_base/domains/CO/examples.md", "md_atom_type": "TABLE_ROW", "md_parent_section": "§CO.1 [Example 1]", "md_verbatim": "| 3 | 1234 | CO | AE | AB-99 | 3 | AESEQ | 7 | PAGE 650 | First 200 characters | Next 200 characters | Remaining text | PRINCIPAL INVESTIGATOR | | |", "score": 0.4667, "match_basis": "verbatim_token+domain_route:CO"}, {"md_atom_id": "md_dmCO_ex_a016", "md_file": "knowledge_base/domains/CO/examples.md", "md_atom_type": "TABLE_ROW", "md_parent_section": "§CO.1 [Example 1]", "md_verbatim": "| 4 | 1234 | CO | EX | AB-99 | 4 | EXGRPID | COMBO1 | PAGE 320-355 | First 200 characters | | Remaining text | PRINCIPAL INVESTIGATOR | | |", "score": 0.4634, "match_basis": "verbatim_token+domain_route:CO"}, {"md_atom_id": "md_dmCO_ex_a020", "md_file": "knowledge_base/domains/CO/examples.md", "md_atom_type": "TABLE_ROW", "md_parent_section": "§CO.1 [Example 1]", "md_verbatim": "| 8 | 1234 | CO | | AB-99 | 8 | | | | Comment Text | | | PRINCIPAL INVESTIGATOR | 4 | |", "score": 0.4606, "match_basis": "verbatim_token+domain_route:CO"}, {"md_atom_id": "md_dmCO_ex_a013", "md_file": "knowledge_base/domains/CO/examples.md", "md_atom_type": "TABLE_ROW", "md_parent_section": "§CO.1 [Example 1]", "md_verbatim": "| 1 | 1234 | CO | | AB-99 | 1 | | | | Comment text | | | PRINCIPAL INVESTIGATOR | | 2003-11-08 |", "score": 0.4594, "match_basis": "verbatim_token+domain_route:CO"}, {"md_atom_id": "md_dmCO_ex_a019", "md_file": "knowledge_base/domains/CO/examples.md", "md_atom_type": "TABLE_ROW", "md_parent_section": "§CO.1 [Example 1]", "md_verbatim": "| 7 | 1234 | CO | | AB-99 | 7 | | | VISIT 4 | Comment Text | | | PRINCIPAL INVESTIGATOR | | |", "score": 0.4588, "match_basis": "verbatim_token+domain_route:CO"}], "candidate_count": 5, "zero_candidate": false}
{"pdf_atom_id": "ig34_p0060_a021", "pdf_atom_type": "TABLE_ROW", "pdf_source": "SDTMIG_v3.4", "pdf_page": 60, "pdf_parent_section": "§5.1 [Comments (CO)]", "pdf_verbatim": "| COEVALID | Evaluator Identifier | Char | (MEDEVAL) | Record Qualifier | Used to distinguish multiple evaluators with the same role recorded in --EVAL. Examples: “RADIOLOGIST”, “RADIOLOGIST 1”, “RADIOLOGIST 2”. | Perm |", "figure_ref": null, "candidates": [{"md_atom_id": "md_dmCO_ex_a015", "md_file": "knowledge_base/domains/CO/examples.md", "md_atom_type": "TABLE_ROW", "md_parent_section": "§CO.1 [Example 1]", "md_verbatim": "| 3 | 1234 | CO | AE | AB-99 | 3 | AESEQ | 7 | PAGE 650 | First 200 characters | Next 200 characters | Remaining text | PRINCIPAL INVESTIGATOR | | |", "score": 0.4316, "match_basis": "verbatim_token+domain_route:CO"}, {"md_atom_id": "md_dmCO_ex_a016", "md_file": "knowledge_base/domains/CO/examples.md", "md_atom_type": "TABLE_ROW", "md_parent_section": "§CO.1 [Example 1]", "md_verbatim": "| 4 | 1234 | CO | EX | AB-99 | 4 | EXGRPID | COMBO1 | PAGE 320-355 | First 200 characters | | Remaining text | PRINCIPAL INVESTIGATOR | | |", "score": 0.43, "match_basis": "verbatim_token+domain_route:CO"}, {"md_atom_id": "md_dmCO_ex_a020", "md_file": "knowledge_base/domains/CO/examples.md", "md_atom_type": "TABLE_ROW", "md_parent_section": "§CO.1 [Example 1]", "md_verbatim": "| 8 | 1234 | CO | | AB-99 | 8 | | | | Comment Text | | | PRINCIPAL INVESTIGATOR | 4 | |", "score": 0.4253, "match_basis": "verbatim_token+domain_route:CO"}, {"md_atom_id": "md_dmCO_ex_a013", "md_file": "knowledge_base/domains/CO/examples.md", "md_atom_type": "TABLE_ROW", "md_parent_section": "§CO.1 [Example 1]", "md_verbatim": "| 1 | 1234 | CO | | AB-99 | 1 | | | | Comment text | | | PRINCIPAL INVESTIGATOR | | 2003-11-08 |", "score": 0.4247, "match_basis": "verbatim_token+domain_route:CO"}, {"md_atom_id": "md_dmCO_ex_a019", "md_file": "knowledge_base/domains/CO/examples.md", "md_atom_type": "TABLE_ROW", "md_parent_section": "§CO.1 [Example 1]", "md_verbatim": "| 7 | 1234 | CO | | AB-99 | 7 | | | VISIT 4 | Comment Text | | | PRINCIPAL INVESTIGATOR | | |", "score": 0.4245, "match_basis": "verbatim_token+domain_route:CO"}], "candidate_count": 5, "zero_candidate": false}
{"pdf_atom_id": "ig34_p0060_a022", "pdf_atom_type": "TABLE_ROW", "pdf_source": "SDTMIG_v3.4", "pdf_page": 60, "pdf_parent_section": "§5.1 [Comments (CO)]", "pdf_verbatim": "| CODTC | Date/Time of Comment | Char | ISO 8601 datetime or interval | Timing | Date/time of comment on dedicated comment form. Should be null if this is a child record of another domain or if comment date was not collected. | Perm |", "figure_ref": null, "candidates": [{"md_atom_id": "md_dmCO_ex_a016", "md_file": "knowledge_base/domains/CO/examples.md", "md_atom_type": "TABLE_ROW", "md_parent_section": "§CO.1 [Example 1]", "md_verbatim": "| 4 | 1234 | CO | EX | AB-99 | 4 | EXGRPID | COMBO1 | PAGE 320-355 | First 200 characters | | Remaining text | PRINCIPAL INVESTIGATOR | | |", "score": 0.4421, "match_basis": "verbatim_token+domain_route:CO"}, {"md_atom_id": "md_dmCO_ex_a015", "md_file": "knowledge_base/domains/CO/examples.md", "md_atom_type": "TABLE_ROW", "md_parent_section": "§CO.1 [Example 1]", "md_verbatim": "| 3 | 1234 | CO | AE | AB-99 | 3 | AESEQ | 7 | PAGE 650 | First 200 characters | Next 200 characters | Remaining text | PRINCIPAL INVESTIGATOR | | |", "score": 0.4385, "match_basis": "verbatim_token+domain_route:CO"}, {"md_atom_id": "md_dmCO_ex_a020", "md_file": "knowledge_base/domains/CO/examples.md", "md_atom_type": "TABLE_ROW", "md_parent_section": "§CO.1 [Example 1]", "md_verbatim": "| 8 | 1234 | CO | | AB-99 | 8 | | | | Comment Text | | | PRINCIPAL INVESTIGATOR | 4 | |", "score": 0.4333, "match_basis": "verbatim_token+domain_route:CO"}, {"md_atom_id": "md_dmCO_ex_a013", "md_file": "knowledge_base/domains/CO/examples.md", "md_atom_type": "TABLE_ROW", "md_parent_section": "§CO.1 [Example 1]", "md_verbatim": "| 1 | 1234 | CO | | AB-99 | 1 | | | | Comment text | | | PRINCIPAL INVESTIGATOR | | 2003-11-08 |", "score": 0.4326, "match_basis": "verbatim_token+domain_route:CO"}, {"md_atom_id": "md_dmCO_ex_a019", "md_file": "knowledge_base/domains/CO/examples.md", "md_atom_type": "TABLE_ROW", "md_parent_section": "§CO.1 [Example 1]", "md_verbatim": "| 7 | 1234 | CO | | AB-99 | 7 | | | VISIT 4 | Comment Text | | | PRINCIPAL INVESTIGATOR | | |", "score": 0.4323, "match_basis": "verbatim_token+domain_route:CO"}], "candidate_count": 5, "zero_candidate": false}
{"pdf_atom_id": "ig34_p0060_a023", "pdf_atom_type": "TABLE_ROW", "pdf_source": "SDTMIG_v3.4", "pdf_page": 60, "pdf_parent_section": "§5.1 [Comments (CO)]", "pdf_verbatim": "| CODY | Study Day of Comment | Num | | Timing | Study day of the comment, in integer days. The algorithm for calculations must be relative to the sponsor-defined RFSTDTC variable in the Demographics (DM) domain. | Perm |", "figure_ref": null, "candidates": [{"md_atom_id": "md_dmCO_ex_a018", "md_file": "knowledge_base/domains/CO/examples.md", "md_atom_type": "TABLE_ROW", "md_parent_section": "§CO.1 [Example 1]", "md_verbatim": "| 6 | 1234 | CO | SV | AB-99 | 6 | VISITNUM | 4 | | Comment Text | | | PRINCIPAL INVESTIGATOR | | |", "score": 0.433, "match_basis": "verbatim_token+domain_route:CO"}, {"md_atom_id": "md_dmCO_ex_a020", "md_file": "knowledge_base/domains/CO/examples.md", "md_atom_type": "TABLE_ROW", "md_parent_section": "§CO.1 [Example 1]", "md_verbatim": "| 8 | 1234 | CO | | AB-99 | 8 | | | | Comment Text | | | PRINCIPAL INVESTIGATOR | 4 | |", "score": 0.4288, "match_basis": "verbatim_token+domain_route:CO"}, {"md_atom_id": "md_dmCO_ex_a013", "md_file": "knowledge_base/domains/CO/examples.md", "md_atom_type": "TABLE_ROW", "md_parent_section": "§CO.1 [Example 1]", "md_verbatim": "| 1 | 1234 | CO | | AB-99 | 1 | | | | Comment text | | | PRINCIPAL INVESTIGATOR | | 2003-11-08 |", "score": 0.4283, "match_basis": "verbatim_token+domain_route:CO"}, {"md_atom_id": "md_dmCO_ex_a019", "md_file": "knowledge_base/domains/CO/examples.md", "md_atom_type": "TABLE_ROW", "md_parent_section": "§CO.1 [Example 1]", "md_verbatim": "| 7 | 1234 | CO | | AB-99 | 7 | | | VISIT 4 | Comment Text | | | PRINCIPAL INVESTIGATOR | | |", "score": 0.428, "match_basis": "verbatim_token+domain_route:CO"}, {"md_atom_id": "md_dmCO_ex_a014", "md_file": "knowledge_base/domains/CO/examples.md", "md_atom_type": "TABLE_ROW", "md_parent_section": "§CO.1 [Example 1]", "md_verbatim": "| 2 | 1234 | CO | PE | AB-99 | 2 | | | VISIT 7 | Comment text | | | PRINCIPAL INVESTIGATOR | | 2004-01-14 |", "score": 0.4275, "match_basis": "verbatim_token+domain_route:CO"}], "candidate_count": 5, "zero_candidate": false}
{"pdf_atom_id": "ig34_p0060_a024", "pdf_atom_type": "NOTE", "pdf_source": "SDTMIG_v3.4", "pdf_page": 60, "pdf_parent_section": "§5.1 [Comments (CO)]", "pdf_verbatim": "¹In this column, an asterisk (*) indicates that the variable may be subject to controlled terminology. CDISC/NCI codelist values are enclosed in parentheses.", "figure_ref": null, "candidates": [{"md_atom_id": "md_dmCO_ex_a010", "md_file": "knowledge_base/domains/CO/examples.md", "md_atom_type": "SENTENCE", "md_parent_section": "§CO.1 [Example 1]", "md_verbatim": "**Row 8:** Shows a third option for representing a comment associated only with a visit. In this case, the VISITNUM variable was populated to indicate that the comment was associated with a particular visit.", "score": 0.4009, "match_basis": "verbatim_token+domain_route:CO"}, {"md_atom_id": "md_dmCO_ex_a008", "md_file": "knowledge_base/domains/CO/examples.md", "md_atom_type": "SENTENCE", "md_parent_section": "§CO.1 [Example 1]", "md_verbatim": "**Row 6:** Shows one option for representing a comment collected on a visit-specific comments page not associated with a particular domain. In this case, the comment is linked to the Subject Visit record in SV (RDOMAIN = \"SV\") and IDVAR and IDVARVAL are populated link the comment to the particular visit.", "score": 0.3797, "match_basis": "verbatim_token+domain_route:CO"}, {"md_atom_id": "md_dmCO_ex_a004", "md_file": "knowledge_base/domains/CO/examples.md", "md_atom_type": "SENTENCE", "md_parent_section": "§CO.1 [Example 1]", "md_verbatim": "**Row 2:** Shows a comment that was collected on the bottom of the PE page for Visit 7, without any indication of specific records it applied to. Since the comment related to a specific domain, RDOMAIN is populated. Since it was related to a specific visit, VISIT, COREF is \"VISIT 7\". However, since it does not relate to a specific record, IDVAR and IDVARVAL are null.", "score": 0.3754, "match_basis": "verbatim_token+domain_route:CO"}, {"md_atom_id": "md_dmCO_ex_a009", "md_file": "knowledge_base/domains/CO/examples.md", "md_atom_type": "SENTENCE", "md_parent_section": "§CO.1 [Example 1]", "md_verbatim": "**Row 7:** Shows a second option for representing a comment associated only with a visit. In this case, COREF is used to show that the comment is related to the particular visit.", "score": 0.36, "match_basis": "verbatim_token+domain_route:CO"}, {"md_atom_id": "md_dmCO_ex_a003", "md_file": "knowledge_base/domains/CO/examples.md", "md_atom_type": "SENTENCE", "md_parent_section": "§CO.1 [Example 1]", "md_verbatim": "**Row 1:** Shows a comment collected on a separate comments page. Since it was unrelated to any specific domain or record, RDOMAIN, IDVAR, and IDVARVAL are null.", "score": 0.3569, "match_basis": "verbatim_token+domain_route:CO"}], "candidate_count": 5, "zero_candidate": false}
{"pdf_atom_id": "ig34_p0061_a001", "pdf_atom_type": "HEADING", "pdf_source": "SDTMIG_v3.4", "pdf_page": 61, "pdf_parent_section": "§5.1 [Comments (CO)]", "pdf_verbatim": "CO – Assumptions", "figure_ref": null, "candidates": [{"md_atom_id": "md_dmCO_assn_a001", "md_file": "knowledge_base/domains/CO/assumptions.md", "md_atom_type": "HEADING", "md_parent_section": "§CO [CO — Assumptions]", "md_verbatim": "# CO — Assumptions", "score": 1.0, "match_basis": "verbatim_token+domain_route:CO"}, {"md_atom_id": "md_dmCO_ex_a001", "md_file": "knowledge_base/domains/CO/examples.md", "md_atom_type": "HEADING", "md_parent_section": "§CO [CO — Examples]", "md_verbatim": "# CO — Examples", "score": 0.4, "match_basis": "verbatim_token+domain_route:CO"}, {"md_atom_id": "md_dmCO_ex_a002", "md_file": "knowledge_base/domains/CO/examples.md", "md_atom_type": "HEADING", "md_parent_section": "§CO [CO — Examples]", "md_verbatim": "## Example 1", "score": 0.4, "match_basis": "verbatim_token+domain_route:CO"}], "candidate_count": 3, "zero_candidate": false}
{"pdf_atom_id": "ig34_p0061_a002", "pdf_atom_type": "LIST_ITEM", "pdf_source": "SDTMIG_v3.4", "pdf_page": 61, "pdf_parent_section": "§5.1 [Comments (CO)]", "pdf_verbatim": "1. The Comments special-purpose domain provides a solution for submitting free-text comments related to data in 1 or more SDTM domains (as described in Section 8.5, Relating Comments to a Parent Domain) or collected on a separate CRF page dedicated to comments.", "figure_ref": null, "candidates": [{"md_atom_id": "md_dmCO_assn_a002", "md_file": "knowledge_base/domains/CO/assumptions.md", "md_atom_type": "LIST_ITEM", "md_parent_section": "§CO [CO — Assumptions]", "md_verbatim": "1. The Comments special-purpose domain provides a solution for submitting free-text comments related to data in 1 or more SDTM domains (as described in Section 8.5, Relating Comments to a Parent Domain) or collected on a separate CRF page dedicated to comments. Comments are generally not responses to specific questions; instead, comments usually consist of voluntary free-text or unsolicited observations.", "score": 0.7771, "match_basis": "verbatim_token+domain_route:CO"}, {"md_atom_id": "md_dmCO_assn_a008", "md_file": "knowledge_base/domains/CO/assumptions.md", "md_atom_type": "LIST_ITEM", "md_parent_section": "§CO [CO — Assumptions]", "md_verbatim": "4. When the comment text is longer than 200 characters, the first 200 characters of the comment will be in COVAL, the next 200 in COVAL1, and additional text stored as needed to COVALn. See Example 1, rows 3-4. Additional information about how to relate comments to parent SDTM records is provided in Section 8.5, Relating Comments to a Parent Domain.", "score": 0.5611, "match_basis": "verbatim_token+domain_route:CO"}, {"md_atom_id": "md_dmCO_assn_a007", "md_file": "knowledge_base/domains/CO/assumptions.md", "md_atom_type": "LIST_ITEM", "md_parent_section": "§CO [CO — Assumptions]", "md_verbatim": "   c. Those related to a specific parent record or group of parent records, in which case the value of the variable RDOMAIN is set to the DOMAIN code of the parent record(s) and the variables IDVAR and IDVARVAL are populated with the key variable name and value of the parent record(s). Assumptions for populating IDVAR and IDVARVAL are further described in Section 8.5, Relating Comments to a Parent Domain. CODTC should be null because the timing of the parent record(s) is inherited by the comment record. See Example 1, rows 3-5.", "score": 0.5345, "match_basis": "verbatim_token+domain_route:CO"}, {"md_atom_id": "md_dmCO_assn_a003", "md_file": "knowledge_base/domains/CO/assumptions.md", "md_atom_type": "LIST_ITEM", "md_parent_section": "§CO [CO — Assumptions]", "md_verbatim": "2. Although the structure for the Comments domain in the SDTM is \"One record per comment\", USUBJID is required in the comments domain for human clinical trials, so the structure of the Comments domain in the SDTMIG is \"One record per comment per subject.\"", "score": 0.4818, "match_basis": "verbatim_token+domain_route:CO"}, {"md_atom_id": "md_dmCO_ex_a003", "md_file": "knowledge_base/domains/CO/examples.md", "md_atom_type": "SENTENCE", "md_parent_section": "§CO.1 [Example 1]", "md_verbatim": "**Row 1:** Shows a comment collected on a separate comments page. Since it was unrelated to any specific domain or record, RDOMAIN, IDVAR, and IDVARVAL are null.", "score": 0.4755, "match_basis": "verbatim_token+domain_route:CO"}], "candidate_count": 5, "zero_candidate": false}
{"pdf_atom_id": "ig34_p0061_a003", "pdf_atom_type": "SENTENCE", "pdf_source": "SDTMIG_v3.4", "pdf_page": 61, "pdf_parent_section": "§5.1 [Comments (CO)]", "pdf_verbatim": "Comments are generally not responses to specific questions; instead, comments usually consist of voluntary free-text or unsolicited observations.", "figure_ref": null, "candidates": [{"md_atom_id": "md_dmCO_assn_a002", "md_file": "knowledge_base/domains/CO/assumptions.md", "md_atom_type": "LIST_ITEM", "md_parent_section": "§CO [CO — Assumptions]", "md_verbatim": "1. The Comments special-purpose domain provides a solution for submitting free-text comments related to data in 1 or more SDTM domains (as described in Section 8.5, Relating Comments to a Parent Domain) or collected on a separate CRF page dedicated to comments. Comments are generally not responses to specific questions; instead, comments usually consist of voluntary free-text or unsolicited observations.", "score": 0.6229, "match_basis": "verbatim_token+domain_route:CO"}, {"md_atom_id": "md_dmCO_ex_a008", "md_file": "knowledge_base/domains/CO/examples.md", "md_atom_type": "SENTENCE", "md_parent_section": "§CO.1 [Example 1]", "md_verbatim": "**Row 6:** Shows one option for representing a comment collected on a visit-specific comments page not associated with a particular domain. In this case, the comment is linked to the Subject Visit record in SV (RDOMAIN = \"SV\") and IDVAR and IDVARVAL are populated link the comment to the particular visit.", "score": 0.4765, "match_basis": "verbatim_token+domain_route:CO"}, {"md_atom_id": "md_dmCO_ex_a003", "md_file": "knowledge_base/domains/CO/examples.md", "md_atom_type": "SENTENCE", "md_parent_section": "§CO.1 [Example 1]", "md_verbatim": "**Row 1:** Shows a comment collected on a separate comments page. Since it was unrelated to any specific domain or record, RDOMAIN, IDVAR, and IDVARVAL are null.", "score": 0.4763, "match_basis": "verbatim_token+domain_route:CO"}, {"md_atom_id": "md_dmCO_ex_a004", "md_file": "knowledge_base/domains/CO/examples.md", "md_atom_type": "SENTENCE", "md_parent_section": "§CO.1 [Example 1]", "md_verbatim": "**Row 2:** Shows a comment that was collected on the bottom of the PE page for Visit 7, without any indication of specific records it applied to. Since the comment related to a specific domain, RDOMAIN is populated. Since it was related to a specific visit, VISIT, COREF is \"VISIT 7\". However, since it does not relate to a specific record, IDVAR and IDVARVAL are null.", "score": 0.472, "match_basis": "verbatim_token+domain_route:CO"}, {"md_atom_id": "md_dmCO_ex_a009", "md_file": "knowledge_base/domains/CO/examples.md", "md_atom_type": "SENTENCE", "md_parent_section": "§CO.1 [Example 1]", "md_verbatim": "**Row 7:** Shows a second option for representing a comment associated only with a visit. In this case, COREF is used to show that the comment is related to the particular visit.", "score": 0.4469, "match_basis": "verbatim_token+domain_route:CO"}], "candidate_count": 5, "zero_candidate": false}
{"pdf_atom_id": "ig34_p0061_a004", "pdf_atom_type": "LIST_ITEM", "pdf_source": "SDTMIG_v3.4", "pdf_page": 61, "pdf_parent_section": "§5.1 [Comments (CO)]", "pdf_verbatim": "2. Although the structure for the Comments domain in the SDTM is \"One record per comment\", USUBJID is required in the comments domain for human clinical trials, so the structure of the Comments domain in the SDTMIG is \"One record per comment per subject.\"", "figure_ref": null, "candidates": [{"md_atom_id": "md_dmCO_assn_a003", "md_file": "knowledge_base/domains/CO/assumptions.md", "md_atom_type": "LIST_ITEM", "md_parent_section": "§CO [CO — Assumptions]", "md_verbatim": "2. Although the structure for the Comments domain in the SDTM is \"One record per comment\", USUBJID is required in the comments domain for human clinical trials, so the structure of the Comments domain in the SDTMIG is \"One record per comment per subject.\"", "score": 1.0, "match_basis": "verbatim_token+domain_route:CO"}, {"md_atom_id": "md_dmCO_assn_a008", "md_file": "knowledge_base/domains/CO/assumptions.md", "md_atom_type": "LIST_ITEM", "md_parent_section": "§CO [CO — Assumptions]", "md_verbatim": "4. When the comment text is longer than 200 characters, the first 200 characters of the comment will be in COVAL, the next 200 in COVAL1, and additional text stored as needed to COVALn. See Example 1, rows 3-4. Additional information about how to relate comments to parent SDTM records is provided in Section 8.5, Relating Comments to a Parent Domain.", "score": 0.4839, "match_basis": "verbatim_token+domain_route:CO"}, {"md_atom_id": "md_dmCO_assn_a005", "md_file": "knowledge_base/domains/CO/assumptions.md", "md_atom_type": "LIST_ITEM", "md_parent_section": "§CO [CO — Assumptions]", "md_verbatim": "   a. Those unrelated to a specific domain or parent record(s), in which case the values of the variables RDOMAIN, IDVAR, and IDVARVAL are null. CODTC should be populated if captured. See Example 1, row 1.", "score": 0.478, "match_basis": "verbatim_token+domain_route:CO"}, {"md_atom_id": "md_dmCO_assn_a006", "md_file": "knowledge_base/domains/CO/assumptions.md", "md_atom_type": "LIST_ITEM", "md_parent_section": "§CO [CO — Assumptions]", "md_verbatim": "   b. Those related to a domain but not to specific parent record(s), in which case the value of the variable RDOMAIN is set to the DOMAIN code of the parent domain and the variables IDVAR and IDVARVAL are null. CODTC should be populated if captured. See Example 1, row 2.", "score": 0.4774, "match_basis": "verbatim_token+domain_route:CO"}, {"md_atom_id": "md_dmCO_assn_a007", "md_file": "knowledge_base/domains/CO/assumptions.md", "md_atom_type": "LIST_ITEM", "md_parent_section": "§CO [CO — Assumptions]", "md_verbatim": "   c. Those related to a specific parent record or group of parent records, in which case the value of the variable RDOMAIN is set to the DOMAIN code of the parent record(s) and the variables IDVAR and IDVARVAL are populated with the key variable name and value of the parent record(s). Assumptions for populating IDVAR and IDVARVAL are further described in Section 8.5, Relating Comments to a Parent Domain. CODTC should be null because the timing of the parent record(s) is inherited by the comment record. See Example 1, rows 3-5.", "score": 0.4719, "match_basis": "verbatim_token+domain_route:CO"}], "candidate_count": 5, "zero_candidate": false}
{"pdf_atom_id": "ig34_p0061_a005", "pdf_atom_type": "LIST_ITEM", "pdf_source": "SDTMIG_v3.4", "pdf_page": 61, "pdf_parent_section": "§5.1 [Comments (CO)]", "pdf_verbatim": "3. The CO dataset accommodates 3 sources of comments:", "figure_ref": null, "candidates": [{"md_atom_id": "md_dmCO_assn_a004", "md_file": "knowledge_base/domains/CO/assumptions.md", "md_atom_type": "LIST_ITEM", "md_parent_section": "§CO [CO — Assumptions]", "md_verbatim": "3. The CO dataset accommodates 3 sources of comments:", "score": 1.0, "match_basis": "verbatim_token+domain_route:CO"}, {"md_atom_id": "md_dmCO_assn_a009", "md_file": "knowledge_base/domains/CO/assumptions.md", "md_atom_type": "LIST_ITEM", "md_parent_section": "§CO [CO — Assumptions]", "md_verbatim": "5. The variable COREF may be null unless it is used to identify the source of the comment. See Example 1, rows 1 and 5.", "score": 0.5071, "match_basis": "verbatim_token+domain_route:CO"}, {"md_atom_id": "md_dmCO_assn_a003", "md_file": "knowledge_base/domains/CO/assumptions.md", "md_atom_type": "LIST_ITEM", "md_parent_section": "§CO [CO — Assumptions]", "md_verbatim": "2. Although the structure for the Comments domain in the SDTM is \"One record per comment\", USUBJID is required in the comments domain for human clinical trials, so the structure of the Comments domain in the SDTMIG is \"One record per comment per subject.\"", "score": 0.4532, "match_basis": "verbatim_token+domain_route:CO"}, {"md_atom_id": "md_dmCO_assn_a007", "md_file": "knowledge_base/domains/CO/assumptions.md", "md_atom_type": "LIST_ITEM", "md_parent_section": "§CO [CO — Assumptions]", "md_verbatim": "   c. Those related to a specific parent record or group of parent records, in which case the value of the variable RDOMAIN is set to the DOMAIN code of the parent record(s) and the variables IDVAR and IDVARVAL are populated with the key variable name and value of the parent record(s). Assumptions for populating IDVAR and IDVARVAL are further described in Section 8.5, Relating Comments to a Parent Domain. CODTC should be null because the timing of the parent record(s) is inherited by the comment record. See Example 1, rows 3-5.", "score": 0.4432, "match_basis": "verbatim_token+domain_route:CO"}, {"md_atom_id": "md_dmCO_assn_a008", "md_file": "knowledge_base/domains/CO/assumptions.md", "md_atom_type": "LIST_ITEM", "md_parent_section": "§CO [CO — Assumptions]", "md_verbatim": "4. When the comment text is longer than 200 characters, the first 200 characters of the comment will be in COVAL, the next 200 in COVAL1, and additional text stored as needed to COVALn. See Example 1, rows 3-4. Additional information about how to relate comments to parent SDTM records is provided in Section 8.5, Relating Comments to a Parent Domain.", "score": 0.441, "match_basis": "verbatim_token+domain_route:CO"}], "candidate_count": 5, "zero_candidate": false}
{"pdf_atom_id": "ig34_p0061_a006", "pdf_atom_type": "LIST_ITEM", "pdf_source": "SDTMIG_v3.4", "pdf_page": 61, "pdf_parent_section": "§5.1 [Comments (CO)]", "pdf_verbatim": "a. Those unrelated to a specific domain or parent record(s), in which case the values of the variables RDOMAIN, IDVAR, and IDVARVAL are null. CODTC should be populated if captured. See Example 1, row 1.", "figure_ref": null, "candidates": [{"md_atom_id": "md_dmCO_assn_a005", "md_file": "knowledge_base/domains/CO/assumptions.md", "md_atom_type": "LIST_ITEM", "md_parent_section": "§CO [CO — Assumptions]", "md_verbatim": "   a. Those unrelated to a specific domain or parent record(s), in which case the values of the variables RDOMAIN, IDVAR, and IDVARVAL are null. CODTC should be populated if captured. See Example 1, row 1.", "score": 1.0, "match_basis": "verbatim_token+domain_route:CO"}, {"md_atom_id": "md_dmCO_assn_a006", "md_file": "knowledge_base/domains/CO/assumptions.md", "md_atom_type": "LIST_ITEM", "md_parent_section": "§CO [CO — Assumptions]", "md_verbatim": "   b. Those related to a domain but not to specific parent record(s), in which case the value of the variable RDOMAIN is set to the DOMAIN code of the parent domain and the variables IDVAR and IDVARVAL are null. CODTC should be populated if captured. See Example 1, row 2.", "score": 0.9481, "match_basis": "verbatim_token+domain_route:CO"}, {"md_atom_id": "md_dmCO_assn_a007", "md_file": "knowledge_base/domains/CO/assumptions.md", "md_atom_type": "LIST_ITEM", "md_parent_section": "§CO [CO — Assumptions]", "md_verbatim": "   c. Those related to a specific parent record or group of parent records, in which case the value of the variable RDOMAIN is set to the DOMAIN code of the parent record(s) and the variables IDVAR and IDVARVAL are populated with the key variable name and value of the parent record(s). Assumptions for populating IDVAR and IDVARVAL are further described in Section 8.5, Relating Comments to a Parent Domain. CODTC should be null because the timing of the parent record(s) is inherited by the comment record. See Example 1, rows 3-5.", "score": 0.7045, "match_basis": "verbatim_token+domain_route:CO"}, {"md_atom_id": "md_dmCO_ex_a003", "md_file": "knowledge_base/domains/CO/examples.md", "md_atom_type": "SENTENCE", "md_parent_section": "§CO.1 [Example 1]", "md_verbatim": "**Row 1:** Shows a comment collected on a separate comments page. Since it was unrelated to any specific domain or record, RDOMAIN, IDVAR, and IDVARVAL are null.", "score": 0.5239, "match_basis": "verbatim_token+domain_route:CO"}, {"md_atom_id": "md_dmCO_assn_a009", "md_file": "knowledge_base/domains/CO/assumptions.md", "md_atom_type": "LIST_ITEM", "md_parent_section": "§CO [CO — Assumptions]", "md_verbatim": "5. The variable COREF may be null unless it is used to identify the source of the comment. See Example 1, rows 1 and 5.", "score": 0.5212, "match_basis": "verbatim_token+domain_route:CO"}], "candidate_count": 5, "zero_candidate": false}
{"pdf_atom_id": "ig34_p0061_a007", "pdf_atom_type": "LIST_ITEM", "pdf_source": "SDTMIG_v3.4", "pdf_page": 61, "pdf_parent_section": "§5.1 [Comments (CO)]", "pdf_verbatim": "b. Those related to a domain but not to specific parent record(s), in which case the value of the variable RDOMAIN is set to the DOMAIN code of the parent domain and the variables IDVAR and IDVARVAL are null. CODTC should be populated if captured. See Example 1, row 2.", "figure_ref": null, "candidates": [{"md_atom_id": "md_dmCO_assn_a006", "md_file": "knowledge_base/domains/CO/assumptions.md", "md_atom_type": "LIST_ITEM", "md_parent_section": "§CO [CO — Assumptions]", "md_verbatim": "   b. Those related to a domain but not to specific parent record(s), in which case the value of the variable RDOMAIN is set to the DOMAIN code of the parent domain and the variables IDVAR and IDVARVAL are null. CODTC should be populated if captured. See Example 1, row 2.", "score": 1.0, "match_basis": "verbatim_token+domain_route:CO"}, {"md_atom_id": "md_dmCO_assn_a005", "md_file": "knowledge_base/domains/CO/assumptions.md", "md_atom_type": "LIST_ITEM", "md_parent_section": "§CO [CO — Assumptions]", "md_verbatim": "   a. Those unrelated to a specific domain or parent record(s), in which case the values of the variables RDOMAIN, IDVAR, and IDVARVAL are null. CODTC should be populated if captured. See Example 1, row 1.", "score": 0.9481, "match_basis": "verbatim_token+domain_route:CO"}, {"md_atom_id": "md_dmCO_assn_a007", "md_file": "knowledge_base/domains/CO/assumptions.md", "md_atom_type": "LIST_ITEM", "md_parent_section": "§CO [CO — Assumptions]", "md_verbatim": "   c. Those related to a specific parent record or group of parent records, in which case the value of the variable RDOMAIN is set to the DOMAIN code of the parent record(s) and the variables IDVAR and IDVARVAL are populated with the key variable name and value of the parent record(s). Assumptions for populating IDVAR and IDVARVAL are further described in Section 8.5, Relating Comments to a Parent Domain. CODTC should be null because the timing of the parent record(s) is inherited by the comment record. See Example 1, rows 3-5.", "score": 0.7158, "match_basis": "verbatim_token+domain_route:CO"}, {"md_atom_id": "md_dmCO_assn_a009", "md_file": "knowledge_base/domains/CO/assumptions.md", "md_atom_type": "LIST_ITEM", "md_parent_section": "§CO [CO — Assumptions]", "md_verbatim": "5. The variable COREF may be null unless it is used to identify the source of the comment. See Example 1, rows 1 and 5.", "score": 0.52, "match_basis": "verbatim_token+domain_route:CO"}, {"md_atom_id": "md_dmCO_assn_a008", "md_file": "knowledge_base/domains/CO/assumptions.md", "md_atom_type": "LIST_ITEM", "md_parent_section": "§CO [CO — Assumptions]", "md_verbatim": "4. When the comment text is longer than 200 characters, the first 200 characters of the comment will be in COVAL, the next 200 in COVAL1, and additional text stored as needed to COVALn. See Example 1, rows 3-4. Additional information about how to relate comments to parent SDTM records is provided in Section 8.5, Relating Comments to a Parent Domain.", "score": 0.5066, "match_basis": "verbatim_token+domain_route:CO"}], "candidate_count": 5, "zero_candidate": false}
{"pdf_atom_id": "ig34_p0061_a008", "pdf_atom_type": "LIST_ITEM", "pdf_source": "SDTMIG_v3.4", "pdf_page": 61, "pdf_parent_section": "§5.1 [Comments (CO)]", "pdf_verbatim": "c. Those related to a specific parent record or group of parent records, in which case the value of the variable RDOMAIN is set to the DOMAIN code of the parent record(s) and the variables IDVAR and IDVARVAL are populated with the key variable name and value of the parent record(s).", "figure_ref": null, "candidates": [{"md_atom_id": "md_dmCO_assn_a006", "md_file": "knowledge_base/domains/CO/assumptions.md", "md_atom_type": "LIST_ITEM", "md_parent_section": "§CO [CO — Assumptions]", "md_verbatim": "   b. Those related to a domain but not to specific parent record(s), in which case the value of the variable RDOMAIN is set to the DOMAIN code of the parent domain and the variables IDVAR and IDVARVAL are null. CODTC should be populated if captured. See Example 1, row 2.", "score": 0.7793, "match_basis": "verbatim_token+domain_route:CO"}, {"md_atom_id": "md_dmCO_assn_a005", "md_file": "knowledge_base/domains/CO/assumptions.md", "md_atom_type": "LIST_ITEM", "md_parent_section": "§CO [CO — Assumptions]", "md_verbatim": "   a. Those unrelated to a specific domain or parent record(s), in which case the values of the variables RDOMAIN, IDVAR, and IDVARVAL are null. CODTC should be populated if captured. See Example 1, row 1.", "score": 0.7614, "match_basis": "verbatim_token+domain_route:CO"}, {"md_atom_id": "md_dmCO_assn_a007", "md_file": "knowledge_base/domains/CO/assumptions.md", "md_atom_type": "LIST_ITEM", "md_parent_section": "§CO [CO — Assumptions]", "md_verbatim": "   c. Those related to a specific parent record or group of parent records, in which case the value of the variable RDOMAIN is set to the DOMAIN code of the parent record(s) and the variables IDVAR and IDVARVAL are populated with the key variable name and value of the parent record(s). Assumptions for populating IDVAR and IDVARVAL are further described in Section 8.5, Relating Comments to a Parent Domain. CODTC should be null because the timing of the parent record(s) is inherited by the comment record. See Example 1, rows 3-5.", "score": 0.7072, "match_basis": "verbatim_token+domain_route:CO"}, {"md_atom_id": "md_dmCO_ex_a003", "md_file": "knowledge_base/domains/CO/examples.md", "md_atom_type": "SENTENCE", "md_parent_section": "§CO.1 [Example 1]", "md_verbatim": "**Row 1:** Shows a comment collected on a separate comments page. Since it was unrelated to any specific domain or record, RDOMAIN, IDVAR, and IDVARVAL are null.", "score": 0.5015, "match_basis": "verbatim_token+domain_route:CO"}, {"md_atom_id": "md_dmCO_ex_a004", "md_file": "knowledge_base/domains/CO/examples.md", "md_atom_type": "SENTENCE", "md_parent_section": "§CO.1 [Example 1]", "md_verbatim": "**Row 2:** Shows a comment that was collected on the bottom of the PE page for Visit 7, without any indication of specific records it applied to. Since the comment related to a specific domain, RDOMAIN is populated. Since it was related to a specific visit, VISIT, COREF is \"VISIT 7\". However, since it does not relate to a specific record, IDVAR and IDVARVAL are null.", "score": 0.4984, "match_basis": "verbatim_token+domain_route:CO"}], "candidate_count": 5, "zero_candidate": false}
{"pdf_atom_id": "ig34_p0061_a009", "pdf_atom_type": "SENTENCE", "pdf_source": "SDTMIG_v3.4", "pdf_page": 61, "pdf_parent_section": "§5.1 [Comments (CO)]", "pdf_verbatim": "Assumptions for populating IDVAR and IDVARVAL are further described in Section 8.5, Relating Comments to a Parent Domain.", "figure_ref": null, "candidates": [{"md_atom_id": "md_dmCO_assn_a007", "md_file": "knowledge_base/domains/CO/assumptions.md", "md_atom_type": "LIST_ITEM", "md_parent_section": "§CO [CO — Assumptions]", "md_verbatim": "   c. Those related to a specific parent record or group of parent records, in which case the value of the variable RDOMAIN is set to the DOMAIN code of the parent record(s) and the variables IDVAR and IDVARVAL are populated with the key variable name and value of the parent record(s). Assumptions for populating IDVAR and IDVARVAL are further described in Section 8.5, Relating Comments to a Parent Domain. CODTC should be null because the timing of the parent record(s) is inherited by the comment record. See Example 1, rows 3-5.", "score": 0.574, "match_basis": "verbatim_token+domain_route:CO"}, {"md_atom_id": "md_dmCO_ex_a008", "md_file": "knowledge_base/domains/CO/examples.md", "md_atom_type": "SENTENCE", "md_parent_section": "§CO.1 [Example 1]", "md_verbatim": "**Row 6:** Shows one option for representing a comment collected on a visit-specific comments page not associated with a particular domain. In this case, the comment is linked to the Subject Visit record in SV (RDOMAIN = \"SV\") and IDVAR and IDVARVAL are populated link the comment to the particular visit.", "score": 0.5692, "match_basis": "verbatim_token+domain_route:CO"}, {"md_atom_id": "md_dmCO_ex_a003", "md_file": "knowledge_base/domains/CO/examples.md", "md_atom_type": "SENTENCE", "md_parent_section": "§CO.1 [Example 1]", "md_verbatim": "**Row 1:** Shows a comment collected on a separate comments page. Since it was unrelated to any specific domain or record, RDOMAIN, IDVAR, and IDVARVAL are null.", "score": 0.55, "match_basis": "verbatim_token+domain_route:CO"}, {"md_atom_id": "md_dmCO_ex_a004", "md_file": "knowledge_base/domains/CO/examples.md", "md_atom_type": "SENTENCE", "md_parent_section": "§CO.1 [Example 1]", "md_verbatim": "**Row 2:** Shows a comment that was collected on the bottom of the PE page for Visit 7, without any indication of specific records it applied to. Since the comment related to a specific domain, RDOMAIN is populated. Since it was related to a specific visit, VISIT, COREF is \"VISIT 7\". However, since it does not relate to a specific record, IDVAR and IDVARVAL are null.", "score": 0.55, "match_basis": "verbatim_token+domain_route:CO"}, {"md_atom_id": "md_dmCO_ex_a009", "md_file": "knowledge_base/domains/CO/examples.md", "md_atom_type": "SENTENCE", "md_parent_section": "§CO.1 [Example 1]", "md_verbatim": "**Row 7:** Shows a second option for representing a comment associated only with a visit. In this case, COREF is used to show that the comment is related to the particular visit.", "score": 0.5129, "match_basis": "verbatim_token+domain_route:CO"}], "candidate_count": 5, "zero_candidate": false}
{"pdf_atom_id": "ig34_p0061_a010", "pdf_atom_type": "SENTENCE", "pdf_source": "SDTMIG_v3.4", "pdf_page": 61, "pdf_parent_section": "§5.1 [Comments (CO)]", "pdf_verbatim": "CODTC should be null because the timing of the parent record(s) is inherited by the comment record. See Example 1, rows 3-5.", "figure_ref": null, "candidates": [{"md_atom_id": "md_dmCO_ex_a005", "md_file": "knowledge_base/domains/CO/examples.md", "md_atom_type": "SENTENCE", "md_parent_section": "§CO.1 [Example 1]", "md_verbatim": "**Row 3:** Shows a comment related to a single AE record having its AESEQ=7.", "score": 0.5377, "match_basis": "verbatim_token+domain_route:CO"}, {"md_atom_id": "md_dmCO_assn_a007", "md_file": "knowledge_base/domains/CO/assumptions.md", "md_atom_type": "LIST_ITEM", "md_parent_section": "§CO [CO — Assumptions]", "md_verbatim": "   c. Those related to a specific parent record or group of parent records, in which case the value of the variable RDOMAIN is set to the DOMAIN code of the parent record(s) and the variables IDVAR and IDVARVAL are populated with the key variable name and value of the parent record(s). Assumptions for populating IDVAR and IDVARVAL are further described in Section 8.5, Relating Comments to a Parent Domain. CODTC should be null because the timing of the parent record(s) is inherited by the comment record. See Example 1, rows 3-5.", "score": 0.5308, "match_basis": "verbatim_token+domain_route:CO"}, {"md_atom_id": "md_dmCO_ex_a007", "md_file": "knowledge_base/domains/CO/examples.md", "md_atom_type": "SENTENCE", "md_parent_section": "§CO.1 [Example 1]", "md_verbatim": "**Row 5:** Shows a comment related to multiple VS records with VSGRPID = \"VS2\".", "score": 0.5292, "match_basis": "verbatim_token+domain_route:CO"}, {"md_atom_id": "md_dmCO_ex_a006", "md_file": "knowledge_base/domains/CO/examples.md", "md_atom_type": "SENTENCE", "md_parent_section": "§CO.1 [Example 1]", "md_verbatim": "**Row 4:** Shows a comment related to multiple EX records with EXGRPID = \"COMBO1\".", "score": 0.5254, "match_basis": "verbatim_token+domain_route:CO"}, {"md_atom_id": "md_dmCO_ex_a003", "md_file": "knowledge_base/domains/CO/examples.md", "md_atom_type": "SENTENCE", "md_parent_section": "§CO.1 [Example 1]", "md_verbatim": "**Row 1:** Shows a comment collected on a separate comments page. Since it was unrelated to any specific domain or record, RDOMAIN, IDVAR, and IDVARVAL are null.", "score": 0.5146, "match_basis": "verbatim_token+domain_route:CO"}], "candidate_count": 5, "zero_candidate": false}
{"pdf_atom_id": "ig34_p0061_a011", "pdf_atom_type": "LIST_ITEM", "pdf_source": "SDTMIG_v3.4", "pdf_page": 61, "pdf_parent_section": "§5.1 [Comments (CO)]", "pdf_verbatim": "4. When the comment text is longer than 200 characters, the first 200 characters of the comment will be in COVAL, the next 200 in COVAL1, and additional text stored as needed to COVALn. See Example 1, rows 3-4.", "figure_ref": null, "candidates": [{"md_atom_id": "md_dmCO_assn_a008", "md_file": "knowledge_base/domains/CO/assumptions.md", "md_atom_type": "LIST_ITEM", "md_parent_section": "§CO [CO — Assumptions]", "md_verbatim": "4. When the comment text is longer than 200 characters, the first 200 characters of the comment will be in COVAL, the next 200 in COVAL1, and additional text stored as needed to COVALn. See Example 1, rows 3-4. Additional information about how to relate comments to parent SDTM records is provided in Section 8.5, Relating Comments to a Parent Domain.", "score": 0.7624, "match_basis": "verbatim_token+domain_route:CO"}, {"md_atom_id": "md_dmCO_assn_a009", "md_file": "knowledge_base/domains/CO/assumptions.md", "md_atom_type": "LIST_ITEM", "md_parent_section": "§CO [CO — Assumptions]", "md_verbatim": "5. The variable COREF may be null unless it is used to identify the source of the comment. See Example 1, rows 1 and 5.", "score": 0.5103, "match_basis": "verbatim_token+domain_route:CO"}, {"md_atom_id": "md_dmCO_assn_a007", "md_file": "knowledge_base/domains/CO/assumptions.md", "md_atom_type": "LIST_ITEM", "md_parent_section": "§CO [CO — Assumptions]", "md_verbatim": "   c. Those related to a specific parent record or group of parent records, in which case the value of the variable RDOMAIN is set to the DOMAIN code of the parent record(s) and the variables IDVAR and IDVARVAL are populated with the key variable name and value of the parent record(s). Assumptions for populating IDVAR and IDVARVAL are further described in Section 8.5, Relating Comments to a Parent Domain. CODTC should be null because the timing of the parent record(s) is inherited by the comment record. See Example 1, rows 3-5.", "score": 0.4643, "match_basis": "verbatim_token+domain_route:CO"}, {"md_atom_id": "md_dmCO_assn_a005", "md_file": "knowledge_base/domains/CO/assumptions.md", "md_atom_type": "LIST_ITEM", "md_parent_section": "§CO [CO — Assumptions]", "md_verbatim": "   a. Those unrelated to a specific domain or parent record(s), in which case the values of the variables RDOMAIN, IDVAR, and IDVARVAL are null. CODTC should be populated if captured. See Example 1, row 1.", "score": 0.4571, "match_basis": "verbatim_token+domain_route:CO"}, {"md_atom_id": "md_dmCO_assn_a006", "md_file": "knowledge_base/domains/CO/assumptions.md", "md_atom_type": "LIST_ITEM", "md_parent_section": "§CO [CO — Assumptions]", "md_verbatim": "   b. Those related to a domain but not to specific parent record(s), in which case the value of the variable RDOMAIN is set to the DOMAIN code of the parent domain and the variables IDVAR and IDVARVAL are null. CODTC should be populated if captured. See Example 1, row 2.", "score": 0.4567, "match_basis": "verbatim_token+domain_route:CO"}], "candidate_count": 5, "zero_candidate": false}
{"pdf_atom_id": "ig34_p0061_a012", "pdf_atom_type": "SENTENCE", "pdf_source": "SDTMIG_v3.4", "pdf_page": 61, "pdf_parent_section": "§5.1 [Comments (CO)]", "pdf_verbatim": "Additional information about how to relate comments to parent SDTM records is provided in Section 8.5, Relating Comments to a Parent Domain.", "figure_ref": null, "candidates": [{"md_atom_id": "md_dmCO_assn_a008", "md_file": "knowledge_base/domains/CO/assumptions.md", "md_atom_type": "LIST_ITEM", "md_parent_section": "§CO [CO — Assumptions]", "md_verbatim": "4. When the comment text is longer than 200 characters, the first 200 characters of the comment will be in COVAL, the next 200 in COVAL1, and additional text stored as needed to COVALn. See Example 1, rows 3-4. Additional information about how to relate comments to parent SDTM records is provided in Section 8.5, Relating Comments to a Parent Domain.", "score": 0.6308, "match_basis": "verbatim_token+domain_route:CO"}, {"md_atom_id": "md_dmCO_ex_a003", "md_file": "knowledge_base/domains/CO/examples.md", "md_atom_type": "SENTENCE", "md_parent_section": "§CO.1 [Example 1]", "md_verbatim": "**Row 1:** Shows a comment collected on a separate comments page. Since it was unrelated to any specific domain or record, RDOMAIN, IDVAR, and IDVARVAL are null.", "score": 0.5435, "match_basis": "verbatim_token+domain_route:CO"}, {"md_atom_id": "md_dmCO_ex_a005", "md_file": "knowledge_base/domains/CO/examples.md", "md_atom_type": "SENTENCE", "md_parent_section": "§CO.1 [Example 1]", "md_verbatim": "**Row 3:** Shows a comment related to a single AE record having its AESEQ=7.", "score": 0.5324, "match_basis": "verbatim_token+domain_route:CO"}, {"md_atom_id": "md_dmCO_ex_a004", "md_file": "knowledge_base/domains/CO/examples.md", "md_atom_type": "SENTENCE", "md_parent_section": "§CO.1 [Example 1]", "md_verbatim": "**Row 2:** Shows a comment that was collected on the bottom of the PE page for Visit 7, without any indication of specific records it applied to. Since the comment related to a specific domain, RDOMAIN is populated. Since it was related to a specific visit, VISIT, COREF is \"VISIT 7\". However, since it does not relate to a specific record, IDVAR and IDVARVAL are null.", "score": 0.5268, "match_basis": "verbatim_token+domain_route:CO"}, {"md_atom_id": "md_dmCO_ex_a007", "md_file": "knowledge_base/domains/CO/examples.md", "md_atom_type": "SENTENCE", "md_parent_section": "§CO.1 [Example 1]", "md_verbatim": "**Row 5:** Shows a comment related to multiple VS records with VSGRPID = \"VS2\".", "score": 0.525, "match_basis": "verbatim_token+domain_route:CO"}], "candidate_count": 5, "zero_candidate": false}
{"pdf_atom_id": "ig34_p0061_a013", "pdf_atom_type": "LIST_ITEM", "pdf_source": "SDTMIG_v3.4", "pdf_page": 61, "pdf_parent_section": "§5.1 [Comments (CO)]", "pdf_verbatim": "5. The variable COREF may be null unless it is used to identify the source of the comment. See Example 1, rows 1 and 5.", "figure_ref": null, "candidates": [{"md_atom_id": "md_dmCO_assn_a009", "md_file": "knowledge_base/domains/CO/assumptions.md", "md_atom_type": "LIST_ITEM", "md_parent_section": "§CO [CO — Assumptions]", "md_verbatim": "5. The variable COREF may be null unless it is used to identify the source of the comment. See Example 1, rows 1 and 5.", "score": 1.0, "match_basis": "verbatim_token+domain_route:CO"}, {"md_atom_id": "md_dmCO_assn_a005", "md_file": "knowledge_base/domains/CO/assumptions.md", "md_atom_type": "LIST_ITEM", "md_parent_section": "§CO [CO — Assumptions]", "md_verbatim": "   a. Those unrelated to a specific domain or parent record(s), in which case the values of the variables RDOMAIN, IDVAR, and IDVARVAL are null. CODTC should be populated if captured. See Example 1, row 1.", "score": 0.5212, "match_basis": "verbatim_token+domain_route:CO"}, {"md_atom_id": "md_dmCO_assn_a006", "md_file": "knowledge_base/domains/CO/assumptions.md", "md_atom_type": "LIST_ITEM", "md_parent_section": "§CO [CO — Assumptions]", "md_verbatim": "   b. Those related to a domain but not to specific parent record(s), in which case the value of the variable RDOMAIN is set to the DOMAIN code of the parent domain and the variables IDVAR and IDVARVAL are null. CODTC should be populated if captured. See Example 1, row 2.", "score": 0.52, "match_basis": "verbatim_token+domain_route:CO"}, {"md_atom_id": "md_dmCO_assn_a007", "md_file": "knowledge_base/domains/CO/assumptions.md", "md_atom_type": "LIST_ITEM", "md_parent_section": "§CO [CO — Assumptions]", "md_verbatim": "   c. Those related to a specific parent record or group of parent records, in which case the value of the variable RDOMAIN is set to the DOMAIN code of the parent record(s) and the variables IDVAR and IDVARVAL are populated with the key variable name and value of the parent record(s). Assumptions for populating IDVAR and IDVARVAL are further described in Section 8.5, Relating Comments to a Parent Domain. CODTC should be null because the timing of the parent record(s) is inherited by the comment record. See Example 1, rows 3-5.", "score": 0.5106, "match_basis": "verbatim_token+domain_route:CO"}, {"md_atom_id": "md_dmCO_assn_a004", "md_file": "knowledge_base/domains/CO/assumptions.md", "md_atom_type": "LIST_ITEM", "md_parent_section": "§CO [CO — Assumptions]", "md_verbatim": "3. The CO dataset accommodates 3 sources of comments:", "score": 0.5071, "match_basis": "verbatim_token+domain_route:CO"}], "candidate_count": 5, "zero_candidate": false}
{"pdf_atom_id": "ig34_p0061_a014", "pdf_atom_type": "LIST_ITEM", "pdf_source": "SDTMIG_v3.4", "pdf_page": 61, "pdf_parent_section": "§5.1 [Comments (CO)]", "pdf_verbatim": "6. Identifier variables and Timing variables may be added to the CO domain, but the following qualifiers would generally not be used in CO: --GRPID, --REFID, --SPID, TAETORD, --TPT, --TPTNUM, --ELTM, --TPTREF, --RFTDTC.", "figure_ref": null, "candidates": [{"md_atom_id": "md_dmCO_assn_a010", "md_file": "knowledge_base/domains/CO/assumptions.md", "md_atom_type": "LIST_ITEM", "md_parent_section": "§CO [CO — Assumptions]", "md_verbatim": "6. Identifier variables and Timing variables may be added to the CO domain, but the following qualifiers would generally not be used in CO: --GRPID, --REFID, --SPID, TAETORD, --TPT, --TPTNUM, --ELTM, --TPTREF, --RFTDTC.", "score": 1.0, "match_basis": "verbatim_token+domain_route:CO"}, {"md_atom_id": "md_dmCO_assn_a009", "md_file": "knowledge_base/domains/CO/assumptions.md", "md_atom_type": "LIST_ITEM", "md_parent_section": "§CO [CO — Assumptions]", "md_verbatim": "5. The variable COREF may be null unless it is used to identify the source of the comment. See Example 1, rows 1 and 5.", "score": 0.5059, "match_basis": "verbatim_token+domain_route:CO"}, {"md_atom_id": "md_dmCO_assn_a006", "md_file": "knowledge_base/domains/CO/assumptions.md", "md_atom_type": "LIST_ITEM", "md_parent_section": "§CO [CO — Assumptions]", "md_verbatim": "   b. Those related to a domain but not to specific parent record(s), in which case the value of the variable RDOMAIN is set to the DOMAIN code of the parent domain and the variables IDVAR and IDVARVAL are null. CODTC should be populated if captured. See Example 1, row 2.", "score": 0.4933, "match_basis": "verbatim_token+domain_route:CO"}, {"md_atom_id": "md_dmCO_assn_a005", "md_file": "knowledge_base/domains/CO/assumptions.md", "md_atom_type": "LIST_ITEM", "md_parent_section": "§CO [CO — Assumptions]", "md_verbatim": "   a. Those unrelated to a specific domain or parent record(s), in which case the values of the variables RDOMAIN, IDVAR, and IDVARVAL are null. CODTC should be populated if captured. See Example 1, row 1.", "score": 0.4838, "match_basis": "verbatim_token+domain_route:CO"}, {"md_atom_id": "md_dmCO_assn_a007", "md_file": "knowledge_base/domains/CO/assumptions.md", "md_atom_type": "LIST_ITEM", "md_parent_section": "§CO [CO — Assumptions]", "md_verbatim": "   c. Those related to a specific parent record or group of parent records, in which case the value of the variable RDOMAIN is set to the DOMAIN code of the parent record(s) and the variables IDVAR and IDVARVAL are populated with the key variable name and value of the parent record(s). Assumptions for populating IDVAR and IDVARVAL are further described in Section 8.5, Relating Comments to a Parent Domain. CODTC should be null because the timing of the parent record(s) is inherited by the comment record. See Example 1, rows 3-5.", "score": 0.4804, "match_basis": "verbatim_token+domain_route:CO"}], "candidate_count": 5, "zero_candidate": false}
{"pdf_atom_id": "ig34_p0061_a015", "pdf_atom_type": "HEADING", "pdf_source": "SDTMIG_v3.4", "pdf_page": 61, "pdf_parent_section": "§5.1 [Comments (CO)]", "pdf_verbatim": "CO – Examples", "figure_ref": null, "candidates": [{"md_atom_id": "md_dmCO_ex_a001", "md_file": "knowledge_base/domains/CO/examples.md", "md_atom_type": "HEADING", "md_parent_section": "§CO [CO — Examples]", "md_verbatim": "# CO — Examples", "score": 1.0, "match_basis": "verbatim_token+domain_route:CO"}, {"md_atom_id": "md_dmCO_ex_a002", "md_file": "knowledge_base/domains/CO/examples.md", "md_atom_type": "HEADING", "md_parent_section": "§CO [CO — Examples]", "md_verbatim": "## Example 1", "score": 0.9, "match_basis": "verbatim_token+domain_route:CO"}, {"md_atom_id": "md_dmCO_assn_a001", "md_file": "knowledge_base/domains/CO/assumptions.md", "md_atom_type": "HEADING", "md_parent_section": "§CO [CO — Assumptions]", "md_verbatim": "# CO — Assumptions", "score": 0.4, "match_basis": "verbatim_token+domain_route:CO"}], "candidate_count": 3, "zero_candidate": false}
{"pdf_atom_id": "ig34_p0061_a016", "pdf_atom_type": "SENTENCE", "pdf_source": "SDTMIG_v3.4", "pdf_page": 61, "pdf_parent_section": "§5.1 [Comments (CO)]", "pdf_verbatim": "Example 1", "figure_ref": null, "candidates": [{"md_atom_id": "md_dmCO_ex_a002", "md_file": "knowledge_base/domains/CO/examples.md", "md_atom_type": "HEADING", "md_parent_section": "§CO [CO — Examples]", "md_verbatim": "## Example 1", "score": 0.76, "match_basis": "verbatim_token+domain_route:CO"}, {"md_atom_id": "md_dmCO_ex_a001", "md_file": "knowledge_base/domains/CO/examples.md", "md_atom_type": "HEADING", "md_parent_section": "§CO [CO — Examples]", "md_verbatim": "# CO — Examples", "score": 0.66, "match_basis": "verbatim_token+domain_route:CO"}, {"md_atom_id": "md_dmCO_ex_a007", "md_file": "knowledge_base/domains/CO/examples.md", "md_atom_type": "SENTENCE", "md_parent_section": "§CO.1 [Example 1]", "md_verbatim": "**Row 5:** Shows a comment related to multiple VS records with VSGRPID = \"VS2\".", "score": 0.4162, "match_basis": "verbatim_token+domain_route:CO"}, {"md_atom_id": "md_dmCO_ex_a006", "md_file": "knowledge_base/domains/CO/examples.md", "md_atom_type": "SENTENCE", "md_parent_section": "§CO.1 [Example 1]", "md_verbatim": "**Row 4:** Shows a comment related to multiple EX records with EXGRPID = \"COMBO1\".", "score": 0.4154, "match_basis": "verbatim_token+domain_route:CO"}, {"md_atom_id": "md_dmCO_ex_a003", "md_file": "knowledge_base/domains/CO/examples.md", "md_atom_type": "SENTENCE", "md_parent_section": "§CO.1 [Example 1]", "md_verbatim": "**Row 1:** Shows a comment collected on a separate comments page. Since it was unrelated to any specific domain or record, RDOMAIN, IDVAR, and IDVARVAL are null.", "score": 0.4, "match_basis": "verbatim_token+domain_route:CO"}, {"md_atom_id": "md_dmCO_ex_a004", "md_file": "knowledge_base/domains/CO/examples.md", "md_atom_type": "SENTENCE", "md_parent_section": "§CO.1 [Example 1]", "md_verbatim": "**Row 2:** Shows a comment that was collected on the bottom of the PE page for Visit 7, without any indication of specific records it applied to. Since the comment related to a specific domain, RDOMAIN is populated. Since it was related to a specific visit, VISIT, COREF is \"VISIT 7\". However, since it does not relate to a specific record, IDVAR and IDVARVAL are null.", "score": 0.4, "match_basis": "verbatim_token+domain_route:CO"}, {"md_atom_id": "md_dmCO_ex_a005", "md_file": "knowledge_base/domains/CO/examples.md", "md_atom_type": "SENTENCE", "md_parent_section": "§CO.1 [Example 1]", "md_verbatim": "**Row 3:** Shows a comment related to a single AE record having its AESEQ=7.", "score": 0.4, "match_basis": "verbatim_token+domain_route:CO"}, {"md_atom_id": "md_dmCO_ex_a008", "md_file": "knowledge_base/domains/CO/examples.md", "md_atom_type": "SENTENCE", "md_parent_section": "§CO.1 [Example 1]", "md_verbatim": "**Row 6:** Shows one option for representing a comment collected on a visit-specific comments page not associated with a particular domain. In this case, the comment is linked to the Subject Visit record in SV (RDOMAIN = \"SV\") and IDVAR and IDVARVAL are populated link the comment to the particular visit.", "score": 0.4, "match_basis": "verbatim_token+domain_route:CO"}, {"md_atom_id": "md_dmCO_ex_a009", "md_file": "knowledge_base/domains/CO/examples.md", "md_atom_type": "SENTENCE", "md_parent_section": "§CO.1 [Example 1]", "md_verbatim": "**Row 7:** Shows a second option for representing a comment associated only with a visit. In this case, COREF is used to show that the comment is related to the particular visit.", "score": 0.4, "match_basis": "verbatim_token+domain_route:CO"}, {"md_atom_id": "md_dmCO_ex_a010", "md_file": "knowledge_base/domains/CO/examples.md", "md_atom_type": "SENTENCE", "md_parent_section": "§CO.1 [Example 1]", "md_verbatim": "**Row 8:** Shows a third option for representing a comment associated only with a visit. In this case, the VISITNUM variable was populated to indicate that the comment was associated with a particular visit.", "score": 0.4, "match_basis": "verbatim_token+domain_route:CO"}], "candidate_count": 10, "zero_candidate": false}
{"pdf_atom_id": "ig34_p0061_a017", "pdf_atom_type": "TABLE_ROW", "pdf_source": "SDTMIG_v3.4", "pdf_page": 61, "pdf_parent_section": "§5.1 [Comments (CO)]", "pdf_verbatim": "Row 1: | Shows a comment collected on a separate comments page. Since it was unrelated to any specific domain or record, RDOMAIN, IDVAR, and IDVARVAL are null.", "figure_ref": null, "candidates": [{"md_atom_id": "md_dmCO_ex_a003", "md_file": "knowledge_base/domains/CO/examples.md", "md_atom_type": "SENTENCE", "md_parent_section": "§CO.1 [Example 1]", "md_verbatim": "**Row 1:** Shows a comment collected on a separate comments page. Since it was unrelated to any specific domain or record, RDOMAIN, IDVAR, and IDVARVAL are null.", "score": 0.82, "match_basis": "verbatim_token+domain_route:CO"}, {"md_atom_id": "md_dmCO_ex_a004", "md_file": "knowledge_base/domains/CO/examples.md", "md_atom_type": "SENTENCE", "md_parent_section": "§CO.1 [Example 1]", "md_verbatim": "**Row 2:** Shows a comment that was collected on the bottom of the PE page for Visit 7, without any indication of specific records it applied to. Since the comment related to a specific domain, RDOMAIN is populated. Since it was related to a specific visit, VISIT, COREF is \"VISIT 7\". However, since it does not relate to a specific record, IDVAR and IDVARVAL are null.", "score": 0.5229, "match_basis": "verbatim_token+domain_route:CO"}, {"md_atom_id": "md_dmCO_ex_a008", "md_file": "knowledge_base/domains/CO/examples.md", "md_atom_type": "SENTENCE", "md_parent_section": "§CO.1 [Example 1]", "md_verbatim": "**Row 6:** Shows one option for representing a comment collected on a visit-specific comments page not associated with a particular domain. In this case, the comment is linked to the Subject Visit record in SV (RDOMAIN = \"SV\") and IDVAR and IDVARVAL are populated link the comment to the particular visit.", "score": 0.4655, "match_basis": "verbatim_token+domain_route:CO"}, {"md_atom_id": "md_dmCO_ex_a016", "md_file": "knowledge_base/domains/CO/examples.md", "md_atom_type": "TABLE_ROW", "md_parent_section": "§CO.1 [Example 1]", "md_verbatim": "| 4 | 1234 | CO | EX | AB-99 | 4 | EXGRPID | COMBO1 | PAGE 320-355 | First 200 characters | | Remaining text | PRINCIPAL INVESTIGATOR | | |", "score": 0.4457, "match_basis": "verbatim_token+domain_route:CO"}, {"md_atom_id": "md_dmCO_ex_a020", "md_file": "knowledge_base/domains/CO/examples.md", "md_atom_type": "TABLE_ROW", "md_parent_section": "§CO.1 [Example 1]", "md_verbatim": "| 8 | 1234 | CO | | AB-99 | 8 | | | | Comment Text | | | PRINCIPAL INVESTIGATOR | 4 | |", "score": 0.445, "match_basis": "verbatim_token+domain_route:CO"}], "candidate_count": 5, "zero_candidate": false}
{"pdf_atom_id": "ig34_p0061_a018", "pdf_atom_type": "TABLE_ROW", "pdf_source": "SDTMIG_v3.4", "pdf_page": 61, "pdf_parent_section": "§5.1 [Comments (CO)]", "pdf_verbatim": "Row 2: | Shows a comment that was collected on the bottom of the PE page for Visit 7, without any indication of specific records it applied to. Since the comment related to a specific domain, RDOMAIN is populated. Since it was related to a specific visit, VISIT, COREF is \"VISIT 7\". However, since it does not relate to a specific record, IDVAR and IDVARVAL are null.", "figure_ref": null, "candidates": [{"md_atom_id": "md_dmCO_ex_a004", "md_file": "knowledge_base/domains/CO/examples.md", "md_atom_type": "SENTENCE", "md_parent_section": "§CO.1 [Example 1]", "md_verbatim": "**Row 2:** Shows a comment that was collected on the bottom of the PE page for Visit 7, without any indication of specific records it applied to. Since the comment related to a specific domain, RDOMAIN is populated. Since it was related to a specific visit, VISIT, COREF is \"VISIT 7\". However, since it does not relate to a specific record, IDVAR and IDVARVAL are null.", "score": 0.82, "match_basis": "verbatim_token+domain_route:CO"}, {"md_atom_id": "md_dmCO_ex_a003", "md_file": "knowledge_base/domains/CO/examples.md", "md_atom_type": "SENTENCE", "md_parent_section": "§CO.1 [Example 1]", "md_verbatim": "**Row 1:** Shows a comment collected on a separate comments page. Since it was unrelated to any specific domain or record, RDOMAIN, IDVAR, and IDVARVAL are null.", "score": 0.5229, "match_basis": "verbatim_token+domain_route:CO"}, {"md_atom_id": "md_dmCO_ex_a008", "md_file": "knowledge_base/domains/CO/examples.md", "md_atom_type": "SENTENCE", "md_parent_section": "§CO.1 [Example 1]", "md_verbatim": "**Row 6:** Shows one option for representing a comment collected on a visit-specific comments page not associated with a particular domain. In this case, the comment is linked to the Subject Visit record in SV (RDOMAIN = \"SV\") and IDVAR and IDVARVAL are populated link the comment to the particular visit.", "score": 0.4771, "match_basis": "verbatim_token+domain_route:CO"}, {"md_atom_id": "md_dmCO_ex_a019", "md_file": "knowledge_base/domains/CO/examples.md", "md_atom_type": "TABLE_ROW", "md_parent_section": "§CO.1 [Example 1]", "md_verbatim": "| 7 | 1234 | CO | | AB-99 | 7 | | | VISIT 4 | Comment Text | | | PRINCIPAL INVESTIGATOR | | |", "score": 0.447, "match_basis": "verbatim_token+domain_route:CO"}, {"md_atom_id": "md_dmCO_ex_a014", "md_file": "knowledge_base/domains/CO/examples.md", "md_atom_type": "TABLE_ROW", "md_parent_section": "§CO.1 [Example 1]", "md_verbatim": "| 2 | 1234 | CO | PE | AB-99 | 2 | | | VISIT 7 | Comment text | | | PRINCIPAL INVESTIGATOR | | 2004-01-14 |", "score": 0.4462, "match_basis": "verbatim_token+domain_route:CO"}], "candidate_count": 5, "zero_candidate": false}
{"pdf_atom_id": "ig34_p0061_a019", "pdf_atom_type": "TABLE_ROW", "pdf_source": "SDTMIG_v3.4", "pdf_page": 61, "pdf_parent_section": "§5.1 [Comments (CO)]", "pdf_verbatim": "Row 3: | Shows a comment related to a single AE record having its AESEQ=7.", "figure_ref": null, "candidates": [{"md_atom_id": "md_dmCO_ex_a005", "md_file": "knowledge_base/domains/CO/examples.md", "md_atom_type": "SENTENCE", "md_parent_section": "§CO.1 [Example 1]", "md_verbatim": "**Row 3:** Shows a comment related to a single AE record having its AESEQ=7.", "score": 0.82, "match_basis": "verbatim_token+domain_route:CO"}, {"md_atom_id": "md_dmCO_ex_a007", "md_file": "knowledge_base/domains/CO/examples.md", "md_atom_type": "SENTENCE", "md_parent_section": "§CO.1 [Example 1]", "md_verbatim": "**Row 5:** Shows a comment related to multiple VS records with VSGRPID = \"VS2\".", "score": 0.4655, "match_basis": "verbatim_token+domain_route:CO"}, {"md_atom_id": "md_dmCO_ex_a020", "md_file": "knowledge_base/domains/CO/examples.md", "md_atom_type": "TABLE_ROW", "md_parent_section": "§CO.1 [Example 1]", "md_verbatim": "| 8 | 1234 | CO | | AB-99 | 8 | | | | Comment Text | | | PRINCIPAL INVESTIGATOR | 4 | |", "score": 0.46, "match_basis": "verbatim_token+domain_route:CO"}, {"md_atom_id": "md_dmCO_ex_a013", "md_file": "knowledge_base/domains/CO/examples.md", "md_atom_type": "TABLE_ROW", "md_parent_section": "§CO.1 [Example 1]", "md_verbatim": "| 1 | 1234 | CO | | AB-99 | 1 | | | | Comment text | | | PRINCIPAL INVESTIGATOR | | 2003-11-08 |", "score": 0.4577, "match_basis": "verbatim_token+domain_route:CO"}, {"md_atom_id": "md_dmCO_ex_a019", "md_file": "knowledge_base/domains/CO/examples.md", "md_atom_type": "TABLE_ROW", "md_parent_section": "§CO.1 [Example 1]", "md_verbatim": "| 7 | 1234 | CO | | AB-99 | 7 | | | VISIT 4 | Comment Text | | | PRINCIPAL INVESTIGATOR | | |", "score": 0.4566, "match_basis": "verbatim_token+domain_route:CO"}], "candidate_count": 5, "zero_candidate": false}
{"pdf_atom_id": "ig34_p0061_a020", "pdf_atom_type": "TABLE_ROW", "pdf_source": "SDTMIG_v3.4", "pdf_page": 61, "pdf_parent_section": "§5.1 [Comments (CO)]", "pdf_verbatim": "Row 4: | Shows a comment related to multiple EX records with EXGRPID = \"COMBO1\".", "figure_ref": null, "candidates": [{"md_atom_id": "md_dmCO_ex_a006", "md_file": "knowledge_base/domains/CO/examples.md", "md_atom_type": "SENTENCE", "md_parent_section": "§CO.1 [Example 1]", "md_verbatim": "**Row 4:** Shows a comment related to multiple EX records with EXGRPID = \"COMBO1\".", "score": 0.82, "match_basis": "verbatim_token+domain_route:CO"}, {"md_atom_id": "md_dmCO_ex_a007", "md_file": "knowledge_base/domains/CO/examples.md", "md_atom_type": "SENTENCE", "md_parent_section": "§CO.1 [Example 1]", "md_verbatim": "**Row 5:** Shows a comment related to multiple VS records with VSGRPID = \"VS2\".", "score": 0.6937, "match_basis": "verbatim_token+domain_route:CO"}, {"md_atom_id": "md_dmCO_ex_a017", "md_file": "knowledge_base/domains/CO/examples.md", "md_atom_type": "TABLE_ROW", "md_parent_section": "§CO.1 [Example 1]", "md_verbatim": "| 5 | 1234 | CO | VS | AB-99 | 5 | VSGRPID | VS2 | | Comment text | | | PRINCIPAL INVESTIGATOR | | |", "score": 0.4814, "match_basis": "verbatim_token+domain_route:CO"}, {"md_atom_id": "md_dmCO_ex_a016", "md_file": "knowledge_base/domains/CO/examples.md", "md_atom_type": "TABLE_ROW", "md_parent_section": "§CO.1 [Example 1]", "md_verbatim": "| 4 | 1234 | CO | EX | AB-99 | 4 | EXGRPID | COMBO1 | PAGE 320-355 | First 200 characters | | Remaining text | PRINCIPAL INVESTIGATOR | | |", "score": 0.4684, "match_basis": "verbatim_token+domain_route:CO"}, {"md_atom_id": "md_dmCO_ex_a005", "md_file": "knowledge_base/domains/CO/examples.md", "md_atom_type": "SENTENCE", "md_parent_section": "§CO.1 [Example 1]", "md_verbatim": "**Row 3:** Shows a comment related to a single AE record having its AESEQ=7.", "score": 0.4548, "match_basis": "verbatim_token+domain_route:CO"}], "candidate_count": 5, "zero_candidate": false}
{"pdf_atom_id": "ig34_p0061_a021", "pdf_atom_type": "TABLE_ROW", "pdf_source": "SDTMIG_v3.4", "pdf_page": 61, "pdf_parent_section": "§5.1 [Comments (CO)]", "pdf_verbatim": "Row 5: | Shows a comment related to multiple VS records with VSGRPID = \"VS2\".", "figure_ref": null, "candidates": [{"md_atom_id": "md_dmCO_ex_a007", "md_file": "knowledge_base/domains/CO/examples.md", "md_atom_type": "SENTENCE", "md_parent_section": "§CO.1 [Example 1]", "md_verbatim": "**Row 5:** Shows a comment related to multiple VS records with VSGRPID = \"VS2\".", "score": 0.82, "match_basis": "verbatim_token+domain_route:CO"}, {"md_atom_id": "md_dmCO_ex_a006", "md_file": "knowledge_base/domains/CO/examples.md", "md_atom_type": "SENTENCE", "md_parent_section": "§CO.1 [Example 1]", "md_verbatim": "**Row 4:** Shows a comment related to multiple EX records with EXGRPID = \"COMBO1\".", "score": 0.6937, "match_basis": "verbatim_token+domain_route:CO"}, {"md_atom_id": "md_dmCO_ex_a017", "md_file": "knowledge_base/domains/CO/examples.md", "md_atom_type": "TABLE_ROW", "md_parent_section": "§CO.1 [Example 1]", "md_verbatim": "| 5 | 1234 | CO | VS | AB-99 | 5 | VSGRPID | VS2 | | Comment text | | | PRINCIPAL INVESTIGATOR | | |", "score": 0.5222, "match_basis": "verbatim_token+domain_route:CO"}, {"md_atom_id": "md_dmCO_ex_a005", "md_file": "knowledge_base/domains/CO/examples.md", "md_atom_type": "SENTENCE", "md_parent_section": "§CO.1 [Example 1]", "md_verbatim": "**Row 3:** Shows a comment related to a single AE record having its AESEQ=7.", "score": 0.4655, "match_basis": "verbatim_token+domain_route:CO"}, {"md_atom_id": "md_dmCO_ex_a020", "md_file": "knowledge_base/domains/CO/examples.md", "md_atom_type": "TABLE_ROW", "md_parent_section": "§CO.1 [Example 1]", "md_verbatim": "| 8 | 1234 | CO | | AB-99 | 8 | | | | Comment Text | | | PRINCIPAL INVESTIGATOR | 4 | |", "score": 0.4556, "match_basis": "verbatim_token+domain_route:CO"}], "candidate_count": 5, "zero_candidate": false}
{"pdf_atom_id": "ig34_p0062_a001", "pdf_atom_type": "TABLE_ROW", "pdf_source": "SDTMIG_v3.4", "pdf_page": 62, "pdf_parent_section": "§5.1 [Comments (CO)]", "pdf_verbatim": "Row 6: | Shows one option for representing a comment collected on a visit-specific comments page not associated with a particular domain. In this case, the comment is linked to the Subject Visit record in SV (RDOMAIN = \"SV\") and IDVAR and IDVARVAL are populated link the comment to the particular visit.", "figure_ref": null, "candidates": [{"md_atom_id": "md_dmCO_ex_a008", "md_file": "knowledge_base/domains/CO/examples.md", "md_atom_type": "SENTENCE", "md_parent_section": "§CO.1 [Example 1]", "md_verbatim": "**Row 6:** Shows one option for representing a comment collected on a visit-specific comments page not associated with a particular domain. In this case, the comment is linked to the Subject Visit record in SV (RDOMAIN = \"SV\") and IDVAR and IDVARVAL are populated link the comment to the particular visit.", "score": 0.82, "match_basis": "verbatim_token+domain_route:CO"}, {"md_atom_id": "md_dmCO_ex_a009", "md_file": "knowledge_base/domains/CO/examples.md", "md_atom_type": "SENTENCE", "md_parent_section": "§CO.1 [Example 1]", "md_verbatim": "**Row 7:** Shows a second option for representing a comment associated only with a visit. In this case, COREF is used to show that the comment is related to the particular visit.", "score": 0.5089, "match_basis": "verbatim_token+domain_route:CO"}, {"md_atom_id": "md_dmCO_ex_a010", "md_file": "knowledge_base/domains/CO/examples.md", "md_atom_type": "SENTENCE", "md_parent_section": "§CO.1 [Example 1]", "md_verbatim": "**Row 8:** Shows a third option for representing a comment associated only with a visit. In this case, the VISITNUM variable was populated to indicate that the comment was associated with a particular visit.", "score": 0.5017, "match_basis": "verbatim_token+domain_route:CO"}, {"md_atom_id": "md_dmCO_ex_a004", "md_file": "knowledge_base/domains/CO/examples.md", "md_atom_type": "SENTENCE", "md_parent_section": "§CO.1 [Example 1]", "md_verbatim": "**Row 2:** Shows a comment that was collected on the bottom of the PE page for Visit 7, without any indication of specific records it applied to. Since the comment related to a specific domain, RDOMAIN is populated. Since it was related to a specific visit, VISIT, COREF is \"VISIT 7\". However, since it does not relate to a specific record, IDVAR and IDVARVAL are null.", "score": 0.4771, "match_basis": "verbatim_token+domain_route:CO"}, {"md_atom_id": "md_dmCO_ex_a003", "md_file": "knowledge_base/domains/CO/examples.md", "md_atom_type": "SENTENCE", "md_parent_section": "§CO.1 [Example 1]", "md_verbatim": "**Row 1:** Shows a comment collected on a separate comments page. Since it was unrelated to any specific domain or record, RDOMAIN, IDVAR, and IDVARVAL are null.", "score": 0.4655, "match_basis": "verbatim_token+domain_route:CO"}], "candidate_count": 5, "zero_candidate": false}
{"pdf_atom_id": "ig34_p0062_a002", "pdf_atom_type": "TABLE_ROW", "pdf_source": "SDTMIG_v3.4", "pdf_page": 62, "pdf_parent_section": "§5.1 [Comments (CO)]", "pdf_verbatim": "Row 7: | Shows a second option for representing a comment associated only with a visit. In this case, COREF is used to show that the comment is related to the particular visit.", "figure_ref": null, "candidates": [{"md_atom_id": "md_dmCO_ex_a009", "md_file": "knowledge_base/domains/CO/examples.md", "md_atom_type": "SENTENCE", "md_parent_section": "§CO.1 [Example 1]", "md_verbatim": "**Row 7:** Shows a second option for representing a comment associated only with a visit. In this case, COREF is used to show that the comment is related to the particular visit.", "score": 0.82, "match_basis": "verbatim_token+domain_route:CO"}, {"md_atom_id": "md_dmCO_ex_a010", "md_file": "knowledge_base/domains/CO/examples.md", "md_atom_type": "SENTENCE", "md_parent_section": "§CO.1 [Example 1]", "md_verbatim": "**Row 8:** Shows a third option for representing a comment associated only with a visit. In this case, the VISITNUM variable was populated to indicate that the comment was associated with a particular visit.", "score": 0.6012, "match_basis": "verbatim_token+domain_route:CO"}, {"md_atom_id": "md_dmCO_ex_a008", "md_file": "knowledge_base/domains/CO/examples.md", "md_atom_type": "SENTENCE", "md_parent_section": "§CO.1 [Example 1]", "md_verbatim": "**Row 6:** Shows one option for representing a comment collected on a visit-specific comments page not associated with a particular domain. In this case, the comment is linked to the Subject Visit record in SV (RDOMAIN = \"SV\") and IDVAR and IDVARVAL are populated link the comment to the particular visit.", "score": 0.5089, "match_basis": "verbatim_token+domain_route:CO"}, {"md_atom_id": "md_dmCO_ex_a019", "md_file": "knowledge_base/domains/CO/examples.md", "md_atom_type": "TABLE_ROW", "md_parent_section": "§CO.1 [Example 1]", "md_verbatim": "| 7 | 1234 | CO | | AB-99 | 7 | | | VISIT 4 | Comment Text | | | PRINCIPAL INVESTIGATOR | | |", "score": 0.4558, "match_basis": "verbatim_token+domain_route:CO"}, {"md_atom_id": "md_dmCO_ex_a014", "md_file": "knowledge_base/domains/CO/examples.md", "md_atom_type": "TABLE_ROW", "md_parent_section": "§CO.1 [Example 1]", "md_verbatim": "| 2 | 1234 | CO | PE | AB-99 | 2 | | | VISIT 7 | Comment text | | | PRINCIPAL INVESTIGATOR | | 2004-01-14 |", "score": 0.4545, "match_basis": "verbatim_token+domain_route:CO"}], "candidate_count": 5, "zero_candidate": false}
{"pdf_atom_id": "ig34_p0062_a003", "pdf_atom_type": "TABLE_ROW", "pdf_source": "SDTMIG_v3.4", "pdf_page": 62, "pdf_parent_section": "§5.1 [Comments (CO)]", "pdf_verbatim": "Row 8: | Shows a third option for representing a comment associated only with a visit. In this case, the VISITNUM variable was populated to indicate that the comment was associated with a particular visit.", "figure_ref": null, "candidates": [{"md_atom_id": "md_dmCO_ex_a010", "md_file": "knowledge_base/domains/CO/examples.md", "md_atom_type": "SENTENCE", "md_parent_section": "§CO.1 [Example 1]", "md_verbatim": "**Row 8:** Shows a third option for representing a comment associated only with a visit. In this case, the VISITNUM variable was populated to indicate that the comment was associated with a particular visit.", "score": 0.82, "match_basis": "verbatim_token+domain_route:CO"}, {"md_atom_id": "md_dmCO_ex_a009", "md_file": "knowledge_base/domains/CO/examples.md", "md_atom_type": "SENTENCE", "md_parent_section": "§CO.1 [Example 1]", "md_verbatim": "**Row 7:** Shows a second option for representing a comment associated only with a visit. In this case, COREF is used to show that the comment is related to the particular visit.", "score": 0.6012, "match_basis": "verbatim_token+domain_route:CO"}, {"md_atom_id": "md_dmCO_ex_a008", "md_file": "knowledge_base/domains/CO/examples.md", "md_atom_type": "SENTENCE", "md_parent_section": "§CO.1 [Example 1]", "md_verbatim": "**Row 6:** Shows one option for representing a comment collected on a visit-specific comments page not associated with a particular domain. In this case, the comment is linked to the Subject Visit record in SV (RDOMAIN = \"SV\") and IDVAR and IDVARVAL are populated link the comment to the particular visit.", "score": 0.5017, "match_basis": "verbatim_token+domain_route:CO"}, {"md_atom_id": "md_dmCO_ex_a018", "md_file": "knowledge_base/domains/CO/examples.md", "md_atom_type": "TABLE_ROW", "md_parent_section": "§CO.1 [Example 1]", "md_verbatim": "| 6 | 1234 | CO | SV | AB-99 | 6 | VISITNUM | 4 | | Comment Text | | | PRINCIPAL INVESTIGATOR | | |", "score": 0.4695, "match_basis": "verbatim_token+domain_route:CO"}, {"md_atom_id": "md_dmCO_ex_a019", "md_file": "knowledge_base/domains/CO/examples.md", "md_atom_type": "TABLE_ROW", "md_parent_section": "§CO.1 [Example 1]", "md_verbatim": "| 7 | 1234 | CO | | AB-99 | 7 | | | VISIT 4 | Comment Text | | | PRINCIPAL INVESTIGATOR | | |", "score": 0.4505, "match_basis": "verbatim_token+domain_route:CO"}], "candidate_count": 5, "zero_candidate": false}
{"pdf_atom_id": "ig34_p0062_a004", "pdf_atom_type": "CODE_LITERAL", "pdf_source": "SDTMIG_v3.4", "pdf_page": 62, "pdf_parent_section": "§5.1 [Comments (CO)]", "pdf_verbatim": "co.xpt", "figure_ref": null, "candidates": [{"md_atom_id": "md_dmCO_ex_a011", "md_file": "knowledge_base/domains/CO/examples.md", "md_atom_type": "SENTENCE", "md_parent_section": "§CO.1 [Example 1]", "md_verbatim": "**co.xpt**", "score": 0.79, "match_basis": "verbatim_token+domain_route:CO"}, {"md_atom_id": "md_dmCO_assn_a001", "md_file": "knowledge_base/domains/CO/assumptions.md", "md_atom_type": "HEADING", "md_parent_section": "§CO [CO — Assumptions]", "md_verbatim": "# CO — Assumptions", "score": 0.19, "match_basis": "verbatim_token+domain_route:CO"}, {"md_atom_id": "md_dmCO_assn_a002", "md_file": "knowledge_base/domains/CO/assumptions.md", "md_atom_type": "LIST_ITEM", "md_parent_section": "§CO [CO — Assumptions]", "md_verbatim": "1. The Comments special-purpose domain provides a solution for submitting free-text comments related to data in 1 or more SDTM domains (as described in Section 8.5, Relating Comments to a Parent Domain) or collected on a separate CRF page dedicated to comments. Comments are generally not responses to specific questions; instead, comments usually consist of voluntary free-text or unsolicited observations.", "score": 0.19, "match_basis": "verbatim_token+domain_route:CO"}, {"md_atom_id": "md_dmCO_assn_a003", "md_file": "knowledge_base/domains/CO/assumptions.md", "md_atom_type": "LIST_ITEM", "md_parent_section": "§CO [CO — Assumptions]", "md_verbatim": "2. Although the structure for the Comments domain in the SDTM is \"One record per comment\", USUBJID is required in the comments domain for human clinical trials, so the structure of the Comments domain in the SDTMIG is \"One record per comment per subject.\"", "score": 0.19, "match_basis": "verbatim_token+domain_route:CO"}, {"md_atom_id": "md_dmCO_assn_a004", "md_file": "knowledge_base/domains/CO/assumptions.md", "md_atom_type": "LIST_ITEM", "md_parent_section": "§CO [CO — Assumptions]", "md_verbatim": "3. The CO dataset accommodates 3 sources of comments:", "score": 0.19, "match_basis": "verbatim_token+domain_route:CO"}, {"md_atom_id": "md_dmCO_assn_a005", "md_file": "knowledge_base/domains/CO/assumptions.md", "md_atom_type": "LIST_ITEM", "md_parent_section": "§CO [CO — Assumptions]", "md_verbatim": "   a. Those unrelated to a specific domain or parent record(s), in which case the values of the variables RDOMAIN, IDVAR, and IDVARVAL are null. CODTC should be populated if captured. See Example 1, row 1.", "score": 0.19, "match_basis": "verbatim_token+domain_route:CO"}, {"md_atom_id": "md_dmCO_assn_a006", "md_file": "knowledge_base/domains/CO/assumptions.md", "md_atom_type": "LIST_ITEM", "md_parent_section": "§CO [CO — Assumptions]", "md_verbatim": "   b. Those related to a domain but not to specific parent record(s), in which case the value of the variable RDOMAIN is set to the DOMAIN code of the parent domain and the variables IDVAR and IDVARVAL are null. CODTC should be populated if captured. See Example 1, row 2.", "score": 0.19, "match_basis": "verbatim_token+domain_route:CO"}, {"md_atom_id": "md_dmCO_assn_a007", "md_file": "knowledge_base/domains/CO/assumptions.md", "md_atom_type": "LIST_ITEM", "md_parent_section": "§CO [CO — Assumptions]", "md_verbatim": "   c. Those related to a specific parent record or group of parent records, in which case the value of the variable RDOMAIN is set to the DOMAIN code of the parent record(s) and the variables IDVAR and IDVARVAL are populated with the key variable name and value of the parent record(s). Assumptions for populating IDVAR and IDVARVAL are further described in Section 8.5, Relating Comments to a Parent Domain. CODTC should be null because the timing of the parent record(s) is inherited by the comment record. See Example 1, rows 3-5.", "score": 0.19, "match_basis": "verbatim_token+domain_route:CO"}, {"md_atom_id": "md_dmCO_assn_a008", "md_file": "knowledge_base/domains/CO/assumptions.md", "md_atom_type": "LIST_ITEM", "md_parent_section": "§CO [CO — Assumptions]", "md_verbatim": "4. When the comment text is longer than 200 characters, the first 200 characters of the comment will be in COVAL, the next 200 in COVAL1, and additional text stored as needed to COVALn. See Example 1, rows 3-4. Additional information about how to relate comments to parent SDTM records is provided in Section 8.5, Relating Comments to a Parent Domain.", "score": 0.19, "match_basis": "verbatim_token+domain_route:CO"}, {"md_atom_id": "md_dmCO_assn_a009", "md_file": "knowledge_base/domains/CO/assumptions.md", "md_atom_type": "LIST_ITEM", "md_parent_section": "§CO [CO — Assumptions]", "md_verbatim": "5. The variable COREF may be null unless it is used to identify the source of the comment. See Example 1, rows 1 and 5.", "score": 0.19, "match_basis": "verbatim_token+domain_route:CO"}], "candidate_count": 10, "zero_candidate": false}
{"pdf_atom_id": "ig34_p0062_a005", "pdf_atom_type": "TABLE_HEADER", "pdf_source": "SDTMIG_v3.4", "pdf_page": 62, "pdf_parent_section": "§5.1 [Comments (CO)]", "pdf_verbatim": "Row | STUDYID | DOMAIN | RDOMAIN | USUBJID | COSEQ | IDVAR | IDVARVAL | COREF | COVAL | COVAL1 | COVAL2 | COEVAL | VISITNUM | CODTC", "figure_ref": null, "candidates": [{"md_atom_id": "md_dmCO_ex_a012", "md_file": "knowledge_base/domains/CO/examples.md", "md_atom_type": "TABLE_HEADER", "md_parent_section": "§CO.1 [Example 1]", "md_verbatim": "| Row | STUDYID | DOMAIN | RDOMAIN | USUBJID | COSEQ | IDVAR | IDVARVAL | COREF | COVAL | COVAL1 | COVAL2 | COEVAL | VISITNUM | CODTC |\n|-----|---------|--------|---------|---------|-------|-------|----------|-------|-------|--------|--------|--------|----------|-------|", "score": 1.0, "match_basis": "verbatim_token+domain_route:CO"}, {"md_atom_id": "md_dmCO_ex_a018", "md_file": "knowledge_base/domains/CO/examples.md", "md_atom_type": "TABLE_ROW", "md_parent_section": "§CO.1 [Example 1]", "md_verbatim": "| 6 | 1234 | CO | SV | AB-99 | 6 | VISITNUM | 4 | | Comment Text | | | PRINCIPAL INVESTIGATOR | | |", "score": 0.3914, "match_basis": "verbatim_token+domain_route:CO"}, {"md_atom_id": "md_dmCO_ex_a019", "md_file": "knowledge_base/domains/CO/examples.md", "md_atom_type": "TABLE_ROW", "md_parent_section": "§CO.1 [Example 1]", "md_verbatim": "| 7 | 1234 | CO | | AB-99 | 7 | | | VISIT 4 | Comment Text | | | PRINCIPAL INVESTIGATOR | | |", "score": 0.3657, "match_basis": "verbatim_token+domain_route:CO"}, {"md_atom_id": "md_dmCO_ex_a014", "md_file": "knowledge_base/domains/CO/examples.md", "md_atom_type": "TABLE_ROW", "md_parent_section": "§CO.1 [Example 1]", "md_verbatim": "| 2 | 1234 | CO | PE | AB-99 | 2 | | | VISIT 7 | Comment text | | | PRINCIPAL INVESTIGATOR | | 2004-01-14 |", "score": 0.365, "match_basis": "verbatim_token+domain_route:CO"}, {"md_atom_id": "md_dmCO_ex_a015", "md_file": "knowledge_base/domains/CO/examples.md", "md_atom_type": "TABLE_ROW", "md_parent_section": "§CO.1 [Example 1]", "md_verbatim": "| 3 | 1234 | CO | AE | AB-99 | 3 | AESEQ | 7 | PAGE 650 | First 200 characters | Next 200 characters | Remaining text | PRINCIPAL INVESTIGATOR | | |", "score": 0.3605, "match_basis": "verbatim_token+domain_route:CO"}], "candidate_count": 5, "zero_candidate": false}
{"pdf_atom_id": "ig34_p0062_a006", "pdf_atom_type": "TABLE_ROW", "pdf_source": "SDTMIG_v3.4", "pdf_page": 62, "pdf_parent_section": "§5.1 [Comments (CO)]", "pdf_verbatim": "1 | 1234 | CO | | AB-99 | 1 | | | | Comment text | | | PRINCIPAL INVESTIGATOR | | 2003-11-08", "figure_ref": null, "candidates": [{"md_atom_id": "md_dmCO_ex_a013", "md_file": "knowledge_base/domains/CO/examples.md", "md_atom_type": "TABLE_ROW", "md_parent_section": "§CO.1 [Example 1]", "md_verbatim": "| 1 | 1234 | CO | | AB-99 | 1 | | | | Comment text | | | PRINCIPAL INVESTIGATOR | | 2003-11-08 |", "score": 1.0, "match_basis": "verbatim_token+domain_route:CO"}, {"md_atom_id": "md_dmCO_ex_a020", "md_file": "knowledge_base/domains/CO/examples.md", "md_atom_type": "TABLE_ROW", "md_parent_section": "§CO.1 [Example 1]", "md_verbatim": "| 8 | 1234 | CO | | AB-99 | 8 | | | | Comment Text | | | PRINCIPAL INVESTIGATOR | 4 | |", "score": 0.9571, "match_basis": "verbatim_token+domain_route:CO"}, {"md_atom_id": "md_dmCO_ex_a014", "md_file": "knowledge_base/domains/CO/examples.md", "md_atom_type": "TABLE_ROW", "md_parent_section": "§CO.1 [Example 1]", "md_verbatim": "| 2 | 1234 | CO | PE | AB-99 | 2 | | | VISIT 7 | Comment text | | | PRINCIPAL INVESTIGATOR | | 2004-01-14 |", "score": 0.9062, "match_basis": "verbatim_token+domain_route:CO"}, {"md_atom_id": "md_dmCO_ex_a019", "md_file": "knowledge_base/domains/CO/examples.md", "md_atom_type": "TABLE_ROW", "md_parent_section": "§CO.1 [Example 1]", "md_verbatim": "| 7 | 1234 | CO | | AB-99 | 7 | | | VISIT 4 | Comment Text | | | PRINCIPAL INVESTIGATOR | | |", "score": 0.9032, "match_basis": "verbatim_token+domain_route:CO"}, {"md_atom_id": "md_dmCO_ex_a017", "md_file": "knowledge_base/domains/CO/examples.md", "md_atom_type": "TABLE_ROW", "md_parent_section": "§CO.1 [Example 1]", "md_verbatim": "| 5 | 1234 | CO | VS | AB-99 | 5 | VSGRPID | VS2 | | Comment text | | | PRINCIPAL INVESTIGATOR | | |", "score": 0.8588, "match_basis": "verbatim_token+domain_route:CO"}], "candidate_count": 5, "zero_candidate": false}
{"pdf_atom_id": "ig34_p0062_a007", "pdf_atom_type": "TABLE_ROW", "pdf_source": "SDTMIG_v3.4", "pdf_page": 62, "pdf_parent_section": "§5.1 [Comments (CO)]", "pdf_verbatim": "2 | 1234 | CO | PE | AB-99 | 2 | | | VISIT 7 | Comment text | | | PRINCIPAL INVESTIGATOR | | 2004-01-14", "figure_ref": null, "candidates": [{"md_atom_id": "md_dmCO_ex_a014", "md_file": "knowledge_base/domains/CO/examples.md", "md_atom_type": "TABLE_ROW", "md_parent_section": "§CO.1 [Example 1]", "md_verbatim": "| 2 | 1234 | CO | PE | AB-99 | 2 | | | VISIT 7 | Comment text | | | PRINCIPAL INVESTIGATOR | | 2004-01-14 |", "score": 1.0, "match_basis": "verbatim_token+domain_route:CO"}, {"md_atom_id": "md_dmCO_ex_a019", "md_file": "knowledge_base/domains/CO/examples.md", "md_atom_type": "TABLE_ROW", "md_parent_section": "§CO.1 [Example 1]", "md_verbatim": "| 7 | 1234 | CO | | AB-99 | 7 | | | VISIT 4 | Comment Text | | | PRINCIPAL INVESTIGATOR | | |", "score": 0.9613, "match_basis": "verbatim_token+domain_route:CO"}, {"md_atom_id": "md_dmCO_ex_a018", "md_file": "knowledge_base/domains/CO/examples.md", "md_atom_type": "TABLE_ROW", "md_parent_section": "§CO.1 [Example 1]", "md_verbatim": "| 6 | 1234 | CO | SV | AB-99 | 6 | VISITNUM | 4 | | Comment Text | | | PRINCIPAL INVESTIGATOR | | |", "score": 0.9118, "match_basis": "verbatim_token+domain_route:CO"}, {"md_atom_id": "md_dmCO_ex_a013", "md_file": "knowledge_base/domains/CO/examples.md", "md_atom_type": "TABLE_ROW", "md_parent_section": "§CO.1 [Example 1]", "md_verbatim": "| 1 | 1234 | CO | | AB-99 | 1 | | | | Comment text | | | PRINCIPAL INVESTIGATOR | | 2003-11-08 |", "score": 0.9062, "match_basis": "verbatim_token+domain_route:CO"}, {"md_atom_id": "md_dmCO_ex_a020", "md_file": "knowledge_base/domains/CO/examples.md", "md_atom_type": "TABLE_ROW", "md_parent_section": "§CO.1 [Example 1]", "md_verbatim": "| 8 | 1234 | CO | | AB-99 | 8 | | | | Comment Text | | | PRINCIPAL INVESTIGATOR | 4 | |", "score": 0.9032, "match_basis": "verbatim_token+domain_route:CO"}], "candidate_count": 5, "zero_candidate": false}
{"pdf_atom_id": "ig34_p0062_a008", "pdf_atom_type": "TABLE_ROW", "pdf_source": "SDTMIG_v3.4", "pdf_page": 62, "pdf_parent_section": "§5.1 [Comments (CO)]", "pdf_verbatim": "3 | 1234 | CO | AE | AB-99 | 3 | AESEQ | 7 | PAGE 650 | First 200 characters | Next 200 characters | Remaining text | PRINCIPAL INVESTIGATOR | |", "figure_ref": null, "candidates": [{"md_atom_id": "md_dmCO_ex_a015", "md_file": "knowledge_base/domains/CO/examples.md", "md_atom_type": "TABLE_ROW", "md_parent_section": "§CO.1 [Example 1]", "md_verbatim": "| 3 | 1234 | CO | AE | AB-99 | 3 | AESEQ | 7 | PAGE 650 | First 200 characters | Next 200 characters | Remaining text | PRINCIPAL INVESTIGATOR | | |", "score": 1.0, "match_basis": "verbatim_token+domain_route:CO"}, {"md_atom_id": "md_dmCO_ex_a016", "md_file": "knowledge_base/domains/CO/examples.md", "md_atom_type": "TABLE_ROW", "md_parent_section": "§CO.1 [Example 1]", "md_verbatim": "| 4 | 1234 | CO | EX | AB-99 | 4 | EXGRPID | COMBO1 | PAGE 320-355 | First 200 characters | | Remaining text | PRINCIPAL INVESTIGATOR | | |", "score": 0.8345, "match_basis": "verbatim_token+domain_route:CO"}, {"md_atom_id": "md_dmCO_ex_a013", "md_file": "knowledge_base/domains/CO/examples.md", "md_atom_type": "TABLE_ROW", "md_parent_section": "§CO.1 [Example 1]", "md_verbatim": "| 1 | 1234 | CO | | AB-99 | 1 | | | | Comment text | | | PRINCIPAL INVESTIGATOR | | 2003-11-08 |", "score": 0.6491, "match_basis": "verbatim_token+domain_route:CO"}, {"md_atom_id": "md_dmCO_ex_a020", "md_file": "knowledge_base/domains/CO/examples.md", "md_atom_type": "TABLE_ROW", "md_parent_section": "§CO.1 [Example 1]", "md_verbatim": "| 8 | 1234 | CO | | AB-99 | 8 | | | | Comment Text | | | PRINCIPAL INVESTIGATOR | 4 | |", "score": 0.6423, "match_basis": "verbatim_token+domain_route:CO"}, {"md_atom_id": "md_dmCO_ex_a014", "md_file": "knowledge_base/domains/CO/examples.md", "md_atom_type": "TABLE_ROW", "md_parent_section": "§CO.1 [Example 1]", "md_verbatim": "| 2 | 1234 | CO | PE | AB-99 | 2 | | | VISIT 7 | Comment text | | | PRINCIPAL INVESTIGATOR | | 2004-01-14 |", "score": 0.6357, "match_basis": "verbatim_token+domain_route:CO"}], "candidate_count": 5, "zero_candidate": false}
{"pdf_atom_id": "ig34_p0062_a009", "pdf_atom_type": "TABLE_ROW", "pdf_source": "SDTMIG_v3.4", "pdf_page": 62, "pdf_parent_section": "§5.1 [Comments (CO)]", "pdf_verbatim": "4 | 1234 | CO | EX | AB-99 | 4 | EXGRPID | COMBO1 | PAGE 320-355 | First 200 characters | Remaining text | | PRINCIPAL INVESTIGATOR | |", "figure_ref": null, "candidates": [{"md_atom_id": "md_dmCO_ex_a016", "md_file": "knowledge_base/domains/CO/examples.md", "md_atom_type": "TABLE_ROW", "md_parent_section": "§CO.1 [Example 1]", "md_verbatim": "| 4 | 1234 | CO | EX | AB-99 | 4 | EXGRPID | COMBO1 | PAGE 320-355 | First 200 characters | | Remaining text | PRINCIPAL INVESTIGATOR | | |", "score": 1.0, "match_basis": "verbatim_token+domain_route:CO"}, {"md_atom_id": "md_dmCO_ex_a015", "md_file": "knowledge_base/domains/CO/examples.md", "md_atom_type": "TABLE_ROW", "md_parent_section": "§CO.1 [Example 1]", "md_verbatim": "| 3 | 1234 | CO | AE | AB-99 | 3 | AESEQ | 7 | PAGE 650 | First 200 characters | Next 200 characters | Remaining text | PRINCIPAL INVESTIGATOR | | |", "score": 0.8345, "match_basis": "verbatim_token+domain_route:CO"}, {"md_atom_id": "md_dmCO_ex_a017", "md_file": "knowledge_base/domains/CO/examples.md", "md_atom_type": "TABLE_ROW", "md_parent_section": "§CO.1 [Example 1]", "md_verbatim": "| 5 | 1234 | CO | VS | AB-99 | 5 | VSGRPID | VS2 | | Comment text | | | PRINCIPAL INVESTIGATOR | | |", "score": 0.65, "match_basis": "verbatim_token+domain_route:CO"}, {"md_atom_id": "md_dmCO_ex_a013", "md_file": "knowledge_base/domains/CO/examples.md", "md_atom_type": "TABLE_ROW", "md_parent_section": "§CO.1 [Example 1]", "md_verbatim": "| 1 | 1234 | CO | | AB-99 | 1 | | | | Comment text | | | PRINCIPAL INVESTIGATOR | | 2003-11-08 |", "score": 0.6379, "match_basis": "verbatim_token+domain_route:CO"}, {"md_atom_id": "md_dmCO_ex_a020", "md_file": "knowledge_base/domains/CO/examples.md", "md_atom_type": "TABLE_ROW", "md_parent_section": "§CO.1 [Example 1]", "md_verbatim": "| 8 | 1234 | CO | | AB-99 | 8 | | | | Comment Text | | | PRINCIPAL INVESTIGATOR | 4 | |", "score": 0.6316, "match_basis": "verbatim_token+domain_route:CO"}], "candidate_count": 5, "zero_candidate": false}
{"pdf_atom_id": "ig34_p0062_a010", "pdf_atom_type": "TABLE_ROW", "pdf_source": "SDTMIG_v3.4", "pdf_page": 62, "pdf_parent_section": "§5.1 [Comments (CO)]", "pdf_verbatim": "5 | 1234 | CO | VS | AB-99 | 5 | VSGRPID | VS2 | | Comment text | | | PRINCIPAL INVESTIGATOR | |", "figure_ref": null, "candidates": [{"md_atom_id": "md_dmCO_ex_a017", "md_file": "knowledge_base/domains/CO/examples.md", "md_atom_type": "TABLE_ROW", "md_parent_section": "§CO.1 [Example 1]", "md_verbatim": "| 5 | 1234 | CO | VS | AB-99 | 5 | VSGRPID | VS2 | | Comment text | | | PRINCIPAL INVESTIGATOR | | |", "score": 1.0, "match_basis": "verbatim_token+domain_route:CO"}, {"md_atom_id": "md_dmCO_ex_a020", "md_file": "knowledge_base/domains/CO/examples.md", "md_atom_type": "TABLE_ROW", "md_parent_section": "§CO.1 [Example 1]", "md_verbatim": "| 8 | 1234 | CO | | AB-99 | 8 | | | | Comment Text | | | PRINCIPAL INVESTIGATOR | 4 | |", "score": 0.8875, "match_basis": "verbatim_token+domain_route:CO"}, {"md_atom_id": "md_dmCO_ex_a013", "md_file": "knowledge_base/domains/CO/examples.md", "md_atom_type": "TABLE_ROW", "md_parent_section": "§CO.1 [Example 1]", "md_verbatim": "| 1 | 1234 | CO | | AB-99 | 1 | | | | Comment text | | | PRINCIPAL INVESTIGATOR | | 2003-11-08 |", "score": 0.8588, "match_basis": "verbatim_token+domain_route:CO"}, {"md_atom_id": "md_dmCO_ex_a019", "md_file": "knowledge_base/domains/CO/examples.md", "md_atom_type": "TABLE_ROW", "md_parent_section": "§CO.1 [Example 1]", "md_verbatim": "| 7 | 1234 | CO | | AB-99 | 7 | | | VISIT 4 | Comment Text | | | PRINCIPAL INVESTIGATOR | | |", "score": 0.8457, "match_basis": "verbatim_token+domain_route:CO"}, {"md_atom_id": "md_dmCO_ex_a014", "md_file": "knowledge_base/domains/CO/examples.md", "md_atom_type": "TABLE_ROW", "md_parent_section": "§CO.1 [Example 1]", "md_verbatim": "| 2 | 1234 | CO | PE | AB-99 | 2 | | | VISIT 7 | Comment text | | | PRINCIPAL INVESTIGATOR | | 2004-01-14 |", "score": 0.8216, "match_basis": "verbatim_token+domain_route:CO"}], "candidate_count": 5, "zero_candidate": false}
{"pdf_atom_id": "ig34_p0062_a011", "pdf_atom_type": "TABLE_ROW", "pdf_source": "SDTMIG_v3.4", "pdf_page": 62, "pdf_parent_section": "§5.1 [Comments (CO)]", "pdf_verbatim": "6 | 1234 | CO | SV | AB-99 | 6 | VISITNUM | 4 | | Comment Text | | | PRINCIPAL INVESTIGATOR | |", "figure_ref": null, "candidates": [{"md_atom_id": "md_dmCO_ex_a018", "md_file": "knowledge_base/domains/CO/examples.md", "md_atom_type": "TABLE_ROW", "md_parent_section": "§CO.1 [Example 1]", "md_verbatim": "| 6 | 1234 | CO | SV | AB-99 | 6 | VISITNUM | 4 | | Comment Text | | | PRINCIPAL INVESTIGATOR | | |", "score": 1.0, "match_basis": "verbatim_token+domain_route:CO"}, {"md_atom_id": "md_dmCO_ex_a019", "md_file": "knowledge_base/domains/CO/examples.md", "md_atom_type": "TABLE_ROW", "md_parent_section": "§CO.1 [Example 1]", "md_verbatim": "| 7 | 1234 | CO | | AB-99 | 7 | | | VISIT 4 | Comment Text | | | PRINCIPAL INVESTIGATOR | | |", "score": 0.9437, "match_basis": "verbatim_token+domain_route:CO"}, {"md_atom_id": "md_dmCO_ex_a014", "md_file": "knowledge_base/domains/CO/examples.md", "md_atom_type": "TABLE_ROW", "md_parent_section": "§CO.1 [Example 1]", "md_verbatim": "| 2 | 1234 | CO | PE | AB-99 | 2 | | | VISIT 7 | Comment text | | | PRINCIPAL INVESTIGATOR | | 2004-01-14 |", "score": 0.9118, "match_basis": "verbatim_token+domain_route:CO"}, {"md_atom_id": "md_dmCO_ex_a020", "md_file": "knowledge_base/domains/CO/examples.md", "md_atom_type": "TABLE_ROW", "md_parent_section": "§CO.1 [Example 1]", "md_verbatim": "| 8 | 1234 | CO | | AB-99 | 8 | | | | Comment Text | | | PRINCIPAL INVESTIGATOR | 4 | |", "score": 0.8875, "match_basis": "verbatim_token+domain_route:CO"}, {"md_atom_id": "md_dmCO_ex_a013", "md_file": "knowledge_base/domains/CO/examples.md", "md_atom_type": "TABLE_ROW", "md_parent_section": "§CO.1 [Example 1]", "md_verbatim": "| 1 | 1234 | CO | | AB-99 | 1 | | | | Comment text | | | PRINCIPAL INVESTIGATOR | | 2003-11-08 |", "score": 0.8588, "match_basis": "verbatim_token+domain_route:CO"}], "candidate_count": 5, "zero_candidate": false}
{"pdf_atom_id": "ig34_p0062_a012", "pdf_atom_type": "TABLE_ROW", "pdf_source": "SDTMIG_v3.4", "pdf_page": 62, "pdf_parent_section": "§5.1 [Comments (CO)]", "pdf_verbatim": "7 | 1234 | CO | | AB-99 | 7 | | | VISIT 4 | Comment Text | | | PRINCIPAL INVESTIGATOR | |", "figure_ref": null, "candidates": [{"md_atom_id": "md_dmCO_ex_a019", "md_file": "knowledge_base/domains/CO/examples.md", "md_atom_type": "TABLE_ROW", "md_parent_section": "§CO.1 [Example 1]", "md_verbatim": "| 7 | 1234 | CO | | AB-99 | 7 | | | VISIT 4 | Comment Text | | | PRINCIPAL INVESTIGATOR | | |", "score": 1.0, "match_basis": "verbatim_token+domain_route:CO"}, {"md_atom_id": "md_dmCO_ex_a014", "md_file": "knowledge_base/domains/CO/examples.md", "md_atom_type": "TABLE_ROW", "md_parent_section": "§CO.1 [Example 1]", "md_verbatim": "| 2 | 1234 | CO | PE | AB-99 | 2 | | | VISIT 7 | Comment text | | | PRINCIPAL INVESTIGATOR | | 2004-01-14 |", "score": 0.9613, "match_basis": "verbatim_token+domain_route:CO"}, {"md_atom_id": "md_dmCO_ex_a018", "md_file": "knowledge_base/domains/CO/examples.md", "md_atom_type": "TABLE_ROW", "md_parent_section": "§CO.1 [Example 1]", "md_verbatim": "| 6 | 1234 | CO | SV | AB-99 | 6 | VISITNUM | 4 | | Comment Text | | | PRINCIPAL INVESTIGATOR | | |", "score": 0.9437, "match_basis": "verbatim_token+domain_route:CO"}, {"md_atom_id": "md_dmCO_ex_a020", "md_file": "knowledge_base/domains/CO/examples.md", "md_atom_type": "TABLE_ROW", "md_parent_section": "§CO.1 [Example 1]", "md_verbatim": "| 8 | 1234 | CO | | AB-99 | 8 | | | | Comment Text | | | PRINCIPAL INVESTIGATOR | 4 | |", "score": 0.9379, "match_basis": "verbatim_token+domain_route:CO"}, {"md_atom_id": "md_dmCO_ex_a013", "md_file": "knowledge_base/domains/CO/examples.md", "md_atom_type": "TABLE_ROW", "md_parent_section": "§CO.1 [Example 1]", "md_verbatim": "| 1 | 1234 | CO | | AB-99 | 1 | | | | Comment text | | | PRINCIPAL INVESTIGATOR | | 2003-11-08 |", "score": 0.9032, "match_basis": "verbatim_token+domain_route:CO"}], "candidate_count": 5, "zero_candidate": false}
{"pdf_atom_id": "ig34_p0062_a013", "pdf_atom_type": "TABLE_ROW", "pdf_source": "SDTMIG_v3.4", "pdf_page": 62, "pdf_parent_section": "§5.1 [Comments (CO)]", "pdf_verbatim": "8 | 1234 | CO | | AB-99 | 8 | | | | Comment Text | | | PRINCIPAL INVESTIGATOR | 4 |", "figure_ref": null, "candidates": [{"md_atom_id": "md_dmCO_ex_a020", "md_file": "knowledge_base/domains/CO/examples.md", "md_atom_type": "TABLE_ROW", "md_parent_section": "§CO.1 [Example 1]", "md_verbatim": "| 8 | 1234 | CO | | AB-99 | 8 | | | | Comment Text | | | PRINCIPAL INVESTIGATOR | 4 | |", "score": 1.0, "match_basis": "verbatim_token+domain_route:CO"}, {"md_atom_id": "md_dmCO_ex_a013", "md_file": "knowledge_base/domains/CO/examples.md", "md_atom_type": "TABLE_ROW", "md_parent_section": "§CO.1 [Example 1]", "md_verbatim": "| 1 | 1234 | CO | | AB-99 | 1 | | | | Comment text | | | PRINCIPAL INVESTIGATOR | | 2003-11-08 |", "score": 0.9571, "match_basis": "verbatim_token+domain_route:CO"}, {"md_atom_id": "md_dmCO_ex_a019", "md_file": "knowledge_base/domains/CO/examples.md", "md_atom_type": "TABLE_ROW", "md_parent_section": "§CO.1 [Example 1]", "md_verbatim": "| 7 | 1234 | CO | | AB-99 | 7 | | | VISIT 4 | Comment Text | | | PRINCIPAL INVESTIGATOR | | |", "score": 0.9379, "match_basis": "verbatim_token+domain_route:CO"}, {"md_atom_id": "md_dmCO_ex_a014", "md_file": "knowledge_base/domains/CO/examples.md", "md_atom_type": "TABLE_ROW", "md_parent_section": "§CO.1 [Example 1]", "md_verbatim": "| 2 | 1234 | CO | PE | AB-99 | 2 | | | VISIT 7 | Comment text | | | PRINCIPAL INVESTIGATOR | | 2004-01-14 |", "score": 0.9032, "match_basis": "verbatim_token+domain_route:CO"}, {"md_atom_id": "md_dmCO_ex_a017", "md_file": "knowledge_base/domains/CO/examples.md", "md_atom_type": "TABLE_ROW", "md_parent_section": "§CO.1 [Example 1]", "md_verbatim": "| 5 | 1234 | CO | VS | AB-99 | 5 | VSGRPID | VS2 | | Comment text | | | PRINCIPAL INVESTIGATOR | | |", "score": 0.8875, "match_basis": "verbatim_token+domain_route:CO"}], "candidate_count": 5, "zero_candidate": false}
{"pdf_atom_id": "ig34_p0062_a014", "pdf_atom_type": "HEADING", "pdf_source": "SDTMIG_v3.4", "pdf_page": 62, "pdf_parent_section": "§5.2 [Demographics (DM)]", "pdf_verbatim": "5.2 Demographics (DM)", "figure_ref": null, "candidates": [{"md_atom_id": "md_dmDM_assn_a001", "md_file": "knowledge_base/domains/DM/assumptions.md", "md_atom_type": "HEADING", "md_parent_section": "§DM [DM — Assumptions]", "md_verbatim": "# DM — Assumptions", "score": 0.4, "match_basis": "verbatim_token+domain_route:DM"}, {"md_atom_id": "md_dmDM_ex_a001", "md_file": "knowledge_base/domains/DM/examples.md", "md_atom_type": "HEADING", "md_parent_section": "§DM [DM — Examples]", "md_verbatim": "# DM — Examples", "score": 0.4, "match_basis": "verbatim_token+domain_route:DM"}, {"md_atom_id": "md_dmDM_ex_a002", "md_file": "knowledge_base/domains/DM/examples.md", "md_atom_type": "HEADING", "md_parent_section": "§DM [DM — Examples]", "md_verbatim": "## Example 1", "score": 0.4, "match_basis": "verbatim_token+domain_route:DM"}, {"md_atom_id": "md_dmDM_ex_a011", "md_file": "knowledge_base/domains/DM/examples.md", "md_atom_type": "HEADING", "md_parent_section": "§DM [DM — Examples]", "md_verbatim": "## Example 2", "score": 0.4, "match_basis": "verbatim_token+domain_route:DM"}, {"md_atom_id": "md_dmDM_ex_a043", "md_file": "knowledge_base/domains/DM/examples.md", "md_atom_type": "HEADING", "md_parent_section": "§DM [DM — Examples]", "md_verbatim": "## Example 3", "score": 0.4, "match_basis": "verbatim_token+domain_route:DM"}], "candidate_count": 5, "zero_candidate": false}
{"pdf_atom_id": "ig34_p0062_a015", "pdf_atom_type": "HEADING", "pdf_source": "SDTMIG_v3.4", "pdf_page": 62, "pdf_parent_section": "§5.2 [Demographics (DM)]", "pdf_verbatim": "DM – Description/Overview", "figure_ref": null, "candidates": [{"md_atom_id": "md_dmDM_assn_a001", "md_file": "knowledge_base/domains/DM/assumptions.md", "md_atom_type": "HEADING", "md_parent_section": "§DM [DM — Assumptions]", "md_verbatim": "# DM — Assumptions", "score": 0.4857, "match_basis": "verbatim_token+domain_route:DM"}, {"md_atom_id": "md_dmDM_ex_a001", "md_file": "knowledge_base/domains/DM/examples.md", "md_atom_type": "HEADING", "md_parent_section": "§DM [DM — Examples]", "md_verbatim": "# DM — Examples", "score": 0.4, "match_basis": "verbatim_token+domain_route:DM"}, {"md_atom_id": "md_dmDM_ex_a002", "md_file": "knowledge_base/domains/DM/examples.md", "md_atom_type": "HEADING", "md_parent_section": "§DM [DM — Examples]", "md_verbatim": "## Example 1", "score": 0.4, "match_basis": "verbatim_token+domain_route:DM"}, {"md_atom_id": "md_dmDM_ex_a011", "md_file": "knowledge_base/domains/DM/examples.md", "md_atom_type": "HEADING", "md_parent_section": "§DM [DM — Examples]", "md_verbatim": "## Example 2", "score": 0.4, "match_basis": "verbatim_token+domain_route:DM"}, {"md_atom_id": "md_dmDM_ex_a043", "md_file": "knowledge_base/domains/DM/examples.md", "md_atom_type": "HEADING", "md_parent_section": "§DM [DM — Examples]", "md_verbatim": "## Example 3", "score": 0.4, "match_basis": "verbatim_token+domain_route:DM"}], "candidate_count": 5, "zero_candidate": false}
{"pdf_atom_id": "ig34_p0062_a016", "pdf_atom_type": "SENTENCE", "pdf_source": "SDTMIG_v3.4", "pdf_page": 62, "pdf_parent_section": "§5.2 [Demographics (DM)]", "pdf_verbatim": "A special-purpose domain that includes a set of essential standard variables that describe each subject in a clinical study.", "figure_ref": null, "candidates": [{"md_atom_id": "md_dmDM_ex_a012", "md_file": "knowledge_base/domains/DM/examples.md", "md_atom_type": "SENTENCE", "md_parent_section": "§DM.2 [Example 2]", "md_verbatim": "This example Demographics dataset does not include all the DM required and expected variables, only those that illustrate the variables that represent arm information. The following example illustrates values of ARMCD for subjects in Example Trial 1, described in Section 7.2.1, Trial Arms. This study included 2 elements, screen and run-in, before subjects were randomized to treatment. For this study, the sponsor submitted data on all subjects, including screen-failure subjects.", "score": 0.5143, "match_basis": "verbatim_token+domain_route:DM"}, {"md_atom_id": "md_dmDM_ex_a015", "md_file": "knowledge_base/domains/DM/examples.md", "md_atom_type": "SENTENCE", "md_parent_section": "§DM.2 [Example 2]", "md_verbatim": "**Row 3:** Subject 003 was a screen failure, so they were not assigned to an arm or treated. The arm actual arm variables are null, and ARMNRS=\"SCREEN FAILURE\".", "score": 0.4832, "match_basis": "verbatim_token+domain_route:DM"}, {"md_atom_id": "md_dmDM_ex_a052", "md_file": "knowledge_base/domains/DM/examples.md", "md_atom_type": "SENTENCE", "md_parent_section": "§DM.3 [Example 3]", "md_verbatim": "The following example illustrates values of ARMCD for subjects in Example Trial 3, described in Section 7.2.1, Trial Arms.", "score": 0.4772, "match_basis": "verbatim_token+domain_route:DM"}, {"md_atom_id": "md_dmDM_ex_a017", "md_file": "knowledge_base/domains/DM/examples.md", "md_atom_type": "SENTENCE", "md_parent_section": "§DM.2 [Example 2]", "md_verbatim": "**Row 5:** Subject 005 was randomized but dropped out before being treated. Thus, the actual arm variables are not populated and ARMNRS=\"ASSIGNED, NOT TREATED\".", "score": 0.473, "match_basis": "verbatim_token+domain_route:DM"}, {"md_atom_id": "md_dmDM_ex_a055", "md_file": "knowledge_base/domains/DM/examples.md", "md_atom_type": "SENTENCE", "md_parent_section": "§DM.3 [Example 3]", "md_verbatim": "**Rows 6-8:** Show that the subject passed through the 3 elements associated with the \"B-Rescue\" arm.", "score": 0.471, "match_basis": "verbatim_token+domain_route:DM"}], "candidate_count": 5, "zero_candidate": false}
{"pdf_atom_id": "ig34_p0062_a017", "pdf_atom_type": "SENTENCE", "pdf_source": "SDTMIG_v3.4", "pdf_page": 62, "pdf_parent_section": "§5.2 [Demographics (DM)]", "pdf_verbatim": "It is the parent domain for all other observations for human clinical subjects.", "figure_ref": null, "candidates": [{"md_atom_id": "md_dmDM_ex_a185", "md_file": "knowledge_base/domains/DM/examples.md", "md_atom_type": "SENTENCE", "md_parent_section": "§DM.7 [Example 7]", "md_verbatim": "**Rows 1-2:** Subjects self-identify to 1 of the first 5 race options on the CRF form.", "score": 0.5286, "match_basis": "verbatim_token+domain_route:DM"}, {"md_atom_id": "md_dmDM_ex_a025", "md_file": "knowledge_base/domains/DM/examples.md", "md_atom_type": "SENTENCE", "md_parent_section": "§DM.2 [Example 2]", "md_verbatim": "**Rows 1-3:** Subject 001 completed all the elements for arm A.", "score": 0.5, "match_basis": "verbatim_token+domain_route:DM"}, {"md_atom_id": "md_dmDM_ex_a026", "md_file": "knowledge_base/domains/DM/examples.md", "md_atom_type": "SENTENCE", "md_parent_section": "§DM.2 [Example 2]", "md_verbatim": "**Rows 4-6:** Subject 002 completed all the elements for arm B.", "score": 0.5, "match_basis": "verbatim_token+domain_route:DM"}, {"md_atom_id": "md_dmDM_ex_a187", "md_file": "knowledge_base/domains/DM/examples.md", "md_atom_type": "SENTENCE", "md_parent_section": "§DM.7 [Example 7]", "md_verbatim": "**Row 4:** Subject could not self-identify to any of the race options including identification of an \"Other\". RACE was populated with \"UNKNOWN\" in this case.", "score": 0.5, "match_basis": "verbatim_token+domain_route:DM"}, {"md_atom_id": "md_dmDM_ex_a014", "md_file": "knowledge_base/domains/DM/examples.md", "md_atom_type": "SENTENCE", "md_parent_section": "§DM.2 [Example 2]", "md_verbatim": "**Row 2:** Subject 002 was randomized to arm \"Drug B\". As shown in the SE dataset, their actual arm was consistent with their randomization.", "score": 0.496, "match_basis": "verbatim_token+domain_route:DM"}], "candidate_count": 5, "zero_candidate": false}
{"pdf_atom_id": "ig34_p0062_a018", "pdf_atom_type": "HEADING", "pdf_source": "SDTMIG_v3.4", "pdf_page": 62, "pdf_parent_section": "§5.2 [Demographics (DM)]", "pdf_verbatim": "DM – Specification", "figure_ref": null, "candidates": [{"md_atom_id": "md_dmDM_assn_a001", "md_file": "knowledge_base/domains/DM/assumptions.md", "md_atom_type": "HEADING", "md_parent_section": "§DM [DM — Assumptions]", "md_verbatim": "# DM — Assumptions", "score": 0.4667, "match_basis": "verbatim_token+domain_route:DM"}, {"md_atom_id": "md_dmDM_ex_a001", "md_file": "knowledge_base/domains/DM/examples.md", "md_atom_type": "HEADING", "md_parent_section": "§DM [DM — Examples]", "md_verbatim": "# DM — Examples", "score": 0.4, "match_basis": "verbatim_token+domain_route:DM"}, {"md_atom_id": "md_dmDM_ex_a002", "md_file": "knowledge_base/domains/DM/examples.md", "md_atom_type": "HEADING", "md_parent_section": "§DM [DM — Examples]", "md_verbatim": "## Example 1", "score": 0.4, "match_basis": "verbatim_token+domain_route:DM"}, {"md_atom_id": "md_dmDM_ex_a011", "md_file": "knowledge_base/domains/DM/examples.md", "md_atom_type": "HEADING", "md_parent_section": "§DM [DM — Examples]", "md_verbatim": "## Example 2", "score": 0.4, "match_basis": "verbatim_token+domain_route:DM"}, {"md_atom_id": "md_dmDM_ex_a043", "md_file": "knowledge_base/domains/DM/examples.md", "md_atom_type": "HEADING", "md_parent_section": "§DM [DM — Examples]", "md_verbatim": "## Example 3", "score": 0.4, "match_basis": "verbatim_token+domain_route:DM"}], "candidate_count": 5, "zero_candidate": false}
{"pdf_atom_id": "ig34_p0062_a019", "pdf_atom_type": "HEADING", "pdf_source": "SDTMIG_v3.4", "pdf_page": 62, "pdf_parent_section": "§5.2 [Demographics (DM)]", "pdf_verbatim": "dm.xpt, Demographics — Special Purpose. One record per subject, Tabulation.", "figure_ref": null, "candidates": [{"md_atom_id": "md_dmDM_assn_a001", "md_file": "knowledge_base/domains/DM/assumptions.md", "md_atom_type": "HEADING", "md_parent_section": "§DM [DM — Assumptions]", "md_verbatim": "# DM — Assumptions", "score": 0.4255, "match_basis": "verbatim_token+domain_route:DM"}, {"md_atom_id": "md_dmDM_ex_a001", "md_file": "knowledge_base/domains/DM/examples.md", "md_atom_type": "HEADING", "md_parent_section": "§DM [DM — Examples]", "md_verbatim": "# DM — Examples", "score": 0.4, "match_basis": "verbatim_token+domain_route:DM"}, {"md_atom_id": "md_dmDM_ex_a002", "md_file": "knowledge_base/domains/DM/examples.md", "md_atom_type": "HEADING", "md_parent_section": "§DM [DM — Examples]", "md_verbatim": "## Example 1", "score": 0.4, "match_basis": "verbatim_token+domain_route:DM"}, {"md_atom_id": "md_dmDM_ex_a011", "md_file": "knowledge_base/domains/DM/examples.md", "md_atom_type": "HEADING", "md_parent_section": "§DM [DM — Examples]", "md_verbatim": "## Example 2", "score": 0.4, "match_basis": "verbatim_token+domain_route:DM"}, {"md_atom_id": "md_dmDM_ex_a043", "md_file": "knowledge_base/domains/DM/examples.md", "md_atom_type": "HEADING", "md_parent_section": "§DM [DM — Examples]", "md_verbatim": "## Example 3", "score": 0.4, "match_basis": "verbatim_token+domain_route:DM"}], "candidate_count": 5, "zero_candidate": false}
{"pdf_atom_id": "ig34_p0062_a020", "pdf_atom_type": "CODE_LITERAL", "pdf_source": "SDTMIG_v3.4", "pdf_page": 62, "pdf_parent_section": "§5.2 [Demographics (DM)]", "pdf_verbatim": "dm.xpt", "figure_ref": null, "candidates": [{"md_atom_id": "md_dmDM_ex_a003", "md_file": "knowledge_base/domains/DM/examples.md", "md_atom_type": "SENTENCE", "md_parent_section": "§DM.1 [Example 1]", "md_verbatim": "**dm.xpt**", "score": 0.79, "match_basis": "verbatim_token+domain_route:DM"}, {"md_atom_id": "md_dmDM_ex_a018", "md_file": "knowledge_base/domains/DM/examples.md", "md_atom_type": "SENTENCE", "md_parent_section": "§DM.2 [Example 2]", "md_verbatim": "**dm.xpt**", "score": 0.79, "match_basis": "verbatim_token+domain_route:DM"}, {"md_atom_id": "md_dmDM_ex_a030", "md_file": "knowledge_base/domains/DM/examples.md", "md_atom_type": "SENTENCE", "md_parent_section": "§DM.2 [Example 2]", "md_verbatim": "**se.xpt**", "score": 0.79, "match_basis": "verbatim_token+domain_route:DM"}, {"md_atom_id": "md_dmDM_ex_a047", "md_file": "knowledge_base/domains/DM/examples.md", "md_atom_type": "SENTENCE", "md_parent_section": "§DM.3 [Example 3]", "md_verbatim": "**dm.xpt**", "score": 0.79, "match_basis": "verbatim_token+domain_route:DM"}, {"md_atom_id": "md_dmDM_ex_a056", "md_file": "knowledge_base/domains/DM/examples.md", "md_atom_type": "SENTENCE", "md_parent_section": "§DM.3 [Example 3]", "md_verbatim": "**se.xpt**", "score": 0.79, "match_basis": "verbatim_token+domain_route:DM"}, {"md_atom_id": "md_dmDM_ex_a102", "md_file": "knowledge_base/domains/DM/examples.md", "md_atom_type": "SENTENCE", "md_parent_section": "§DM.4 [Example 4]", "md_verbatim": "**dm.xpt**", "score": 0.79, "match_basis": "verbatim_token+domain_route:DM"}, {"md_atom_id": "md_dmDM_ex_a124", "md_file": "knowledge_base/domains/DM/examples.md", "md_atom_type": "SENTENCE", "md_parent_section": "§DM.5 [Example 5]", "md_verbatim": "**dm.xpt**", "score": 0.79, "match_basis": "verbatim_token+domain_route:DM"}, {"md_atom_id": "md_dmDM_ex_a159", "md_file": "knowledge_base/domains/DM/examples.md", "md_atom_type": "SENTENCE", "md_parent_section": "§DM.6 [Example 6]", "md_verbatim": "**dm.xpt**", "score": 0.79, "match_basis": "verbatim_token+domain_route:DM"}, {"md_atom_id": "md_dmDM_ex_a189", "md_file": "knowledge_base/domains/DM/examples.md", "md_atom_type": "SENTENCE", "md_parent_section": "§DM.7 [Example 7]", "md_verbatim": "**dm.xpt**", "score": 0.79, "match_basis": "verbatim_token+domain_route:DM"}, {"md_atom_id": "md_dmDM_ex_a110", "md_file": "knowledge_base/domains/DM/examples.md", "md_atom_type": "SENTENCE", "md_parent_section": "§DM.4 [Example 4]", "md_verbatim": "**suppdm.xpt**", "score": 0.31, "match_basis": "verbatim_token+domain_route:DM"}], "candidate_count": 10, "zero_candidate": false}
{"pdf_atom_id": "ig34_p0062_a021", "pdf_atom_type": "TABLE_HEADER", "pdf_source": "SDTMIG_v3.4", "pdf_page": 62, "pdf_parent_section": "§5.2 [Demographics (DM)]", "pdf_verbatim": "Variable Name | Variable Label | Type | Controlled Terms, Codelist or Format1 | Role | CDISC Notes | Core", "figure_ref": null, "candidates": [{"md_atom_id": "md_dmDM_ex_a086", "md_file": "knowledge_base/domains/DM/examples.md", "md_atom_type": "TABLE_HEADER", "md_parent_section": "§DM.4 [Example 4]", "md_verbatim": "| CDASH Variable | Order | Question Text | Prompt | CRF Completion Instructions | Type | SDTMIG Target Variable | SDTM Target Mapping | Controlled Terminology Code List Name | Permissible Values | Pre-specified Value | Query Display | List Style | Hidden |\n|---|---|---|---|---|---|---|---|---|---|---|---|---|---|", "score": 0.519, "match_basis": "verbatim_token+domain_route:DM"}, {"md_atom_id": "md_dmDM_ex_a144", "md_file": "knowledge_base/domains/DM/examples.md", "md_atom_type": "TABLE_HEADER", "md_parent_section": "§DM.6 [Example 6]", "md_verbatim": "| CDASH Variable | Order | Question Text | Prompt | CRF Completion Instructions | Type | SDTMIG Target Variable | SDTM Target Mapping | Controlled Terminology Code List Name | Permissible Values | Pre-specified Value | Query Display | List Style | Hidden |\n|---|---|---|---|---|---|---|---|---|---|---|---|---|---|", "score": 0.519, "match_basis": "verbatim_token+domain_route:DM"}, {"md_atom_id": "md_dmDM_ex_a111", "md_file": "knowledge_base/domains/DM/examples.md", "md_atom_type": "TABLE_HEADER", "md_parent_section": "§DM.4 [Example 4]", "md_verbatim": "| Row | STUDYID | RDOMAIN | USUBJID | IDVAR | IDVARVAL | QNAM | QLABEL | QVAL | QORIG | QEVAL |\n|-----|---------|---------|---------|-------|----------|------|--------|------|-------|-------|", "score": 0.4411, "match_basis": "verbatim_token+domain_route:DM"}, {"md_atom_id": "md_dmDM_ex_a131", "md_file": "knowledge_base/domains/DM/examples.md", "md_atom_type": "TABLE_HEADER", "md_parent_section": "§DM.5 [Example 5]", "md_verbatim": "| Row | STUDYID | RDOMAIN | USUBJID | IDVAR | IDVARVAL | QNAM | QLABEL | QVAL | QORIG | QEVAL |\n|-----|---------|---------|---------|-------|----------|------|--------|------|-------|-------|", "score": 0.4411, "match_basis": "verbatim_token+domain_route:DM"}, {"md_atom_id": "md_dmDM_ex_a169", "md_file": "knowledge_base/domains/DM/examples.md", "md_atom_type": "TABLE_HEADER", "md_parent_section": "§DM.6 [Example 6]", "md_verbatim": "| Row | STUDYID | RDOMAIN | USUBJID | IDVAR | IDVARVAL | QNAM | QLABEL | QVAL | QORIG | QEVAL |\n|-----|---------|---------|---------|-------|----------|------|--------|------|-------|-------|", "score": 0.4411, "match_basis": "verbatim_token+domain_route:DM"}], "candidate_count": 5, "zero_candidate": false}
