{"pdf_atom_id": "ig34_p0252_a025", "pdf_atom_type": "TABLE_ROW", "pdf_source": "SDTMIG_v3.4", "pdf_page": 252, "pdf_parent_section": "§6.3.5.7.2 Microbiology Susceptibility (MS)", "pdf_verbatim": "| NHOID | Non-host Organism ID | Char | | Identifier | Sponsor-defined identifier for a non-host organism which should only be used when the organism is the subject of the TEST. This variable should be populated with an initiative-name based identifier of the non-host organism as reported by a lab (e.g., \"ACUHAIII7/2009 (H1N1)\"). It is not to be used as a qualifier of any other test. | Perm |", "figure_ref": null, "candidates": [{"md_atom_id": "md_dmMS_assn_a013", "md_file": "knowledge_base/domains/MS/assumptions.md", "md_atom_type": "LIST_ITEM", "md_parent_section": "§MS [MS — Assumptions]", "md_verbatim": "4. NHOID is a sponsor-defined, intuitive name of the non-host organism being tested. It should only be populated with values representing what is known about the identity of the organism before the results of the test are determined. It should therefore never be used as a qualifier of result.", "score": 0.4585, "match_basis": "verbatim_token+domain_route:MS"}, {"md_atom_id": "md_dmMS_ex_a016", "md_file": "knowledge_base/domains/MS/examples.md", "md_atom_type": "TABLE_ROW", "md_parent_section": "§MS.1 [Example 1]", "md_verbatim": "| 7 | ABC | MS | ABC-001-002 | ENTEROCOCCUS FAECALIS | 3 | 7 | SPEC01 | 2 | DIAZOINH | Diameter of the Zone of Inhibition | Sponsor Drug | | | 23 | mm | 23 | 23 | mm | LOCAL LAB XYZ | DISK DIFFUSION | 2005-06-19T08:00 |", "score": 0.4436, "match_basis": "verbatim_token+domain_route:MS"}, {"md_atom_id": "md_dmMS_ex_a010", "md_file": "knowledge_base/domains/MS/examples.md", "md_atom_type": "TABLE_ROW", "md_parent_section": "§MS.1 [Example 1]", "md_verbatim": "| 1 | ABC | MS | ABC-001-002 | ENTEROCOCCUS FAECALIS | 1 | 1 | SPEC01 | | MIC | Minimum Inhibitory Concentration | Sponsor Drug | 0.25 | ug/dL | 0.25 | ug/dL | | | | CENTRAL LAB ABC | EPSILOMETER | 2005-06-19T08:00 |", "score": 0.4393, "match_basis": "verbatim_token+domain_route:MS"}, {"md_atom_id": "md_dmMS_ex_a014", "md_file": "knowledge_base/domains/MS/examples.md", "md_atom_type": "TABLE_ROW", "md_parent_section": "§MS.1 [Example 1]", "md_verbatim": "| 5 | ABC | MS | ABC-001-002 | ENTEROCOCCUS FAECALIS | | 5 | SPEC01 | 2 | MICROSUS | Microbial Susceptibility | Sponsor Drug | 0.5 | ug/dL | SUSCEPTIBLE | | SUSCEPTIBLE | | | LOCAL LAB XYZ | MACRO BROTH DILUTION | 2005-06-19T08:00 |", "score": 0.4384, "match_basis": "verbatim_token+domain_route:MS"}, {"md_atom_id": "md_dmMS_ex_a011", "md_file": "knowledge_base/domains/MS/examples.md", "md_atom_type": "TABLE_ROW", "md_parent_section": "§MS.1 [Example 1]", "md_verbatim": "| 2 | ABC | MS | ABC-001-002 | ENTEROCOCCUS FAECALIS | 1 | 2 | SPEC01 | | MICROSUS | Microbial Susceptibility | Sponsor Drug | | | SUSCEPTIBLE | | SUSCEPTIBLE | | | CENTRAL LAB ABC | EPSILOMETER | 2005-06-19T08:00 |", "score": 0.4351, "match_basis": "verbatim_token+domain_route:MS"}], "candidate_count": 5, "zero_candidate": false}
{"pdf_atom_id": "ig34_p0252_a026", "pdf_atom_type": "TABLE_ROW", "pdf_source": "SDTMIG_v3.4", "pdf_page": 252, "pdf_parent_section": "§6.3.5.7.2 Microbiology Susceptibility (MS)", "pdf_verbatim": "| MSSEQ | Sequence Number | Num | | Identifier | Sequence number to ensure uniqueness of each record for a subject in a given domain. It is a number assigned to a subject (or a parameter, in the case of the Trial Summary domain). May be any valid number (including decimals) and does not have to start at 1. | Req |", "figure_ref": null, "candidates": [{"md_atom_id": "md_dmMS_ex_a016", "md_file": "knowledge_base/domains/MS/examples.md", "md_atom_type": "TABLE_ROW", "md_parent_section": "§MS.1 [Example 1]", "md_verbatim": "| 7 | ABC | MS | ABC-001-002 | ENTEROCOCCUS FAECALIS | 3 | 7 | SPEC01 | 2 | DIAZOINH | Diameter of the Zone of Inhibition | Sponsor Drug | | | 23 | mm | 23 | 23 | mm | LOCAL LAB XYZ | DISK DIFFUSION | 2005-06-19T08:00 |", "score": 0.4261, "match_basis": "verbatim_token+domain_route:MS"}, {"md_atom_id": "md_dmMS_ex_a018", "md_file": "knowledge_base/domains/MS/examples.md", "md_atom_type": "TABLE_ROW", "md_parent_section": "§MS.1 [Example 1]", "md_verbatim": "| 9 | ABC | MS | ABC-001-002 | ENTEROCOCCUS FAECALIS | 4 | 9 | SPEC01 | 2 | DIAZOINH | Diameter of the Zone of Inhibition | Amoxicillin | | | 25 | mm | 25 | 25 | mm | LOCAL LAB XYZ | DISK DIFFUSION | 2005-06-19T08:00 |", "score": 0.4258, "match_basis": "verbatim_token+domain_route:MS"}, {"md_atom_id": "md_dmMS_ex_a013", "md_file": "knowledge_base/domains/MS/examples.md", "md_atom_type": "TABLE_ROW", "md_parent_section": "§MS.1 [Example 1]", "md_verbatim": "| 4 | ABC | MS | ABC-001-002 | ENTEROCOCCUS FAECALIS | 2 | 4 | SPEC01 | | MICROSUS | Microbial Susceptibility | Amoxicillin | | | RESISTANT | | RESISTANT | | | CENTRAL LAB ABC | EPSILOMETER | 2005-06-19T08:00 |", "score": 0.4244, "match_basis": "verbatim_token+domain_route:MS"}, {"md_atom_id": "md_dmMS_ex_a044", "md_file": "knowledge_base/domains/MS/examples.md", "md_atom_type": "TABLE_ROW", "md_parent_section": "§MS.3 [Example 3]", "md_verbatim": "| 1 | ABC | MS | ABC-01-101 | | MYCOBACTERIUM TUBERCULOSIS | 1 | 100.4 | 2 | MICROSUS | Microbial Susceptibility | Rifampicin | 1 | ug/mL | RESISTANT | RESISTANT | LAVAGE FLUID | STOMACH | ANTIBIOTIC AGAR SCREEN | 2011-01-17T06:00 |", "score": 0.4232, "match_basis": "verbatim_token+domain_route:MS"}, {"md_atom_id": "md_dmMS_ex_a010", "md_file": "knowledge_base/domains/MS/examples.md", "md_atom_type": "TABLE_ROW", "md_parent_section": "§MS.1 [Example 1]", "md_verbatim": "| 1 | ABC | MS | ABC-001-002 | ENTEROCOCCUS FAECALIS | 1 | 1 | SPEC01 | | MIC | Minimum Inhibitory Concentration | Sponsor Drug | 0.25 | ug/dL | 0.25 | ug/dL | | | | CENTRAL LAB ABC | EPSILOMETER | 2005-06-19T08:00 |", "score": 0.422, "match_basis": "verbatim_token+domain_route:MS"}], "candidate_count": 5, "zero_candidate": false}
{"pdf_atom_id": "ig34_p0252_a027", "pdf_atom_type": "TABLE_ROW", "pdf_source": "SDTMIG_v3.4", "pdf_page": 252, "pdf_parent_section": "§6.3.5.7.2 Microbiology Susceptibility (MS)", "pdf_verbatim": "| MSGRPID | Group ID | Char | | Identifier | Optional group identifier, used to link together a block of related records within a subject in a domain. In SDTMIG v3.2 this was an Expected variable. In this version, the core designation has been changed to Permissible. | Perm |", "figure_ref": null, "candidates": [{"md_atom_id": "md_dmMS_ex_a018", "md_file": "knowledge_base/domains/MS/examples.md", "md_atom_type": "TABLE_ROW", "md_parent_section": "§MS.1 [Example 1]", "md_verbatim": "| 9 | ABC | MS | ABC-001-002 | ENTEROCOCCUS FAECALIS | 4 | 9 | SPEC01 | 2 | DIAZOINH | Diameter of the Zone of Inhibition | Amoxicillin | | | 25 | mm | 25 | 25 | mm | LOCAL LAB XYZ | DISK DIFFUSION | 2005-06-19T08:00 |", "score": 0.4293, "match_basis": "verbatim_token+domain_route:MS"}, {"md_atom_id": "md_dmMS_ex_a017", "md_file": "knowledge_base/domains/MS/examples.md", "md_atom_type": "TABLE_ROW", "md_parent_section": "§MS.1 [Example 1]", "md_verbatim": "| 8 | ABC | MS | ABC-001-002 | ENTEROCOCCUS FAECALIS | 3 | 8 | SPEC01 | 2 | MICROSUS | Microbial Susceptibility | Sponsor Drug | | | SUSCEPTIBLE | | SUSCEPTIBLE | | | LOCAL LAB XYZ | DISK DIFFUSION | 2005-06-19T08:00 |", "score": 0.4289, "match_basis": "verbatim_token+domain_route:MS"}, {"md_atom_id": "md_dmMS_ex_a047", "md_file": "knowledge_base/domains/MS/examples.md", "md_atom_type": "TABLE_ROW", "md_parent_section": "§MS.3 [Example 3]", "md_verbatim": "| 4 | ABC | MS | ABC-01-101 | ABC765 | MYCOBACTERIUM TUBERCULOSIS | 4 | 100.2 | | MICROSUS | Microbial Susceptibility | Isoniazid | | | SUSCEPTIBLE | SUSCEPTIBLE | LAVAGE FLUID | STOMACH | NUCLEIC ACID AMPLIFICATION TEST | 2011-01-17T06:00 |", "score": 0.4287, "match_basis": "verbatim_token+domain_route:MS"}, {"md_atom_id": "md_dmMS_ex_a014", "md_file": "knowledge_base/domains/MS/examples.md", "md_atom_type": "TABLE_ROW", "md_parent_section": "§MS.1 [Example 1]", "md_verbatim": "| 5 | ABC | MS | ABC-001-002 | ENTEROCOCCUS FAECALIS | | 5 | SPEC01 | 2 | MICROSUS | Microbial Susceptibility | Sponsor Drug | 0.5 | ug/dL | SUSCEPTIBLE | | SUSCEPTIBLE | | | LOCAL LAB XYZ | MACRO BROTH DILUTION | 2005-06-19T08:00 |", "score": 0.4286, "match_basis": "verbatim_token+domain_route:MS"}, {"md_atom_id": "md_dmMS_ex_a019", "md_file": "knowledge_base/domains/MS/examples.md", "md_atom_type": "TABLE_ROW", "md_parent_section": "§MS.1 [Example 1]", "md_verbatim": "| 10 | ABC | MS | ABC-001-002 | ENTEROCOCCUS FAECALIS | 4 | 10 | SPEC01 | 2 | MICROSUS | Microbial Susceptibility | Amoxicillin | | | RESISTANT | | RESISTANT | | | LOCAL LAB XYZ | DISK DIFFUSION | 2005-06-19T08:00 |", "score": 0.4277, "match_basis": "verbatim_token+domain_route:MS"}], "candidate_count": 5, "zero_candidate": false}
{"pdf_atom_id": "ig34_p0252_a028", "pdf_atom_type": "TABLE_ROW", "pdf_source": "SDTMIG_v3.4", "pdf_page": 252, "pdf_parent_section": "§6.3.5.7.2 Microbiology Susceptibility (MS)", "pdf_verbatim": "| MSREFID | Reference ID | Char | | Identifier | Optional internal or external identifier (e.g., an identifier for the culture/isolate being tested for susceptibility). | Perm |", "figure_ref": null, "candidates": [{"md_atom_id": "md_dmMS_ex_a047", "md_file": "knowledge_base/domains/MS/examples.md", "md_atom_type": "TABLE_ROW", "md_parent_section": "§MS.3 [Example 3]", "md_verbatim": "| 4 | ABC | MS | ABC-01-101 | ABC765 | MYCOBACTERIUM TUBERCULOSIS | 4 | 100.2 | | MICROSUS | Microbial Susceptibility | Isoniazid | | | SUSCEPTIBLE | SUSCEPTIBLE | LAVAGE FLUID | STOMACH | NUCLEIC ACID AMPLIFICATION TEST | 2011-01-17T06:00 |", "score": 0.4857, "match_basis": "verbatim_token+domain_route:MS"}, {"md_atom_id": "md_dmMS_ex_a014", "md_file": "knowledge_base/domains/MS/examples.md", "md_atom_type": "TABLE_ROW", "md_parent_section": "§MS.1 [Example 1]", "md_verbatim": "| 5 | ABC | MS | ABC-001-002 | ENTEROCOCCUS FAECALIS | | 5 | SPEC01 | 2 | MICROSUS | Microbial Susceptibility | Sponsor Drug | 0.5 | ug/dL | SUSCEPTIBLE | | SUSCEPTIBLE | | | LOCAL LAB XYZ | MACRO BROTH DILUTION | 2005-06-19T08:00 |", "score": 0.4836, "match_basis": "verbatim_token+domain_route:MS"}, {"md_atom_id": "md_dmMS_ex_a017", "md_file": "knowledge_base/domains/MS/examples.md", "md_atom_type": "TABLE_ROW", "md_parent_section": "§MS.1 [Example 1]", "md_verbatim": "| 8 | ABC | MS | ABC-001-002 | ENTEROCOCCUS FAECALIS | 3 | 8 | SPEC01 | 2 | MICROSUS | Microbial Susceptibility | Sponsor Drug | | | SUSCEPTIBLE | | SUSCEPTIBLE | | | LOCAL LAB XYZ | DISK DIFFUSION | 2005-06-19T08:00 |", "score": 0.4793, "match_basis": "verbatim_token+domain_route:MS"}, {"md_atom_id": "md_dmMS_ex_a015", "md_file": "knowledge_base/domains/MS/examples.md", "md_atom_type": "TABLE_ROW", "md_parent_section": "§MS.1 [Example 1]", "md_verbatim": "| 6 | ABC | MS | ABC-001-002 | ENTEROCOCCUS FAECALIS | | 6 | SPEC01 | 2 | MICROSUS | Microbial Susceptibility | Amoxicillin | 0.5 | ug/dL | RESISTANT | | RESISTANT | | | LOCAL LAB XYZ | MACRO BROTH DILUTION | 2005-06-19T08:00 |", "score": 0.4791, "match_basis": "verbatim_token+domain_route:MS"}, {"md_atom_id": "md_dmMS_ex_a046", "md_file": "knowledge_base/domains/MS/examples.md", "md_atom_type": "TABLE_ROW", "md_parent_section": "§MS.3 [Example 3]", "md_verbatim": "| 3 | ABC | MS | ABC-01-101 | ABC765 | MYCOBACTERIUM TUBERCULOSIS | 3 | 100.2 | | MICROSUS | Microbial Susceptibility | Rifampicin | | | RESISTANT | RESISTANT | LAVAGE FLUID | STOMACH | NUCLEIC ACID AMPLIFICATION TEST | 2011-01-17T06:00 |", "score": 0.4786, "match_basis": "verbatim_token+domain_route:MS"}], "candidate_count": 5, "zero_candidate": false}
{"pdf_atom_id": "ig34_p0252_a029", "pdf_atom_type": "TABLE_ROW", "pdf_source": "SDTMIG_v3.4", "pdf_page": 252, "pdf_parent_section": "§6.3.5.7.2 Microbiology Susceptibility (MS)", "pdf_verbatim": "| MSSPID | Sponsor-Defined Identifier | Char | | Identifier | Sponsor reference number. May be preprinted on the CRF as an explicit line identifier or defined in the sponsor's operational database. | Perm |", "figure_ref": null, "candidates": [{"md_atom_id": "md_dmMS_ex_a010", "md_file": "knowledge_base/domains/MS/examples.md", "md_atom_type": "TABLE_ROW", "md_parent_section": "§MS.1 [Example 1]", "md_verbatim": "| 1 | ABC | MS | ABC-001-002 | ENTEROCOCCUS FAECALIS | 1 | 1 | SPEC01 | | MIC | Minimum Inhibitory Concentration | Sponsor Drug | 0.25 | ug/dL | 0.25 | ug/dL | | | | CENTRAL LAB ABC | EPSILOMETER | 2005-06-19T08:00 |", "score": 0.4571, "match_basis": "verbatim_token+domain_route:MS"}, {"md_atom_id": "md_dmMS_ex_a028", "md_file": "knowledge_base/domains/MS/examples.md", "md_atom_type": "TABLE_ROW", "md_parent_section": "§MS.2 [Example 2]", "md_verbatim": "| 1 | ABC | MS | ABC-001-001 | STREPTOCOCCUS PNEUMONIAE | | 1 | SP01 | MIC | Minimum Inhibitory Concentration | Sponsor Drug | 0.004 | mg/L | 0.004 | 0.004 | mg/L | | EPSILOMETER | 1 | VISIT 1 | 2005-06-19T08:00 |", "score": 0.4554, "match_basis": "verbatim_token+domain_route:MS"}, {"md_atom_id": "md_dmMS_ex_a032", "md_file": "knowledge_base/domains/MS/examples.md", "md_atom_type": "TABLE_ROW", "md_parent_section": "§MS.2 [Example 2]", "md_verbatim": "| 5 | ABC | MS | ABC-001-001 | KLEBSIELLA PNEUMONIAE | | 5 | SP02 | MIC | Minimum Inhibitory Concentration | Sponsor Drug | 0.19 | mg/L | 0.19 | 0.19 | mg/L | | EPSILOMETER | 2 | VISIT 2 | 2005-06-26T08:00 |", "score": 0.452, "match_basis": "verbatim_token+domain_route:MS"}, {"md_atom_id": "md_dmMS_ex_a016", "md_file": "knowledge_base/domains/MS/examples.md", "md_atom_type": "TABLE_ROW", "md_parent_section": "§MS.1 [Example 1]", "md_verbatim": "| 7 | ABC | MS | ABC-001-002 | ENTEROCOCCUS FAECALIS | 3 | 7 | SPEC01 | 2 | DIAZOINH | Diameter of the Zone of Inhibition | Sponsor Drug | | | 23 | mm | 23 | 23 | mm | LOCAL LAB XYZ | DISK DIFFUSION | 2005-06-19T08:00 |", "score": 0.4476, "match_basis": "verbatim_token+domain_route:MS"}, {"md_atom_id": "md_dmMS_ex_a012", "md_file": "knowledge_base/domains/MS/examples.md", "md_atom_type": "TABLE_ROW", "md_parent_section": "§MS.1 [Example 1]", "md_verbatim": "| 3 | ABC | MS | ABC-001-002 | ENTEROCOCCUS FAECALIS | 2 | 3 | SPEC01 | | MIC | Minimum Inhibitory Concentration | Amoxicillin | 1 | ug/dL | 1 | ug/dL | | | | CENTRAL LAB ABC | EPSILOMETER | 2005-06-19T08:00 |", "score": 0.4412, "match_basis": "verbatim_token+domain_route:MS"}], "candidate_count": 5, "zero_candidate": false}
{"pdf_atom_id": "ig34_p0252_a030", "pdf_atom_type": "TABLE_ROW", "pdf_source": "SDTMIG_v3.4", "pdf_page": 252, "pdf_parent_section": "§6.3.5.7.2 Microbiology Susceptibility (MS)", "pdf_verbatim": "| MSLNKID | Link ID | Char | | Identifier | Identifier used to link related records across domains. This may be a one-to-one or a one-to-many relationship. For example, it may be used to link genetic findings (in the PF domain) about a microbe to the original culture of that microbe (in MB), or to susceptibility records in MS if needed. | Perm |", "figure_ref": null, "candidates": [{"md_atom_id": "md_dmMS_ex_a047", "md_file": "knowledge_base/domains/MS/examples.md", "md_atom_type": "TABLE_ROW", "md_parent_section": "§MS.3 [Example 3]", "md_verbatim": "| 4 | ABC | MS | ABC-01-101 | ABC765 | MYCOBACTERIUM TUBERCULOSIS | 4 | 100.2 | | MICROSUS | Microbial Susceptibility | Isoniazid | | | SUSCEPTIBLE | SUSCEPTIBLE | LAVAGE FLUID | STOMACH | NUCLEIC ACID AMPLIFICATION TEST | 2011-01-17T06:00 |", "score": 0.4852, "match_basis": "verbatim_token+domain_route:MS"}, {"md_atom_id": "md_dmMS_ex_a014", "md_file": "knowledge_base/domains/MS/examples.md", "md_atom_type": "TABLE_ROW", "md_parent_section": "§MS.1 [Example 1]", "md_verbatim": "| 5 | ABC | MS | ABC-001-002 | ENTEROCOCCUS FAECALIS | | 5 | SPEC01 | 2 | MICROSUS | Microbial Susceptibility | Sponsor Drug | 0.5 | ug/dL | SUSCEPTIBLE | | SUSCEPTIBLE | | | LOCAL LAB XYZ | MACRO BROTH DILUTION | 2005-06-19T08:00 |", "score": 0.4835, "match_basis": "verbatim_token+domain_route:MS"}, {"md_atom_id": "md_dmMS_ex_a046", "md_file": "knowledge_base/domains/MS/examples.md", "md_atom_type": "TABLE_ROW", "md_parent_section": "§MS.3 [Example 3]", "md_verbatim": "| 3 | ABC | MS | ABC-01-101 | ABC765 | MYCOBACTERIUM TUBERCULOSIS | 3 | 100.2 | | MICROSUS | Microbial Susceptibility | Rifampicin | | | RESISTANT | RESISTANT | LAVAGE FLUID | STOMACH | NUCLEIC ACID AMPLIFICATION TEST | 2011-01-17T06:00 |", "score": 0.4833, "match_basis": "verbatim_token+domain_route:MS"}, {"md_atom_id": "md_dmMS_ex_a015", "md_file": "knowledge_base/domains/MS/examples.md", "md_atom_type": "TABLE_ROW", "md_parent_section": "§MS.1 [Example 1]", "md_verbatim": "| 6 | ABC | MS | ABC-001-002 | ENTEROCOCCUS FAECALIS | | 6 | SPEC01 | 2 | MICROSUS | Microbial Susceptibility | Amoxicillin | 0.5 | ug/dL | RESISTANT | | RESISTANT | | | LOCAL LAB XYZ | MACRO BROTH DILUTION | 2005-06-19T08:00 |", "score": 0.48, "match_basis": "verbatim_token+domain_route:MS"}, {"md_atom_id": "md_dmMS_ex_a044", "md_file": "knowledge_base/domains/MS/examples.md", "md_atom_type": "TABLE_ROW", "md_parent_section": "§MS.3 [Example 3]", "md_verbatim": "| 1 | ABC | MS | ABC-01-101 | | MYCOBACTERIUM TUBERCULOSIS | 1 | 100.4 | 2 | MICROSUS | Microbial Susceptibility | Rifampicin | 1 | ug/mL | RESISTANT | RESISTANT | LAVAGE FLUID | STOMACH | ANTIBIOTIC AGAR SCREEN | 2011-01-17T06:00 |", "score": 0.4767, "match_basis": "verbatim_token+domain_route:MS"}], "candidate_count": 5, "zero_candidate": false}
{"pdf_atom_id": "ig34_p0253_a001", "pdf_atom_type": "TABLE_ROW", "pdf_source": "SDTMIG_v3.4", "pdf_page": 253, "pdf_parent_section": "§6.3.5.7.2 Microbiology Susceptibility (MS)", "pdf_verbatim": "| MSTESTCD | Short Name of Assessment | Char | (MSTESTCD) | Topic | Short character value for MSTEST used as a column name when converting a dataset from a vertical format to a horizontal format. It can be used when converting data to a horizontal format with a column name used when converting a data set from a vertical format to a horizontal format with a number (e.g., \"TEST1\" is not valid). MSTESTCD cannot contain characters other than those outlined in the SDTM IG MIC for Microbiology Susceptibility. MSTESTCD cannot contain characters other than those outlined in the CDISC IG MIC for Microbiology. | Req |", "figure_ref": null, "candidates": [{"md_atom_id": "md_dmMS_ex_a019", "md_file": "knowledge_base/domains/MS/examples.md", "md_atom_type": "TABLE_ROW", "md_parent_section": "§MS.1 [Example 1]", "md_verbatim": "| 10 | ABC | MS | ABC-001-002 | ENTEROCOCCUS FAECALIS | 4 | 10 | SPEC01 | 2 | MICROSUS | Microbial Susceptibility | Amoxicillin | | | RESISTANT | | RESISTANT | | | LOCAL LAB XYZ | DISK DIFFUSION | 2005-06-19T08:00 |", "score": 0.4758, "match_basis": "verbatim_token+domain_route:MS"}, {"md_atom_id": "md_dmMS_ex_a044", "md_file": "knowledge_base/domains/MS/examples.md", "md_atom_type": "TABLE_ROW", "md_parent_section": "§MS.3 [Example 3]", "md_verbatim": "| 1 | ABC | MS | ABC-01-101 | | MYCOBACTERIUM TUBERCULOSIS | 1 | 100.4 | 2 | MICROSUS | Microbial Susceptibility | Rifampicin | 1 | ug/mL | RESISTANT | RESISTANT | LAVAGE FLUID | STOMACH | ANTIBIOTIC AGAR SCREEN | 2011-01-17T06:00 |", "score": 0.4758, "match_basis": "verbatim_token+domain_route:MS"}, {"md_atom_id": "md_dmMS_ex_a015", "md_file": "knowledge_base/domains/MS/examples.md", "md_atom_type": "TABLE_ROW", "md_parent_section": "§MS.1 [Example 1]", "md_verbatim": "| 6 | ABC | MS | ABC-001-002 | ENTEROCOCCUS FAECALIS | | 6 | SPEC01 | 2 | MICROSUS | Microbial Susceptibility | Amoxicillin | 0.5 | ug/dL | RESISTANT | | RESISTANT | | | LOCAL LAB XYZ | MACRO BROTH DILUTION | 2005-06-19T08:00 |", "score": 0.475, "match_basis": "verbatim_token+domain_route:MS"}, {"md_atom_id": "md_dmMS_ex_a017", "md_file": "knowledge_base/domains/MS/examples.md", "md_atom_type": "TABLE_ROW", "md_parent_section": "§MS.1 [Example 1]", "md_verbatim": "| 8 | ABC | MS | ABC-001-002 | ENTEROCOCCUS FAECALIS | 3 | 8 | SPEC01 | 2 | MICROSUS | Microbial Susceptibility | Sponsor Drug | | | SUSCEPTIBLE | | SUSCEPTIBLE | | | LOCAL LAB XYZ | DISK DIFFUSION | 2005-06-19T08:00 |", "score": 0.475, "match_basis": "verbatim_token+domain_route:MS"}, {"md_atom_id": "md_dmMS_ex_a046", "md_file": "knowledge_base/domains/MS/examples.md", "md_atom_type": "TABLE_ROW", "md_parent_section": "§MS.3 [Example 3]", "md_verbatim": "| 3 | ABC | MS | ABC-01-101 | ABC765 | MYCOBACTERIUM TUBERCULOSIS | 3 | 100.2 | | MICROSUS | Microbial Susceptibility | Rifampicin | | | RESISTANT | RESISTANT | LAVAGE FLUID | STOMACH | NUCLEIC ACID AMPLIFICATION TEST | 2011-01-17T06:00 |", "score": 0.475, "match_basis": "verbatim_token+domain_route:MS"}], "candidate_count": 5, "zero_candidate": false}
{"pdf_atom_id": "ig34_p0253_a002", "pdf_atom_type": "CODE_LITERAL", "pdf_source": "SDTMIG_v3.4", "pdf_page": 253, "pdf_parent_section": "§6.3.5.7.2 Microbiology Susceptibility (MS)", "pdf_verbatim": "MSTESTCD", "figure_ref": null, "candidates": [{"md_atom_id": "md_dmMS_ex_a027", "md_file": "knowledge_base/domains/MS/examples.md", "md_atom_type": "TABLE_HEADER", "md_parent_section": "§MS.2 [Example 2]", "md_verbatim": "| Row | STUDYID | DOMAIN | USUBJID | NHOID | MSGRPID | MSSEQ | MSREFID | MSTESTCD | MSTEST | MSAGENT | MSORRES | MSORRESU | MSSTRESC | MSSTRESN | MSSTRESU | MSNAM | MSMETHOD | VISITNUM | VISIT | MSDTC |\n|-----|---------|--------|---------|-------|---------|-------|---------|----------|--------|---------|---------|----------|----------|----------|----------|-------|----------|----------|-------|-------|", "score": 0.2407, "match_basis": "verbatim_token+domain_route:MS"}, {"md_atom_id": "md_dmMS_ex_a009", "md_file": "knowledge_base/domains/MS/examples.md", "md_atom_type": "TABLE_HEADER", "md_parent_section": "§MS.1 [Example 1]", "md_verbatim": "| Row | STUDYID | DOMAIN | USUBJID | NHOID | MSGRPID | MSSEQ | MSREFID | MSLNKGRP | MSTESTCD | MSTEST | MSAGENT | MSCONC | MSCONCU | MSORRES | MSORRESU | MSSTRESC | MSSTRESN | MSSTRESU | MSNAM | MSMETHOD | MSDTC |\n|-----|---------|--------|---------|-------|---------|-------|---------|----------|----------|--------|---------|--------|---------|---------|----------|----------|----------|----------|-------|----------|-------|", "score": 0.238, "match_basis": "verbatim_token+domain_route:MS"}, {"md_atom_id": "md_dmMS_ex_a043", "md_file": "knowledge_base/domains/MS/examples.md", "md_atom_type": "TABLE_HEADER", "md_parent_section": "§MS.3 [Example 3]", "md_verbatim": "| Row | STUDYID | DOMAIN | USUBJID | SPDEVID | NHOID | MSSEQ | MSREFID | MSLNKID | MSTESTCD | MSTEST | MSAGENT | MSCONC | MSCONCU | MSORRES | MSSTRESC | MSSPEC | MSLOC | MSMETHOD | MSDTC |\n|-----|---------|--------|---------|---------|-------|-------|---------|---------|----------|--------|---------|--------|---------|---------|----------|--------|-------|----------|-------|", "score": 0.238, "match_basis": "verbatim_token+domain_route:MS"}, {"md_atom_id": "md_dmMS_ex_a022", "md_file": "knowledge_base/domains/MS/examples.md", "md_atom_type": "SENTENCE", "md_parent_section": "§MS.2 [Example 2]", "md_verbatim": "**Rows 1-2:** Show that the sponsor drug (MSAGENT) was tested against \"STREPTOCOCCUS PNEUMONIAE\" (NHOID) from subject sample SP01 and that the drug has a minimum inhibitory concentration (MSTESTCD/MSTEST) of 0.004 mg/L (row 1). This led to the conclusion that this organism is susceptible to that drug (row 2).", "score": 0.2213, "match_basis": "verbatim_token+domain_route:MS"}, {"md_atom_id": "md_dmMS_assn_a002", "md_file": "knowledge_base/domains/MS/assumptions.md", "md_atom_type": "LIST_ITEM", "md_parent_section": "§MS [MS — Assumptions]", "md_verbatim": "1. Microbiology Susceptibility testing includes testing of the following types:", "score": 0.2155, "match_basis": "verbatim_token+domain_route:MS"}], "candidate_count": 5, "zero_candidate": false}
{"pdf_atom_id": "ig34_p0253_a003", "pdf_atom_type": "TABLE_ROW", "pdf_source": "SDTMIG_v3.4", "pdf_page": 253, "pdf_parent_section": "§6.3.5.7.2 Microbiology Susceptibility (MS)", "pdf_verbatim": "| MSTEST | Name of Assessment | Char | (MSTEST) | Synonym Qualifier | Verbatim name of the test or examination used to obtain the measurement or finding. The value in MSTEST cannot be longer than 40 characters. Examples: \"Minimum Inhibitory Concentration\", \"Microbial Susceptibility\". | Req |", "figure_ref": null, "candidates": [{"md_atom_id": "md_dmMS_ex_a047", "md_file": "knowledge_base/domains/MS/examples.md", "md_atom_type": "TABLE_ROW", "md_parent_section": "§MS.3 [Example 3]", "md_verbatim": "| 4 | ABC | MS | ABC-01-101 | ABC765 | MYCOBACTERIUM TUBERCULOSIS | 4 | 100.2 | | MICROSUS | Microbial Susceptibility | Isoniazid | | | SUSCEPTIBLE | SUSCEPTIBLE | LAVAGE FLUID | STOMACH | NUCLEIC ACID AMPLIFICATION TEST | 2011-01-17T06:00 |", "score": 0.5005, "match_basis": "verbatim_token+domain_route:MS"}, {"md_atom_id": "md_dmMS_ex_a010", "md_file": "knowledge_base/domains/MS/examples.md", "md_atom_type": "TABLE_ROW", "md_parent_section": "§MS.1 [Example 1]", "md_verbatim": "| 1 | ABC | MS | ABC-001-002 | ENTEROCOCCUS FAECALIS | 1 | 1 | SPEC01 | | MIC | Minimum Inhibitory Concentration | Sponsor Drug | 0.25 | ug/dL | 0.25 | ug/dL | | | | CENTRAL LAB ABC | EPSILOMETER | 2005-06-19T08:00 |", "score": 0.4988, "match_basis": "verbatim_token+domain_route:MS"}, {"md_atom_id": "md_dmMS_ex_a046", "md_file": "knowledge_base/domains/MS/examples.md", "md_atom_type": "TABLE_ROW", "md_parent_section": "§MS.3 [Example 3]", "md_verbatim": "| 3 | ABC | MS | ABC-01-101 | ABC765 | MYCOBACTERIUM TUBERCULOSIS | 3 | 100.2 | | MICROSUS | Microbial Susceptibility | Rifampicin | | | RESISTANT | RESISTANT | LAVAGE FLUID | STOMACH | NUCLEIC ACID AMPLIFICATION TEST | 2011-01-17T06:00 |", "score": 0.4984, "match_basis": "verbatim_token+domain_route:MS"}, {"md_atom_id": "md_dmMS_ex_a012", "md_file": "knowledge_base/domains/MS/examples.md", "md_atom_type": "TABLE_ROW", "md_parent_section": "§MS.1 [Example 1]", "md_verbatim": "| 3 | ABC | MS | ABC-001-002 | ENTEROCOCCUS FAECALIS | 2 | 3 | SPEC01 | | MIC | Minimum Inhibitory Concentration | Amoxicillin | 1 | ug/dL | 1 | ug/dL | | | | CENTRAL LAB ABC | EPSILOMETER | 2005-06-19T08:00 |", "score": 0.4976, "match_basis": "verbatim_token+domain_route:MS"}, {"md_atom_id": "md_dmMS_ex_a028", "md_file": "knowledge_base/domains/MS/examples.md", "md_atom_type": "TABLE_ROW", "md_parent_section": "§MS.2 [Example 2]", "md_verbatim": "| 1 | ABC | MS | ABC-001-001 | STREPTOCOCCUS PNEUMONIAE | | 1 | SP01 | MIC | Minimum Inhibitory Concentration | Sponsor Drug | 0.004 | mg/L | 0.004 | 0.004 | mg/L | | EPSILOMETER | 1 | VISIT 1 | 2005-06-19T08:00 |", "score": 0.4964, "match_basis": "verbatim_token+domain_route:MS"}], "candidate_count": 5, "zero_candidate": false}
{"pdf_atom_id": "ig34_p0253_a004", "pdf_atom_type": "CODE_LITERAL", "pdf_source": "SDTMIG_v3.4", "pdf_page": 253, "pdf_parent_section": "§6.3.5.7.2 Microbiology Susceptibility (MS)", "pdf_verbatim": "MSTEST", "figure_ref": null, "candidates": [{"md_atom_id": "md_dmMS_ex_a027", "md_file": "knowledge_base/domains/MS/examples.md", "md_atom_type": "TABLE_HEADER", "md_parent_section": "§MS.2 [Example 2]", "md_verbatim": "| Row | STUDYID | DOMAIN | USUBJID | NHOID | MSGRPID | MSSEQ | MSREFID | MSTESTCD | MSTEST | MSAGENT | MSORRES | MSORRESU | MSSTRESC | MSSTRESN | MSSTRESU | MSNAM | MSMETHOD | VISITNUM | VISIT | MSDTC |\n|-----|---------|--------|---------|-------|---------|-------|---------|----------|--------|---------|---------|----------|----------|----------|----------|-------|----------|----------|-------|-------|", "score": 0.2238, "match_basis": "verbatim_token+domain_route:MS"}, {"md_atom_id": "md_dmMS_ex_a009", "md_file": "knowledge_base/domains/MS/examples.md", "md_atom_type": "TABLE_HEADER", "md_parent_section": "§MS.1 [Example 1]", "md_verbatim": "| Row | STUDYID | DOMAIN | USUBJID | NHOID | MSGRPID | MSSEQ | MSREFID | MSLNKGRP | MSTESTCD | MSTEST | MSAGENT | MSCONC | MSCONCU | MSORRES | MSORRESU | MSSTRESC | MSSTRESN | MSSTRESU | MSNAM | MSMETHOD | MSDTC |\n|-----|---------|--------|---------|-------|---------|-------|---------|----------|----------|--------|---------|--------|---------|---------|----------|----------|----------|----------|-------|----------|-------|", "score": 0.222, "match_basis": "verbatim_token+domain_route:MS"}, {"md_atom_id": "md_dmMS_ex_a043", "md_file": "knowledge_base/domains/MS/examples.md", "md_atom_type": "TABLE_HEADER", "md_parent_section": "§MS.3 [Example 3]", "md_verbatim": "| Row | STUDYID | DOMAIN | USUBJID | SPDEVID | NHOID | MSSEQ | MSREFID | MSLNKID | MSTESTCD | MSTEST | MSAGENT | MSCONC | MSCONCU | MSORRES | MSSTRESC | MSSPEC | MSLOC | MSMETHOD | MSDTC |\n|-----|---------|--------|---------|---------|-------|-------|---------|---------|----------|--------|---------|--------|---------|---------|----------|--------|-------|----------|-------|", "score": 0.222, "match_basis": "verbatim_token+domain_route:MS"}, {"md_atom_id": "md_dmMS_assn_a002", "md_file": "knowledge_base/domains/MS/assumptions.md", "md_atom_type": "LIST_ITEM", "md_parent_section": "§MS [MS — Assumptions]", "md_verbatim": "1. Microbiology Susceptibility testing includes testing of the following types:", "score": 0.2167, "match_basis": "verbatim_token+domain_route:MS"}, {"md_atom_id": "md_dmMS_ex_a021", "md_file": "knowledge_base/domains/MS/examples.md", "md_atom_type": "SENTENCE", "md_parent_section": "§MS.2 [Example 2]", "md_verbatim": "Susceptibility testing results from the sputum multi-visit study (see MB Example 2).", "score": 0.2167, "match_basis": "verbatim_token+domain_route:MS"}, {"md_atom_id": "md_dmMS_ex_a022", "md_file": "knowledge_base/domains/MS/examples.md", "md_atom_type": "SENTENCE", "md_parent_section": "§MS.2 [Example 2]", "md_verbatim": "**Rows 1-2:** Show that the sponsor drug (MSAGENT) was tested against \"STREPTOCOCCUS PNEUMONIAE\" (NHOID) from subject sample SP01 and that the drug has a minimum inhibitory concentration (MSTESTCD/MSTEST) of 0.004 mg/L (row 1). This led to the conclusion that this organism is susceptible to that drug (row 2).", "score": 0.2109, "match_basis": "verbatim_token+domain_route:MS"}, {"md_atom_id": "md_dmMS_assn_a011", "md_file": "knowledge_base/domains/MS/assumptions.md", "md_atom_type": "LIST_ITEM", "md_parent_section": "§MS [MS — Assumptions]", "md_verbatim": "   a. Culture dates can be connected to the MS record via MSREFID and BEREFID.", "score": 0.2082, "match_basis": "verbatim_token+domain_route:MS"}, {"md_atom_id": "md_dmMS_assn_a005", "md_file": "knowledge_base/domains/MS/assumptions.md", "md_atom_type": "LIST_ITEM", "md_parent_section": "§MS [MS — Assumptions]", "md_verbatim": "      ii. For studies using quantitative testing methods, MSAGENT is used to represent the drug being tested; MSCONC and MSCONCU are not used. The concentration at which growth is inhibited is the result in these cases (MSORRES, MSSTRESC/MSSTRESN), with units being represented in MSORRESU/MSSTRESU.", "score": 0.208, "match_basis": "verbatim_token+domain_route:MS"}, {"md_atom_id": "md_dmMS_ex_a007", "md_file": "knowledge_base/domains/MS/examples.md", "md_atom_type": "SENTENCE", "md_parent_section": "§MS.1 [Example 1]", "md_verbatim": "**Rows 7-10:** Show the diameter of the zone of inhibition and the interpretation result reported from Local Lab XYZ from a sample that was tested for susceptibility to the sponsor drug and amoxicillin using a disk diffusion test method.", "score": 0.208, "match_basis": "verbatim_token+domain_route:MS"}, {"md_atom_id": "md_dmMS_assn_a012", "md_file": "knowledge_base/domains/MS/assumptions.md", "md_atom_type": "LIST_ITEM", "md_parent_section": "§MS [MS — Assumptions]", "md_verbatim": "   b. If the same sample is associated with many biospecimen events and tests, users may need to make use of additional linking variables such as --LNKID.", "score": 0.2074, "match_basis": "verbatim_token+domain_route:MS"}], "candidate_count": 10, "zero_candidate": false}
{"pdf_atom_id": "ig34_p0253_a005", "pdf_atom_type": "TABLE_ROW", "pdf_source": "SDTMIG_v3.4", "pdf_page": 253, "pdf_parent_section": "§6.3.5.7.2 Microbiology Susceptibility (MS)", "pdf_verbatim": "| MSAGENT | Agent Name | Char | | Variable Qualifier | The name of the agent for which resistance is tested. The agent specified may be based on genetic markers or direct phenotypic drug sensitivity testing. Examples: \"Penicillin\", \"Rifampicin\". | Exp |", "figure_ref": null, "candidates": [{"md_atom_id": "md_dmMS_ex_a046", "md_file": "knowledge_base/domains/MS/examples.md", "md_atom_type": "TABLE_ROW", "md_parent_section": "§MS.3 [Example 3]", "md_verbatim": "| 3 | ABC | MS | ABC-01-101 | ABC765 | MYCOBACTERIUM TUBERCULOSIS | 3 | 100.2 | | MICROSUS | Microbial Susceptibility | Rifampicin | | | RESISTANT | RESISTANT | LAVAGE FLUID | STOMACH | NUCLEIC ACID AMPLIFICATION TEST | 2011-01-17T06:00 |", "score": 0.47, "match_basis": "verbatim_token+domain_route:MS"}, {"md_atom_id": "md_dmMS_ex_a031", "md_file": "knowledge_base/domains/MS/examples.md", "md_atom_type": "TABLE_ROW", "md_parent_section": "§MS.2 [Example 2]", "md_verbatim": "| 4 | ABC | MS | ABC-001-001 | STREPTOCOCCUS PNEUMONIAE | | 4 | SP01 | MICROSUS | Microbial Susceptibility | Penicillin | RESISTANT | | RESISTANT | | | | EPSILOMETER | 1 | VISIT 1 | 2005-06-19T08:00 |", "score": 0.4593, "match_basis": "verbatim_token+domain_route:MS"}, {"md_atom_id": "md_dmMS_ex_a044", "md_file": "knowledge_base/domains/MS/examples.md", "md_atom_type": "TABLE_ROW", "md_parent_section": "§MS.3 [Example 3]", "md_verbatim": "| 1 | ABC | MS | ABC-01-101 | | MYCOBACTERIUM TUBERCULOSIS | 1 | 100.4 | 2 | MICROSUS | Microbial Susceptibility | Rifampicin | 1 | ug/mL | RESISTANT | RESISTANT | LAVAGE FLUID | STOMACH | ANTIBIOTIC AGAR SCREEN | 2011-01-17T06:00 |", "score": 0.459, "match_basis": "verbatim_token+domain_route:MS"}, {"md_atom_id": "md_dmMS_ex_a013", "md_file": "knowledge_base/domains/MS/examples.md", "md_atom_type": "TABLE_ROW", "md_parent_section": "§MS.1 [Example 1]", "md_verbatim": "| 4 | ABC | MS | ABC-001-002 | ENTEROCOCCUS FAECALIS | 2 | 4 | SPEC01 | | MICROSUS | Microbial Susceptibility | Amoxicillin | | | RESISTANT | | RESISTANT | | | CENTRAL LAB ABC | EPSILOMETER | 2005-06-19T08:00 |", "score": 0.4582, "match_basis": "verbatim_token+domain_route:MS"}, {"md_atom_id": "md_dmMS_ex_a019", "md_file": "knowledge_base/domains/MS/examples.md", "md_atom_type": "TABLE_ROW", "md_parent_section": "§MS.1 [Example 1]", "md_verbatim": "| 10 | ABC | MS | ABC-001-002 | ENTEROCOCCUS FAECALIS | 4 | 10 | SPEC01 | 2 | MICROSUS | Microbial Susceptibility | Amoxicillin | | | RESISTANT | | RESISTANT | | | LOCAL LAB XYZ | DISK DIFFUSION | 2005-06-19T08:00 |", "score": 0.4582, "match_basis": "verbatim_token+domain_route:MS"}], "candidate_count": 5, "zero_candidate": false}
{"pdf_atom_id": "ig34_p0253_a006", "pdf_atom_type": "CODE_LITERAL", "pdf_source": "SDTMIG_v3.4", "pdf_page": 253, "pdf_parent_section": "§6.3.5.7.2 Microbiology Susceptibility (MS)", "pdf_verbatim": "MSAGENT", "figure_ref": null, "candidates": [{"md_atom_id": "md_dmMS_ex_a027", "md_file": "knowledge_base/domains/MS/examples.md", "md_atom_type": "TABLE_HEADER", "md_parent_section": "§MS.2 [Example 2]", "md_verbatim": "| Row | STUDYID | DOMAIN | USUBJID | NHOID | MSGRPID | MSSEQ | MSREFID | MSTESTCD | MSTEST | MSAGENT | MSORRES | MSORRESU | MSSTRESC | MSSTRESN | MSSTRESU | MSNAM | MSMETHOD | VISITNUM | VISIT | MSDTC |\n|-----|---------|--------|---------|-------|---------|-------|---------|----------|--------|---------|---------|----------|----------|----------|----------|-------|----------|----------|-------|-------|", "score": 0.2323, "match_basis": "verbatim_token+domain_route:MS"}, {"md_atom_id": "md_dmMS_ex_a009", "md_file": "knowledge_base/domains/MS/examples.md", "md_atom_type": "TABLE_HEADER", "md_parent_section": "§MS.1 [Example 1]", "md_verbatim": "| Row | STUDYID | DOMAIN | USUBJID | NHOID | MSGRPID | MSSEQ | MSREFID | MSLNKGRP | MSTESTCD | MSTEST | MSAGENT | MSCONC | MSCONCU | MSORRES | MSORRESU | MSSTRESC | MSSTRESN | MSSTRESU | MSNAM | MSMETHOD | MSDTC |\n|-----|---------|--------|---------|-------|---------|-------|---------|----------|----------|--------|---------|--------|---------|---------|----------|----------|----------|----------|-------|----------|-------|", "score": 0.23, "match_basis": "verbatim_token+domain_route:MS"}, {"md_atom_id": "md_dmMS_ex_a043", "md_file": "knowledge_base/domains/MS/examples.md", "md_atom_type": "TABLE_HEADER", "md_parent_section": "§MS.3 [Example 3]", "md_verbatim": "| Row | STUDYID | DOMAIN | USUBJID | SPDEVID | NHOID | MSSEQ | MSREFID | MSLNKID | MSTESTCD | MSTEST | MSAGENT | MSCONC | MSCONCU | MSORRES | MSSTRESC | MSSPEC | MSLOC | MSMETHOD | MSDTC |\n|-----|---------|--------|---------|---------|-------|-------|---------|---------|----------|--------|---------|--------|---------|---------|----------|--------|-------|----------|-------|", "score": 0.23, "match_basis": "verbatim_token+domain_route:MS"}, {"md_atom_id": "md_dmMS_assn_a006", "md_file": "knowledge_base/domains/MS/assumptions.md", "md_atom_type": "LIST_ITEM", "md_parent_section": "§MS [MS — Assumptions]", "md_verbatim": "      iii. As in 1.a.ii, MSAGENT should be populated with the drug whose action would be affected by the genetic marker being assessed via the genotypic test. MSCONC and MSCONCU are null in these records.", "score": 0.2295, "match_basis": "verbatim_token+domain_route:MS"}, {"md_atom_id": "md_dmMS_assn_a005", "md_file": "knowledge_base/domains/MS/assumptions.md", "md_atom_type": "LIST_ITEM", "md_parent_section": "§MS [MS — Assumptions]", "md_verbatim": "      ii. For studies using quantitative testing methods, MSAGENT is used to represent the drug being tested; MSCONC and MSCONCU are not used. The concentration at which growth is inhibited is the result in these cases (MSORRES, MSSTRESC/MSSTRESN), with units being represented in MSORRESU/MSSTRESU.", "score": 0.2203, "match_basis": "verbatim_token+domain_route:MS"}, {"md_atom_id": "md_dmMS_assn_a004", "md_file": "knowledge_base/domains/MS/assumptions.md", "md_atom_type": "LIST_ITEM", "md_parent_section": "§MS [MS — Assumptions]", "md_verbatim": "      i. For studies using qualitative testing methods, MSAGENT, MSCONC, and MSCONCU are used to represent the predefined drug, concentration, and units, respectively. Results are represented with values such as \"SUSCEPTIBLE\" or \"RESISTANT\".", "score": 0.2191, "match_basis": "verbatim_token+domain_route:MS"}, {"md_atom_id": "md_dmMS_ex_a022", "md_file": "knowledge_base/domains/MS/examples.md", "md_atom_type": "SENTENCE", "md_parent_section": "§MS.2 [Example 2]", "md_verbatim": "**Rows 1-2:** Show that the sponsor drug (MSAGENT) was tested against \"STREPTOCOCCUS PNEUMONIAE\" (NHOID) from subject sample SP01 and that the drug has a minimum inhibitory concentration (MSTESTCD/MSTEST) of 0.004 mg/L (row 1). This led to the conclusion that this organism is susceptible to that drug (row 2).", "score": 0.2161, "match_basis": "verbatim_token+domain_route:MS"}, {"md_atom_id": "md_dmMS_ex_a040", "md_file": "knowledge_base/domains/MS/examples.md", "md_atom_type": "SENTENCE", "md_parent_section": "§MS.3 [Example 3]", "md_verbatim": "**Rows 1-2:** Show phenotypic testing results on 2 separate culture plates: 1 with medium containing rifampicin (row 1) and 1 with medium containing isoniazid (row 2). MSAGENT is populated with the name of the drug being used in the susceptibility test. The variables MSCONC and MSCONCU represent the concentration and units of the drug being used. The culture start and stop dates are represented in BE and can be linked to MS by BELNKID and MSLNKID.", "score": 0.2116, "match_basis": "verbatim_token+domain_route:MS"}, {"md_atom_id": "md_dmMS_ex_a041", "md_file": "knowledge_base/domains/MS/examples.md", "md_atom_type": "SENTENCE", "md_parent_section": "§MS.3 [Example 3]", "md_verbatim": "**Rows 3-4:** Show genotypic susceptibility testing results on the same aliquot from a NAAT that looks for mutations that confer resistance to 2 drugs. MSAGENT should be populated with the name of the drug whose action is affected by the mutation being tested for. However, because the drug is not used in the test, MSCONC and MSCONCU should be null. These results are represented in MS because the only result given is in terms of resistant/susceptible; no genetic results are reported.", "score": 0.2105, "match_basis": "verbatim_token+domain_route:MS"}, {"md_atom_id": "md_dmMS_assn_a009", "md_file": "knowledge_base/domains/MS/assumptions.md", "md_atom_type": "LIST_ITEM", "md_parent_section": "§MS [MS — Assumptions]", "md_verbatim": "2. MSDTC represents the date the specimen was collected.", "score": 0.2087, "match_basis": "verbatim_token+domain_route:MS"}], "candidate_count": 10, "zero_candidate": false}
{"pdf_atom_id": "ig34_p0253_a007", "pdf_atom_type": "TABLE_ROW", "pdf_source": "SDTMIG_v3.4", "pdf_page": 253, "pdf_parent_section": "§6.3.5.7.2 Microbiology Susceptibility (MS)", "pdf_verbatim": "| MSCONC | Agent Concentration | Num | | Variable Qualifier | Numeric concentration of agent listed in MSAGENT. | Perm |", "figure_ref": null, "candidates": [{"md_atom_id": "md_dmMS_ex_a010", "md_file": "knowledge_base/domains/MS/examples.md", "md_atom_type": "TABLE_ROW", "md_parent_section": "§MS.1 [Example 1]", "md_verbatim": "| 1 | ABC | MS | ABC-001-002 | ENTEROCOCCUS FAECALIS | 1 | 1 | SPEC01 | | MIC | Minimum Inhibitory Concentration | Sponsor Drug | 0.25 | ug/dL | 0.25 | ug/dL | | | | CENTRAL LAB ABC | EPSILOMETER | 2005-06-19T08:00 |", "score": 0.4804, "match_basis": "verbatim_token+domain_route:MS"}, {"md_atom_id": "md_dmMS_ex_a012", "md_file": "knowledge_base/domains/MS/examples.md", "md_atom_type": "TABLE_ROW", "md_parent_section": "§MS.1 [Example 1]", "md_verbatim": "| 3 | ABC | MS | ABC-001-002 | ENTEROCOCCUS FAECALIS | 2 | 3 | SPEC01 | | MIC | Minimum Inhibitory Concentration | Amoxicillin | 1 | ug/dL | 1 | ug/dL | | | | CENTRAL LAB ABC | EPSILOMETER | 2005-06-19T08:00 |", "score": 0.4788, "match_basis": "verbatim_token+domain_route:MS"}, {"md_atom_id": "md_dmMS_ex_a032", "md_file": "knowledge_base/domains/MS/examples.md", "md_atom_type": "TABLE_ROW", "md_parent_section": "§MS.2 [Example 2]", "md_verbatim": "| 5 | ABC | MS | ABC-001-001 | KLEBSIELLA PNEUMONIAE | | 5 | SP02 | MIC | Minimum Inhibitory Concentration | Sponsor Drug | 0.19 | mg/L | 0.19 | 0.19 | mg/L | | EPSILOMETER | 2 | VISIT 2 | 2005-06-26T08:00 |", "score": 0.4667, "match_basis": "verbatim_token+domain_route:MS"}, {"md_atom_id": "md_dmMS_ex_a034", "md_file": "knowledge_base/domains/MS/examples.md", "md_atom_type": "TABLE_ROW", "md_parent_section": "§MS.2 [Example 2]", "md_verbatim": "| 7 | ABC | MS | ABC-001-001 | KLEBSIELLA PNEUMONIAE | | 7 | SP02 | MIC | Minimum Inhibitory Concentration | Penicillin | 4.9 | mg/L | 4.9 | 4.9 | mg/L | | EPSILOMETER | 2 | VISIT 2 | 2005-06-26T08:00 |", "score": 0.466, "match_basis": "verbatim_token+domain_route:MS"}, {"md_atom_id": "md_dmMS_ex_a036", "md_file": "knowledge_base/domains/MS/examples.md", "md_atom_type": "TABLE_ROW", "md_parent_section": "§MS.2 [Example 2]", "md_verbatim": "| 9 | ABC | MS | ABC-001-001 | KLEBSIELLA PNEUMONIAE | | 9 | SP03 | MIC | Minimum Inhibitory Concentration | Penicillin | 4.8 | mg/L | 4.8 | 4.8 | mg/L | | EPSILOMETER | 3 | VISIT 3 | 2005-07-01T08:00 |", "score": 0.466, "match_basis": "verbatim_token+domain_route:MS"}], "candidate_count": 5, "zero_candidate": false}
{"pdf_atom_id": "ig34_p0253_a008", "pdf_atom_type": "CODE_LITERAL", "pdf_source": "SDTMIG_v3.4", "pdf_page": 253, "pdf_parent_section": "§6.3.5.7.2 Microbiology Susceptibility (MS)", "pdf_verbatim": "MSCONC", "figure_ref": null, "candidates": [{"md_atom_id": "md_dmMS_ex_a009", "md_file": "knowledge_base/domains/MS/examples.md", "md_atom_type": "TABLE_HEADER", "md_parent_section": "§MS.1 [Example 1]", "md_verbatim": "| Row | STUDYID | DOMAIN | USUBJID | NHOID | MSGRPID | MSSEQ | MSREFID | MSLNKGRP | MSTESTCD | MSTEST | MSAGENT | MSCONC | MSCONCU | MSORRES | MSORRESU | MSSTRESC | MSSTRESN | MSSTRESU | MSNAM | MSMETHOD | MSDTC |\n|-----|---------|--------|---------|-------|---------|-------|---------|----------|----------|--------|---------|--------|---------|---------|----------|----------|----------|----------|-------|----------|-------|", "score": 0.222, "match_basis": "verbatim_token+domain_route:MS"}, {"md_atom_id": "md_dmMS_ex_a043", "md_file": "knowledge_base/domains/MS/examples.md", "md_atom_type": "TABLE_HEADER", "md_parent_section": "§MS.3 [Example 3]", "md_verbatim": "| Row | STUDYID | DOMAIN | USUBJID | SPDEVID | NHOID | MSSEQ | MSREFID | MSLNKID | MSTESTCD | MSTEST | MSAGENT | MSCONC | MSCONCU | MSORRES | MSSTRESC | MSSPEC | MSLOC | MSMETHOD | MSDTC |\n|-----|---------|--------|---------|---------|-------|-------|---------|---------|----------|--------|---------|--------|---------|---------|----------|--------|-------|----------|-------|", "score": 0.222, "match_basis": "verbatim_token+domain_route:MS"}, {"md_atom_id": "md_dmMS_assn_a006", "md_file": "knowledge_base/domains/MS/assumptions.md", "md_atom_type": "LIST_ITEM", "md_parent_section": "§MS [MS — Assumptions]", "md_verbatim": "      iii. As in 1.a.ii, MSAGENT should be populated with the drug whose action would be affected by the genetic marker being assessed via the genotypic test. MSCONC and MSCONCU are null in these records.", "score": 0.2216, "match_basis": "verbatim_token+domain_route:MS"}, {"md_atom_id": "md_dmMS_assn_a005", "md_file": "knowledge_base/domains/MS/assumptions.md", "md_atom_type": "LIST_ITEM", "md_parent_section": "§MS [MS — Assumptions]", "md_verbatim": "      ii. For studies using quantitative testing methods, MSAGENT is used to represent the drug being tested; MSCONC and MSCONCU are not used. The concentration at which growth is inhibited is the result in these cases (MSORRES, MSSTRESC/MSSTRESN), with units being represented in MSORRESU/MSSTRESU.", "score": 0.2142, "match_basis": "verbatim_token+domain_route:MS"}, {"md_atom_id": "md_dmMS_assn_a004", "md_file": "knowledge_base/domains/MS/assumptions.md", "md_atom_type": "LIST_ITEM", "md_parent_section": "§MS [MS — Assumptions]", "md_verbatim": "      i. For studies using qualitative testing methods, MSAGENT, MSCONC, and MSCONCU are used to represent the predefined drug, concentration, and units, respectively. Results are represented with values such as \"SUSCEPTIBLE\" or \"RESISTANT\".", "score": 0.2133, "match_basis": "verbatim_token+domain_route:MS"}, {"md_atom_id": "md_dmMS_assn_a011", "md_file": "knowledge_base/domains/MS/assumptions.md", "md_atom_type": "LIST_ITEM", "md_parent_section": "§MS [MS — Assumptions]", "md_verbatim": "   a. Culture dates can be connected to the MS record via MSREFID and BEREFID.", "score": 0.2082, "match_basis": "verbatim_token+domain_route:MS"}, {"md_atom_id": "md_dmMS_ex_a006", "md_file": "knowledge_base/domains/MS/examples.md", "md_atom_type": "SENTENCE", "md_parent_section": "§MS.1 [Example 1]", "md_verbatim": "**Rows 5-6:** Show that Local Lab XYZ found that the sample was susceptible to the sponsor drug at a concentration of 0.5 ug/dL and resistant to amoxicillin at a concentration of 0.5 ug/dL.", "score": 0.2082, "match_basis": "verbatim_token+domain_route:MS"}, {"md_atom_id": "md_dmMS_ex_a040", "md_file": "knowledge_base/domains/MS/examples.md", "md_atom_type": "SENTENCE", "md_parent_section": "§MS.3 [Example 3]", "md_verbatim": "**Rows 1-2:** Show phenotypic testing results on 2 separate culture plates: 1 with medium containing rifampicin (row 1) and 1 with medium containing isoniazid (row 2). MSAGENT is populated with the name of the drug being used in the susceptibility test. The variables MSCONC and MSCONCU represent the concentration and units of the drug being used. The culture start and stop dates are represented in BE and can be linked to MS by BELNKID and MSLNKID.", "score": 0.2073, "match_basis": "verbatim_token+domain_route:MS"}, {"md_atom_id": "md_dmMS_ex_a010", "md_file": "knowledge_base/domains/MS/examples.md", "md_atom_type": "TABLE_ROW", "md_parent_section": "§MS.1 [Example 1]", "md_verbatim": "| 1 | ABC | MS | ABC-001-002 | ENTEROCOCCUS FAECALIS | 1 | 1 | SPEC01 | | MIC | Minimum Inhibitory Concentration | Sponsor Drug | 0.25 | ug/dL | 0.25 | ug/dL | | | | CENTRAL LAB ABC | EPSILOMETER | 2005-06-19T08:00 |", "score": 0.2069, "match_basis": "verbatim_token+domain_route:MS"}, {"md_atom_id": "md_dmMS_ex_a032", "md_file": "knowledge_base/domains/MS/examples.md", "md_atom_type": "TABLE_ROW", "md_parent_section": "§MS.2 [Example 2]", "md_verbatim": "| 5 | ABC | MS | ABC-001-001 | KLEBSIELLA PNEUMONIAE | | 5 | SP02 | MIC | Minimum Inhibitory Concentration | Sponsor Drug | 0.19 | mg/L | 0.19 | 0.19 | mg/L | | EPSILOMETER | 2 | VISIT 2 | 2005-06-26T08:00 |", "score": 0.2069, "match_basis": "verbatim_token+domain_route:MS"}], "candidate_count": 10, "zero_candidate": false}
{"pdf_atom_id": "ig34_p0253_a009", "pdf_atom_type": "TABLE_ROW", "pdf_source": "SDTMIG_v3.4", "pdf_page": 253, "pdf_parent_section": "§6.3.5.7.2 Microbiology Susceptibility (MS)", "pdf_verbatim": "| MSCONCU | Agent Concentration Units | Char | (UNIT) | Variable Qualifier | Units for value of the agent concentration listed in MSCONC. Example: \"mg/L\". | Perm |", "figure_ref": null, "candidates": [{"md_atom_id": "md_dmMS_ex_a010", "md_file": "knowledge_base/domains/MS/examples.md", "md_atom_type": "TABLE_ROW", "md_parent_section": "§MS.1 [Example 1]", "md_verbatim": "| 1 | ABC | MS | ABC-001-002 | ENTEROCOCCUS FAECALIS | 1 | 1 | SPEC01 | | MIC | Minimum Inhibitory Concentration | Sponsor Drug | 0.25 | ug/dL | 0.25 | ug/dL | | | | CENTRAL LAB ABC | EPSILOMETER | 2005-06-19T08:00 |", "score": 0.4736, "match_basis": "verbatim_token+domain_route:MS"}, {"md_atom_id": "md_dmMS_ex_a012", "md_file": "knowledge_base/domains/MS/examples.md", "md_atom_type": "TABLE_ROW", "md_parent_section": "§MS.1 [Example 1]", "md_verbatim": "| 3 | ABC | MS | ABC-001-002 | ENTEROCOCCUS FAECALIS | 2 | 3 | SPEC01 | | MIC | Minimum Inhibitory Concentration | Amoxicillin | 1 | ug/dL | 1 | ug/dL | | | | CENTRAL LAB ABC | EPSILOMETER | 2005-06-19T08:00 |", "score": 0.4722, "match_basis": "verbatim_token+domain_route:MS"}, {"md_atom_id": "md_dmMS_ex_a032", "md_file": "knowledge_base/domains/MS/examples.md", "md_atom_type": "TABLE_ROW", "md_parent_section": "§MS.2 [Example 2]", "md_verbatim": "| 5 | ABC | MS | ABC-001-001 | KLEBSIELLA PNEUMONIAE | | 5 | SP02 | MIC | Minimum Inhibitory Concentration | Sponsor Drug | 0.19 | mg/L | 0.19 | 0.19 | mg/L | | EPSILOMETER | 2 | VISIT 2 | 2005-06-26T08:00 |", "score": 0.4611, "match_basis": "verbatim_token+domain_route:MS"}, {"md_atom_id": "md_dmMS_ex_a034", "md_file": "knowledge_base/domains/MS/examples.md", "md_atom_type": "TABLE_ROW", "md_parent_section": "§MS.2 [Example 2]", "md_verbatim": "| 7 | ABC | MS | ABC-001-001 | KLEBSIELLA PNEUMONIAE | | 7 | SP02 | MIC | Minimum Inhibitory Concentration | Penicillin | 4.9 | mg/L | 4.9 | 4.9 | mg/L | | EPSILOMETER | 2 | VISIT 2 | 2005-06-26T08:00 |", "score": 0.4606, "match_basis": "verbatim_token+domain_route:MS"}, {"md_atom_id": "md_dmMS_ex_a036", "md_file": "knowledge_base/domains/MS/examples.md", "md_atom_type": "TABLE_ROW", "md_parent_section": "§MS.2 [Example 2]", "md_verbatim": "| 9 | ABC | MS | ABC-001-001 | KLEBSIELLA PNEUMONIAE | | 9 | SP03 | MIC | Minimum Inhibitory Concentration | Penicillin | 4.8 | mg/L | 4.8 | 4.8 | mg/L | | EPSILOMETER | 3 | VISIT 3 | 2005-07-01T08:00 |", "score": 0.4606, "match_basis": "verbatim_token+domain_route:MS"}], "candidate_count": 5, "zero_candidate": false}
{"pdf_atom_id": "ig34_p0253_a010", "pdf_atom_type": "CODE_LITERAL", "pdf_source": "SDTMIG_v3.4", "pdf_page": 253, "pdf_parent_section": "§6.3.5.7.2 Microbiology Susceptibility (MS)", "pdf_verbatim": "MSCONCU", "figure_ref": null, "candidates": [{"md_atom_id": "md_dmMS_ex_a009", "md_file": "knowledge_base/domains/MS/examples.md", "md_atom_type": "TABLE_HEADER", "md_parent_section": "§MS.1 [Example 1]", "md_verbatim": "| Row | STUDYID | DOMAIN | USUBJID | NHOID | MSGRPID | MSSEQ | MSREFID | MSLNKGRP | MSTESTCD | MSTEST | MSAGENT | MSCONC | MSCONCU | MSORRES | MSORRESU | MSSTRESC | MSSTRESN | MSSTRESU | MSNAM | MSMETHOD | MSDTC |\n|-----|---------|--------|---------|-------|---------|-------|---------|----------|----------|--------|---------|--------|---------|---------|----------|----------|----------|----------|-------|----------|-------|", "score": 0.23, "match_basis": "verbatim_token+domain_route:MS"}, {"md_atom_id": "md_dmMS_ex_a043", "md_file": "knowledge_base/domains/MS/examples.md", "md_atom_type": "TABLE_HEADER", "md_parent_section": "§MS.3 [Example 3]", "md_verbatim": "| Row | STUDYID | DOMAIN | USUBJID | SPDEVID | NHOID | MSSEQ | MSREFID | MSLNKID | MSTESTCD | MSTEST | MSAGENT | MSCONC | MSCONCU | MSORRES | MSSTRESC | MSSPEC | MSLOC | MSMETHOD | MSDTC |\n|-----|---------|--------|---------|---------|-------|-------|---------|---------|----------|--------|---------|--------|---------|---------|----------|--------|-------|----------|-------|", "score": 0.23, "match_basis": "verbatim_token+domain_route:MS"}, {"md_atom_id": "md_dmMS_assn_a006", "md_file": "knowledge_base/domains/MS/assumptions.md", "md_atom_type": "LIST_ITEM", "md_parent_section": "§MS [MS — Assumptions]", "md_verbatim": "      iii. As in 1.a.ii, MSAGENT should be populated with the drug whose action would be affected by the genetic marker being assessed via the genotypic test. MSCONC and MSCONCU are null in these records.", "score": 0.2295, "match_basis": "verbatim_token+domain_route:MS"}, {"md_atom_id": "md_dmMS_assn_a005", "md_file": "knowledge_base/domains/MS/assumptions.md", "md_atom_type": "LIST_ITEM", "md_parent_section": "§MS [MS — Assumptions]", "md_verbatim": "      ii. For studies using quantitative testing methods, MSAGENT is used to represent the drug being tested; MSCONC and MSCONCU are not used. The concentration at which growth is inhibited is the result in these cases (MSORRES, MSSTRESC/MSSTRESN), with units being represented in MSORRESU/MSSTRESU.", "score": 0.2203, "match_basis": "verbatim_token+domain_route:MS"}, {"md_atom_id": "md_dmMS_assn_a004", "md_file": "knowledge_base/domains/MS/assumptions.md", "md_atom_type": "LIST_ITEM", "md_parent_section": "§MS [MS — Assumptions]", "md_verbatim": "      i. For studies using qualitative testing methods, MSAGENT, MSCONC, and MSCONCU are used to represent the predefined drug, concentration, and units, respectively. Results are represented with values such as \"SUSCEPTIBLE\" or \"RESISTANT\".", "score": 0.2191, "match_basis": "verbatim_token+domain_route:MS"}, {"md_atom_id": "md_dmMS_ex_a040", "md_file": "knowledge_base/domains/MS/examples.md", "md_atom_type": "SENTENCE", "md_parent_section": "§MS.3 [Example 3]", "md_verbatim": "**Rows 1-2:** Show phenotypic testing results on 2 separate culture plates: 1 with medium containing rifampicin (row 1) and 1 with medium containing isoniazid (row 2). MSAGENT is populated with the name of the drug being used in the susceptibility test. The variables MSCONC and MSCONCU represent the concentration and units of the drug being used. The culture start and stop dates are represented in BE and can be linked to MS by BELNKID and MSLNKID.", "score": 0.2116, "match_basis": "verbatim_token+domain_route:MS"}, {"md_atom_id": "md_dmMS_ex_a041", "md_file": "knowledge_base/domains/MS/examples.md", "md_atom_type": "SENTENCE", "md_parent_section": "§MS.3 [Example 3]", "md_verbatim": "**Rows 3-4:** Show genotypic susceptibility testing results on the same aliquot from a NAAT that looks for mutations that confer resistance to 2 drugs. MSAGENT should be populated with the name of the drug whose action is affected by the mutation being tested for. However, because the drug is not used in the test, MSCONC and MSCONCU should be null. These results are represented in MS because the only result given is in terms of resistant/susceptible; no genetic results are reported.", "score": 0.2105, "match_basis": "verbatim_token+domain_route:MS"}, {"md_atom_id": "md_dmMS_ex_a006", "md_file": "knowledge_base/domains/MS/examples.md", "md_atom_type": "SENTENCE", "md_parent_section": "§MS.1 [Example 1]", "md_verbatim": "**Rows 5-6:** Show that Local Lab XYZ found that the sample was susceptible to the sponsor drug at a concentration of 0.5 ug/dL and resistant to amoxicillin at a concentration of 0.5 ug/dL.", "score": 0.2079, "match_basis": "verbatim_token+domain_route:MS"}, {"md_atom_id": "md_dmMS_assn_a011", "md_file": "knowledge_base/domains/MS/assumptions.md", "md_atom_type": "LIST_ITEM", "md_parent_section": "§MS [MS — Assumptions]", "md_verbatim": "   a. Culture dates can be connected to the MS record via MSREFID and BEREFID.", "score": 0.2076, "match_basis": "verbatim_token+domain_route:MS"}, {"md_atom_id": "md_dmMS_ex_a010", "md_file": "knowledge_base/domains/MS/examples.md", "md_atom_type": "TABLE_ROW", "md_parent_section": "§MS.1 [Example 1]", "md_verbatim": "| 1 | ABC | MS | ABC-001-002 | ENTEROCOCCUS FAECALIS | 1 | 1 | SPEC01 | | MIC | Minimum Inhibitory Concentration | Sponsor Drug | 0.25 | ug/dL | 0.25 | ug/dL | | | | CENTRAL LAB ABC | EPSILOMETER | 2005-06-19T08:00 |", "score": 0.2067, "match_basis": "verbatim_token+domain_route:MS"}], "candidate_count": 10, "zero_candidate": false}
{"pdf_atom_id": "ig34_p0253_a011", "pdf_atom_type": "TABLE_ROW", "pdf_source": "SDTMIG_v3.4", "pdf_page": 253, "pdf_parent_section": "§6.3.5.7.2 Microbiology Susceptibility (MS)", "pdf_verbatim": "| MSTSTDTL | Measurement, Test or Examination Detail | Char | | Variable Qualifier | Further description of MSTESTCD and MSTEST. | Perm |", "figure_ref": null, "candidates": [{"md_atom_id": "md_dmMS_ex_a047", "md_file": "knowledge_base/domains/MS/examples.md", "md_atom_type": "TABLE_ROW", "md_parent_section": "§MS.3 [Example 3]", "md_verbatim": "| 4 | ABC | MS | ABC-01-101 | ABC765 | MYCOBACTERIUM TUBERCULOSIS | 4 | 100.2 | | MICROSUS | Microbial Susceptibility | Isoniazid | | | SUSCEPTIBLE | SUSCEPTIBLE | LAVAGE FLUID | STOMACH | NUCLEIC ACID AMPLIFICATION TEST | 2011-01-17T06:00 |", "score": 0.4365, "match_basis": "verbatim_token+domain_route:MS"}, {"md_atom_id": "md_dmMS_ex_a046", "md_file": "knowledge_base/domains/MS/examples.md", "md_atom_type": "TABLE_ROW", "md_parent_section": "§MS.3 [Example 3]", "md_verbatim": "| 3 | ABC | MS | ABC-01-101 | ABC765 | MYCOBACTERIUM TUBERCULOSIS | 3 | 100.2 | | MICROSUS | Microbial Susceptibility | Rifampicin | | | RESISTANT | RESISTANT | LAVAGE FLUID | STOMACH | NUCLEIC ACID AMPLIFICATION TEST | 2011-01-17T06:00 |", "score": 0.4314, "match_basis": "verbatim_token+domain_route:MS"}, {"md_atom_id": "md_dmMS_ex_a010", "md_file": "knowledge_base/domains/MS/examples.md", "md_atom_type": "TABLE_ROW", "md_parent_section": "§MS.1 [Example 1]", "md_verbatim": "| 1 | ABC | MS | ABC-001-002 | ENTEROCOCCUS FAECALIS | 1 | 1 | SPEC01 | | MIC | Minimum Inhibitory Concentration | Sponsor Drug | 0.25 | ug/dL | 0.25 | ug/dL | | | | CENTRAL LAB ABC | EPSILOMETER | 2005-06-19T08:00 |", "score": 0.4286, "match_basis": "verbatim_token+domain_route:MS"}, {"md_atom_id": "md_dmMS_ex_a012", "md_file": "knowledge_base/domains/MS/examples.md", "md_atom_type": "TABLE_ROW", "md_parent_section": "§MS.1 [Example 1]", "md_verbatim": "| 3 | ABC | MS | ABC-001-002 | ENTEROCOCCUS FAECALIS | 2 | 3 | SPEC01 | | MIC | Minimum Inhibitory Concentration | Amoxicillin | 1 | ug/dL | 1 | ug/dL | | | | CENTRAL LAB ABC | EPSILOMETER | 2005-06-19T08:00 |", "score": 0.4281, "match_basis": "verbatim_token+domain_route:MS"}, {"md_atom_id": "md_dmMS_ex_a014", "md_file": "knowledge_base/domains/MS/examples.md", "md_atom_type": "TABLE_ROW", "md_parent_section": "§MS.1 [Example 1]", "md_verbatim": "| 5 | ABC | MS | ABC-001-002 | ENTEROCOCCUS FAECALIS | | 5 | SPEC01 | 2 | MICROSUS | Microbial Susceptibility | Sponsor Drug | 0.5 | ug/dL | SUSCEPTIBLE | | SUSCEPTIBLE | | | LOCAL LAB XYZ | MACRO BROTH DILUTION | 2005-06-19T08:00 |", "score": 0.4277, "match_basis": "verbatim_token+domain_route:MS"}], "candidate_count": 5, "zero_candidate": false}
{"pdf_atom_id": "ig34_p0253_a012", "pdf_atom_type": "CODE_LITERAL", "pdf_source": "SDTMIG_v3.4", "pdf_page": 253, "pdf_parent_section": "§6.3.5.7.2 Microbiology Susceptibility (MS)", "pdf_verbatim": "MSTSTDTL", "figure_ref": null, "candidates": [{"md_atom_id": "md_dmMS_assn_a010", "md_file": "knowledge_base/domains/MS/assumptions.md", "md_atom_type": "LIST_ITEM", "md_parent_section": "§MS [MS — Assumptions]", "md_verbatim": "3. If the specimen was cultured, the start and end date of culture are represented in the Biospecimen Events (BE) domain in BESTDTC and BEENDTC respectively. --REFID represents the sample ID as originally assigned in the BE domain. See BE domain assumptions in the SDTMIG v3.4, Section 6.2.2, for guidelines on assigning --REFID values to samples and subsamples.", "score": 0.2004, "match_basis": "verbatim_token+domain_route:MS"}, {"md_atom_id": "md_dmMS_assn_a012", "md_file": "knowledge_base/domains/MS/assumptions.md", "md_atom_type": "LIST_ITEM", "md_parent_section": "§MS [MS — Assumptions]", "md_verbatim": "   b. If the same sample is associated with many biospecimen events and tests, users may need to make use of additional linking variables such as --LNKID.", "score": 0.1983, "match_basis": "verbatim_token+domain_route:MS"}, {"md_atom_id": "md_dmMS_ex_a027", "md_file": "knowledge_base/domains/MS/examples.md", "md_atom_type": "TABLE_HEADER", "md_parent_section": "§MS.2 [Example 2]", "md_verbatim": "| Row | STUDYID | DOMAIN | USUBJID | NHOID | MSGRPID | MSSEQ | MSREFID | MSTESTCD | MSTEST | MSAGENT | MSORRES | MSORRESU | MSSTRESC | MSSTRESN | MSSTRESU | MSNAM | MSMETHOD | VISITNUM | VISIT | MSDTC |\n|-----|---------|--------|---------|-------|---------|-------|---------|----------|--------|---------|---------|----------|----------|----------|----------|-------|----------|----------|-------|-------|", "score": 0.1979, "match_basis": "verbatim_token+domain_route:MS"}, {"md_atom_id": "md_dmMS_ex_a009", "md_file": "knowledge_base/domains/MS/examples.md", "md_atom_type": "TABLE_HEADER", "md_parent_section": "§MS.1 [Example 1]", "md_verbatim": "| Row | STUDYID | DOMAIN | USUBJID | NHOID | MSGRPID | MSSEQ | MSREFID | MSLNKGRP | MSTESTCD | MSTEST | MSAGENT | MSCONC | MSCONCU | MSORRES | MSORRESU | MSSTRESC | MSSTRESN | MSSTRESU | MSNAM | MSMETHOD | MSDTC |\n|-----|---------|--------|---------|-------|---------|-------|---------|----------|----------|--------|---------|--------|---------|---------|----------|----------|----------|----------|-------|----------|-------|", "score": 0.1975, "match_basis": "verbatim_token+domain_route:MS"}, {"md_atom_id": "md_dmMS_ex_a043", "md_file": "knowledge_base/domains/MS/examples.md", "md_atom_type": "TABLE_HEADER", "md_parent_section": "§MS.3 [Example 3]", "md_verbatim": "| Row | STUDYID | DOMAIN | USUBJID | SPDEVID | NHOID | MSSEQ | MSREFID | MSLNKID | MSTESTCD | MSTEST | MSAGENT | MSCONC | MSCONCU | MSORRES | MSSTRESC | MSSPEC | MSLOC | MSMETHOD | MSDTC |\n|-----|---------|--------|---------|---------|-------|-------|---------|---------|----------|--------|---------|--------|---------|---------|----------|--------|-------|----------|-------|", "score": 0.1975, "match_basis": "verbatim_token+domain_route:MS"}], "candidate_count": 5, "zero_candidate": false}
{"pdf_atom_id": "ig34_p0253_a013", "pdf_atom_type": "TABLE_ROW", "pdf_source": "SDTMIG_v3.4", "pdf_page": 253, "pdf_parent_section": "§6.3.5.7.2 Microbiology Susceptibility (MS)", "pdf_verbatim": "| MSCAT | Category | Char | * | Grouping Qualifier | Used to define a category of MSTEST values. | Perm |", "figure_ref": null, "candidates": [{"md_atom_id": "md_dmMS_ex_a047", "md_file": "knowledge_base/domains/MS/examples.md", "md_atom_type": "TABLE_ROW", "md_parent_section": "§MS.3 [Example 3]", "md_verbatim": "| 4 | ABC | MS | ABC-01-101 | ABC765 | MYCOBACTERIUM TUBERCULOSIS | 4 | 100.2 | | MICROSUS | Microbial Susceptibility | Isoniazid | | | SUSCEPTIBLE | SUSCEPTIBLE | LAVAGE FLUID | STOMACH | NUCLEIC ACID AMPLIFICATION TEST | 2011-01-17T06:00 |", "score": 0.4234, "match_basis": "verbatim_token+domain_route:MS"}, {"md_atom_id": "md_dmMS_ex_a046", "md_file": "knowledge_base/domains/MS/examples.md", "md_atom_type": "TABLE_ROW", "md_parent_section": "§MS.3 [Example 3]", "md_verbatim": "| 3 | ABC | MS | ABC-01-101 | ABC765 | MYCOBACTERIUM TUBERCULOSIS | 3 | 100.2 | | MICROSUS | Microbial Susceptibility | Rifampicin | | | RESISTANT | RESISTANT | LAVAGE FLUID | STOMACH | NUCLEIC ACID AMPLIFICATION TEST | 2011-01-17T06:00 |", "score": 0.4227, "match_basis": "verbatim_token+domain_route:MS"}, {"md_atom_id": "md_dmMS_ex_a050", "md_file": "knowledge_base/domains/MS/examples.md", "md_atom_type": "TABLE_ROW", "md_parent_section": "§MS.3 [Example 3]", "md_verbatim": "| 1 | ABC | MS | ABC-01-101 | MBREFID | 100.4 | MSMEDTYPE | Medium Type | LOWENSTEIN-JENSEN | Collected |", "score": 0.4164, "match_basis": "verbatim_token+domain_route:MS"}, {"md_atom_id": "md_dmMS_ex_a051", "md_file": "knowledge_base/domains/MS/examples.md", "md_atom_type": "TABLE_ROW", "md_parent_section": "§MS.3 [Example 3]", "md_verbatim": "| 2 | ABC | MS | ABC-01-101 | MBREFID | 100.5 | MSMEDTYPE | Medium Type | LOWENSTEIN-JENSEN | Collected |", "score": 0.4164, "match_basis": "verbatim_token+domain_route:MS"}, {"md_atom_id": "md_dmMS_ex_a010", "md_file": "knowledge_base/domains/MS/examples.md", "md_atom_type": "TABLE_ROW", "md_parent_section": "§MS.1 [Example 1]", "md_verbatim": "| 1 | ABC | MS | ABC-001-002 | ENTEROCOCCUS FAECALIS | 1 | 1 | SPEC01 | | MIC | Minimum Inhibitory Concentration | Sponsor Drug | 0.25 | ug/dL | 0.25 | ug/dL | | | | CENTRAL LAB ABC | EPSILOMETER | 2005-06-19T08:00 |", "score": 0.4113, "match_basis": "verbatim_token+domain_route:MS"}], "candidate_count": 5, "zero_candidate": false}
{"pdf_atom_id": "ig34_p0253_a014", "pdf_atom_type": "CODE_LITERAL", "pdf_source": "SDTMIG_v3.4", "pdf_page": 253, "pdf_parent_section": "§6.3.5.7.2 Microbiology Susceptibility (MS)", "pdf_verbatim": "MSCAT", "figure_ref": null, "candidates": [{"md_atom_id": "md_dmMS_ex_a009", "md_file": "knowledge_base/domains/MS/examples.md", "md_atom_type": "TABLE_HEADER", "md_parent_section": "§MS.1 [Example 1]", "md_verbatim": "| Row | STUDYID | DOMAIN | USUBJID | NHOID | MSGRPID | MSSEQ | MSREFID | MSLNKGRP | MSTESTCD | MSTEST | MSAGENT | MSCONC | MSCONCU | MSORRES | MSORRESU | MSSTRESC | MSSTRESN | MSSTRESU | MSNAM | MSMETHOD | MSDTC |\n|-----|---------|--------|---------|-------|---------|-------|---------|----------|----------|--------|---------|--------|---------|---------|----------|----------|----------|----------|-------|----------|-------|", "score": 0.1978, "match_basis": "verbatim_token+domain_route:MS"}, {"md_atom_id": "md_dmMS_ex_a043", "md_file": "knowledge_base/domains/MS/examples.md", "md_atom_type": "TABLE_HEADER", "md_parent_section": "§MS.3 [Example 3]", "md_verbatim": "| Row | STUDYID | DOMAIN | USUBJID | SPDEVID | NHOID | MSSEQ | MSREFID | MSLNKID | MSTESTCD | MSTEST | MSAGENT | MSCONC | MSCONCU | MSORRES | MSSTRESC | MSSPEC | MSLOC | MSMETHOD | MSDTC |\n|-----|---------|--------|---------|---------|-------|-------|---------|---------|----------|--------|---------|--------|---------|---------|----------|--------|-------|----------|-------|", "score": 0.1978, "match_basis": "verbatim_token+domain_route:MS"}, {"md_atom_id": "md_dmMS_assn_a006", "md_file": "knowledge_base/domains/MS/assumptions.md", "md_atom_type": "LIST_ITEM", "md_parent_section": "§MS [MS — Assumptions]", "md_verbatim": "      iii. As in 1.a.ii, MSAGENT should be populated with the drug whose action would be affected by the genetic marker being assessed via the genotypic test. MSCONC and MSCONCU are null in these records.", "score": 0.1977, "match_basis": "verbatim_token+domain_route:MS"}, {"md_atom_id": "md_dmMS_ex_a002", "md_file": "knowledge_base/domains/MS/examples.md", "md_atom_type": "SENTENCE", "md_parent_section": "§MS [MS — Examples]", "md_verbatim": "*Note: MB and MS share a combined examples section (6.3.5.7.3 Microbiology Specimen/Microbiology Susceptibility Examples). MS-specific data tables are shown here; see also MB examples for organism identification data from the same studies.*", "score": 0.1964, "match_basis": "verbatim_token+domain_route:MS"}, {"md_atom_id": "md_dmMS_ex_a047", "md_file": "knowledge_base/domains/MS/examples.md", "md_atom_type": "TABLE_ROW", "md_parent_section": "§MS.3 [Example 3]", "md_verbatim": "| 4 | ABC | MS | ABC-01-101 | ABC765 | MYCOBACTERIUM TUBERCULOSIS | 4 | 100.2 | | MICROSUS | Microbial Susceptibility | Isoniazid | | | SUSCEPTIBLE | SUSCEPTIBLE | LAVAGE FLUID | STOMACH | NUCLEIC ACID AMPLIFICATION TEST | 2011-01-17T06:00 |", "score": 0.1963, "match_basis": "verbatim_token+domain_route:MS"}, {"md_atom_id": "md_dmMS_ex_a046", "md_file": "knowledge_base/domains/MS/examples.md", "md_atom_type": "TABLE_ROW", "md_parent_section": "§MS.3 [Example 3]", "md_verbatim": "| 3 | ABC | MS | ABC-01-101 | ABC765 | MYCOBACTERIUM TUBERCULOSIS | 3 | 100.2 | | MICROSUS | Microbial Susceptibility | Rifampicin | | | RESISTANT | RESISTANT | LAVAGE FLUID | STOMACH | NUCLEIC ACID AMPLIFICATION TEST | 2011-01-17T06:00 |", "score": 0.196, "match_basis": "verbatim_token+domain_route:MS"}, {"md_atom_id": "md_dmMS_assn_a005", "md_file": "knowledge_base/domains/MS/assumptions.md", "md_atom_type": "LIST_ITEM", "md_parent_section": "§MS [MS — Assumptions]", "md_verbatim": "      ii. For studies using quantitative testing methods, MSAGENT is used to represent the drug being tested; MSCONC and MSCONCU are not used. The concentration at which growth is inhibited is the result in these cases (MSORRES, MSSTRESC/MSSTRESN), with units being represented in MSORRESU/MSSTRESU.", "score": 0.1959, "match_basis": "verbatim_token+domain_route:MS"}, {"md_atom_id": "md_dmMS_assn_a004", "md_file": "knowledge_base/domains/MS/assumptions.md", "md_atom_type": "LIST_ITEM", "md_parent_section": "§MS [MS — Assumptions]", "md_verbatim": "      i. For studies using qualitative testing methods, MSAGENT, MSCONC, and MSCONCU are used to represent the predefined drug, concentration, and units, respectively. Results are represented with values such as \"SUSCEPTIBLE\" or \"RESISTANT\".", "score": 0.1957, "match_basis": "verbatim_token+domain_route:MS"}, {"md_atom_id": "md_dmMS_ex_a004", "md_file": "knowledge_base/domains/MS/examples.md", "md_atom_type": "SENTENCE", "md_parent_section": "§MS.1 [Example 1]", "md_verbatim": "This example shows susceptibility testing results following organism identification. After E. faecalis was identified in the subject sample (see MB Example 1), drug susceptibility testing was performed at each of the labs using both the sponsor's investigational drug and amoxicillin.", "score": 0.1951, "match_basis": "verbatim_token+domain_route:MS"}, {"md_atom_id": "md_dmMS_ex_a024", "md_file": "knowledge_base/domains/MS/examples.md", "md_atom_type": "SENTENCE", "md_parent_section": "§MS.2 [Example 2]", "md_verbatim": "**Rows 5-8:** Similar to rows 1-4, the sponsor drug (rows 5-6) and penicillin (rows 7-8) were tested against \"KLEBSIELLA PNEUMONIAE\" from an additional sample at a later time point. Results from these tests indicated that the organism was susceptible to sponsor drug, yet had intermediate resistance to penicillin.", "score": 0.1949, "match_basis": "verbatim_token+domain_route:MS"}], "candidate_count": 10, "zero_candidate": false}
{"pdf_atom_id": "ig34_p0253_a015", "pdf_atom_type": "TABLE_ROW", "pdf_source": "SDTMIG_v3.4", "pdf_page": 253, "pdf_parent_section": "§6.3.5.7.2 Microbiology Susceptibility (MS)", "pdf_verbatim": "| MSSCAT | Subcategory | Char | * | Grouping Qualifier | Used to define a further categorization of MSCAT values. | Perm |", "figure_ref": null, "candidates": [{"md_atom_id": "md_dmMS_ex_a010", "md_file": "knowledge_base/domains/MS/examples.md", "md_atom_type": "TABLE_ROW", "md_parent_section": "§MS.1 [Example 1]", "md_verbatim": "| 1 | ABC | MS | ABC-001-002 | ENTEROCOCCUS FAECALIS | 1 | 1 | SPEC01 | | MIC | Minimum Inhibitory Concentration | Sponsor Drug | 0.25 | ug/dL | 0.25 | ug/dL | | | | CENTRAL LAB ABC | EPSILOMETER | 2005-06-19T08:00 |", "score": 0.4259, "match_basis": "verbatim_token+domain_route:MS"}, {"md_atom_id": "md_dmMS_ex_a047", "md_file": "knowledge_base/domains/MS/examples.md", "md_atom_type": "TABLE_ROW", "md_parent_section": "§MS.3 [Example 3]", "md_verbatim": "| 4 | ABC | MS | ABC-01-101 | ABC765 | MYCOBACTERIUM TUBERCULOSIS | 4 | 100.2 | | MICROSUS | Microbial Susceptibility | Isoniazid | | | SUSCEPTIBLE | SUSCEPTIBLE | LAVAGE FLUID | STOMACH | NUCLEIC ACID AMPLIFICATION TEST | 2011-01-17T06:00 |", "score": 0.4257, "match_basis": "verbatim_token+domain_route:MS"}, {"md_atom_id": "md_dmMS_ex_a012", "md_file": "knowledge_base/domains/MS/examples.md", "md_atom_type": "TABLE_ROW", "md_parent_section": "§MS.1 [Example 1]", "md_verbatim": "| 3 | ABC | MS | ABC-001-002 | ENTEROCOCCUS FAECALIS | 2 | 3 | SPEC01 | | MIC | Minimum Inhibitory Concentration | Amoxicillin | 1 | ug/dL | 1 | ug/dL | | | | CENTRAL LAB ABC | EPSILOMETER | 2005-06-19T08:00 |", "score": 0.4254, "match_basis": "verbatim_token+domain_route:MS"}, {"md_atom_id": "md_dmMS_ex_a046", "md_file": "knowledge_base/domains/MS/examples.md", "md_atom_type": "TABLE_ROW", "md_parent_section": "§MS.3 [Example 3]", "md_verbatim": "| 3 | ABC | MS | ABC-01-101 | ABC765 | MYCOBACTERIUM TUBERCULOSIS | 3 | 100.2 | | MICROSUS | Microbial Susceptibility | Rifampicin | | | RESISTANT | RESISTANT | LAVAGE FLUID | STOMACH | NUCLEIC ACID AMPLIFICATION TEST | 2011-01-17T06:00 |", "score": 0.425, "match_basis": "verbatim_token+domain_route:MS"}, {"md_atom_id": "md_dmMS_ex_a016", "md_file": "knowledge_base/domains/MS/examples.md", "md_atom_type": "TABLE_ROW", "md_parent_section": "§MS.1 [Example 1]", "md_verbatim": "| 7 | ABC | MS | ABC-001-002 | ENTEROCOCCUS FAECALIS | 3 | 7 | SPEC01 | 2 | DIAZOINH | Diameter of the Zone of Inhibition | Sponsor Drug | | | 23 | mm | 23 | 23 | mm | LOCAL LAB XYZ | DISK DIFFUSION | 2005-06-19T08:00 |", "score": 0.4209, "match_basis": "verbatim_token+domain_route:MS"}], "candidate_count": 5, "zero_candidate": false}
{"pdf_atom_id": "ig34_p0253_a016", "pdf_atom_type": "CODE_LITERAL", "pdf_source": "SDTMIG_v3.4", "pdf_page": 253, "pdf_parent_section": "§6.3.5.7.2 Microbiology Susceptibility (MS)", "pdf_verbatim": "MSSCAT", "figure_ref": null, "candidates": [{"md_atom_id": "md_dmMS_ex_a027", "md_file": "knowledge_base/domains/MS/examples.md", "md_atom_type": "TABLE_HEADER", "md_parent_section": "§MS.2 [Example 2]", "md_verbatim": "| Row | STUDYID | DOMAIN | USUBJID | NHOID | MSGRPID | MSSEQ | MSREFID | MSTESTCD | MSTEST | MSAGENT | MSORRES | MSORRESU | MSSTRESC | MSSTRESN | MSSTRESU | MSNAM | MSMETHOD | VISITNUM | VISIT | MSDTC |\n|-----|---------|--------|---------|-------|---------|-------|---------|----------|--------|---------|---------|----------|----------|----------|----------|-------|----------|----------|-------|-------|", "score": 0.1981, "match_basis": "verbatim_token+domain_route:MS"}, {"md_atom_id": "md_dmMS_ex_a009", "md_file": "knowledge_base/domains/MS/examples.md", "md_atom_type": "TABLE_HEADER", "md_parent_section": "§MS.1 [Example 1]", "md_verbatim": "| Row | STUDYID | DOMAIN | USUBJID | NHOID | MSGRPID | MSSEQ | MSREFID | MSLNKGRP | MSTESTCD | MSTEST | MSAGENT | MSCONC | MSCONCU | MSORRES | MSORRESU | MSSTRESC | MSSTRESN | MSSTRESU | MSNAM | MSMETHOD | MSDTC |\n|-----|---------|--------|---------|-------|---------|-------|---------|----------|----------|--------|---------|--------|---------|---------|----------|----------|----------|----------|-------|----------|-------|", "score": 0.1977, "match_basis": "verbatim_token+domain_route:MS"}, {"md_atom_id": "md_dmMS_ex_a043", "md_file": "knowledge_base/domains/MS/examples.md", "md_atom_type": "TABLE_HEADER", "md_parent_section": "§MS.3 [Example 3]", "md_verbatim": "| Row | STUDYID | DOMAIN | USUBJID | SPDEVID | NHOID | MSSEQ | MSREFID | MSLNKID | MSTESTCD | MSTEST | MSAGENT | MSCONC | MSCONCU | MSORRES | MSSTRESC | MSSPEC | MSLOC | MSMETHOD | MSDTC |\n|-----|---------|--------|---------|---------|-------|-------|---------|---------|----------|--------|---------|--------|---------|---------|----------|--------|-------|----------|-------|", "score": 0.1977, "match_basis": "verbatim_token+domain_route:MS"}, {"md_atom_id": "md_dmMS_ex_a002", "md_file": "knowledge_base/domains/MS/examples.md", "md_atom_type": "SENTENCE", "md_parent_section": "§MS [MS — Examples]", "md_verbatim": "*Note: MB and MS share a combined examples section (6.3.5.7.3 Microbiology Specimen/Microbiology Susceptibility Examples). MS-specific data tables are shown here; see also MB examples for organism identification data from the same studies.*", "score": 0.1963, "match_basis": "verbatim_token+domain_route:MS"}, {"md_atom_id": "md_dmMS_ex_a047", "md_file": "knowledge_base/domains/MS/examples.md", "md_atom_type": "TABLE_ROW", "md_parent_section": "§MS.3 [Example 3]", "md_verbatim": "| 4 | ABC | MS | ABC-01-101 | ABC765 | MYCOBACTERIUM TUBERCULOSIS | 4 | 100.2 | | MICROSUS | Microbial Susceptibility | Isoniazid | | | SUSCEPTIBLE | SUSCEPTIBLE | LAVAGE FLUID | STOMACH | NUCLEIC ACID AMPLIFICATION TEST | 2011-01-17T06:00 |", "score": 0.1962, "match_basis": "verbatim_token+domain_route:MS"}, {"md_atom_id": "md_dmMS_ex_a046", "md_file": "knowledge_base/domains/MS/examples.md", "md_atom_type": "TABLE_ROW", "md_parent_section": "§MS.3 [Example 3]", "md_verbatim": "| 3 | ABC | MS | ABC-01-101 | ABC765 | MYCOBACTERIUM TUBERCULOSIS | 3 | 100.2 | | MICROSUS | Microbial Susceptibility | Rifampicin | | | RESISTANT | RESISTANT | LAVAGE FLUID | STOMACH | NUCLEIC ACID AMPLIFICATION TEST | 2011-01-17T06:00 |", "score": 0.1959, "match_basis": "verbatim_token+domain_route:MS"}, {"md_atom_id": "md_dmMS_assn_a005", "md_file": "knowledge_base/domains/MS/assumptions.md", "md_atom_type": "LIST_ITEM", "md_parent_section": "§MS [MS — Assumptions]", "md_verbatim": "      ii. For studies using quantitative testing methods, MSAGENT is used to represent the drug being tested; MSCONC and MSCONCU are not used. The concentration at which growth is inhibited is the result in these cases (MSORRES, MSSTRESC/MSSTRESN), with units being represented in MSORRESU/MSSTRESU.", "score": 0.1959, "match_basis": "verbatim_token+domain_route:MS"}, {"md_atom_id": "md_dmMS_ex_a004", "md_file": "knowledge_base/domains/MS/examples.md", "md_atom_type": "SENTENCE", "md_parent_section": "§MS.1 [Example 1]", "md_verbatim": "This example shows susceptibility testing results following organism identification. After E. faecalis was identified in the subject sample (see MB Example 1), drug susceptibility testing was performed at each of the labs using both the sponsor's investigational drug and amoxicillin.", "score": 0.195, "match_basis": "verbatim_token+domain_route:MS"}, {"md_atom_id": "md_dmMS_ex_a024", "md_file": "knowledge_base/domains/MS/examples.md", "md_atom_type": "SENTENCE", "md_parent_section": "§MS.2 [Example 2]", "md_verbatim": "**Rows 5-8:** Similar to rows 1-4, the sponsor drug (rows 5-6) and penicillin (rows 7-8) were tested against \"KLEBSIELLA PNEUMONIAE\" from an additional sample at a later time point. Results from these tests indicated that the organism was susceptible to sponsor drug, yet had intermediate resistance to penicillin.", "score": 0.1949, "match_basis": "verbatim_token+domain_route:MS"}, {"md_atom_id": "md_dmMS_assn_a007", "md_file": "knowledge_base/domains/MS/assumptions.md", "md_atom_type": "LIST_ITEM", "md_parent_section": "§MS [MS — Assumptions]", "md_verbatim": "   b. Genetic tests that provide results in terms of susceptible/resistant only (e.g., nucleic acid amplification tests (NAAT)). Genotypic tests that provide results in terms of specific changes to nucleotides, codons, or amino acids of genes/gene products associated with resistance should be represented in the Genomic Findings (GF) domain, as that domain structure contains the variables necessary to accommodate data of this type. If a test provides both mutation data and susceptibility data, the mutation results should be represented in GF and the susceptibility information should be represented in MS. In these cases, the GF records should be linked via RELREC to susceptibility records in MS.", "score": 0.1929, "match_basis": "verbatim_token+domain_route:MS"}], "candidate_count": 10, "zero_candidate": false}
{"pdf_atom_id": "ig34_p0253_a017", "pdf_atom_type": "TABLE_ROW", "pdf_source": "SDTMIG_v3.4", "pdf_page": 253, "pdf_parent_section": "§6.3.5.7.2 Microbiology Susceptibility (MS)", "pdf_verbatim": "| MSORRES | Result or Finding in Original Units | Char | | Result Qualifier | Result of the measurement or finding as originally received or collected. | Exp |", "figure_ref": null, "candidates": [{"md_atom_id": "md_dmMS_ex_a050", "md_file": "knowledge_base/domains/MS/examples.md", "md_atom_type": "TABLE_ROW", "md_parent_section": "§MS.3 [Example 3]", "md_verbatim": "| 1 | ABC | MS | ABC-01-101 | MBREFID | 100.4 | MSMEDTYPE | Medium Type | LOWENSTEIN-JENSEN | Collected |", "score": 0.4488, "match_basis": "verbatim_token+domain_route:MS"}, {"md_atom_id": "md_dmMS_ex_a051", "md_file": "knowledge_base/domains/MS/examples.md", "md_atom_type": "TABLE_ROW", "md_parent_section": "§MS.3 [Example 3]", "md_verbatim": "| 2 | ABC | MS | ABC-01-101 | MBREFID | 100.5 | MSMEDTYPE | Medium Type | LOWENSTEIN-JENSEN | Collected |", "score": 0.4488, "match_basis": "verbatim_token+domain_route:MS"}, {"md_atom_id": "md_dmMS_ex_a016", "md_file": "knowledge_base/domains/MS/examples.md", "md_atom_type": "TABLE_ROW", "md_parent_section": "§MS.1 [Example 1]", "md_verbatim": "| 7 | ABC | MS | ABC-001-002 | ENTEROCOCCUS FAECALIS | 3 | 7 | SPEC01 | 2 | DIAZOINH | Diameter of the Zone of Inhibition | Sponsor Drug | | | 23 | mm | 23 | 23 | mm | LOCAL LAB XYZ | DISK DIFFUSION | 2005-06-19T08:00 |", "score": 0.42, "match_basis": "verbatim_token+domain_route:MS"}, {"md_atom_id": "md_dmMS_ex_a046", "md_file": "knowledge_base/domains/MS/examples.md", "md_atom_type": "TABLE_ROW", "md_parent_section": "§MS.3 [Example 3]", "md_verbatim": "| 3 | ABC | MS | ABC-01-101 | ABC765 | MYCOBACTERIUM TUBERCULOSIS | 3 | 100.2 | | MICROSUS | Microbial Susceptibility | Rifampicin | | | RESISTANT | RESISTANT | LAVAGE FLUID | STOMACH | NUCLEIC ACID AMPLIFICATION TEST | 2011-01-17T06:00 |", "score": 0.4159, "match_basis": "verbatim_token+domain_route:MS"}, {"md_atom_id": "md_dmMS_ex_a010", "md_file": "knowledge_base/domains/MS/examples.md", "md_atom_type": "TABLE_ROW", "md_parent_section": "§MS.1 [Example 1]", "md_verbatim": "| 1 | ABC | MS | ABC-001-002 | ENTEROCOCCUS FAECALIS | 1 | 1 | SPEC01 | | MIC | Minimum Inhibitory Concentration | Sponsor Drug | 0.25 | ug/dL | 0.25 | ug/dL | | | | CENTRAL LAB ABC | EPSILOMETER | 2005-06-19T08:00 |", "score": 0.4146, "match_basis": "verbatim_token+domain_route:MS"}], "candidate_count": 5, "zero_candidate": false}
{"pdf_atom_id": "ig34_p0253_a018", "pdf_atom_type": "CODE_LITERAL", "pdf_source": "SDTMIG_v3.4", "pdf_page": 253, "pdf_parent_section": "§6.3.5.7.2 Microbiology Susceptibility (MS)", "pdf_verbatim": "MSORRES", "figure_ref": null, "candidates": [{"md_atom_id": "md_dmMS_ex_a027", "md_file": "knowledge_base/domains/MS/examples.md", "md_atom_type": "TABLE_HEADER", "md_parent_section": "§MS.2 [Example 2]", "md_verbatim": "| Row | STUDYID | DOMAIN | USUBJID | NHOID | MSGRPID | MSSEQ | MSREFID | MSTESTCD | MSTEST | MSAGENT | MSORRES | MSORRESU | MSSTRESC | MSSTRESN | MSSTRESU | MSNAM | MSMETHOD | VISITNUM | VISIT | MSDTC |\n|-----|---------|--------|---------|-------|---------|-------|---------|----------|--------|---------|---------|----------|----------|----------|----------|-------|----------|----------|-------|-------|", "score": 0.2323, "match_basis": "verbatim_token+domain_route:MS"}, {"md_atom_id": "md_dmMS_ex_a009", "md_file": "knowledge_base/domains/MS/examples.md", "md_atom_type": "TABLE_HEADER", "md_parent_section": "§MS.1 [Example 1]", "md_verbatim": "| Row | STUDYID | DOMAIN | USUBJID | NHOID | MSGRPID | MSSEQ | MSREFID | MSLNKGRP | MSTESTCD | MSTEST | MSAGENT | MSCONC | MSCONCU | MSORRES | MSORRESU | MSSTRESC | MSSTRESN | MSSTRESU | MSNAM | MSMETHOD | MSDTC |\n|-----|---------|--------|---------|-------|---------|-------|---------|----------|----------|--------|---------|--------|---------|---------|----------|----------|----------|----------|-------|----------|-------|", "score": 0.23, "match_basis": "verbatim_token+domain_route:MS"}, {"md_atom_id": "md_dmMS_ex_a043", "md_file": "knowledge_base/domains/MS/examples.md", "md_atom_type": "TABLE_HEADER", "md_parent_section": "§MS.3 [Example 3]", "md_verbatim": "| Row | STUDYID | DOMAIN | USUBJID | SPDEVID | NHOID | MSSEQ | MSREFID | MSLNKID | MSTESTCD | MSTEST | MSAGENT | MSCONC | MSCONCU | MSORRES | MSSTRESC | MSSPEC | MSLOC | MSMETHOD | MSDTC |\n|-----|---------|--------|---------|---------|-------|-------|---------|---------|----------|--------|---------|--------|---------|---------|----------|--------|-------|----------|-------|", "score": 0.23, "match_basis": "verbatim_token+domain_route:MS"}, {"md_atom_id": "md_dmMS_assn_a005", "md_file": "knowledge_base/domains/MS/assumptions.md", "md_atom_type": "LIST_ITEM", "md_parent_section": "§MS [MS — Assumptions]", "md_verbatim": "      ii. For studies using quantitative testing methods, MSAGENT is used to represent the drug being tested; MSCONC and MSCONCU are not used. The concentration at which growth is inhibited is the result in these cases (MSORRES, MSSTRESC/MSSTRESN), with units being represented in MSORRESU/MSSTRESU.", "score": 0.2203, "match_basis": "verbatim_token+domain_route:MS"}, {"md_atom_id": "md_dmMS_assn_a009", "md_file": "knowledge_base/domains/MS/assumptions.md", "md_atom_type": "LIST_ITEM", "md_parent_section": "§MS [MS — Assumptions]", "md_verbatim": "2. MSDTC represents the date the specimen was collected.", "score": 0.2087, "match_basis": "verbatim_token+domain_route:MS"}, {"md_atom_id": "md_dmMS_ex_a006", "md_file": "knowledge_base/domains/MS/examples.md", "md_atom_type": "SENTENCE", "md_parent_section": "§MS.1 [Example 1]", "md_verbatim": "**Rows 5-6:** Show that Local Lab XYZ found that the sample was susceptible to the sponsor drug at a concentration of 0.5 ug/dL and resistant to amoxicillin at a concentration of 0.5 ug/dL.", "score": 0.2079, "match_basis": "verbatim_token+domain_route:MS"}, {"md_atom_id": "md_dmMS_ex_a021", "md_file": "knowledge_base/domains/MS/examples.md", "md_atom_type": "SENTENCE", "md_parent_section": "§MS.2 [Example 2]", "md_verbatim": "Susceptibility testing results from the sputum multi-visit study (see MB Example 2).", "score": 0.2028, "match_basis": "verbatim_token+domain_route:MS"}, {"md_atom_id": "md_dmMS_ex_a007", "md_file": "knowledge_base/domains/MS/examples.md", "md_atom_type": "SENTENCE", "md_parent_section": "§MS.1 [Example 1]", "md_verbatim": "**Rows 7-10:** Show the diameter of the zone of inhibition and the interpretation result reported from Local Lab XYZ from a sample that was tested for susceptibility to the sponsor drug and amoxicillin using a disk diffusion test method.", "score": 0.2018, "match_basis": "verbatim_token+domain_route:MS"}, {"md_atom_id": "md_dmMS_ex_a005", "md_file": "knowledge_base/domains/MS/examples.md", "md_atom_type": "SENTENCE", "md_parent_section": "§MS.1 [Example 1]", "md_verbatim": "**Rows 1-4:** Show the minimum inhibitory concentration and the interpretation result reported from Central Lab ABC from a sample that was tested for susceptibility to the sponsor drug and amoxicillin, using an epsilometer test method.", "score": 0.201, "match_basis": "verbatim_token+domain_route:MS"}, {"md_atom_id": "md_dmMS_assn_a013", "md_file": "knowledge_base/domains/MS/assumptions.md", "md_atom_type": "LIST_ITEM", "md_parent_section": "§MS [MS — Assumptions]", "md_verbatim": "4. NHOID is a sponsor-defined, intuitive name of the non-host organism being tested. It should only be populated with values representing what is known about the identity of the organism before the results of the test are determined. It should therefore never be used as a qualifier of result.", "score": 0.2008, "match_basis": "verbatim_token+domain_route:MS"}], "candidate_count": 10, "zero_candidate": false}
{"pdf_atom_id": "ig34_p0253_a019", "pdf_atom_type": "TABLE_ROW", "pdf_source": "SDTMIG_v3.4", "pdf_page": 253, "pdf_parent_section": "§6.3.5.7.2 Microbiology Susceptibility (MS)", "pdf_verbatim": "| MSORRESU | Original Units | Char | (UNIT) | Variable Qualifier | Unit for MSORRES. Examples: \"ug/mL\". | Perm |", "figure_ref": null, "candidates": [{"md_atom_id": "md_dmMS_ex_a047", "md_file": "knowledge_base/domains/MS/examples.md", "md_atom_type": "TABLE_ROW", "md_parent_section": "§MS.3 [Example 3]", "md_verbatim": "| 4 | ABC | MS | ABC-01-101 | ABC765 | MYCOBACTERIUM TUBERCULOSIS | 4 | 100.2 | | MICROSUS | Microbial Susceptibility | Isoniazid | | | SUSCEPTIBLE | SUSCEPTIBLE | LAVAGE FLUID | STOMACH | NUCLEIC ACID AMPLIFICATION TEST | 2011-01-17T06:00 |", "score": 0.4234, "match_basis": "verbatim_token+domain_route:MS"}, {"md_atom_id": "md_dmMS_ex_a046", "md_file": "knowledge_base/domains/MS/examples.md", "md_atom_type": "TABLE_ROW", "md_parent_section": "§MS.3 [Example 3]", "md_verbatim": "| 3 | ABC | MS | ABC-01-101 | ABC765 | MYCOBACTERIUM TUBERCULOSIS | 3 | 100.2 | | MICROSUS | Microbial Susceptibility | Rifampicin | | | RESISTANT | RESISTANT | LAVAGE FLUID | STOMACH | NUCLEIC ACID AMPLIFICATION TEST | 2011-01-17T06:00 |", "score": 0.4227, "match_basis": "verbatim_token+domain_route:MS"}, {"md_atom_id": "md_dmMS_ex_a011", "md_file": "knowledge_base/domains/MS/examples.md", "md_atom_type": "TABLE_ROW", "md_parent_section": "§MS.1 [Example 1]", "md_verbatim": "| 2 | ABC | MS | ABC-001-002 | ENTEROCOCCUS FAECALIS | 1 | 2 | SPEC01 | | MICROSUS | Microbial Susceptibility | Sponsor Drug | | | SUSCEPTIBLE | | SUSCEPTIBLE | | | CENTRAL LAB ABC | EPSILOMETER | 2005-06-19T08:00 |", "score": 0.4168, "match_basis": "verbatim_token+domain_route:MS"}, {"md_atom_id": "md_dmMS_ex_a017", "md_file": "knowledge_base/domains/MS/examples.md", "md_atom_type": "TABLE_ROW", "md_parent_section": "§MS.1 [Example 1]", "md_verbatim": "| 8 | ABC | MS | ABC-001-002 | ENTEROCOCCUS FAECALIS | 3 | 8 | SPEC01 | 2 | MICROSUS | Microbial Susceptibility | Sponsor Drug | | | SUSCEPTIBLE | | SUSCEPTIBLE | | | LOCAL LAB XYZ | DISK DIFFUSION | 2005-06-19T08:00 |", "score": 0.4168, "match_basis": "verbatim_token+domain_route:MS"}, {"md_atom_id": "md_dmMS_ex_a014", "md_file": "knowledge_base/domains/MS/examples.md", "md_atom_type": "TABLE_ROW", "md_parent_section": "§MS.1 [Example 1]", "md_verbatim": "| 5 | ABC | MS | ABC-001-002 | ENTEROCOCCUS FAECALIS | | 5 | SPEC01 | 2 | MICROSUS | Microbial Susceptibility | Sponsor Drug | 0.5 | ug/dL | SUSCEPTIBLE | | SUSCEPTIBLE | | | LOCAL LAB XYZ | MACRO BROTH DILUTION | 2005-06-19T08:00 |", "score": 0.4165, "match_basis": "verbatim_token+domain_route:MS"}], "candidate_count": 5, "zero_candidate": false}
{"pdf_atom_id": "ig34_p0253_a020", "pdf_atom_type": "CODE_LITERAL", "pdf_source": "SDTMIG_v3.4", "pdf_page": 253, "pdf_parent_section": "§6.3.5.7.2 Microbiology Susceptibility (MS)", "pdf_verbatim": "MSORRESU", "figure_ref": null, "candidates": [{"md_atom_id": "md_dmMS_ex_a027", "md_file": "knowledge_base/domains/MS/examples.md", "md_atom_type": "TABLE_HEADER", "md_parent_section": "§MS.2 [Example 2]", "md_verbatim": "| Row | STUDYID | DOMAIN | USUBJID | NHOID | MSGRPID | MSSEQ | MSREFID | MSTESTCD | MSTEST | MSAGENT | MSORRES | MSORRESU | MSSTRESC | MSSTRESN | MSSTRESU | MSNAM | MSMETHOD | VISITNUM | VISIT | MSDTC |\n|-----|---------|--------|---------|-------|---------|-------|---------|----------|--------|---------|---------|----------|----------|----------|----------|-------|----------|----------|-------|-------|", "score": 0.2407, "match_basis": "verbatim_token+domain_route:MS"}, {"md_atom_id": "md_dmMS_ex_a009", "md_file": "knowledge_base/domains/MS/examples.md", "md_atom_type": "TABLE_HEADER", "md_parent_section": "§MS.1 [Example 1]", "md_verbatim": "| Row | STUDYID | DOMAIN | USUBJID | NHOID | MSGRPID | MSSEQ | MSREFID | MSLNKGRP | MSTESTCD | MSTEST | MSAGENT | MSCONC | MSCONCU | MSORRES | MSORRESU | MSSTRESC | MSSTRESN | MSSTRESU | MSNAM | MSMETHOD | MSDTC |\n|-----|---------|--------|---------|-------|---------|-------|---------|----------|----------|--------|---------|--------|---------|---------|----------|----------|----------|----------|-------|----------|-------|", "score": 0.238, "match_basis": "verbatim_token+domain_route:MS"}, {"md_atom_id": "md_dmMS_ex_a043", "md_file": "knowledge_base/domains/MS/examples.md", "md_atom_type": "TABLE_HEADER", "md_parent_section": "§MS.3 [Example 3]", "md_verbatim": "| Row | STUDYID | DOMAIN | USUBJID | SPDEVID | NHOID | MSSEQ | MSREFID | MSLNKID | MSTESTCD | MSTEST | MSAGENT | MSCONC | MSCONCU | MSORRES | MSSTRESC | MSSPEC | MSLOC | MSMETHOD | MSDTC |\n|-----|---------|--------|---------|---------|-------|-------|---------|---------|----------|--------|---------|--------|---------|---------|----------|--------|-------|----------|-------|", "score": 0.2295, "match_basis": "verbatim_token+domain_route:MS"}, {"md_atom_id": "md_dmMS_assn_a005", "md_file": "knowledge_base/domains/MS/assumptions.md", "md_atom_type": "LIST_ITEM", "md_parent_section": "§MS [MS — Assumptions]", "md_verbatim": "      ii. For studies using quantitative testing methods, MSAGENT is used to represent the drug being tested; MSCONC and MSCONCU are not used. The concentration at which growth is inhibited is the result in these cases (MSORRES, MSSTRESC/MSSTRESN), with units being represented in MSORRESU/MSSTRESU.", "score": 0.2264, "match_basis": "verbatim_token+domain_route:MS"}, {"md_atom_id": "md_dmMS_ex_a021", "md_file": "knowledge_base/domains/MS/examples.md", "md_atom_type": "SENTENCE", "md_parent_section": "§MS.2 [Example 2]", "md_verbatim": "Susceptibility testing results from the sputum multi-visit study (see MB Example 2).", "score": 0.2155, "match_basis": "verbatim_token+domain_route:MS"}], "candidate_count": 5, "zero_candidate": false}
{"pdf_atom_id": "ig34_p0253_a021", "pdf_atom_type": "TABLE_ROW", "pdf_source": "SDTMIG_v3.4", "pdf_page": 253, "pdf_parent_section": "§6.3.5.7.2 Microbiology Susceptibility (MS)", "pdf_verbatim": "| MSSTRESC | Result or Finding in Standard Format | Char | | Result Qualifier | Contains the result value for all findings, copied or derived from MSORRES in a standard format or in standard units. MSSTRESC should store all result values in character format; if results are numeric values, they should be stored in MSSTRESN. When MSORRES contains results such as \"NONE\", \"NEG\", and \"NEGATIVE\" in MSORRES and these results effectively have the same meaning, they could be represented in standard format in MSSTRESC as \"NEGATIVE\". | Exp |", "figure_ref": null, "candidates": [{"md_atom_id": "md_dmMS_ex_a046", "md_file": "knowledge_base/domains/MS/examples.md", "md_atom_type": "TABLE_ROW", "md_parent_section": "§MS.3 [Example 3]", "md_verbatim": "| 3 | ABC | MS | ABC-01-101 | ABC765 | MYCOBACTERIUM TUBERCULOSIS | 3 | 100.2 | | MICROSUS | Microbial Susceptibility | Rifampicin | | | RESISTANT | RESISTANT | LAVAGE FLUID | STOMACH | NUCLEIC ACID AMPLIFICATION TEST | 2011-01-17T06:00 |", "score": 0.4316, "match_basis": "verbatim_token+domain_route:MS"}, {"md_atom_id": "md_dmMS_ex_a028", "md_file": "knowledge_base/domains/MS/examples.md", "md_atom_type": "TABLE_ROW", "md_parent_section": "§MS.2 [Example 2]", "md_verbatim": "| 1 | ABC | MS | ABC-001-001 | STREPTOCOCCUS PNEUMONIAE | | 1 | SP01 | MIC | Minimum Inhibitory Concentration | Sponsor Drug | 0.004 | mg/L | 0.004 | 0.004 | mg/L | | EPSILOMETER | 1 | VISIT 1 | 2005-06-19T08:00 |", "score": 0.429, "match_basis": "verbatim_token+domain_route:MS"}, {"md_atom_id": "md_dmMS_ex_a016", "md_file": "knowledge_base/domains/MS/examples.md", "md_atom_type": "TABLE_ROW", "md_parent_section": "§MS.1 [Example 1]", "md_verbatim": "| 7 | ABC | MS | ABC-001-002 | ENTEROCOCCUS FAECALIS | 3 | 7 | SPEC01 | 2 | DIAZOINH | Diameter of the Zone of Inhibition | Sponsor Drug | | | 23 | mm | 23 | 23 | mm | LOCAL LAB XYZ | DISK DIFFUSION | 2005-06-19T08:00 |", "score": 0.4265, "match_basis": "verbatim_token+domain_route:MS"}, {"md_atom_id": "md_dmMS_ex_a010", "md_file": "knowledge_base/domains/MS/examples.md", "md_atom_type": "TABLE_ROW", "md_parent_section": "§MS.1 [Example 1]", "md_verbatim": "| 1 | ABC | MS | ABC-001-002 | ENTEROCOCCUS FAECALIS | 1 | 1 | SPEC01 | | MIC | Minimum Inhibitory Concentration | Sponsor Drug | 0.25 | ug/dL | 0.25 | ug/dL | | | | CENTRAL LAB ABC | EPSILOMETER | 2005-06-19T08:00 |", "score": 0.4262, "match_basis": "verbatim_token+domain_route:MS"}, {"md_atom_id": "md_dmMS_ex_a030", "md_file": "knowledge_base/domains/MS/examples.md", "md_atom_type": "TABLE_ROW", "md_parent_section": "§MS.2 [Example 2]", "md_verbatim": "| 3 | ABC | MS | ABC-001-001 | STREPTOCOCCUS PNEUMONIAE | | 3 | SP01 | MIC | Minimum Inhibitory Concentration | Penicillin | 0.125 | mg/L | 0.125 | 0.125 | mg/L | | EPSILOMETER | 1 | VISIT 1 | 2005-06-19T08:00 |", "score": 0.4255, "match_basis": "verbatim_token+domain_route:MS"}], "candidate_count": 5, "zero_candidate": false}
{"pdf_atom_id": "ig34_p0253_a022", "pdf_atom_type": "CODE_LITERAL", "pdf_source": "SDTMIG_v3.4", "pdf_page": 253, "pdf_parent_section": "§6.3.5.7.2 Microbiology Susceptibility (MS)", "pdf_verbatim": "MSSTRESC", "figure_ref": null, "candidates": [{"md_atom_id": "md_dmMS_ex_a027", "md_file": "knowledge_base/domains/MS/examples.md", "md_atom_type": "TABLE_HEADER", "md_parent_section": "§MS.2 [Example 2]", "md_verbatim": "| Row | STUDYID | DOMAIN | USUBJID | NHOID | MSGRPID | MSSEQ | MSREFID | MSTESTCD | MSTEST | MSAGENT | MSORRES | MSORRESU | MSSTRESC | MSSTRESN | MSSTRESU | MSNAM | MSMETHOD | VISITNUM | VISIT | MSDTC |\n|-----|---------|--------|---------|-------|---------|-------|---------|----------|--------|---------|---------|----------|----------|----------|----------|-------|----------|----------|-------|-------|", "score": 0.2407, "match_basis": "verbatim_token+domain_route:MS"}, {"md_atom_id": "md_dmMS_ex_a009", "md_file": "knowledge_base/domains/MS/examples.md", "md_atom_type": "TABLE_HEADER", "md_parent_section": "§MS.1 [Example 1]", "md_verbatim": "| Row | STUDYID | DOMAIN | USUBJID | NHOID | MSGRPID | MSSEQ | MSREFID | MSLNKGRP | MSTESTCD | MSTEST | MSAGENT | MSCONC | MSCONCU | MSORRES | MSORRESU | MSSTRESC | MSSTRESN | MSSTRESU | MSNAM | MSMETHOD | MSDTC |\n|-----|---------|--------|---------|-------|---------|-------|---------|----------|----------|--------|---------|--------|---------|---------|----------|----------|----------|----------|-------|----------|-------|", "score": 0.238, "match_basis": "verbatim_token+domain_route:MS"}, {"md_atom_id": "md_dmMS_ex_a043", "md_file": "knowledge_base/domains/MS/examples.md", "md_atom_type": "TABLE_HEADER", "md_parent_section": "§MS.3 [Example 3]", "md_verbatim": "| Row | STUDYID | DOMAIN | USUBJID | SPDEVID | NHOID | MSSEQ | MSREFID | MSLNKID | MSTESTCD | MSTEST | MSAGENT | MSCONC | MSCONCU | MSORRES | MSSTRESC | MSSPEC | MSLOC | MSMETHOD | MSDTC |\n|-----|---------|--------|---------|---------|-------|-------|---------|---------|----------|--------|---------|--------|---------|---------|----------|--------|-------|----------|-------|", "score": 0.238, "match_basis": "verbatim_token+domain_route:MS"}, {"md_atom_id": "md_dmMS_assn_a005", "md_file": "knowledge_base/domains/MS/assumptions.md", "md_atom_type": "LIST_ITEM", "md_parent_section": "§MS [MS — Assumptions]", "md_verbatim": "      ii. For studies using quantitative testing methods, MSAGENT is used to represent the drug being tested; MSCONC and MSCONCU are not used. The concentration at which growth is inhibited is the result in these cases (MSORRES, MSSTRESC/MSSTRESN), with units being represented in MSORRESU/MSSTRESU.", "score": 0.2264, "match_basis": "verbatim_token+domain_route:MS"}, {"md_atom_id": "md_dmMS_ex_a031", "md_file": "knowledge_base/domains/MS/examples.md", "md_atom_type": "TABLE_ROW", "md_parent_section": "§MS.2 [Example 2]", "md_verbatim": "| 4 | ABC | MS | ABC-001-001 | STREPTOCOCCUS PNEUMONIAE | | 4 | SP01 | MICROSUS | Microbial Susceptibility | Penicillin | RESISTANT | | RESISTANT | | | | EPSILOMETER | 1 | VISIT 1 | 2005-06-19T08:00 |", "score": 0.2131, "match_basis": "verbatim_token+domain_route:MS"}], "candidate_count": 5, "zero_candidate": false}
{"pdf_atom_id": "ig34_p0253_a023", "pdf_atom_type": "TABLE_ROW", "pdf_source": "SDTMIG_v3.4", "pdf_page": 253, "pdf_parent_section": "§6.3.5.7.2 Microbiology Susceptibility (MS)", "pdf_verbatim": "| MSSTRESN | Numeric Result/Finding in Standard Units | Num | | Result Qualifier | Used for continuous or numeric results or findings in standard format; copied in numeric format from MSORRES or derived from MSSTRESC. MSSTRESN should store all numeric result values in numeric format. | Perm |", "figure_ref": null, "candidates": [{"md_atom_id": "md_dmMS_ex_a046", "md_file": "knowledge_base/domains/MS/examples.md", "md_atom_type": "TABLE_ROW", "md_parent_section": "§MS.3 [Example 3]", "md_verbatim": "| 3 | ABC | MS | ABC-01-101 | ABC765 | MYCOBACTERIUM TUBERCULOSIS | 3 | 100.2 | | MICROSUS | Microbial Susceptibility | Rifampicin | | | RESISTANT | RESISTANT | LAVAGE FLUID | STOMACH | NUCLEIC ACID AMPLIFICATION TEST | 2011-01-17T06:00 |", "score": 0.4246, "match_basis": "verbatim_token+domain_route:MS"}, {"md_atom_id": "md_dmMS_ex_a044", "md_file": "knowledge_base/domains/MS/examples.md", "md_atom_type": "TABLE_ROW", "md_parent_section": "§MS.3 [Example 3]", "md_verbatim": "| 1 | ABC | MS | ABC-01-101 | | MYCOBACTERIUM TUBERCULOSIS | 1 | 100.4 | 2 | MICROSUS | Microbial Susceptibility | Rifampicin | 1 | ug/mL | RESISTANT | RESISTANT | LAVAGE FLUID | STOMACH | ANTIBIOTIC AGAR SCREEN | 2011-01-17T06:00 |", "score": 0.4224, "match_basis": "verbatim_token+domain_route:MS"}, {"md_atom_id": "md_dmMS_ex_a028", "md_file": "knowledge_base/domains/MS/examples.md", "md_atom_type": "TABLE_ROW", "md_parent_section": "§MS.2 [Example 2]", "md_verbatim": "| 1 | ABC | MS | ABC-001-001 | STREPTOCOCCUS PNEUMONIAE | | 1 | SP01 | MIC | Minimum Inhibitory Concentration | Sponsor Drug | 0.004 | mg/L | 0.004 | 0.004 | mg/L | | EPSILOMETER | 1 | VISIT 1 | 2005-06-19T08:00 |", "score": 0.4203, "match_basis": "verbatim_token+domain_route:MS"}, {"md_atom_id": "md_dmMS_ex_a031", "md_file": "knowledge_base/domains/MS/examples.md", "md_atom_type": "TABLE_ROW", "md_parent_section": "§MS.2 [Example 2]", "md_verbatim": "| 4 | ABC | MS | ABC-001-001 | STREPTOCOCCUS PNEUMONIAE | | 4 | SP01 | MICROSUS | Microbial Susceptibility | Penicillin | RESISTANT | | RESISTANT | | | | EPSILOMETER | 1 | VISIT 1 | 2005-06-19T08:00 |", "score": 0.42, "match_basis": "verbatim_token+domain_route:MS"}, {"md_atom_id": "md_dmMS_ex_a010", "md_file": "knowledge_base/domains/MS/examples.md", "md_atom_type": "TABLE_ROW", "md_parent_section": "§MS.1 [Example 1]", "md_verbatim": "| 1 | ABC | MS | ABC-001-002 | ENTEROCOCCUS FAECALIS | 1 | 1 | SPEC01 | | MIC | Minimum Inhibitory Concentration | Sponsor Drug | 0.25 | ug/dL | 0.25 | ug/dL | | | | CENTRAL LAB ABC | EPSILOMETER | 2005-06-19T08:00 |", "score": 0.4166, "match_basis": "verbatim_token+domain_route:MS"}], "candidate_count": 5, "zero_candidate": false}
{"pdf_atom_id": "ig34_p0253_a024", "pdf_atom_type": "CODE_LITERAL", "pdf_source": "SDTMIG_v3.4", "pdf_page": 253, "pdf_parent_section": "§6.3.5.7.2 Microbiology Susceptibility (MS)", "pdf_verbatim": "MSSTRESN", "figure_ref": null, "candidates": [{"md_atom_id": "md_dmMS_ex_a027", "md_file": "knowledge_base/domains/MS/examples.md", "md_atom_type": "TABLE_HEADER", "md_parent_section": "§MS.2 [Example 2]", "md_verbatim": "| Row | STUDYID | DOMAIN | USUBJID | NHOID | MSGRPID | MSSEQ | MSREFID | MSTESTCD | MSTEST | MSAGENT | MSORRES | MSORRESU | MSSTRESC | MSSTRESN | MSSTRESU | MSNAM | MSMETHOD | VISITNUM | VISIT | MSDTC |\n|-----|---------|--------|---------|-------|---------|-------|---------|----------|--------|---------|---------|----------|----------|----------|----------|-------|----------|----------|-------|-------|", "score": 0.2407, "match_basis": "verbatim_token+domain_route:MS"}, {"md_atom_id": "md_dmMS_ex_a009", "md_file": "knowledge_base/domains/MS/examples.md", "md_atom_type": "TABLE_HEADER", "md_parent_section": "§MS.1 [Example 1]", "md_verbatim": "| Row | STUDYID | DOMAIN | USUBJID | NHOID | MSGRPID | MSSEQ | MSREFID | MSLNKGRP | MSTESTCD | MSTEST | MSAGENT | MSCONC | MSCONCU | MSORRES | MSORRESU | MSSTRESC | MSSTRESN | MSSTRESU | MSNAM | MSMETHOD | MSDTC |\n|-----|---------|--------|---------|-------|---------|-------|---------|----------|----------|--------|---------|--------|---------|---------|----------|----------|----------|----------|-------|----------|-------|", "score": 0.238, "match_basis": "verbatim_token+domain_route:MS"}, {"md_atom_id": "md_dmMS_ex_a043", "md_file": "knowledge_base/domains/MS/examples.md", "md_atom_type": "TABLE_HEADER", "md_parent_section": "§MS.3 [Example 3]", "md_verbatim": "| Row | STUDYID | DOMAIN | USUBJID | SPDEVID | NHOID | MSSEQ | MSREFID | MSLNKID | MSTESTCD | MSTEST | MSAGENT | MSCONC | MSCONCU | MSORRES | MSSTRESC | MSSPEC | MSLOC | MSMETHOD | MSDTC |\n|-----|---------|--------|---------|---------|-------|-------|---------|---------|----------|--------|---------|--------|---------|---------|----------|--------|-------|----------|-------|", "score": 0.2295, "match_basis": "verbatim_token+domain_route:MS"}, {"md_atom_id": "md_dmMS_assn_a005", "md_file": "knowledge_base/domains/MS/assumptions.md", "md_atom_type": "LIST_ITEM", "md_parent_section": "§MS [MS — Assumptions]", "md_verbatim": "      ii. For studies using quantitative testing methods, MSAGENT is used to represent the drug being tested; MSCONC and MSCONCU are not used. The concentration at which growth is inhibited is the result in these cases (MSORRES, MSSTRESC/MSSTRESN), with units being represented in MSORRESU/MSSTRESU.", "score": 0.2264, "match_basis": "verbatim_token+domain_route:MS"}, {"md_atom_id": "md_dmMS_ex_a031", "md_file": "knowledge_base/domains/MS/examples.md", "md_atom_type": "TABLE_ROW", "md_parent_section": "§MS.2 [Example 2]", "md_verbatim": "| 4 | ABC | MS | ABC-001-001 | STREPTOCOCCUS PNEUMONIAE | | 4 | SP01 | MICROSUS | Microbial Susceptibility | Penicillin | RESISTANT | | RESISTANT | | | | EPSILOMETER | 1 | VISIT 1 | 2005-06-19T08:00 |", "score": 0.2131, "match_basis": "verbatim_token+domain_route:MS"}], "candidate_count": 5, "zero_candidate": false}
{"pdf_atom_id": "ig34_p0253_a025", "pdf_atom_type": "TABLE_ROW", "pdf_source": "SDTMIG_v3.4", "pdf_page": 253, "pdf_parent_section": "§6.3.5.7.2 Microbiology Susceptibility (MS)", "pdf_verbatim": "| MSSTRESU | Standard Units | Char | (UNIT) | Variable Qualifier | Standardized units used for MSSTRESC and MSSTRESN. Example: \"mol/L\". | Perm |", "figure_ref": null, "candidates": [{"md_atom_id": "md_dmMS_ex_a046", "md_file": "knowledge_base/domains/MS/examples.md", "md_atom_type": "TABLE_ROW", "md_parent_section": "§MS.3 [Example 3]", "md_verbatim": "| 3 | ABC | MS | ABC-01-101 | ABC765 | MYCOBACTERIUM TUBERCULOSIS | 3 | 100.2 | | MICROSUS | Microbial Susceptibility | Rifampicin | | | RESISTANT | RESISTANT | LAVAGE FLUID | STOMACH | NUCLEIC ACID AMPLIFICATION TEST | 2011-01-17T06:00 |", "score": 0.4304, "match_basis": "verbatim_token+domain_route:MS"}, {"md_atom_id": "md_dmMS_ex_a031", "md_file": "knowledge_base/domains/MS/examples.md", "md_atom_type": "TABLE_ROW", "md_parent_section": "§MS.2 [Example 2]", "md_verbatim": "| 4 | ABC | MS | ABC-001-001 | STREPTOCOCCUS PNEUMONIAE | | 4 | SP01 | MICROSUS | Microbial Susceptibility | Penicillin | RESISTANT | | RESISTANT | | | | EPSILOMETER | 1 | VISIT 1 | 2005-06-19T08:00 |", "score": 0.4256, "match_basis": "verbatim_token+domain_route:MS"}, {"md_atom_id": "md_dmMS_ex_a047", "md_file": "knowledge_base/domains/MS/examples.md", "md_atom_type": "TABLE_ROW", "md_parent_section": "§MS.3 [Example 3]", "md_verbatim": "| 4 | ABC | MS | ABC-01-101 | ABC765 | MYCOBACTERIUM TUBERCULOSIS | 4 | 100.2 | | MICROSUS | Microbial Susceptibility | Isoniazid | | | SUSCEPTIBLE | SUSCEPTIBLE | LAVAGE FLUID | STOMACH | NUCLEIC ACID AMPLIFICATION TEST | 2011-01-17T06:00 |", "score": 0.4221, "match_basis": "verbatim_token+domain_route:MS"}, {"md_atom_id": "md_dmMS_ex_a013", "md_file": "knowledge_base/domains/MS/examples.md", "md_atom_type": "TABLE_ROW", "md_parent_section": "§MS.1 [Example 1]", "md_verbatim": "| 4 | ABC | MS | ABC-001-002 | ENTEROCOCCUS FAECALIS | 2 | 4 | SPEC01 | | MICROSUS | Microbial Susceptibility | Amoxicillin | | | RESISTANT | | RESISTANT | | | CENTRAL LAB ABC | EPSILOMETER | 2005-06-19T08:00 |", "score": 0.4198, "match_basis": "verbatim_token+domain_route:MS"}, {"md_atom_id": "md_dmMS_ex_a019", "md_file": "knowledge_base/domains/MS/examples.md", "md_atom_type": "TABLE_ROW", "md_parent_section": "§MS.1 [Example 1]", "md_verbatim": "| 10 | ABC | MS | ABC-001-002 | ENTEROCOCCUS FAECALIS | 4 | 10 | SPEC01 | 2 | MICROSUS | Microbial Susceptibility | Amoxicillin | | | RESISTANT | | RESISTANT | | | LOCAL LAB XYZ | DISK DIFFUSION | 2005-06-19T08:00 |", "score": 0.4198, "match_basis": "verbatim_token+domain_route:MS"}], "candidate_count": 5, "zero_candidate": false}
{"pdf_atom_id": "ig34_p0253_a026", "pdf_atom_type": "CODE_LITERAL", "pdf_source": "SDTMIG_v3.4", "pdf_page": 253, "pdf_parent_section": "§6.3.5.7.2 Microbiology Susceptibility (MS)", "pdf_verbatim": "MSSTRESU", "figure_ref": null, "candidates": [{"md_atom_id": "md_dmMS_ex_a027", "md_file": "knowledge_base/domains/MS/examples.md", "md_atom_type": "TABLE_HEADER", "md_parent_section": "§MS.2 [Example 2]", "md_verbatim": "| Row | STUDYID | DOMAIN | USUBJID | NHOID | MSGRPID | MSSEQ | MSREFID | MSTESTCD | MSTEST | MSAGENT | MSORRES | MSORRESU | MSSTRESC | MSSTRESN | MSSTRESU | MSNAM | MSMETHOD | VISITNUM | VISIT | MSDTC |\n|-----|---------|--------|---------|-------|---------|-------|---------|----------|--------|---------|---------|----------|----------|----------|----------|-------|----------|----------|-------|-------|", "score": 0.2407, "match_basis": "verbatim_token+domain_route:MS"}, {"md_atom_id": "md_dmMS_ex_a009", "md_file": "knowledge_base/domains/MS/examples.md", "md_atom_type": "TABLE_HEADER", "md_parent_section": "§MS.1 [Example 1]", "md_verbatim": "| Row | STUDYID | DOMAIN | USUBJID | NHOID | MSGRPID | MSSEQ | MSREFID | MSLNKGRP | MSTESTCD | MSTEST | MSAGENT | MSCONC | MSCONCU | MSORRES | MSORRESU | MSSTRESC | MSSTRESN | MSSTRESU | MSNAM | MSMETHOD | MSDTC |\n|-----|---------|--------|---------|-------|---------|-------|---------|----------|----------|--------|---------|--------|---------|---------|----------|----------|----------|----------|-------|----------|-------|", "score": 0.238, "match_basis": "verbatim_token+domain_route:MS"}, {"md_atom_id": "md_dmMS_ex_a043", "md_file": "knowledge_base/domains/MS/examples.md", "md_atom_type": "TABLE_HEADER", "md_parent_section": "§MS.3 [Example 3]", "md_verbatim": "| Row | STUDYID | DOMAIN | USUBJID | SPDEVID | NHOID | MSSEQ | MSREFID | MSLNKID | MSTESTCD | MSTEST | MSAGENT | MSCONC | MSCONCU | MSORRES | MSSTRESC | MSSPEC | MSLOC | MSMETHOD | MSDTC |\n|-----|---------|--------|---------|---------|-------|-------|---------|---------|----------|--------|---------|--------|---------|---------|----------|--------|-------|----------|-------|", "score": 0.2295, "match_basis": "verbatim_token+domain_route:MS"}, {"md_atom_id": "md_dmMS_assn_a005", "md_file": "knowledge_base/domains/MS/assumptions.md", "md_atom_type": "LIST_ITEM", "md_parent_section": "§MS [MS — Assumptions]", "md_verbatim": "      ii. For studies using quantitative testing methods, MSAGENT is used to represent the drug being tested; MSCONC and MSCONCU are not used. The concentration at which growth is inhibited is the result in these cases (MSORRES, MSSTRESC/MSSTRESN), with units being represented in MSORRESU/MSSTRESU.", "score": 0.2264, "match_basis": "verbatim_token+domain_route:MS"}, {"md_atom_id": "md_dmMS_ex_a021", "md_file": "knowledge_base/domains/MS/examples.md", "md_atom_type": "SENTENCE", "md_parent_section": "§MS.2 [Example 2]", "md_verbatim": "Susceptibility testing results from the sputum multi-visit study (see MB Example 2).", "score": 0.2155, "match_basis": "verbatim_token+domain_route:MS"}], "candidate_count": 5, "zero_candidate": false}
{"pdf_atom_id": "ig34_p0253_a027", "pdf_atom_type": "TABLE_ROW", "pdf_source": "SDTMIG_v3.4", "pdf_page": 253, "pdf_parent_section": "§6.3.5.7.2 Microbiology Susceptibility (MS)", "pdf_verbatim": "| MSNRIND | Normal/Reference Range Indicator | Char | (NRIND) | Variable Qualifier | Used to indicate the value is outside the normal range or reference range. May be defined by MSLLOQ and MSULOQ. Examples: \"Y\", \"HIGH\", \"LOW\". | Perm |", "figure_ref": null, "candidates": [{"md_atom_id": "md_dmMS_ex_a047", "md_file": "knowledge_base/domains/MS/examples.md", "md_atom_type": "TABLE_ROW", "md_parent_section": "§MS.3 [Example 3]", "md_verbatim": "| 4 | ABC | MS | ABC-01-101 | ABC765 | MYCOBACTERIUM TUBERCULOSIS | 4 | 100.2 | | MICROSUS | Microbial Susceptibility | Isoniazid | | | SUSCEPTIBLE | SUSCEPTIBLE | LAVAGE FLUID | STOMACH | NUCLEIC ACID AMPLIFICATION TEST | 2011-01-17T06:00 |", "score": 0.4294, "match_basis": "verbatim_token+domain_route:MS"}, {"md_atom_id": "md_dmMS_ex_a046", "md_file": "knowledge_base/domains/MS/examples.md", "md_atom_type": "TABLE_ROW", "md_parent_section": "§MS.3 [Example 3]", "md_verbatim": "| 3 | ABC | MS | ABC-01-101 | ABC765 | MYCOBACTERIUM TUBERCULOSIS | 3 | 100.2 | | MICROSUS | Microbial Susceptibility | Rifampicin | | | RESISTANT | RESISTANT | LAVAGE FLUID | STOMACH | NUCLEIC ACID AMPLIFICATION TEST | 2011-01-17T06:00 |", "score": 0.425, "match_basis": "verbatim_token+domain_route:MS"}, {"md_atom_id": "md_dmMS_ex_a050", "md_file": "knowledge_base/domains/MS/examples.md", "md_atom_type": "TABLE_ROW", "md_parent_section": "§MS.3 [Example 3]", "md_verbatim": "| 1 | ABC | MS | ABC-01-101 | MBREFID | 100.4 | MSMEDTYPE | Medium Type | LOWENSTEIN-JENSEN | Collected |", "score": 0.4164, "match_basis": "verbatim_token+domain_route:MS"}, {"md_atom_id": "md_dmMS_ex_a051", "md_file": "knowledge_base/domains/MS/examples.md", "md_atom_type": "TABLE_ROW", "md_parent_section": "§MS.3 [Example 3]", "md_verbatim": "| 2 | ABC | MS | ABC-01-101 | MBREFID | 100.5 | MSMEDTYPE | Medium Type | LOWENSTEIN-JENSEN | Collected |", "score": 0.4164, "match_basis": "verbatim_token+domain_route:MS"}, {"md_atom_id": "md_dmMS_ex_a010", "md_file": "knowledge_base/domains/MS/examples.md", "md_atom_type": "TABLE_ROW", "md_parent_section": "§MS.1 [Example 1]", "md_verbatim": "| 1 | ABC | MS | ABC-001-002 | ENTEROCOCCUS FAECALIS | 1 | 1 | SPEC01 | | MIC | Minimum Inhibitory Concentration | Sponsor Drug | 0.25 | ug/dL | 0.25 | ug/dL | | | | CENTRAL LAB ABC | EPSILOMETER | 2005-06-19T08:00 |", "score": 0.4126, "match_basis": "verbatim_token+domain_route:MS"}], "candidate_count": 5, "zero_candidate": false}
{"pdf_atom_id": "ig34_p0253_a028", "pdf_atom_type": "CODE_LITERAL", "pdf_source": "SDTMIG_v3.4", "pdf_page": 253, "pdf_parent_section": "§6.3.5.7.2 Microbiology Susceptibility (MS)", "pdf_verbatim": "MSNRIND", "figure_ref": null, "candidates": [{"md_atom_id": "md_dmMS_ex_a027", "md_file": "knowledge_base/domains/MS/examples.md", "md_atom_type": "TABLE_HEADER", "md_parent_section": "§MS.2 [Example 2]", "md_verbatim": "| Row | STUDYID | DOMAIN | USUBJID | NHOID | MSGRPID | MSSEQ | MSREFID | MSTESTCD | MSTEST | MSAGENT | MSORRES | MSORRESU | MSSTRESC | MSSTRESN | MSSTRESU | MSNAM | MSMETHOD | VISITNUM | VISIT | MSDTC |\n|-----|---------|--------|---------|-------|---------|-------|---------|----------|--------|---------|---------|----------|----------|----------|----------|-------|----------|----------|-------|-------|", "score": 0.198, "match_basis": "verbatim_token+domain_route:MS"}, {"md_atom_id": "md_dmMS_ex_a009", "md_file": "knowledge_base/domains/MS/examples.md", "md_atom_type": "TABLE_HEADER", "md_parent_section": "§MS.1 [Example 1]", "md_verbatim": "| Row | STUDYID | DOMAIN | USUBJID | NHOID | MSGRPID | MSSEQ | MSREFID | MSLNKGRP | MSTESTCD | MSTEST | MSAGENT | MSCONC | MSCONCU | MSORRES | MSORRESU | MSSTRESC | MSSTRESN | MSSTRESU | MSNAM | MSMETHOD | MSDTC |\n|-----|---------|--------|---------|-------|---------|-------|---------|----------|----------|--------|---------|--------|---------|---------|----------|----------|----------|----------|-------|----------|-------|", "score": 0.1976, "match_basis": "verbatim_token+domain_route:MS"}, {"md_atom_id": "md_dmMS_assn_a014", "md_file": "knowledge_base/domains/MS/assumptions.md", "md_atom_type": "LIST_ITEM", "md_parent_section": "§MS [MS — Assumptions]", "md_verbatim": "5. Any Identifiers, Timing variables, or Findings general observation class qualifiers may be added to the MS domain, but the following variables would not generally be used: --MODIFY, --BODSYS, --TOX, --TOXGR --SEV.", "score": 0.1969, "match_basis": "verbatim_token+domain_route:MS"}, {"md_atom_id": "md_dmMS_ex_a024", "md_file": "knowledge_base/domains/MS/examples.md", "md_atom_type": "SENTENCE", "md_parent_section": "§MS.2 [Example 2]", "md_verbatim": "**Rows 5-8:** Similar to rows 1-4, the sponsor drug (rows 5-6) and penicillin (rows 7-8) were tested against \"KLEBSIELLA PNEUMONIAE\" from an additional sample at a later time point. Results from these tests indicated that the organism was susceptible to sponsor drug, yet had intermediate resistance to penicillin.", "score": 0.1948, "match_basis": "verbatim_token+domain_route:MS"}, {"md_atom_id": "md_dmMS_assn_a007", "md_file": "knowledge_base/domains/MS/assumptions.md", "md_atom_type": "LIST_ITEM", "md_parent_section": "§MS [MS — Assumptions]", "md_verbatim": "   b. Genetic tests that provide results in terms of susceptible/resistant only (e.g., nucleic acid amplification tests (NAAT)). Genotypic tests that provide results in terms of specific changes to nucleotides, codons, or amino acids of genes/gene products associated with resistance should be represented in the Genomic Findings (GF) domain, as that domain structure contains the variables necessary to accommodate data of this type. If a test provides both mutation data and susceptibility data, the mutation results should be represented in GF and the susceptibility information should be represented in MS. In these cases, the GF records should be linked via RELREC to susceptibility records in MS.", "score": 0.1929, "match_basis": "verbatim_token+domain_route:MS"}, {"md_atom_id": "md_dmMS_assn_a001", "md_file": "knowledge_base/domains/MS/assumptions.md", "md_atom_type": "HEADING", "md_parent_section": "§MS [MS — Assumptions]", "md_verbatim": "# MS — Assumptions", "score": 0.19, "match_basis": "verbatim_token+domain_route:MS"}, {"md_atom_id": "md_dmMS_assn_a002", "md_file": "knowledge_base/domains/MS/assumptions.md", "md_atom_type": "LIST_ITEM", "md_parent_section": "§MS [MS — Assumptions]", "md_verbatim": "1. Microbiology Susceptibility testing includes testing of the following types:", "score": 0.19, "match_basis": "verbatim_token+domain_route:MS"}, {"md_atom_id": "md_dmMS_assn_a003", "md_file": "knowledge_base/domains/MS/assumptions.md", "md_atom_type": "LIST_ITEM", "md_parent_section": "§MS [MS — Assumptions]", "md_verbatim": "   a. Phenotypic drug susceptibility testing (qualitative), which may involve determining susceptibility/resistance (qualitative) at a predefined concentration of drug, or determining a specific dose (quantitative) at which a drug inhibits organism growth or some other process associated with virulence.", "score": 0.19, "match_basis": "verbatim_token+domain_route:MS"}, {"md_atom_id": "md_dmMS_assn_a004", "md_file": "knowledge_base/domains/MS/assumptions.md", "md_atom_type": "LIST_ITEM", "md_parent_section": "§MS [MS — Assumptions]", "md_verbatim": "      i. For studies using qualitative testing methods, MSAGENT, MSCONC, and MSCONCU are used to represent the predefined drug, concentration, and units, respectively. Results are represented with values such as \"SUSCEPTIBLE\" or \"RESISTANT\".", "score": 0.19, "match_basis": "verbatim_token+domain_route:MS"}, {"md_atom_id": "md_dmMS_assn_a005", "md_file": "knowledge_base/domains/MS/assumptions.md", "md_atom_type": "LIST_ITEM", "md_parent_section": "§MS [MS — Assumptions]", "md_verbatim": "      ii. For studies using quantitative testing methods, MSAGENT is used to represent the drug being tested; MSCONC and MSCONCU are not used. The concentration at which growth is inhibited is the result in these cases (MSORRES, MSSTRESC/MSSTRESN), with units being represented in MSORRESU/MSSTRESU.", "score": 0.19, "match_basis": "verbatim_token+domain_route:MS"}], "candidate_count": 10, "zero_candidate": false}
{"pdf_atom_id": "ig34_p0253_a029", "pdf_atom_type": "TABLE_ROW", "pdf_source": "SDTMIG_v3.4", "pdf_page": 253, "pdf_parent_section": "§6.3.5.7.2 Microbiology Susceptibility (MS)", "pdf_verbatim": "| MSRESCAT | Result Category | Char | (MSRESCAT) | Variable Qualifier | Used to categorize the result of a finding. In SDTMIG v3.2, MSRESCAT was used to categorize a numeric susceptibility result represented in MSORRES as either \"SUSCEPTIBLE\", \"INTERMEDIATE\", or \"RESISTANT\". However, results from some susceptibility tests may report only a categorical result and not a numeric result. Thus, in order for susceptibility results to be represented consistently, MSRESCAT should no longer be used for this purpose. In this version, the core designation has been changed from Expected to Permissible. | Perm |", "figure_ref": null, "candidates": [{"md_atom_id": "md_dmMS_ex_a046", "md_file": "knowledge_base/domains/MS/examples.md", "md_atom_type": "TABLE_ROW", "md_parent_section": "§MS.3 [Example 3]", "md_verbatim": "| 3 | ABC | MS | ABC-01-101 | ABC765 | MYCOBACTERIUM TUBERCULOSIS | 3 | 100.2 | | MICROSUS | Microbial Susceptibility | Rifampicin | | | RESISTANT | RESISTANT | LAVAGE FLUID | STOMACH | NUCLEIC ACID AMPLIFICATION TEST | 2011-01-17T06:00 |", "score": 0.4775, "match_basis": "verbatim_token+domain_route:MS"}, {"md_atom_id": "md_dmMS_ex_a019", "md_file": "knowledge_base/domains/MS/examples.md", "md_atom_type": "TABLE_ROW", "md_parent_section": "§MS.1 [Example 1]", "md_verbatim": "| 10 | ABC | MS | ABC-001-002 | ENTEROCOCCUS FAECALIS | 4 | 10 | SPEC01 | 2 | MICROSUS | Microbial Susceptibility | Amoxicillin | | | RESISTANT | | RESISTANT | | | LOCAL LAB XYZ | DISK DIFFUSION | 2005-06-19T08:00 |", "score": 0.4723, "match_basis": "verbatim_token+domain_route:MS"}, {"md_atom_id": "md_dmMS_ex_a015", "md_file": "knowledge_base/domains/MS/examples.md", "md_atom_type": "TABLE_ROW", "md_parent_section": "§MS.1 [Example 1]", "md_verbatim": "| 6 | ABC | MS | ABC-001-002 | ENTEROCOCCUS FAECALIS | | 6 | SPEC01 | 2 | MICROSUS | Microbial Susceptibility | Amoxicillin | 0.5 | ug/dL | RESISTANT | | RESISTANT | | | LOCAL LAB XYZ | MACRO BROTH DILUTION | 2005-06-19T08:00 |", "score": 0.4717, "match_basis": "verbatim_token+domain_route:MS"}, {"md_atom_id": "md_dmMS_ex_a013", "md_file": "knowledge_base/domains/MS/examples.md", "md_atom_type": "TABLE_ROW", "md_parent_section": "§MS.1 [Example 1]", "md_verbatim": "| 4 | ABC | MS | ABC-001-002 | ENTEROCOCCUS FAECALIS | 2 | 4 | SPEC01 | | MICROSUS | Microbial Susceptibility | Amoxicillin | | | RESISTANT | | RESISTANT | | | CENTRAL LAB ABC | EPSILOMETER | 2005-06-19T08:00 |", "score": 0.4693, "match_basis": "verbatim_token+domain_route:MS"}, {"md_atom_id": "md_dmMS_ex_a047", "md_file": "knowledge_base/domains/MS/examples.md", "md_atom_type": "TABLE_ROW", "md_parent_section": "§MS.3 [Example 3]", "md_verbatim": "| 4 | ABC | MS | ABC-01-101 | ABC765 | MYCOBACTERIUM TUBERCULOSIS | 4 | 100.2 | | MICROSUS | Microbial Susceptibility | Isoniazid | | | SUSCEPTIBLE | SUSCEPTIBLE | LAVAGE FLUID | STOMACH | NUCLEIC ACID AMPLIFICATION TEST | 2011-01-17T06:00 |", "score": 0.4675, "match_basis": "verbatim_token+domain_route:MS"}], "candidate_count": 5, "zero_candidate": false}
{"pdf_atom_id": "ig34_p0253_a030", "pdf_atom_type": "CODE_LITERAL", "pdf_source": "SDTMIG_v3.4", "pdf_page": 253, "pdf_parent_section": "§6.3.5.7.2 Microbiology Susceptibility (MS)", "pdf_verbatim": "MSRESCAT", "figure_ref": null, "candidates": [{"md_atom_id": "md_dmMS_assn_a011", "md_file": "knowledge_base/domains/MS/assumptions.md", "md_atom_type": "LIST_ITEM", "md_parent_section": "§MS [MS — Assumptions]", "md_verbatim": "   a. Culture dates can be connected to the MS record via MSREFID and BEREFID.", "score": 0.2253, "match_basis": "verbatim_token+domain_route:MS"}, {"md_atom_id": "md_dmMS_ex_a027", "md_file": "knowledge_base/domains/MS/examples.md", "md_atom_type": "TABLE_HEADER", "md_parent_section": "§MS.2 [Example 2]", "md_verbatim": "| Row | STUDYID | DOMAIN | USUBJID | NHOID | MSGRPID | MSSEQ | MSREFID | MSTESTCD | MSTEST | MSAGENT | MSORRES | MSORRESU | MSSTRESC | MSSTRESN | MSSTRESU | MSNAM | MSMETHOD | VISITNUM | VISIT | MSDTC |\n|-----|---------|--------|---------|-------|---------|-------|---------|----------|--------|---------|---------|----------|----------|----------|----------|-------|----------|----------|-------|-------|", "score": 0.2229, "match_basis": "verbatim_token+domain_route:MS"}, {"md_atom_id": "md_dmMS_ex_a009", "md_file": "knowledge_base/domains/MS/examples.md", "md_atom_type": "TABLE_HEADER", "md_parent_section": "§MS.1 [Example 1]", "md_verbatim": "| Row | STUDYID | DOMAIN | USUBJID | NHOID | MSGRPID | MSSEQ | MSREFID | MSLNKGRP | MSTESTCD | MSTEST | MSAGENT | MSCONC | MSCONCU | MSORRES | MSORRESU | MSSTRESC | MSSTRESN | MSSTRESU | MSNAM | MSMETHOD | MSDTC |\n|-----|---------|--------|---------|-------|---------|-------|---------|----------|----------|--------|---------|--------|---------|---------|----------|----------|----------|----------|-------|----------|-------|", "score": 0.2212, "match_basis": "verbatim_token+domain_route:MS"}, {"md_atom_id": "md_dmMS_ex_a043", "md_file": "knowledge_base/domains/MS/examples.md", "md_atom_type": "TABLE_HEADER", "md_parent_section": "§MS.3 [Example 3]", "md_verbatim": "| Row | STUDYID | DOMAIN | USUBJID | SPDEVID | NHOID | MSSEQ | MSREFID | MSLNKID | MSTESTCD | MSTEST | MSAGENT | MSCONC | MSCONCU | MSORRES | MSSTRESC | MSSPEC | MSLOC | MSMETHOD | MSDTC |\n|-----|---------|--------|---------|---------|-------|-------|---------|---------|----------|--------|---------|--------|---------|---------|----------|--------|-------|----------|-------|", "score": 0.2212, "match_basis": "verbatim_token+domain_route:MS"}, {"md_atom_id": "md_dmMS_assn_a009", "md_file": "knowledge_base/domains/MS/assumptions.md", "md_atom_type": "LIST_ITEM", "md_parent_section": "§MS [MS — Assumptions]", "md_verbatim": "2. MSDTC represents the date the specimen was collected.", "score": 0.2082, "match_basis": "verbatim_token+domain_route:MS"}], "candidate_count": 5, "zero_candidate": false}
{"pdf_atom_id": "ig34_p0253_a031", "pdf_atom_type": "TABLE_ROW", "pdf_source": "SDTMIG_v3.4", "pdf_page": 253, "pdf_parent_section": "§6.3.5.7.2 Microbiology Susceptibility (MS)", "pdf_verbatim": "| MSSTAT | Completion Status | Char | (ND) | Record Qualifier | Used to indicate that a question was not asked or a test was not done, a test was attempted but did not generate a result. Should be null or have a value of \"NOT DONE\". | Perm |", "figure_ref": null, "candidates": [{"md_atom_id": "md_dmMS_ex_a046", "md_file": "knowledge_base/domains/MS/examples.md", "md_atom_type": "TABLE_ROW", "md_parent_section": "§MS.3 [Example 3]", "md_verbatim": "| 3 | ABC | MS | ABC-01-101 | ABC765 | MYCOBACTERIUM TUBERCULOSIS | 3 | 100.2 | | MICROSUS | Microbial Susceptibility | Rifampicin | | | RESISTANT | RESISTANT | LAVAGE FLUID | STOMACH | NUCLEIC ACID AMPLIFICATION TEST | 2011-01-17T06:00 |", "score": 0.4395, "match_basis": "verbatim_token+domain_route:MS"}, {"md_atom_id": "md_dmMS_ex_a047", "md_file": "knowledge_base/domains/MS/examples.md", "md_atom_type": "TABLE_ROW", "md_parent_section": "§MS.3 [Example 3]", "md_verbatim": "| 4 | ABC | MS | ABC-01-101 | ABC765 | MYCOBACTERIUM TUBERCULOSIS | 4 | 100.2 | | MICROSUS | Microbial Susceptibility | Isoniazid | | | SUSCEPTIBLE | SUSCEPTIBLE | LAVAGE FLUID | STOMACH | NUCLEIC ACID AMPLIFICATION TEST | 2011-01-17T06:00 |", "score": 0.4327, "match_basis": "verbatim_token+domain_route:MS"}, {"md_atom_id": "md_dmMS_ex_a015", "md_file": "knowledge_base/domains/MS/examples.md", "md_atom_type": "TABLE_ROW", "md_parent_section": "§MS.1 [Example 1]", "md_verbatim": "| 6 | ABC | MS | ABC-001-002 | ENTEROCOCCUS FAECALIS | | 6 | SPEC01 | 2 | MICROSUS | Microbial Susceptibility | Amoxicillin | 0.5 | ug/dL | RESISTANT | | RESISTANT | | | LOCAL LAB XYZ | MACRO BROTH DILUTION | 2005-06-19T08:00 |", "score": 0.4194, "match_basis": "verbatim_token+domain_route:MS"}, {"md_atom_id": "md_dmMS_ex_a016", "md_file": "knowledge_base/domains/MS/examples.md", "md_atom_type": "TABLE_ROW", "md_parent_section": "§MS.1 [Example 1]", "md_verbatim": "| 7 | ABC | MS | ABC-001-002 | ENTEROCOCCUS FAECALIS | 3 | 7 | SPEC01 | 2 | DIAZOINH | Diameter of the Zone of Inhibition | Sponsor Drug | | | 23 | mm | 23 | 23 | mm | LOCAL LAB XYZ | DISK DIFFUSION | 2005-06-19T08:00 |", "score": 0.4168, "match_basis": "verbatim_token+domain_route:MS"}, {"md_atom_id": "md_dmMS_ex_a010", "md_file": "knowledge_base/domains/MS/examples.md", "md_atom_type": "TABLE_ROW", "md_parent_section": "§MS.1 [Example 1]", "md_verbatim": "| 1 | ABC | MS | ABC-001-002 | ENTEROCOCCUS FAECALIS | 1 | 1 | SPEC01 | | MIC | Minimum Inhibitory Concentration | Sponsor Drug | 0.25 | ug/dL | 0.25 | ug/dL | | | | CENTRAL LAB ABC | EPSILOMETER | 2005-06-19T08:00 |", "score": 0.4166, "match_basis": "verbatim_token+domain_route:MS"}], "candidate_count": 5, "zero_candidate": false}
{"pdf_atom_id": "ig34_p0253_a032", "pdf_atom_type": "CODE_LITERAL", "pdf_source": "SDTMIG_v3.4", "pdf_page": 253, "pdf_parent_section": "§6.3.5.7.2 Microbiology Susceptibility (MS)", "pdf_verbatim": "MSSTAT", "figure_ref": null, "candidates": [{"md_atom_id": "md_dmMS_assn_a005", "md_file": "knowledge_base/domains/MS/assumptions.md", "md_atom_type": "LIST_ITEM", "md_parent_section": "§MS [MS — Assumptions]", "md_verbatim": "      ii. For studies using quantitative testing methods, MSAGENT is used to represent the drug being tested; MSCONC and MSCONCU are not used. The concentration at which growth is inhibited is the result in these cases (MSORRES, MSSTRESC/MSSTRESN), with units being represented in MSORRESU/MSSTRESU.", "score": 0.208, "match_basis": "verbatim_token+domain_route:MS"}, {"md_atom_id": "md_dmMS_ex_a027", "md_file": "knowledge_base/domains/MS/examples.md", "md_atom_type": "TABLE_HEADER", "md_parent_section": "§MS.2 [Example 2]", "md_verbatim": "| Row | STUDYID | DOMAIN | USUBJID | NHOID | MSGRPID | MSSEQ | MSREFID | MSTESTCD | MSTEST | MSAGENT | MSORRES | MSORRESU | MSSTRESC | MSSTRESN | MSSTRESU | MSNAM | MSMETHOD | VISITNUM | VISIT | MSDTC |\n|-----|---------|--------|---------|-------|---------|-------|---------|----------|--------|---------|---------|----------|----------|----------|----------|-------|----------|----------|-------|-------|", "score": 0.2064, "match_basis": "verbatim_token+domain_route:MS"}, {"md_atom_id": "md_dmMS_ex_a009", "md_file": "knowledge_base/domains/MS/examples.md", "md_atom_type": "TABLE_HEADER", "md_parent_section": "§MS.1 [Example 1]", "md_verbatim": "| Row | STUDYID | DOMAIN | USUBJID | NHOID | MSGRPID | MSSEQ | MSREFID | MSLNKGRP | MSTESTCD | MSTEST | MSAGENT | MSCONC | MSCONCU | MSORRES | MSORRESU | MSSTRESC | MSSTRESN | MSSTRESU | MSNAM | MSMETHOD | MSDTC |\n|-----|---------|--------|---------|-------|---------|-------|---------|----------|----------|--------|---------|--------|---------|---------|----------|----------|----------|----------|-------|----------|-------|", "score": 0.2056, "match_basis": "verbatim_token+domain_route:MS"}, {"md_atom_id": "md_dmMS_ex_a043", "md_file": "knowledge_base/domains/MS/examples.md", "md_atom_type": "TABLE_HEADER", "md_parent_section": "§MS.3 [Example 3]", "md_verbatim": "| Row | STUDYID | DOMAIN | USUBJID | SPDEVID | NHOID | MSSEQ | MSREFID | MSLNKID | MSTESTCD | MSTEST | MSAGENT | MSCONC | MSCONCU | MSORRES | MSSTRESC | MSSPEC | MSLOC | MSMETHOD | MSDTC |\n|-----|---------|--------|---------|---------|-------|-------|---------|---------|----------|--------|---------|--------|---------|---------|----------|--------|-------|----------|-------|", "score": 0.2056, "match_basis": "verbatim_token+domain_route:MS"}, {"md_atom_id": "md_dmMS_assn_a004", "md_file": "knowledge_base/domains/MS/assumptions.md", "md_atom_type": "LIST_ITEM", "md_parent_section": "§MS [MS — Assumptions]", "md_verbatim": "      i. For studies using qualitative testing methods, MSAGENT, MSCONC, and MSCONCU are used to represent the predefined drug, concentration, and units, respectively. Results are represented with values such as \"SUSCEPTIBLE\" or \"RESISTANT\".", "score": 0.2014, "match_basis": "verbatim_token+domain_route:MS"}, {"md_atom_id": "md_dmMS_assn_a008", "md_file": "knowledge_base/domains/MS/assumptions.md", "md_atom_type": "LIST_ITEM", "md_parent_section": "§MS [MS — Assumptions]", "md_verbatim": "   c. CDISC Controlled Terminology Rules for Microbiology (MB/MS) domains are available at https://www.cdisc.org/standards/terminology/controlled-terminology.", "score": 0.2002, "match_basis": "verbatim_token+domain_route:MS"}, {"md_atom_id": "md_dmMS_assn_a003", "md_file": "knowledge_base/domains/MS/assumptions.md", "md_atom_type": "LIST_ITEM", "md_parent_section": "§MS [MS — Assumptions]", "md_verbatim": "   a. Phenotypic drug susceptibility testing (qualitative), which may involve determining susceptibility/resistance (qualitative) at a predefined concentration of drug, or determining a specific dose (quantitative) at which a drug inhibits organism growth or some other process associated with virulence.", "score": 0.1991, "match_basis": "verbatim_token+domain_route:MS"}, {"md_atom_id": "md_dmMS_ex_a006", "md_file": "knowledge_base/domains/MS/examples.md", "md_atom_type": "SENTENCE", "md_parent_section": "§MS.1 [Example 1]", "md_verbatim": "**Rows 5-6:** Show that Local Lab XYZ found that the sample was susceptible to the sponsor drug at a concentration of 0.5 ug/dL and resistant to amoxicillin at a concentration of 0.5 ug/dL.", "score": 0.199, "match_basis": "verbatim_token+domain_route:MS"}, {"md_atom_id": "md_dmMS_ex_a041", "md_file": "knowledge_base/domains/MS/examples.md", "md_atom_type": "SENTENCE", "md_parent_section": "§MS.3 [Example 3]", "md_verbatim": "**Rows 3-4:** Show genotypic susceptibility testing results on the same aliquot from a NAAT that looks for mutations that confer resistance to 2 drugs. MSAGENT should be populated with the name of the drug whose action is affected by the mutation being tested for. However, because the drug is not used in the test, MSCONC and MSCONCU should be null. These results are represented in MS because the only result given is in terms of resistant/susceptible; no genetic results are reported.", "score": 0.1981, "match_basis": "verbatim_token+domain_route:MS"}, {"md_atom_id": "md_dmMS_ex_a031", "md_file": "knowledge_base/domains/MS/examples.md", "md_atom_type": "TABLE_ROW", "md_parent_section": "§MS.2 [Example 2]", "md_verbatim": "| 4 | ABC | MS | ABC-001-001 | STREPTOCOCCUS PNEUMONIAE | | 4 | SP01 | MICROSUS | Microbial Susceptibility | Penicillin | RESISTANT | | RESISTANT | | | | EPSILOMETER | 1 | VISIT 1 | 2005-06-19T08:00 |", "score": 0.1977, "match_basis": "verbatim_token+domain_route:MS"}], "candidate_count": 10, "zero_candidate": false}
{"pdf_atom_id": "ig34_p0253_a033", "pdf_atom_type": "TABLE_ROW", "pdf_source": "SDTMIG_v3.4", "pdf_page": 253, "pdf_parent_section": "§6.3.5.7.2 Microbiology Susceptibility (MS)", "pdf_verbatim": "| MSREASND | Reason Not Done | Char | | Record Qualifier | Reason not done. Used in conjunction with MSSTAT when value is \"NOT DONE\". | Perm |", "figure_ref": null, "candidates": [{"md_atom_id": "md_dmMS_ex_a047", "md_file": "knowledge_base/domains/MS/examples.md", "md_atom_type": "TABLE_ROW", "md_parent_section": "§MS.3 [Example 3]", "md_verbatim": "| 4 | ABC | MS | ABC-01-101 | ABC765 | MYCOBACTERIUM TUBERCULOSIS | 4 | 100.2 | | MICROSUS | Microbial Susceptibility | Isoniazid | | | SUSCEPTIBLE | SUSCEPTIBLE | LAVAGE FLUID | STOMACH | NUCLEIC ACID AMPLIFICATION TEST | 2011-01-17T06:00 |", "score": 0.4219, "match_basis": "verbatim_token+domain_route:MS"}, {"md_atom_id": "md_dmMS_ex_a016", "md_file": "knowledge_base/domains/MS/examples.md", "md_atom_type": "TABLE_ROW", "md_parent_section": "§MS.1 [Example 1]", "md_verbatim": "| 7 | ABC | MS | ABC-001-002 | ENTEROCOCCUS FAECALIS | 3 | 7 | SPEC01 | 2 | DIAZOINH | Diameter of the Zone of Inhibition | Sponsor Drug | | | 23 | mm | 23 | 23 | mm | LOCAL LAB XYZ | DISK DIFFUSION | 2005-06-19T08:00 |", "score": 0.4216, "match_basis": "verbatim_token+domain_route:MS"}, {"md_atom_id": "md_dmMS_ex_a046", "md_file": "knowledge_base/domains/MS/examples.md", "md_atom_type": "TABLE_ROW", "md_parent_section": "§MS.3 [Example 3]", "md_verbatim": "| 3 | ABC | MS | ABC-01-101 | ABC765 | MYCOBACTERIUM TUBERCULOSIS | 3 | 100.2 | | MICROSUS | Microbial Susceptibility | Rifampicin | | | RESISTANT | RESISTANT | LAVAGE FLUID | STOMACH | NUCLEIC ACID AMPLIFICATION TEST | 2011-01-17T06:00 |", "score": 0.4213, "match_basis": "verbatim_token+domain_route:MS"}, {"md_atom_id": "md_dmMS_ex_a010", "md_file": "knowledge_base/domains/MS/examples.md", "md_atom_type": "TABLE_ROW", "md_parent_section": "§MS.1 [Example 1]", "md_verbatim": "| 1 | ABC | MS | ABC-001-002 | ENTEROCOCCUS FAECALIS | 1 | 1 | SPEC01 | | MIC | Minimum Inhibitory Concentration | Sponsor Drug | 0.25 | ug/dL | 0.25 | ug/dL | | | | CENTRAL LAB ABC | EPSILOMETER | 2005-06-19T08:00 |", "score": 0.4212, "match_basis": "verbatim_token+domain_route:MS"}, {"md_atom_id": "md_dmMS_ex_a018", "md_file": "knowledge_base/domains/MS/examples.md", "md_atom_type": "TABLE_ROW", "md_parent_section": "§MS.1 [Example 1]", "md_verbatim": "| 9 | ABC | MS | ABC-001-002 | ENTEROCOCCUS FAECALIS | 4 | 9 | SPEC01 | 2 | DIAZOINH | Diameter of the Zone of Inhibition | Amoxicillin | | | 25 | mm | 25 | 25 | mm | LOCAL LAB XYZ | DISK DIFFUSION | 2005-06-19T08:00 |", "score": 0.4212, "match_basis": "verbatim_token+domain_route:MS"}], "candidate_count": 5, "zero_candidate": false}
{"pdf_atom_id": "ig34_p0253_a034", "pdf_atom_type": "CODE_LITERAL", "pdf_source": "SDTMIG_v3.4", "pdf_page": 253, "pdf_parent_section": "§6.3.5.7.2 Microbiology Susceptibility (MS)", "pdf_verbatim": "MSREASND", "figure_ref": null, "candidates": [{"md_atom_id": "md_dmMS_assn_a011", "md_file": "knowledge_base/domains/MS/assumptions.md", "md_atom_type": "LIST_ITEM", "md_parent_section": "§MS [MS — Assumptions]", "md_verbatim": "   a. Culture dates can be connected to the MS record via MSREFID and BEREFID.", "score": 0.2253, "match_basis": "verbatim_token+domain_route:MS"}, {"md_atom_id": "md_dmMS_ex_a027", "md_file": "knowledge_base/domains/MS/examples.md", "md_atom_type": "TABLE_HEADER", "md_parent_section": "§MS.2 [Example 2]", "md_verbatim": "| Row | STUDYID | DOMAIN | USUBJID | NHOID | MSGRPID | MSSEQ | MSREFID | MSTESTCD | MSTEST | MSAGENT | MSORRES | MSORRESU | MSSTRESC | MSSTRESN | MSSTRESU | MSNAM | MSMETHOD | VISITNUM | VISIT | MSDTC |\n|-----|---------|--------|---------|-------|---------|-------|---------|----------|--------|---------|---------|----------|----------|----------|----------|-------|----------|----------|-------|-------|", "score": 0.206, "match_basis": "verbatim_token+domain_route:MS"}, {"md_atom_id": "md_dmMS_ex_a009", "md_file": "knowledge_base/domains/MS/examples.md", "md_atom_type": "TABLE_HEADER", "md_parent_section": "§MS.1 [Example 1]", "md_verbatim": "| Row | STUDYID | DOMAIN | USUBJID | NHOID | MSGRPID | MSSEQ | MSREFID | MSLNKGRP | MSTESTCD | MSTEST | MSAGENT | MSCONC | MSCONCU | MSORRES | MSORRESU | MSSTRESC | MSSTRESN | MSSTRESU | MSNAM | MSMETHOD | MSDTC |\n|-----|---------|--------|---------|-------|---------|-------|---------|----------|----------|--------|---------|--------|---------|---------|----------|----------|----------|----------|-------|----------|-------|", "score": 0.2052, "match_basis": "verbatim_token+domain_route:MS"}, {"md_atom_id": "md_dmMS_ex_a043", "md_file": "knowledge_base/domains/MS/examples.md", "md_atom_type": "TABLE_HEADER", "md_parent_section": "§MS.3 [Example 3]", "md_verbatim": "| Row | STUDYID | DOMAIN | USUBJID | SPDEVID | NHOID | MSSEQ | MSREFID | MSLNKID | MSTESTCD | MSTEST | MSAGENT | MSCONC | MSCONCU | MSORRES | MSSTRESC | MSSPEC | MSLOC | MSMETHOD | MSDTC |\n|-----|---------|--------|---------|---------|-------|-------|---------|---------|----------|--------|---------|--------|---------|---------|----------|--------|-------|----------|-------|", "score": 0.2052, "match_basis": "verbatim_token+domain_route:MS"}, {"md_atom_id": "md_dmMS_assn_a001", "md_file": "knowledge_base/domains/MS/assumptions.md", "md_atom_type": "HEADING", "md_parent_section": "§MS [MS — Assumptions]", "md_verbatim": "# MS — Assumptions", "score": 0.19, "match_basis": "verbatim_token+domain_route:MS"}], "candidate_count": 5, "zero_candidate": false}
{"pdf_atom_id": "ig34_p0253_a035", "pdf_atom_type": "TABLE_ROW", "pdf_source": "SDTMIG_v3.4", "pdf_page": 253, "pdf_parent_section": "§6.3.5.7.2 Microbiology Susceptibility (MS)", "pdf_verbatim": "| MSXFN | External File Path | Char | | Record Qualifier | Filename for an external file. | Perm |", "figure_ref": null, "candidates": [{"md_atom_id": "md_dmMS_ex_a016", "md_file": "knowledge_base/domains/MS/examples.md", "md_atom_type": "TABLE_ROW", "md_parent_section": "§MS.1 [Example 1]", "md_verbatim": "| 7 | ABC | MS | ABC-001-002 | ENTEROCOCCUS FAECALIS | 3 | 7 | SPEC01 | 2 | DIAZOINH | Diameter of the Zone of Inhibition | Sponsor Drug | | | 23 | mm | 23 | 23 | mm | LOCAL LAB XYZ | DISK DIFFUSION | 2005-06-19T08:00 |", "score": 0.4186, "match_basis": "verbatim_token+domain_route:MS"}, {"md_atom_id": "md_dmMS_ex_a018", "md_file": "knowledge_base/domains/MS/examples.md", "md_atom_type": "TABLE_ROW", "md_parent_section": "§MS.1 [Example 1]", "md_verbatim": "| 9 | ABC | MS | ABC-001-002 | ENTEROCOCCUS FAECALIS | 4 | 9 | SPEC01 | 2 | DIAZOINH | Diameter of the Zone of Inhibition | Amoxicillin | | | 25 | mm | 25 | 25 | mm | LOCAL LAB XYZ | DISK DIFFUSION | 2005-06-19T08:00 |", "score": 0.4182, "match_basis": "verbatim_token+domain_route:MS"}, {"md_atom_id": "md_dmMS_ex_a047", "md_file": "knowledge_base/domains/MS/examples.md", "md_atom_type": "TABLE_ROW", "md_parent_section": "§MS.3 [Example 3]", "md_verbatim": "| 4 | ABC | MS | ABC-01-101 | ABC765 | MYCOBACTERIUM TUBERCULOSIS | 4 | 100.2 | | MICROSUS | Microbial Susceptibility | Isoniazid | | | SUSCEPTIBLE | SUSCEPTIBLE | LAVAGE FLUID | STOMACH | NUCLEIC ACID AMPLIFICATION TEST | 2011-01-17T06:00 |", "score": 0.4145, "match_basis": "verbatim_token+domain_route:MS"}, {"md_atom_id": "md_dmMS_ex_a046", "md_file": "knowledge_base/domains/MS/examples.md", "md_atom_type": "TABLE_ROW", "md_parent_section": "§MS.3 [Example 3]", "md_verbatim": "| 3 | ABC | MS | ABC-01-101 | ABC765 | MYCOBACTERIUM TUBERCULOSIS | 3 | 100.2 | | MICROSUS | Microbial Susceptibility | Rifampicin | | | RESISTANT | RESISTANT | LAVAGE FLUID | STOMACH | NUCLEIC ACID AMPLIFICATION TEST | 2011-01-17T06:00 |", "score": 0.4141, "match_basis": "verbatim_token+domain_route:MS"}, {"md_atom_id": "md_dmMS_ex_a010", "md_file": "knowledge_base/domains/MS/examples.md", "md_atom_type": "TABLE_ROW", "md_parent_section": "§MS.1 [Example 1]", "md_verbatim": "| 1 | ABC | MS | ABC-001-002 | ENTEROCOCCUS FAECALIS | 1 | 1 | SPEC01 | | MIC | Minimum Inhibitory Concentration | Sponsor Drug | 0.25 | ug/dL | 0.25 | ug/dL | | | | CENTRAL LAB ABC | EPSILOMETER | 2005-06-19T08:00 |", "score": 0.412, "match_basis": "verbatim_token+domain_route:MS"}], "candidate_count": 5, "zero_candidate": false}
{"pdf_atom_id": "ig34_p0253_a036", "pdf_atom_type": "CODE_LITERAL", "pdf_source": "SDTMIG_v3.4", "pdf_page": 253, "pdf_parent_section": "§6.3.5.7.2 Microbiology Susceptibility (MS)", "pdf_verbatim": "MSXFN", "figure_ref": null, "candidates": [{"md_atom_id": "md_dmMS_assn_a001", "md_file": "knowledge_base/domains/MS/assumptions.md", "md_atom_type": "HEADING", "md_parent_section": "§MS [MS — Assumptions]", "md_verbatim": "# MS — Assumptions", "score": 0.19, "match_basis": "verbatim_token+domain_route:MS"}, {"md_atom_id": "md_dmMS_assn_a002", "md_file": "knowledge_base/domains/MS/assumptions.md", "md_atom_type": "LIST_ITEM", "md_parent_section": "§MS [MS — Assumptions]", "md_verbatim": "1. Microbiology Susceptibility testing includes testing of the following types:", "score": 0.19, "match_basis": "verbatim_token+domain_route:MS"}, {"md_atom_id": "md_dmMS_assn_a003", "md_file": "knowledge_base/domains/MS/assumptions.md", "md_atom_type": "LIST_ITEM", "md_parent_section": "§MS [MS — Assumptions]", "md_verbatim": "   a. Phenotypic drug susceptibility testing (qualitative), which may involve determining susceptibility/resistance (qualitative) at a predefined concentration of drug, or determining a specific dose (quantitative) at which a drug inhibits organism growth or some other process associated with virulence.", "score": 0.19, "match_basis": "verbatim_token+domain_route:MS"}, {"md_atom_id": "md_dmMS_assn_a004", "md_file": "knowledge_base/domains/MS/assumptions.md", "md_atom_type": "LIST_ITEM", "md_parent_section": "§MS [MS — Assumptions]", "md_verbatim": "      i. For studies using qualitative testing methods, MSAGENT, MSCONC, and MSCONCU are used to represent the predefined drug, concentration, and units, respectively. Results are represented with values such as \"SUSCEPTIBLE\" or \"RESISTANT\".", "score": 0.19, "match_basis": "verbatim_token+domain_route:MS"}, {"md_atom_id": "md_dmMS_assn_a005", "md_file": "knowledge_base/domains/MS/assumptions.md", "md_atom_type": "LIST_ITEM", "md_parent_section": "§MS [MS — Assumptions]", "md_verbatim": "      ii. For studies using quantitative testing methods, MSAGENT is used to represent the drug being tested; MSCONC and MSCONCU are not used. The concentration at which growth is inhibited is the result in these cases (MSORRES, MSSTRESC/MSSTRESN), with units being represented in MSORRESU/MSSTRESU.", "score": 0.19, "match_basis": "verbatim_token+domain_route:MS"}, {"md_atom_id": "md_dmMS_assn_a006", "md_file": "knowledge_base/domains/MS/assumptions.md", "md_atom_type": "LIST_ITEM", "md_parent_section": "§MS [MS — Assumptions]", "md_verbatim": "      iii. As in 1.a.ii, MSAGENT should be populated with the drug whose action would be affected by the genetic marker being assessed via the genotypic test. MSCONC and MSCONCU are null in these records.", "score": 0.19, "match_basis": "verbatim_token+domain_route:MS"}, {"md_atom_id": "md_dmMS_assn_a007", "md_file": "knowledge_base/domains/MS/assumptions.md", "md_atom_type": "LIST_ITEM", "md_parent_section": "§MS [MS — Assumptions]", "md_verbatim": "   b. Genetic tests that provide results in terms of susceptible/resistant only (e.g., nucleic acid amplification tests (NAAT)). Genotypic tests that provide results in terms of specific changes to nucleotides, codons, or amino acids of genes/gene products associated with resistance should be represented in the Genomic Findings (GF) domain, as that domain structure contains the variables necessary to accommodate data of this type. If a test provides both mutation data and susceptibility data, the mutation results should be represented in GF and the susceptibility information should be represented in MS. In these cases, the GF records should be linked via RELREC to susceptibility records in MS.", "score": 0.19, "match_basis": "verbatim_token+domain_route:MS"}, {"md_atom_id": "md_dmMS_assn_a008", "md_file": "knowledge_base/domains/MS/assumptions.md", "md_atom_type": "LIST_ITEM", "md_parent_section": "§MS [MS — Assumptions]", "md_verbatim": "   c. CDISC Controlled Terminology Rules for Microbiology (MB/MS) domains are available at https://www.cdisc.org/standards/terminology/controlled-terminology.", "score": 0.19, "match_basis": "verbatim_token+domain_route:MS"}, {"md_atom_id": "md_dmMS_assn_a009", "md_file": "knowledge_base/domains/MS/assumptions.md", "md_atom_type": "LIST_ITEM", "md_parent_section": "§MS [MS — Assumptions]", "md_verbatim": "2. MSDTC represents the date the specimen was collected.", "score": 0.19, "match_basis": "verbatim_token+domain_route:MS"}, {"md_atom_id": "md_dmMS_assn_a010", "md_file": "knowledge_base/domains/MS/assumptions.md", "md_atom_type": "LIST_ITEM", "md_parent_section": "§MS [MS — Assumptions]", "md_verbatim": "3. If the specimen was cultured, the start and end date of culture are represented in the Biospecimen Events (BE) domain in BESTDTC and BEENDTC respectively. --REFID represents the sample ID as originally assigned in the BE domain. See BE domain assumptions in the SDTMIG v3.4, Section 6.2.2, for guidelines on assigning --REFID values to samples and subsamples.", "score": 0.19, "match_basis": "verbatim_token+domain_route:MS"}], "candidate_count": 10, "zero_candidate": false}
{"pdf_atom_id": "ig34_p0254_a001", "pdf_atom_type": "TABLE_ROW", "pdf_source": "SDTMIG_v3.4", "pdf_page": 254, "pdf_parent_section": "§6.3.5.7.2 Microbiology Susceptibility (MS)", "pdf_verbatim": "| MSNAM | Laboratory/Vendor Name | Char | | Record Qualifier | Name or identifier of the vendor (e.g., laboratory) that provided the test results. | Perm |", "figure_ref": null, "candidates": [{"md_atom_id": "md_dmMS_ex_a010", "md_file": "knowledge_base/domains/MS/examples.md", "md_atom_type": "TABLE_ROW", "md_parent_section": "§MS.1 [Example 1]", "md_verbatim": "| 1 | ABC | MS | ABC-001-002 | ENTEROCOCCUS FAECALIS | 1 | 1 | SPEC01 | | MIC | Minimum Inhibitory Concentration | Sponsor Drug | 0.25 | ug/dL | 0.25 | ug/dL | | | | CENTRAL LAB ABC | EPSILOMETER | 2005-06-19T08:00 |", "score": 0.4316, "match_basis": "verbatim_token+domain_route:MS"}, {"md_atom_id": "md_dmMS_ex_a012", "md_file": "knowledge_base/domains/MS/examples.md", "md_atom_type": "TABLE_ROW", "md_parent_section": "§MS.1 [Example 1]", "md_verbatim": "| 3 | ABC | MS | ABC-001-002 | ENTEROCOCCUS FAECALIS | 2 | 3 | SPEC01 | | MIC | Minimum Inhibitory Concentration | Amoxicillin | 1 | ug/dL | 1 | ug/dL | | | | CENTRAL LAB ABC | EPSILOMETER | 2005-06-19T08:00 |", "score": 0.431, "match_basis": "verbatim_token+domain_route:MS"}, {"md_atom_id": "md_dmMS_ex_a016", "md_file": "knowledge_base/domains/MS/examples.md", "md_atom_type": "TABLE_ROW", "md_parent_section": "§MS.1 [Example 1]", "md_verbatim": "| 7 | ABC | MS | ABC-001-002 | ENTEROCOCCUS FAECALIS | 3 | 7 | SPEC01 | 2 | DIAZOINH | Diameter of the Zone of Inhibition | Sponsor Drug | | | 23 | mm | 23 | 23 | mm | LOCAL LAB XYZ | DISK DIFFUSION | 2005-06-19T08:00 |", "score": 0.4265, "match_basis": "verbatim_token+domain_route:MS"}, {"md_atom_id": "md_dmMS_ex_a018", "md_file": "knowledge_base/domains/MS/examples.md", "md_atom_type": "TABLE_ROW", "md_parent_section": "§MS.1 [Example 1]", "md_verbatim": "| 9 | ABC | MS | ABC-001-002 | ENTEROCOCCUS FAECALIS | 4 | 9 | SPEC01 | 2 | DIAZOINH | Diameter of the Zone of Inhibition | Amoxicillin | | | 25 | mm | 25 | 25 | mm | LOCAL LAB XYZ | DISK DIFFUSION | 2005-06-19T08:00 |", "score": 0.4261, "match_basis": "verbatim_token+domain_route:MS"}, {"md_atom_id": "md_dmMS_ex_a046", "md_file": "knowledge_base/domains/MS/examples.md", "md_atom_type": "TABLE_ROW", "md_parent_section": "§MS.3 [Example 3]", "md_verbatim": "| 3 | ABC | MS | ABC-01-101 | ABC765 | MYCOBACTERIUM TUBERCULOSIS | 3 | 100.2 | | MICROSUS | Microbial Susceptibility | Rifampicin | | | RESISTANT | RESISTANT | LAVAGE FLUID | STOMACH | NUCLEIC ACID AMPLIFICATION TEST | 2011-01-17T06:00 |", "score": 0.4208, "match_basis": "verbatim_token+domain_route:MS"}], "candidate_count": 5, "zero_candidate": false}
{"pdf_atom_id": "ig34_p0254_a002", "pdf_atom_type": "CODE_LITERAL", "pdf_source": "SDTMIG_v3.4", "pdf_page": 254, "pdf_parent_section": "§6.3.5.7.2 Microbiology Susceptibility (MS)", "pdf_verbatim": "MSNAM", "figure_ref": null, "candidates": [{"md_atom_id": "md_dmMS_ex_a027", "md_file": "knowledge_base/domains/MS/examples.md", "md_atom_type": "TABLE_HEADER", "md_parent_section": "§MS.2 [Example 2]", "md_verbatim": "| Row | STUDYID | DOMAIN | USUBJID | NHOID | MSGRPID | MSSEQ | MSREFID | MSTESTCD | MSTEST | MSAGENT | MSORRES | MSORRESU | MSSTRESC | MSSTRESN | MSSTRESU | MSNAM | MSMETHOD | VISITNUM | VISIT | MSDTC |\n|-----|---------|--------|---------|-------|---------|-------|---------|----------|--------|---------|---------|----------|----------|----------|----------|-------|----------|----------|-------|-------|", "score": 0.2154, "match_basis": "verbatim_token+domain_route:MS"}, {"md_atom_id": "md_dmMS_ex_a009", "md_file": "knowledge_base/domains/MS/examples.md", "md_atom_type": "TABLE_HEADER", "md_parent_section": "§MS.1 [Example 1]", "md_verbatim": "| Row | STUDYID | DOMAIN | USUBJID | NHOID | MSGRPID | MSSEQ | MSREFID | MSLNKGRP | MSTESTCD | MSTEST | MSAGENT | MSCONC | MSCONCU | MSORRES | MSORRESU | MSSTRESC | MSSTRESN | MSSTRESU | MSNAM | MSMETHOD | MSDTC |\n|-----|---------|--------|---------|-------|---------|-------|---------|----------|----------|--------|---------|--------|---------|---------|----------|----------|----------|----------|-------|----------|-------|", "score": 0.214, "match_basis": "verbatim_token+domain_route:MS"}, {"md_atom_id": "md_dmMS_ex_a049", "md_file": "knowledge_base/domains/MS/examples.md", "md_atom_type": "TABLE_HEADER", "md_parent_section": "§MS.3 [Example 3]", "md_verbatim": "| Row | STUDYID | RDOMAIN | USUBJID | IDVAR | IDVARVAL | QNAM | QLABEL | QVAL | QORIG |\n|-----|---------|---------|---------|-------|----------|------|--------|------|-------|", "score": 0.2076, "match_basis": "verbatim_token+domain_route:MS"}, {"md_atom_id": "md_dmMS_assn_a013", "md_file": "knowledge_base/domains/MS/assumptions.md", "md_atom_type": "LIST_ITEM", "md_parent_section": "§MS [MS — Assumptions]", "md_verbatim": "4. NHOID is a sponsor-defined, intuitive name of the non-host organism being tested. It should only be populated with values representing what is known about the identity of the organism before the results of the test are determined. It should therefore never be used as a qualifier of result.", "score": 0.1955, "match_basis": "verbatim_token+domain_route:MS"}, {"md_atom_id": "md_dmMS_ex_a040", "md_file": "knowledge_base/domains/MS/examples.md", "md_atom_type": "SENTENCE", "md_parent_section": "§MS.3 [Example 3]", "md_verbatim": "**Rows 1-2:** Show phenotypic testing results on 2 separate culture plates: 1 with medium containing rifampicin (row 1) and 1 with medium containing isoniazid (row 2). MSAGENT is populated with the name of the drug being used in the susceptibility test. The variables MSCONC and MSCONCU represent the concentration and units of the drug being used. The culture start and stop dates are represented in BE and can be linked to MS by BELNKID and MSLNKID.", "score": 0.1943, "match_basis": "verbatim_token+domain_route:MS"}, {"md_atom_id": "md_dmMS_ex_a041", "md_file": "knowledge_base/domains/MS/examples.md", "md_atom_type": "SENTENCE", "md_parent_section": "§MS.3 [Example 3]", "md_verbatim": "**Rows 3-4:** Show genotypic susceptibility testing results on the same aliquot from a NAAT that looks for mutations that confer resistance to 2 drugs. MSAGENT should be populated with the name of the drug whose action is affected by the mutation being tested for. However, because the drug is not used in the test, MSCONC and MSCONCU should be null. These results are represented in MS because the only result given is in terms of resistant/susceptible; no genetic results are reported.", "score": 0.1941, "match_basis": "verbatim_token+domain_route:MS"}, {"md_atom_id": "md_dmMS_ex_a039", "md_file": "knowledge_base/domains/MS/examples.md", "md_atom_type": "SENTENCE", "md_parent_section": "§MS.3 [Example 3]", "md_verbatim": "Results from drug susceptibility tests performed on samples from the gastric TB study (see MB Example 3) are represented in the MS domain. This includes all phenotypic tests (where the drug is added directly to a culture medium) and genotypic tests (when the result is given as susceptible or resistant). In this example, the variable NHOID (Non-host Organism Identifier) is populated with the name of the organism that is the subject of the test.", "score": 0.1939, "match_basis": "verbatim_token+domain_route:MS"}, {"md_atom_id": "md_dmMS_assn_a001", "md_file": "knowledge_base/domains/MS/assumptions.md", "md_atom_type": "HEADING", "md_parent_section": "§MS [MS — Assumptions]", "md_verbatim": "# MS — Assumptions", "score": 0.19, "match_basis": "verbatim_token+domain_route:MS"}, {"md_atom_id": "md_dmMS_assn_a002", "md_file": "knowledge_base/domains/MS/assumptions.md", "md_atom_type": "LIST_ITEM", "md_parent_section": "§MS [MS — Assumptions]", "md_verbatim": "1. Microbiology Susceptibility testing includes testing of the following types:", "score": 0.19, "match_basis": "verbatim_token+domain_route:MS"}, {"md_atom_id": "md_dmMS_assn_a003", "md_file": "knowledge_base/domains/MS/assumptions.md", "md_atom_type": "LIST_ITEM", "md_parent_section": "§MS [MS — Assumptions]", "md_verbatim": "   a. Phenotypic drug susceptibility testing (qualitative), which may involve determining susceptibility/resistance (qualitative) at a predefined concentration of drug, or determining a specific dose (quantitative) at which a drug inhibits organism growth or some other process associated with virulence.", "score": 0.19, "match_basis": "verbatim_token+domain_route:MS"}], "candidate_count": 10, "zero_candidate": false}
{"pdf_atom_id": "ig34_p0254_a003", "pdf_atom_type": "TABLE_ROW", "pdf_source": "SDTMIG_v3.4", "pdf_page": 254, "pdf_parent_section": "§6.3.5.7.2 Microbiology Susceptibility (MS)", "pdf_verbatim": "| MSLOINC | LOINC Code | Char | | Synonym Qualifier | Logical Observation Identifiers Names and Codes (LOINC) code for the topic variable such as a lab test. | Perm |", "figure_ref": null, "candidates": [{"md_atom_id": "md_dmMS_ex_a016", "md_file": "knowledge_base/domains/MS/examples.md", "md_atom_type": "TABLE_ROW", "md_parent_section": "§MS.1 [Example 1]", "md_verbatim": "| 7 | ABC | MS | ABC-001-002 | ENTEROCOCCUS FAECALIS | 3 | 7 | SPEC01 | 2 | DIAZOINH | Diameter of the Zone of Inhibition | Sponsor Drug | | | 23 | mm | 23 | 23 | mm | LOCAL LAB XYZ | DISK DIFFUSION | 2005-06-19T08:00 |", "score": 0.4443, "match_basis": "verbatim_token+domain_route:MS"}, {"md_atom_id": "md_dmMS_ex_a018", "md_file": "knowledge_base/domains/MS/examples.md", "md_atom_type": "TABLE_ROW", "md_parent_section": "§MS.1 [Example 1]", "md_verbatim": "| 9 | ABC | MS | ABC-001-002 | ENTEROCOCCUS FAECALIS | 4 | 9 | SPEC01 | 2 | DIAZOINH | Diameter of the Zone of Inhibition | Amoxicillin | | | 25 | mm | 25 | 25 | mm | LOCAL LAB XYZ | DISK DIFFUSION | 2005-06-19T08:00 |", "score": 0.4435, "match_basis": "verbatim_token+domain_route:MS"}, {"md_atom_id": "md_dmMS_ex_a047", "md_file": "knowledge_base/domains/MS/examples.md", "md_atom_type": "TABLE_ROW", "md_parent_section": "§MS.3 [Example 3]", "md_verbatim": "| 4 | ABC | MS | ABC-01-101 | ABC765 | MYCOBACTERIUM TUBERCULOSIS | 4 | 100.2 | | MICROSUS | Microbial Susceptibility | Isoniazid | | | SUSCEPTIBLE | SUSCEPTIBLE | LAVAGE FLUID | STOMACH | NUCLEIC ACID AMPLIFICATION TEST | 2011-01-17T06:00 |", "score": 0.4362, "match_basis": "verbatim_token+domain_route:MS"}, {"md_atom_id": "md_dmMS_ex_a046", "md_file": "knowledge_base/domains/MS/examples.md", "md_atom_type": "TABLE_ROW", "md_parent_section": "§MS.3 [Example 3]", "md_verbatim": "| 3 | ABC | MS | ABC-01-101 | ABC765 | MYCOBACTERIUM TUBERCULOSIS | 3 | 100.2 | | MICROSUS | Microbial Susceptibility | Rifampicin | | | RESISTANT | RESISTANT | LAVAGE FLUID | STOMACH | NUCLEIC ACID AMPLIFICATION TEST | 2011-01-17T06:00 |", "score": 0.4353, "match_basis": "verbatim_token+domain_route:MS"}, {"md_atom_id": "md_dmMS_ex_a010", "md_file": "knowledge_base/domains/MS/examples.md", "md_atom_type": "TABLE_ROW", "md_parent_section": "§MS.1 [Example 1]", "md_verbatim": "| 1 | ABC | MS | ABC-001-002 | ENTEROCOCCUS FAECALIS | 1 | 1 | SPEC01 | | MIC | Minimum Inhibitory Concentration | Sponsor Drug | 0.25 | ug/dL | 0.25 | ug/dL | | | | CENTRAL LAB ABC | EPSILOMETER | 2005-06-19T08:00 |", "score": 0.4333, "match_basis": "verbatim_token+domain_route:MS"}], "candidate_count": 5, "zero_candidate": false}
{"pdf_atom_id": "ig34_p0254_a004", "pdf_atom_type": "CODE_LITERAL", "pdf_source": "SDTMIG_v3.4", "pdf_page": 254, "pdf_parent_section": "§6.3.5.7.2 Microbiology Susceptibility (MS)", "pdf_verbatim": "MSLOINC", "figure_ref": null, "candidates": [{"md_atom_id": "md_dmMS_ex_a043", "md_file": "knowledge_base/domains/MS/examples.md", "md_atom_type": "TABLE_HEADER", "md_parent_section": "§MS.3 [Example 3]", "md_verbatim": "| Row | STUDYID | DOMAIN | USUBJID | SPDEVID | NHOID | MSSEQ | MSREFID | MSLNKID | MSTESTCD | MSTEST | MSAGENT | MSCONC | MSCONCU | MSORRES | MSSTRESC | MSSPEC | MSLOC | MSMETHOD | MSDTC |\n|-----|---------|--------|---------|---------|-------|-------|---------|---------|----------|--------|---------|--------|---------|---------|----------|--------|-------|----------|-------|", "score": 0.2054, "match_basis": "verbatim_token+domain_route:MS"}, {"md_atom_id": "md_dmMS_assn_a002", "md_file": "knowledge_base/domains/MS/assumptions.md", "md_atom_type": "LIST_ITEM", "md_parent_section": "§MS [MS — Assumptions]", "md_verbatim": "1. Microbiology Susceptibility testing includes testing of the following types:", "score": 0.2028, "match_basis": "verbatim_token+domain_route:MS"}, {"md_atom_id": "md_dmMS_ex_a016", "md_file": "knowledge_base/domains/MS/examples.md", "md_atom_type": "TABLE_ROW", "md_parent_section": "§MS.1 [Example 1]", "md_verbatim": "| 7 | ABC | MS | ABC-001-002 | ENTEROCOCCUS FAECALIS | 3 | 7 | SPEC01 | 2 | DIAZOINH | Diameter of the Zone of Inhibition | Sponsor Drug | | | 23 | mm | 23 | 23 | mm | LOCAL LAB XYZ | DISK DIFFUSION | 2005-06-19T08:00 |", "score": 0.1985, "match_basis": "verbatim_token+domain_route:MS"}, {"md_atom_id": "md_dmMS_ex_a018", "md_file": "knowledge_base/domains/MS/examples.md", "md_atom_type": "TABLE_ROW", "md_parent_section": "§MS.1 [Example 1]", "md_verbatim": "| 9 | ABC | MS | ABC-001-002 | ENTEROCOCCUS FAECALIS | 4 | 9 | SPEC01 | 2 | DIAZOINH | Diameter of the Zone of Inhibition | Amoxicillin | | | 25 | mm | 25 | 25 | mm | LOCAL LAB XYZ | DISK DIFFUSION | 2005-06-19T08:00 |", "score": 0.1982, "match_basis": "verbatim_token+domain_route:MS"}, {"md_atom_id": "md_dmMS_ex_a009", "md_file": "knowledge_base/domains/MS/examples.md", "md_atom_type": "TABLE_HEADER", "md_parent_section": "§MS.1 [Example 1]", "md_verbatim": "| Row | STUDYID | DOMAIN | USUBJID | NHOID | MSGRPID | MSSEQ | MSREFID | MSLNKGRP | MSTESTCD | MSTEST | MSAGENT | MSCONC | MSCONCU | MSORRES | MSORRESU | MSSTRESC | MSSTRESN | MSSTRESU | MSNAM | MSMETHOD | MSDTC |\n|-----|---------|--------|---------|-------|---------|-------|---------|----------|----------|--------|---------|--------|---------|---------|----------|----------|----------|----------|-------|----------|-------|", "score": 0.1976, "match_basis": "verbatim_token+domain_route:MS"}, {"md_atom_id": "md_dmMS_ex_a024", "md_file": "knowledge_base/domains/MS/examples.md", "md_atom_type": "SENTENCE", "md_parent_section": "§MS.2 [Example 2]", "md_verbatim": "**Rows 5-8:** Similar to rows 1-4, the sponsor drug (rows 5-6) and penicillin (rows 7-8) were tested against \"KLEBSIELLA PNEUMONIAE\" from an additional sample at a later time point. Results from these tests indicated that the organism was susceptible to sponsor drug, yet had intermediate resistance to penicillin.", "score": 0.1948, "match_basis": "verbatim_token+domain_route:MS"}, {"md_atom_id": "md_dmMS_ex_a025", "md_file": "knowledge_base/domains/MS/examples.md", "md_atom_type": "SENTENCE", "md_parent_section": "§MS.2 [Example 2]", "md_verbatim": "**Rows 9-10:** A test against \"KLEBSIELLA PNEUMONIAE\" from an additional sample at a later time point showed little change in the minimum inhibitory concentration of penicillin, and that the organism is still classified as having intermediate resistance to penicillin.", "score": 0.1946, "match_basis": "verbatim_token+domain_route:MS"}, {"md_atom_id": "md_dmMS_ex_a040", "md_file": "knowledge_base/domains/MS/examples.md", "md_atom_type": "SENTENCE", "md_parent_section": "§MS.3 [Example 3]", "md_verbatim": "**Rows 1-2:** Show phenotypic testing results on 2 separate culture plates: 1 with medium containing rifampicin (row 1) and 1 with medium containing isoniazid (row 2). MSAGENT is populated with the name of the drug being used in the susceptibility test. The variables MSCONC and MSCONCU represent the concentration and units of the drug being used. The culture start and stop dates are represented in BE and can be linked to MS by BELNKID and MSLNKID.", "score": 0.1942, "match_basis": "verbatim_token+domain_route:MS"}, {"md_atom_id": "md_dmMS_ex_a039", "md_file": "knowledge_base/domains/MS/examples.md", "md_atom_type": "SENTENCE", "md_parent_section": "§MS.3 [Example 3]", "md_verbatim": "Results from drug susceptibility tests performed on samples from the gastric TB study (see MB Example 3) are represented in the MS domain. This includes all phenotypic tests (where the drug is added directly to a culture medium) and genotypic tests (when the result is given as susceptible or resistant). In this example, the variable NHOID (Non-host Organism Identifier) is populated with the name of the organism that is the subject of the test.", "score": 0.1939, "match_basis": "verbatim_token+domain_route:MS"}, {"md_atom_id": "md_dmMS_assn_a001", "md_file": "knowledge_base/domains/MS/assumptions.md", "md_atom_type": "HEADING", "md_parent_section": "§MS [MS — Assumptions]", "md_verbatim": "# MS — Assumptions", "score": 0.19, "match_basis": "verbatim_token+domain_route:MS"}], "candidate_count": 10, "zero_candidate": false}
{"pdf_atom_id": "ig34_p0254_a005", "pdf_atom_type": "TABLE_ROW", "pdf_source": "SDTMIG_v3.4", "pdf_page": 254, "pdf_parent_section": "§6.3.5.7.2 Microbiology Susceptibility (MS)", "pdf_verbatim": "| MSSPEC | Specimen Material Type | Char | (SPECTYPE) | Record Qualifier | Defines the type of specimen used for a measurement. Example: \"SPUTUM\". | Perm |", "figure_ref": null, "candidates": [{"md_atom_id": "md_dmMS_ex_a016", "md_file": "knowledge_base/domains/MS/examples.md", "md_atom_type": "TABLE_ROW", "md_parent_section": "§MS.1 [Example 1]", "md_verbatim": "| 7 | ABC | MS | ABC-001-002 | ENTEROCOCCUS FAECALIS | 3 | 7 | SPEC01 | 2 | DIAZOINH | Diameter of the Zone of Inhibition | Sponsor Drug | | | 23 | mm | 23 | 23 | mm | LOCAL LAB XYZ | DISK DIFFUSION | 2005-06-19T08:00 |", "score": 0.43, "match_basis": "verbatim_token+domain_route:MS"}, {"md_atom_id": "md_dmMS_ex_a018", "md_file": "knowledge_base/domains/MS/examples.md", "md_atom_type": "TABLE_ROW", "md_parent_section": "§MS.1 [Example 1]", "md_verbatim": "| 9 | ABC | MS | ABC-001-002 | ENTEROCOCCUS FAECALIS | 4 | 9 | SPEC01 | 2 | DIAZOINH | Diameter of the Zone of Inhibition | Amoxicillin | | | 25 | mm | 25 | 25 | mm | LOCAL LAB XYZ | DISK DIFFUSION | 2005-06-19T08:00 |", "score": 0.4295, "match_basis": "verbatim_token+domain_route:MS"}, {"md_atom_id": "md_dmMS_ex_a011", "md_file": "knowledge_base/domains/MS/examples.md", "md_atom_type": "TABLE_ROW", "md_parent_section": "§MS.1 [Example 1]", "md_verbatim": "| 2 | ABC | MS | ABC-001-002 | ENTEROCOCCUS FAECALIS | 1 | 2 | SPEC01 | | MICROSUS | Microbial Susceptibility | Sponsor Drug | | | SUSCEPTIBLE | | SUSCEPTIBLE | | | CENTRAL LAB ABC | EPSILOMETER | 2005-06-19T08:00 |", "score": 0.429, "match_basis": "verbatim_token+domain_route:MS"}, {"md_atom_id": "md_dmMS_ex_a017", "md_file": "knowledge_base/domains/MS/examples.md", "md_atom_type": "TABLE_ROW", "md_parent_section": "§MS.1 [Example 1]", "md_verbatim": "| 8 | ABC | MS | ABC-001-002 | ENTEROCOCCUS FAECALIS | 3 | 8 | SPEC01 | 2 | MICROSUS | Microbial Susceptibility | Sponsor Drug | | | SUSCEPTIBLE | | SUSCEPTIBLE | | | LOCAL LAB XYZ | DISK DIFFUSION | 2005-06-19T08:00 |", "score": 0.429, "match_basis": "verbatim_token+domain_route:MS"}, {"md_atom_id": "md_dmMS_ex_a047", "md_file": "knowledge_base/domains/MS/examples.md", "md_atom_type": "TABLE_ROW", "md_parent_section": "§MS.3 [Example 3]", "md_verbatim": "| 4 | ABC | MS | ABC-01-101 | ABC765 | MYCOBACTERIUM TUBERCULOSIS | 4 | 100.2 | | MICROSUS | Microbial Susceptibility | Isoniazid | | | SUSCEPTIBLE | SUSCEPTIBLE | LAVAGE FLUID | STOMACH | NUCLEIC ACID AMPLIFICATION TEST | 2011-01-17T06:00 |", "score": 0.4288, "match_basis": "verbatim_token+domain_route:MS"}], "candidate_count": 5, "zero_candidate": false}
{"pdf_atom_id": "ig34_p0254_a006", "pdf_atom_type": "CODE_LITERAL", "pdf_source": "SDTMIG_v3.4", "pdf_page": 254, "pdf_parent_section": "§6.3.5.7.2 Microbiology Susceptibility (MS)", "pdf_verbatim": "MSSPEC", "figure_ref": null, "candidates": [{"md_atom_id": "md_dmMS_assn_a009", "md_file": "knowledge_base/domains/MS/assumptions.md", "md_atom_type": "LIST_ITEM", "md_parent_section": "§MS [MS — Assumptions]", "md_verbatim": "2. MSDTC represents the date the specimen was collected.", "score": 0.23, "match_basis": "verbatim_token+domain_route:MS"}, {"md_atom_id": "md_dmMS_ex_a043", "md_file": "knowledge_base/domains/MS/examples.md", "md_atom_type": "TABLE_HEADER", "md_parent_section": "§MS.3 [Example 3]", "md_verbatim": "| Row | STUDYID | DOMAIN | USUBJID | SPDEVID | NHOID | MSSEQ | MSREFID | MSLNKID | MSTESTCD | MSTEST | MSAGENT | MSCONC | MSCONCU | MSORRES | MSSTRESC | MSSPEC | MSLOC | MSMETHOD | MSDTC |\n|-----|---------|--------|---------|---------|-------|-------|---------|---------|----------|--------|---------|--------|---------|---------|----------|--------|-------|----------|-------|", "score": 0.222, "match_basis": "verbatim_token+domain_route:MS"}, {"md_atom_id": "md_dmMS_assn_a012", "md_file": "knowledge_base/domains/MS/assumptions.md", "md_atom_type": "LIST_ITEM", "md_parent_section": "§MS [MS — Assumptions]", "md_verbatim": "   b. If the same sample is associated with many biospecimen events and tests, users may need to make use of additional linking variables such as --LNKID.", "score": 0.2074, "match_basis": "verbatim_token+domain_route:MS"}, {"md_atom_id": "md_dmMS_ex_a016", "md_file": "knowledge_base/domains/MS/examples.md", "md_atom_type": "TABLE_ROW", "md_parent_section": "§MS.1 [Example 1]", "md_verbatim": "| 7 | ABC | MS | ABC-001-002 | ENTEROCOCCUS FAECALIS | 3 | 7 | SPEC01 | 2 | DIAZOINH | Diameter of the Zone of Inhibition | Sponsor Drug | | | 23 | mm | 23 | 23 | mm | LOCAL LAB XYZ | DISK DIFFUSION | 2005-06-19T08:00 |", "score": 0.2074, "match_basis": "verbatim_token+domain_route:MS"}, {"md_atom_id": "md_dmMS_ex_a010", "md_file": "knowledge_base/domains/MS/examples.md", "md_atom_type": "TABLE_ROW", "md_parent_section": "§MS.1 [Example 1]", "md_verbatim": "| 1 | ABC | MS | ABC-001-002 | ENTEROCOCCUS FAECALIS | 1 | 1 | SPEC01 | | MIC | Minimum Inhibitory Concentration | Sponsor Drug | 0.25 | ug/dL | 0.25 | ug/dL | | | | CENTRAL LAB ABC | EPSILOMETER | 2005-06-19T08:00 |", "score": 0.2069, "match_basis": "verbatim_token+domain_route:MS"}, {"md_atom_id": "md_dmMS_ex_a018", "md_file": "knowledge_base/domains/MS/examples.md", "md_atom_type": "TABLE_ROW", "md_parent_section": "§MS.1 [Example 1]", "md_verbatim": "| 9 | ABC | MS | ABC-001-002 | ENTEROCOCCUS FAECALIS | 4 | 9 | SPEC01 | 2 | DIAZOINH | Diameter of the Zone of Inhibition | Amoxicillin | | | 25 | mm | 25 | 25 | mm | LOCAL LAB XYZ | DISK DIFFUSION | 2005-06-19T08:00 |", "score": 0.2069, "match_basis": "verbatim_token+domain_route:MS"}, {"md_atom_id": "md_dmMS_ex_a011", "md_file": "knowledge_base/domains/MS/examples.md", "md_atom_type": "TABLE_ROW", "md_parent_section": "§MS.1 [Example 1]", "md_verbatim": "| 2 | ABC | MS | ABC-001-002 | ENTEROCOCCUS FAECALIS | 1 | 2 | SPEC01 | | MICROSUS | Microbial Susceptibility | Sponsor Drug | | | SUSCEPTIBLE | | SUSCEPTIBLE | | | CENTRAL LAB ABC | EPSILOMETER | 2005-06-19T08:00 |", "score": 0.2064, "match_basis": "verbatim_token+domain_route:MS"}, {"md_atom_id": "md_dmMS_ex_a012", "md_file": "knowledge_base/domains/MS/examples.md", "md_atom_type": "TABLE_ROW", "md_parent_section": "§MS.1 [Example 1]", "md_verbatim": "| 3 | ABC | MS | ABC-001-002 | ENTEROCOCCUS FAECALIS | 2 | 3 | SPEC01 | | MIC | Minimum Inhibitory Concentration | Amoxicillin | 1 | ug/dL | 1 | ug/dL | | | | CENTRAL LAB ABC | EPSILOMETER | 2005-06-19T08:00 |", "score": 0.2064, "match_basis": "verbatim_token+domain_route:MS"}, {"md_atom_id": "md_dmMS_ex_a017", "md_file": "knowledge_base/domains/MS/examples.md", "md_atom_type": "TABLE_ROW", "md_parent_section": "§MS.1 [Example 1]", "md_verbatim": "| 8 | ABC | MS | ABC-001-002 | ENTEROCOCCUS FAECALIS | 3 | 8 | SPEC01 | 2 | MICROSUS | Microbial Susceptibility | Sponsor Drug | | | SUSCEPTIBLE | | SUSCEPTIBLE | | | LOCAL LAB XYZ | DISK DIFFUSION | 2005-06-19T08:00 |", "score": 0.2064, "match_basis": "verbatim_token+domain_route:MS"}, {"md_atom_id": "md_dmMS_ex_a014", "md_file": "knowledge_base/domains/MS/examples.md", "md_atom_type": "TABLE_ROW", "md_parent_section": "§MS.1 [Example 1]", "md_verbatim": "| 5 | ABC | MS | ABC-001-002 | ENTEROCOCCUS FAECALIS | | 5 | SPEC01 | 2 | MICROSUS | Microbial Susceptibility | Sponsor Drug | 0.5 | ug/dL | SUSCEPTIBLE | | SUSCEPTIBLE | | | LOCAL LAB XYZ | MACRO BROTH DILUTION | 2005-06-19T08:00 |", "score": 0.206, "match_basis": "verbatim_token+domain_route:MS"}], "candidate_count": 10, "zero_candidate": false}
{"pdf_atom_id": "ig34_p0254_a007", "pdf_atom_type": "TABLE_ROW", "pdf_source": "SDTMIG_v3.4", "pdf_page": 254, "pdf_parent_section": "§6.3.5.7.2 Microbiology Susceptibility (MS)", "pdf_verbatim": "| MSSPCCND | Specimen Condition | Char | (SPECCOND) | Record Qualifier | Defines the condition of the specimen. Example: \"CLOUDY\". | Perm |", "figure_ref": null, "candidates": [{"md_atom_id": "md_dmMS_ex_a016", "md_file": "knowledge_base/domains/MS/examples.md", "md_atom_type": "TABLE_ROW", "md_parent_section": "§MS.1 [Example 1]", "md_verbatim": "| 7 | ABC | MS | ABC-001-002 | ENTEROCOCCUS FAECALIS | 3 | 7 | SPEC01 | 2 | DIAZOINH | Diameter of the Zone of Inhibition | Sponsor Drug | | | 23 | mm | 23 | 23 | mm | LOCAL LAB XYZ | DISK DIFFUSION | 2005-06-19T08:00 |", "score": 0.4378, "match_basis": "verbatim_token+domain_route:MS"}, {"md_atom_id": "md_dmMS_ex_a018", "md_file": "knowledge_base/domains/MS/examples.md", "md_atom_type": "TABLE_ROW", "md_parent_section": "§MS.1 [Example 1]", "md_verbatim": "| 9 | ABC | MS | ABC-001-002 | ENTEROCOCCUS FAECALIS | 4 | 9 | SPEC01 | 2 | DIAZOINH | Diameter of the Zone of Inhibition | Amoxicillin | | | 25 | mm | 25 | 25 | mm | LOCAL LAB XYZ | DISK DIFFUSION | 2005-06-19T08:00 |", "score": 0.4372, "match_basis": "verbatim_token+domain_route:MS"}, {"md_atom_id": "md_dmMS_ex_a010", "md_file": "knowledge_base/domains/MS/examples.md", "md_atom_type": "TABLE_ROW", "md_parent_section": "§MS.1 [Example 1]", "md_verbatim": "| 1 | ABC | MS | ABC-001-002 | ENTEROCOCCUS FAECALIS | 1 | 1 | SPEC01 | | MIC | Minimum Inhibitory Concentration | Sponsor Drug | 0.25 | ug/dL | 0.25 | ug/dL | | | | CENTRAL LAB ABC | EPSILOMETER | 2005-06-19T08:00 |", "score": 0.4316, "match_basis": "verbatim_token+domain_route:MS"}, {"md_atom_id": "md_dmMS_ex_a012", "md_file": "knowledge_base/domains/MS/examples.md", "md_atom_type": "TABLE_ROW", "md_parent_section": "§MS.1 [Example 1]", "md_verbatim": "| 3 | ABC | MS | ABC-001-002 | ENTEROCOCCUS FAECALIS | 2 | 3 | SPEC01 | | MIC | Minimum Inhibitory Concentration | Amoxicillin | 1 | ug/dL | 1 | ug/dL | | | | CENTRAL LAB ABC | EPSILOMETER | 2005-06-19T08:00 |", "score": 0.431, "match_basis": "verbatim_token+domain_route:MS"}, {"md_atom_id": "md_dmMS_ex_a047", "md_file": "knowledge_base/domains/MS/examples.md", "md_atom_type": "TABLE_ROW", "md_parent_section": "§MS.3 [Example 3]", "md_verbatim": "| 4 | ABC | MS | ABC-01-101 | ABC765 | MYCOBACTERIUM TUBERCULOSIS | 4 | 100.2 | | MICROSUS | Microbial Susceptibility | Isoniazid | | | SUSCEPTIBLE | SUSCEPTIBLE | LAVAGE FLUID | STOMACH | NUCLEIC ACID AMPLIFICATION TEST | 2011-01-17T06:00 |", "score": 0.4259, "match_basis": "verbatim_token+domain_route:MS"}], "candidate_count": 5, "zero_candidate": false}
{"pdf_atom_id": "ig34_p0254_a008", "pdf_atom_type": "CODE_LITERAL", "pdf_source": "SDTMIG_v3.4", "pdf_page": 254, "pdf_parent_section": "§6.3.5.7.2 Microbiology Susceptibility (MS)", "pdf_verbatim": "MSSPCCND", "figure_ref": null, "candidates": [{"md_atom_id": "md_dmMS_ex_a043", "md_file": "knowledge_base/domains/MS/examples.md", "md_atom_type": "TABLE_HEADER", "md_parent_section": "§MS.3 [Example 3]", "md_verbatim": "| Row | STUDYID | DOMAIN | USUBJID | SPDEVID | NHOID | MSSEQ | MSREFID | MSLNKID | MSTESTCD | MSTEST | MSAGENT | MSCONC | MSCONCU | MSORRES | MSSTRESC | MSSPEC | MSLOC | MSMETHOD | MSDTC |\n|-----|---------|--------|---------|---------|-------|-------|---------|---------|----------|--------|---------|--------|---------|---------|----------|--------|-------|----------|-------|", "score": 0.2052, "match_basis": "verbatim_token+domain_route:MS"}, {"md_atom_id": "md_dmMS_ex_a027", "md_file": "knowledge_base/domains/MS/examples.md", "md_atom_type": "TABLE_HEADER", "md_parent_section": "§MS.2 [Example 2]", "md_verbatim": "| Row | STUDYID | DOMAIN | USUBJID | NHOID | MSGRPID | MSSEQ | MSREFID | MSTESTCD | MSTEST | MSAGENT | MSORRES | MSORRESU | MSSTRESC | MSSTRESN | MSSTRESU | MSNAM | MSMETHOD | VISITNUM | VISIT | MSDTC |\n|-----|---------|--------|---------|-------|---------|-------|---------|----------|--------|---------|---------|----------|----------|----------|----------|-------|----------|----------|-------|-------|", "score": 0.1979, "match_basis": "verbatim_token+domain_route:MS"}, {"md_atom_id": "md_dmMS_ex_a009", "md_file": "knowledge_base/domains/MS/examples.md", "md_atom_type": "TABLE_HEADER", "md_parent_section": "§MS.1 [Example 1]", "md_verbatim": "| Row | STUDYID | DOMAIN | USUBJID | NHOID | MSGRPID | MSSEQ | MSREFID | MSLNKGRP | MSTESTCD | MSTEST | MSAGENT | MSCONC | MSCONCU | MSORRES | MSORRESU | MSSTRESC | MSSTRESN | MSSTRESU | MSNAM | MSMETHOD | MSDTC |\n|-----|---------|--------|---------|-------|---------|-------|---------|----------|----------|--------|---------|--------|---------|---------|----------|----------|----------|----------|-------|----------|-------|", "score": 0.1975, "match_basis": "verbatim_token+domain_route:MS"}, {"md_atom_id": "md_dmMS_assn_a005", "md_file": "knowledge_base/domains/MS/assumptions.md", "md_atom_type": "LIST_ITEM", "md_parent_section": "§MS [MS — Assumptions]", "md_verbatim": "      ii. For studies using quantitative testing methods, MSAGENT is used to represent the drug being tested; MSCONC and MSCONCU are not used. The concentration at which growth is inhibited is the result in these cases (MSORRES, MSSTRESC/MSSTRESN), with units being represented in MSORRESU/MSSTRESU.", "score": 0.1958, "match_basis": "verbatim_token+domain_route:MS"}, {"md_atom_id": "md_dmMS_assn_a001", "md_file": "knowledge_base/domains/MS/assumptions.md", "md_atom_type": "HEADING", "md_parent_section": "§MS [MS — Assumptions]", "md_verbatim": "# MS — Assumptions", "score": 0.19, "match_basis": "verbatim_token+domain_route:MS"}], "candidate_count": 5, "zero_candidate": false}
{"pdf_atom_id": "ig34_p0254_a009", "pdf_atom_type": "TABLE_ROW", "pdf_source": "SDTMIG_v3.4", "pdf_page": 254, "pdf_parent_section": "§6.3.5.7.2 Microbiology Susceptibility (MS)", "pdf_verbatim": "| MSLOC | Location Used for the Measurement | Char | (LOC) | Record Qualifier | Anatomical location of the subject relevant to the collection of the measurement. | Perm |", "figure_ref": null, "candidates": [{"md_atom_id": "md_dmMS_ex_a015", "md_file": "knowledge_base/domains/MS/examples.md", "md_atom_type": "TABLE_ROW", "md_parent_section": "§MS.1 [Example 1]", "md_verbatim": "| 6 | ABC | MS | ABC-001-002 | ENTEROCOCCUS FAECALIS | | 6 | SPEC01 | 2 | MICROSUS | Microbial Susceptibility | Amoxicillin | 0.5 | ug/dL | RESISTANT | | RESISTANT | | | LOCAL LAB XYZ | MACRO BROTH DILUTION | 2005-06-19T08:00 |", "score": 0.4412, "match_basis": "verbatim_token+domain_route:MS"}, {"md_atom_id": "md_dmMS_ex_a046", "md_file": "knowledge_base/domains/MS/examples.md", "md_atom_type": "TABLE_ROW", "md_parent_section": "§MS.3 [Example 3]", "md_verbatim": "| 3 | ABC | MS | ABC-01-101 | ABC765 | MYCOBACTERIUM TUBERCULOSIS | 3 | 100.2 | | MICROSUS | Microbial Susceptibility | Rifampicin | | | RESISTANT | RESISTANT | LAVAGE FLUID | STOMACH | NUCLEIC ACID AMPLIFICATION TEST | 2011-01-17T06:00 |", "score": 0.4405, "match_basis": "verbatim_token+domain_route:MS"}, {"md_atom_id": "md_dmMS_ex_a016", "md_file": "knowledge_base/domains/MS/examples.md", "md_atom_type": "TABLE_ROW", "md_parent_section": "§MS.1 [Example 1]", "md_verbatim": "| 7 | ABC | MS | ABC-001-002 | ENTEROCOCCUS FAECALIS | 3 | 7 | SPEC01 | 2 | DIAZOINH | Diameter of the Zone of Inhibition | Sponsor Drug | | | 23 | mm | 23 | 23 | mm | LOCAL LAB XYZ | DISK DIFFUSION | 2005-06-19T08:00 |", "score": 0.4403, "match_basis": "verbatim_token+domain_route:MS"}, {"md_atom_id": "md_dmMS_ex_a018", "md_file": "knowledge_base/domains/MS/examples.md", "md_atom_type": "TABLE_ROW", "md_parent_section": "§MS.1 [Example 1]", "md_verbatim": "| 9 | ABC | MS | ABC-001-002 | ENTEROCOCCUS FAECALIS | 4 | 9 | SPEC01 | 2 | DIAZOINH | Diameter of the Zone of Inhibition | Amoxicillin | | | 25 | mm | 25 | 25 | mm | LOCAL LAB XYZ | DISK DIFFUSION | 2005-06-19T08:00 |", "score": 0.4397, "match_basis": "verbatim_token+domain_route:MS"}, {"md_atom_id": "md_dmMS_ex_a014", "md_file": "knowledge_base/domains/MS/examples.md", "md_atom_type": "TABLE_ROW", "md_parent_section": "§MS.1 [Example 1]", "md_verbatim": "| 5 | ABC | MS | ABC-001-002 | ENTEROCOCCUS FAECALIS | | 5 | SPEC01 | 2 | MICROSUS | Microbial Susceptibility | Sponsor Drug | 0.5 | ug/dL | SUSCEPTIBLE | | SUSCEPTIBLE | | | LOCAL LAB XYZ | MACRO BROTH DILUTION | 2005-06-19T08:00 |", "score": 0.4384, "match_basis": "verbatim_token+domain_route:MS"}], "candidate_count": 5, "zero_candidate": false}
{"pdf_atom_id": "ig34_p0254_a010", "pdf_atom_type": "CODE_LITERAL", "pdf_source": "SDTMIG_v3.4", "pdf_page": 254, "pdf_parent_section": "§6.3.5.7.2 Microbiology Susceptibility (MS)", "pdf_verbatim": "MSLOC", "figure_ref": null, "candidates": [{"md_atom_id": "md_dmMS_ex_a043", "md_file": "knowledge_base/domains/MS/examples.md", "md_atom_type": "TABLE_HEADER", "md_parent_section": "§MS.3 [Example 3]", "md_verbatim": "| Row | STUDYID | DOMAIN | USUBJID | SPDEVID | NHOID | MSSEQ | MSREFID | MSLNKID | MSTESTCD | MSTEST | MSAGENT | MSCONC | MSCONCU | MSORRES | MSSTRESC | MSSPEC | MSLOC | MSMETHOD | MSDTC |\n|-----|---------|--------|---------|---------|-------|-------|---------|---------|----------|--------|---------|--------|---------|---------|----------|--------|-------|----------|-------|", "score": 0.214, "match_basis": "verbatim_token+domain_route:MS"}, {"md_atom_id": "md_dmMS_ex_a006", "md_file": "knowledge_base/domains/MS/examples.md", "md_atom_type": "SENTENCE", "md_parent_section": "§MS.1 [Example 1]", "md_verbatim": "**Rows 5-6:** Show that Local Lab XYZ found that the sample was susceptible to the sponsor drug at a concentration of 0.5 ug/dL and resistant to amoxicillin at a concentration of 0.5 ug/dL.", "score": 0.1991, "match_basis": "verbatim_token+domain_route:MS"}, {"md_atom_id": "md_dmMS_ex_a016", "md_file": "knowledge_base/domains/MS/examples.md", "md_atom_type": "TABLE_ROW", "md_parent_section": "§MS.1 [Example 1]", "md_verbatim": "| 7 | ABC | MS | ABC-001-002 | ENTEROCOCCUS FAECALIS | 3 | 7 | SPEC01 | 2 | DIAZOINH | Diameter of the Zone of Inhibition | Sponsor Drug | | | 23 | mm | 23 | 23 | mm | LOCAL LAB XYZ | DISK DIFFUSION | 2005-06-19T08:00 |", "score": 0.1987, "match_basis": "verbatim_token+domain_route:MS"}, {"md_atom_id": "md_dmMS_ex_a018", "md_file": "knowledge_base/domains/MS/examples.md", "md_atom_type": "TABLE_ROW", "md_parent_section": "§MS.1 [Example 1]", "md_verbatim": "| 9 | ABC | MS | ABC-001-002 | ENTEROCOCCUS FAECALIS | 4 | 9 | SPEC01 | 2 | DIAZOINH | Diameter of the Zone of Inhibition | Amoxicillin | | | 25 | mm | 25 | 25 | mm | LOCAL LAB XYZ | DISK DIFFUSION | 2005-06-19T08:00 |", "score": 0.1985, "match_basis": "verbatim_token+domain_route:MS"}, {"md_atom_id": "md_dmMS_ex_a017", "md_file": "knowledge_base/domains/MS/examples.md", "md_atom_type": "TABLE_ROW", "md_parent_section": "§MS.1 [Example 1]", "md_verbatim": "| 8 | ABC | MS | ABC-001-002 | ENTEROCOCCUS FAECALIS | 3 | 8 | SPEC01 | 2 | MICROSUS | Microbial Susceptibility | Sponsor Drug | | | SUSCEPTIBLE | | SUSCEPTIBLE | | | LOCAL LAB XYZ | DISK DIFFUSION | 2005-06-19T08:00 |", "score": 0.1982, "match_basis": "verbatim_token+domain_route:MS"}, {"md_atom_id": "md_dmMS_ex_a014", "md_file": "knowledge_base/domains/MS/examples.md", "md_atom_type": "TABLE_ROW", "md_parent_section": "§MS.1 [Example 1]", "md_verbatim": "| 5 | ABC | MS | ABC-001-002 | ENTEROCOCCUS FAECALIS | | 5 | SPEC01 | 2 | MICROSUS | Microbial Susceptibility | Sponsor Drug | 0.5 | ug/dL | SUSCEPTIBLE | | SUSCEPTIBLE | | | LOCAL LAB XYZ | MACRO BROTH DILUTION | 2005-06-19T08:00 |", "score": 0.198, "match_basis": "verbatim_token+domain_route:MS"}, {"md_atom_id": "md_dmMS_ex_a009", "md_file": "knowledge_base/domains/MS/examples.md", "md_atom_type": "TABLE_HEADER", "md_parent_section": "§MS.1 [Example 1]", "md_verbatim": "| Row | STUDYID | DOMAIN | USUBJID | NHOID | MSGRPID | MSSEQ | MSREFID | MSLNKGRP | MSTESTCD | MSTEST | MSAGENT | MSCONC | MSCONCU | MSORRES | MSORRESU | MSSTRESC | MSSTRESN | MSSTRESU | MSNAM | MSMETHOD | MSDTC |\n|-----|---------|--------|---------|-------|---------|-------|---------|----------|----------|--------|---------|--------|---------|---------|----------|----------|----------|----------|-------|----------|-------|", "score": 0.1978, "match_basis": "verbatim_token+domain_route:MS"}, {"md_atom_id": "md_dmMS_ex_a019", "md_file": "knowledge_base/domains/MS/examples.md", "md_atom_type": "TABLE_ROW", "md_parent_section": "§MS.1 [Example 1]", "md_verbatim": "| 10 | ABC | MS | ABC-001-002 | ENTEROCOCCUS FAECALIS | 4 | 10 | SPEC01 | 2 | MICROSUS | Microbial Susceptibility | Amoxicillin | | | RESISTANT | | RESISTANT | | | LOCAL LAB XYZ | DISK DIFFUSION | 2005-06-19T08:00 |", "score": 0.1975, "match_basis": "verbatim_token+domain_route:MS"}, {"md_atom_id": "md_dmMS_ex_a015", "md_file": "knowledge_base/domains/MS/examples.md", "md_atom_type": "TABLE_ROW", "md_parent_section": "§MS.1 [Example 1]", "md_verbatim": "| 6 | ABC | MS | ABC-001-002 | ENTEROCOCCUS FAECALIS | | 6 | SPEC01 | 2 | MICROSUS | Microbial Susceptibility | Amoxicillin | 0.5 | ug/dL | RESISTANT | | RESISTANT | | | LOCAL LAB XYZ | MACRO BROTH DILUTION | 2005-06-19T08:00 |", "score": 0.1973, "match_basis": "verbatim_token+domain_route:MS"}, {"md_atom_id": "md_dmMS_ex_a007", "md_file": "knowledge_base/domains/MS/examples.md", "md_atom_type": "SENTENCE", "md_parent_section": "§MS.1 [Example 1]", "md_verbatim": "**Rows 7-10:** Show the diameter of the zone of inhibition and the interpretation result reported from Local Lab XYZ from a sample that was tested for susceptibility to the sponsor drug and amoxicillin using a disk diffusion test method.", "score": 0.1959, "match_basis": "verbatim_token+domain_route:MS"}], "candidate_count": 10, "zero_candidate": false}
{"pdf_atom_id": "ig34_p0254_a011", "pdf_atom_type": "TABLE_ROW", "pdf_source": "SDTMIG_v3.4", "pdf_page": 254, "pdf_parent_section": "§6.3.5.7.2 Microbiology Susceptibility (MS)", "pdf_verbatim": "| MSLAT | Laterality | Char | (LAT) | Variable Qualifier | Qualifier for anatomical location or specimen further detailing laterality. Examples: \"RIGHT\", \"LEFT\", \"BILATERAL\". | Perm |", "figure_ref": null, "candidates": [{"md_atom_id": "md_dmMS_ex_a014", "md_file": "knowledge_base/domains/MS/examples.md", "md_atom_type": "TABLE_ROW", "md_parent_section": "§MS.1 [Example 1]", "md_verbatim": "| 5 | ABC | MS | ABC-001-002 | ENTEROCOCCUS FAECALIS | | 5 | SPEC01 | 2 | MICROSUS | Microbial Susceptibility | Sponsor Drug | 0.5 | ug/dL | SUSCEPTIBLE | | SUSCEPTIBLE | | | LOCAL LAB XYZ | MACRO BROTH DILUTION | 2005-06-19T08:00 |", "score": 0.4692, "match_basis": "verbatim_token+domain_route:MS"}, {"md_atom_id": "md_dmMS_ex_a047", "md_file": "knowledge_base/domains/MS/examples.md", "md_atom_type": "TABLE_ROW", "md_parent_section": "§MS.3 [Example 3]", "md_verbatim": "| 4 | ABC | MS | ABC-01-101 | ABC765 | MYCOBACTERIUM TUBERCULOSIS | 4 | 100.2 | | MICROSUS | Microbial Susceptibility | Isoniazid | | | SUSCEPTIBLE | SUSCEPTIBLE | LAVAGE FLUID | STOMACH | NUCLEIC ACID AMPLIFICATION TEST | 2011-01-17T06:00 |", "score": 0.4685, "match_basis": "verbatim_token+domain_route:MS"}, {"md_atom_id": "md_dmMS_ex_a015", "md_file": "knowledge_base/domains/MS/examples.md", "md_atom_type": "TABLE_ROW", "md_parent_section": "§MS.1 [Example 1]", "md_verbatim": "| 6 | ABC | MS | ABC-001-002 | ENTEROCOCCUS FAECALIS | | 6 | SPEC01 | 2 | MICROSUS | Microbial Susceptibility | Amoxicillin | 0.5 | ug/dL | RESISTANT | | RESISTANT | | | LOCAL LAB XYZ | MACRO BROTH DILUTION | 2005-06-19T08:00 |", "score": 0.4657, "match_basis": "verbatim_token+domain_route:MS"}, {"md_atom_id": "md_dmMS_ex_a017", "md_file": "knowledge_base/domains/MS/examples.md", "md_atom_type": "TABLE_ROW", "md_parent_section": "§MS.1 [Example 1]", "md_verbatim": "| 8 | ABC | MS | ABC-001-002 | ENTEROCOCCUS FAECALIS | 3 | 8 | SPEC01 | 2 | MICROSUS | Microbial Susceptibility | Sponsor Drug | | | SUSCEPTIBLE | | SUSCEPTIBLE | | | LOCAL LAB XYZ | DISK DIFFUSION | 2005-06-19T08:00 |", "score": 0.4651, "match_basis": "verbatim_token+domain_route:MS"}, {"md_atom_id": "md_dmMS_ex_a046", "md_file": "knowledge_base/domains/MS/examples.md", "md_atom_type": "TABLE_ROW", "md_parent_section": "§MS.3 [Example 3]", "md_verbatim": "| 3 | ABC | MS | ABC-01-101 | ABC765 | MYCOBACTERIUM TUBERCULOSIS | 3 | 100.2 | | MICROSUS | Microbial Susceptibility | Rifampicin | | | RESISTANT | RESISTANT | LAVAGE FLUID | STOMACH | NUCLEIC ACID AMPLIFICATION TEST | 2011-01-17T06:00 |", "score": 0.4623, "match_basis": "verbatim_token+domain_route:MS"}], "candidate_count": 5, "zero_candidate": false}
{"pdf_atom_id": "ig34_p0254_a012", "pdf_atom_type": "CODE_LITERAL", "pdf_source": "SDTMIG_v3.4", "pdf_page": 254, "pdf_parent_section": "§6.3.5.7.2 Microbiology Susceptibility (MS)", "pdf_verbatim": "MSLAT", "figure_ref": null, "candidates": [{"md_atom_id": "md_dmMS_ex_a040", "md_file": "knowledge_base/domains/MS/examples.md", "md_atom_type": "SENTENCE", "md_parent_section": "§MS.3 [Example 3]", "md_verbatim": "**Rows 1-2:** Show phenotypic testing results on 2 separate culture plates: 1 with medium containing rifampicin (row 1) and 1 with medium containing isoniazid (row 2). MSAGENT is populated with the name of the drug being used in the susceptibility test. The variables MSCONC and MSCONCU represent the concentration and units of the drug being used. The culture start and stop dates are represented in BE and can be linked to MS by BELNKID and MSLNKID.", "score": 0.1986, "match_basis": "verbatim_token+domain_route:MS"}, {"md_atom_id": "md_dmMS_ex_a009", "md_file": "knowledge_base/domains/MS/examples.md", "md_atom_type": "TABLE_HEADER", "md_parent_section": "§MS.1 [Example 1]", "md_verbatim": "| Row | STUDYID | DOMAIN | USUBJID | NHOID | MSGRPID | MSSEQ | MSREFID | MSLNKGRP | MSTESTCD | MSTEST | MSAGENT | MSCONC | MSCONCU | MSORRES | MSORRESU | MSSTRESC | MSSTRESN | MSSTRESU | MSNAM | MSMETHOD | MSDTC |\n|-----|---------|--------|---------|-------|---------|-------|---------|----------|----------|--------|---------|--------|---------|---------|----------|----------|----------|----------|-------|----------|-------|", "score": 0.1978, "match_basis": "verbatim_token+domain_route:MS"}, {"md_atom_id": "md_dmMS_ex_a043", "md_file": "knowledge_base/domains/MS/examples.md", "md_atom_type": "TABLE_HEADER", "md_parent_section": "§MS.3 [Example 3]", "md_verbatim": "| Row | STUDYID | DOMAIN | USUBJID | SPDEVID | NHOID | MSSEQ | MSREFID | MSLNKID | MSTESTCD | MSTEST | MSAGENT | MSCONC | MSCONCU | MSORRES | MSSTRESC | MSSPEC | MSLOC | MSMETHOD | MSDTC |\n|-----|---------|--------|---------|---------|-------|-------|---------|---------|----------|--------|---------|--------|---------|---------|----------|--------|-------|----------|-------|", "score": 0.1978, "match_basis": "verbatim_token+domain_route:MS"}, {"md_atom_id": "md_dmMS_assn_a006", "md_file": "knowledge_base/domains/MS/assumptions.md", "md_atom_type": "LIST_ITEM", "md_parent_section": "§MS [MS — Assumptions]", "md_verbatim": "      iii. As in 1.a.ii, MSAGENT should be populated with the drug whose action would be affected by the genetic marker being assessed via the genotypic test. MSCONC and MSCONCU are null in these records.", "score": 0.1977, "match_basis": "verbatim_token+domain_route:MS"}, {"md_atom_id": "md_dmMS_assn_a013", "md_file": "knowledge_base/domains/MS/assumptions.md", "md_atom_type": "LIST_ITEM", "md_parent_section": "§MS [MS — Assumptions]", "md_verbatim": "4. NHOID is a sponsor-defined, intuitive name of the non-host organism being tested. It should only be populated with values representing what is known about the identity of the organism before the results of the test are determined. It should therefore never be used as a qualifier of result.", "score": 0.1955, "match_basis": "verbatim_token+domain_route:MS"}, {"md_atom_id": "md_dmMS_ex_a024", "md_file": "knowledge_base/domains/MS/examples.md", "md_atom_type": "SENTENCE", "md_parent_section": "§MS.2 [Example 2]", "md_verbatim": "**Rows 5-8:** Similar to rows 1-4, the sponsor drug (rows 5-6) and penicillin (rows 7-8) were tested against \"KLEBSIELLA PNEUMONIAE\" from an additional sample at a later time point. Results from these tests indicated that the organism was susceptible to sponsor drug, yet had intermediate resistance to penicillin.", "score": 0.1949, "match_basis": "verbatim_token+domain_route:MS"}, {"md_atom_id": "md_dmMS_ex_a025", "md_file": "knowledge_base/domains/MS/examples.md", "md_atom_type": "SENTENCE", "md_parent_section": "§MS.2 [Example 2]", "md_verbatim": "**Rows 9-10:** A test against \"KLEBSIELLA PNEUMONIAE\" from an additional sample at a later time point showed little change in the minimum inhibitory concentration of penicillin, and that the organism is still classified as having intermediate resistance to penicillin.", "score": 0.1947, "match_basis": "verbatim_token+domain_route:MS"}, {"md_atom_id": "md_dmMS_ex_a041", "md_file": "knowledge_base/domains/MS/examples.md", "md_atom_type": "SENTENCE", "md_parent_section": "§MS.3 [Example 3]", "md_verbatim": "**Rows 3-4:** Show genotypic susceptibility testing results on the same aliquot from a NAAT that looks for mutations that confer resistance to 2 drugs. MSAGENT should be populated with the name of the drug whose action is affected by the mutation being tested for. However, because the drug is not used in the test, MSCONC and MSCONCU should be null. These results are represented in MS because the only result given is in terms of resistant/susceptible; no genetic results are reported.", "score": 0.1941, "match_basis": "verbatim_token+domain_route:MS"}, {"md_atom_id": "md_dmMS_ex_a039", "md_file": "knowledge_base/domains/MS/examples.md", "md_atom_type": "SENTENCE", "md_parent_section": "§MS.3 [Example 3]", "md_verbatim": "Results from drug susceptibility tests performed on samples from the gastric TB study (see MB Example 3) are represented in the MS domain. This includes all phenotypic tests (where the drug is added directly to a culture medium) and genotypic tests (when the result is given as susceptible or resistant). In this example, the variable NHOID (Non-host Organism Identifier) is populated with the name of the organism that is the subject of the test.", "score": 0.1939, "match_basis": "verbatim_token+domain_route:MS"}, {"md_atom_id": "md_dmMS_assn_a001", "md_file": "knowledge_base/domains/MS/assumptions.md", "md_atom_type": "HEADING", "md_parent_section": "§MS [MS — Assumptions]", "md_verbatim": "# MS — Assumptions", "score": 0.19, "match_basis": "verbatim_token+domain_route:MS"}], "candidate_count": 10, "zero_candidate": false}
{"pdf_atom_id": "ig34_p0254_a013", "pdf_atom_type": "TABLE_ROW", "pdf_source": "SDTMIG_v3.4", "pdf_page": 254, "pdf_parent_section": "§6.3.5.7.2 Microbiology Susceptibility (MS)", "pdf_verbatim": "| MSDIR | Directionality | Char | (DIR) | Variable Qualifier | Qualifier for anatomical location or specimen further detailing directionality. Examples: \"ANTERIOR\", \"LOWER\", \"PROXIMAL\". | Perm |", "figure_ref": null, "candidates": [{"md_atom_id": "md_dmMS_ex_a015", "md_file": "knowledge_base/domains/MS/examples.md", "md_atom_type": "TABLE_ROW", "md_parent_section": "§MS.1 [Example 1]", "md_verbatim": "| 6 | ABC | MS | ABC-001-002 | ENTEROCOCCUS FAECALIS | | 6 | SPEC01 | 2 | MICROSUS | Microbial Susceptibility | Amoxicillin | 0.5 | ug/dL | RESISTANT | | RESISTANT | | | LOCAL LAB XYZ | MACRO BROTH DILUTION | 2005-06-19T08:00 |", "score": 0.4703, "match_basis": "verbatim_token+domain_route:MS"}, {"md_atom_id": "md_dmMS_ex_a019", "md_file": "knowledge_base/domains/MS/examples.md", "md_atom_type": "TABLE_ROW", "md_parent_section": "§MS.1 [Example 1]", "md_verbatim": "| 10 | ABC | MS | ABC-001-002 | ENTEROCOCCUS FAECALIS | 4 | 10 | SPEC01 | 2 | MICROSUS | Microbial Susceptibility | Amoxicillin | | | RESISTANT | | RESISTANT | | | LOCAL LAB XYZ | DISK DIFFUSION | 2005-06-19T08:00 |", "score": 0.4667, "match_basis": "verbatim_token+domain_route:MS"}, {"md_atom_id": "md_dmMS_ex_a014", "md_file": "knowledge_base/domains/MS/examples.md", "md_atom_type": "TABLE_ROW", "md_parent_section": "§MS.1 [Example 1]", "md_verbatim": "| 5 | ABC | MS | ABC-001-002 | ENTEROCOCCUS FAECALIS | | 5 | SPEC01 | 2 | MICROSUS | Microbial Susceptibility | Sponsor Drug | 0.5 | ug/dL | SUSCEPTIBLE | | SUSCEPTIBLE | | | LOCAL LAB XYZ | MACRO BROTH DILUTION | 2005-06-19T08:00 |", "score": 0.4643, "match_basis": "verbatim_token+domain_route:MS"}, {"md_atom_id": "md_dmMS_ex_a047", "md_file": "knowledge_base/domains/MS/examples.md", "md_atom_type": "TABLE_ROW", "md_parent_section": "§MS.3 [Example 3]", "md_verbatim": "| 4 | ABC | MS | ABC-01-101 | ABC765 | MYCOBACTERIUM TUBERCULOSIS | 4 | 100.2 | | MICROSUS | Microbial Susceptibility | Isoniazid | | | SUSCEPTIBLE | SUSCEPTIBLE | LAVAGE FLUID | STOMACH | NUCLEIC ACID AMPLIFICATION TEST | 2011-01-17T06:00 |", "score": 0.4642, "match_basis": "verbatim_token+domain_route:MS"}, {"md_atom_id": "md_dmMS_ex_a046", "md_file": "knowledge_base/domains/MS/examples.md", "md_atom_type": "TABLE_ROW", "md_parent_section": "§MS.3 [Example 3]", "md_verbatim": "| 3 | ABC | MS | ABC-01-101 | ABC765 | MYCOBACTERIUM TUBERCULOSIS | 3 | 100.2 | | MICROSUS | Microbial Susceptibility | Rifampicin | | | RESISTANT | RESISTANT | LAVAGE FLUID | STOMACH | NUCLEIC ACID AMPLIFICATION TEST | 2011-01-17T06:00 |", "score": 0.4626, "match_basis": "verbatim_token+domain_route:MS"}], "candidate_count": 5, "zero_candidate": false}
