{"pdf_atom_id": "ig34_p0055_a002", "pdf_atom_type": "SENTENCE", "pdf_source": "SDTMIG_v3.4", "pdf_page": 55, "pdf_parent_section": "§4.5.3.1 [Test Name (--TEST) Greater than 40 Characters]", "pdf_verbatim": "IETEST values in the Inclusion/Exclusion Criteria Not Met (IE) and Trial Inclusion/Exclusion Criteria (TI) domains are exceptions to the 40-character rule and are limited to 200 characters, because these are not expected to be transformed to column labels.", "figure_ref": null, "candidates": [{"md_atom_id": "md_ch04_a902", "md_file": "knowledge_base/chapters/ch04_general_assumptions.md", "md_atom_type": "NOTE", "md_parent_section": "§4.5.3.1 [Test Name (--TEST) Greater than 40 Characters]", "md_verbatim": "**Exception — IETEST in IE and TI domains:** IETEST values in the Inclusion/Exclusion Criteria Not Met (IE) and Trial Inclusion/Exclusion Criteria (TI) domains are exceptions to the 40-character rule and are limited to 200 characters, because these are not expected to be transformed to column labels. Values of IETEST that exceed 200 characters should be described in study metadata as per the convention above.", "score": 0.643, "match_basis": "verbatim_token+chapter_route:ch04"}, {"md_atom_id": "md_ch04_a896", "md_file": "knowledge_base/chapters/ch04_general_assumptions.md", "md_atom_type": "SENTENCE", "md_parent_section": "§4.5.3.1 [Test Name (--TEST) Greater than 40 Characters]", "md_verbatim": "Because the --TEST variable is meant to serve as a label for a --TESTCD when a Findings dataset is transposed to a more horizontal format, the length of --TEST is limited to 40 characters (except as noted below) to conform to the limitations of the SAS V5 transport file format.", "score": 0.4583, "match_basis": "verbatim_token+chapter_route:ch04"}, {"md_atom_id": "md_ch04_a175", "md_file": "knowledge_base/chapters/ch04_general_assumptions.md", "md_atom_type": "SENTENCE", "md_parent_section": "§4.2.1 [Variable-Naming Conventions]", "md_verbatim": "Values of --TESTCD must be limited to 8 characters and cannot start with a number, nor can they contain characters other than letters, numbers, or underscores. This is to avoid possible incompatibility with SAS v5 transport files. This limitation will be in effect until the use of other formats (e.g., Dataset-XML) becomes acceptable to regulatory authorities.", "score": 0.4144, "match_basis": "verbatim_token+chapter_route:ch04"}, {"md_atom_id": "md_ch04_a945", "md_file": "knowledge_base/chapters/ch04_general_assumptions.md", "md_atom_type": "SENTENCE", "md_parent_section": "§4.5.3.2 [Text Strings Greater than 200 Characters in Other Variables]", "md_verbatim": "**Domain-specific conventions for text > 200 characters:**", "score": 0.4125, "match_basis": "verbatim_token+chapter_route:ch04"}, {"md_atom_id": "md_ch04_a993", "md_file": "knowledge_base/chapters/ch04_general_assumptions.md", "md_atom_type": "SENTENCE", "md_parent_section": "§4.5.7 [Presence or Absence of Prespecified Interventions and Events]", "md_verbatim": "Questions such as \"Did the subject have any concomitant medications?\" or \"Did the subject have any medical history?\" should not have records in an SDTM domain because (1) these are not valid values for the respective topic variables of CMTRT and MHTERM, and (2) records whose sole purpose is to indicate whether or not a subject had records are not meaningful.", "score": 0.404, "match_basis": "verbatim_token+chapter_route:ch04"}], "candidate_count": 5, "zero_candidate": false}
{"pdf_atom_id": "ig34_p0055_a003", "pdf_atom_type": "SENTENCE", "pdf_source": "SDTMIG_v3.4", "pdf_page": 55, "pdf_parent_section": "§4.5.3.1 [Test Name (--TEST) Greater than 40 Characters]", "pdf_verbatim": "Values of IETEST that exceed 200 characters should be described in study metadata as per the convention above.", "figure_ref": null, "candidates": [{"md_atom_id": "md_ch04_a902", "md_file": "knowledge_base/chapters/ch04_general_assumptions.md", "md_atom_type": "NOTE", "md_parent_section": "§4.5.3.1 [Test Name (--TEST) Greater than 40 Characters]", "md_verbatim": "**Exception — IETEST in IE and TI domains:** IETEST values in the Inclusion/Exclusion Criteria Not Met (IE) and Trial Inclusion/Exclusion Criteria (TI) domains are exceptions to the 40-character rule and are limited to 200 characters, because these are not expected to be transformed to column labels. Values of IETEST that exceed 200 characters should be described in study metadata as per the convention above.", "score": 0.5022, "match_basis": "verbatim_token+chapter_route:ch04"}, {"md_atom_id": "md_ch04_a895", "md_file": "knowledge_base/chapters/ch04_general_assumptions.md", "md_atom_type": "SENTENCE", "md_parent_section": "§4.5.3.1 [Test Name (--TEST) Greater than 40 Characters]", "md_verbatim": "Sponsors may have test descriptions (--TEST) longer than 40 characters in their operational database.", "score": 0.4482, "match_basis": "verbatim_token+chapter_route:ch04"}, {"md_atom_id": "md_ch04_a945", "md_file": "knowledge_base/chapters/ch04_general_assumptions.md", "md_atom_type": "SENTENCE", "md_parent_section": "§4.5.3.2 [Text Strings Greater than 200 Characters in Other Variables]", "md_verbatim": "**Domain-specific conventions for text > 200 characters:**", "score": 0.4457, "match_basis": "verbatim_token+chapter_route:ch04"}, {"md_atom_id": "md_ch04_a901", "md_file": "knowledge_base/chapters/ch04_general_assumptions.md", "md_atom_type": "SENTENCE", "md_parent_section": "§4.5.3.1 [Test Name (--TEST) Greater than 40 Characters]", "md_verbatim": "This convention should also be applied to the qualifier value label (QLABEL) in Supplemental Qualifiers (SUPP--) datasets.", "score": 0.4295, "match_basis": "verbatim_token+chapter_route:ch04"}, {"md_atom_id": "md_ch04_a388", "md_file": "knowledge_base/chapters/ch04_general_assumptions.md", "md_atom_type": "SENTENCE", "md_parent_section": "§4.2.8.3 [Multiple Values for a Non-result Qualifier Variable]", "md_verbatim": "The controlled terminology used should be documented as part of value-level metadata.", "score": 0.42, "match_basis": "verbatim_token+chapter_route:ch04"}], "candidate_count": 5, "zero_candidate": false}
{"pdf_atom_id": "ig34_p0055_a004", "pdf_atom_type": "CROSS_REF", "pdf_source": "SDTMIG_v3.4", "pdf_page": 55, "pdf_parent_section": "§4.5.3.1 [Test Name (--TEST) Greater than 40 Characters]", "pdf_verbatim": "See Section 6.3.4, Inclusion/Exclusion Criteria Not Met, assumption 3; and Section 7.4.1, Trial Inclusion/Exclusion Criteria, assumption 5.", "figure_ref": null, "candidates": [{"md_atom_id": "md_ch04_a814", "md_file": "knowledge_base/chapters/ch04_general_assumptions.md", "md_atom_type": "HEADING", "md_parent_section": "§4 [General Assumptions]", "md_verbatim": "## 4.5 Other Assumptions", "score": 0.2271, "match_basis": "verbatim_token+chapter_route:ch04"}, {"md_atom_id": "md_ch04_a172", "md_file": "knowledge_base/chapters/ch04_general_assumptions.md", "md_atom_type": "HEADING", "md_parent_section": "§4 [Assumptions for Domain Models]", "md_verbatim": "## 4.2 General Variable Assumptions", "score": 0.2186, "match_basis": "verbatim_token+chapter_route:ch04"}, {"md_atom_id": "md_ch04_a474", "md_file": "knowledge_base/chapters/ch04_general_assumptions.md", "md_atom_type": "HEADING", "md_parent_section": "§4 [General Assumptions]", "md_verbatim": "## 4.4 Actual and Relative Time Assumptions", "score": 0.2127, "match_basis": "verbatim_token+chapter_route:ch04"}, {"md_atom_id": "md_ch04_a006", "md_file": "knowledge_base/chapters/ch04_general_assumptions.md", "md_atom_type": "HEADING", "md_parent_section": "§4 [Assumptions for Domain Models]", "md_verbatim": "## 4.1 General Domain Assumptions", "score": 0.2071, "match_basis": "verbatim_token+chapter_route:ch04"}, {"md_atom_id": "md_ch04_a417", "md_file": "knowledge_base/chapters/ch04_general_assumptions.md", "md_atom_type": "HEADING", "md_parent_section": "§4 [General Assumptions]", "md_verbatim": "## 4.3 Coding and Controlled Terminology Assumptions", "score": 0.2054, "match_basis": "verbatim_token+chapter_route:ch04"}], "candidate_count": 5, "zero_candidate": false}
{"pdf_atom_id": "ig34_p0055_a005", "pdf_atom_type": "HEADING", "pdf_source": "SDTMIG_v3.4", "pdf_page": 55, "pdf_parent_section": "§4.5.3.2 [Text Strings Greater than 200 Characters in Other Variables]", "pdf_verbatim": "4.5.3.2 Text Strings Greater than 200 Characters in Other Variables", "figure_ref": null, "candidates": [{"md_atom_id": "md_ch04_a903", "md_file": "knowledge_base/chapters/ch04_general_assumptions.md", "md_atom_type": "HEADING", "md_parent_section": "§4.5.3 [Text Strings that Exceed the Maximum Length for General Observation-class Domain Variables]", "md_verbatim": "#### 4.5.3.2 Text Strings Greater than 200 Characters in Other Variables", "score": 0.9, "match_basis": "verbatim_token+chapter_route:ch04"}, {"md_atom_id": "md_ch04_a894", "md_file": "knowledge_base/chapters/ch04_general_assumptions.md", "md_atom_type": "HEADING", "md_parent_section": "§4.5.3 [Text Strings that Exceed the Maximum Length for General Observation-class Domain Variables]", "md_verbatim": "#### 4.5.3.1 Test Name (--TEST) Greater than 40 Characters", "score": 0.5333, "match_basis": "verbatim_token+chapter_route:ch04"}, {"md_atom_id": "md_ch04_a893", "md_file": "knowledge_base/chapters/ch04_general_assumptions.md", "md_atom_type": "HEADING", "md_parent_section": "§4.5 [Other Assumptions]", "md_verbatim": "### 4.5.3 Text Strings that Exceed the Maximum Length for General Observation-class Domain Variables", "score": 0.4412, "match_basis": "verbatim_token+chapter_route:ch04"}, {"md_atom_id": "md_ch04_a027", "md_file": "knowledge_base/chapters/ch04_general_assumptions.md", "md_atom_type": "HEADING", "md_parent_section": "§4.1 [General Domain Assumptions]", "md_verbatim": "### 4.1.4 Order of the Variables", "score": 0.4371, "match_basis": "verbatim_token+chapter_route:ch04"}, {"md_atom_id": "md_ch04_a801", "md_file": "knowledge_base/chapters/ch04_general_assumptions.md", "md_atom_type": "HEADING", "md_parent_section": "§4.4.11 [Disease Milestones and Disease Milestone Timing Variables]", "md_verbatim": "#### Use of Disease Milestone Timing Variables with Other Timing Variables", "score": 0.4347, "match_basis": "verbatim_token+chapter_route:ch04"}], "candidate_count": 5, "zero_candidate": false}
{"pdf_atom_id": "ig34_p0055_a006", "pdf_atom_type": "SENTENCE", "pdf_source": "SDTMIG_v3.4", "pdf_page": 55, "pdf_parent_section": "§4.5.3.2 [Text Strings Greater than 200 Characters in Other Variables]", "pdf_verbatim": "Some sponsors may collect data values longer than 200 characters for some variables.", "figure_ref": null, "candidates": [{"md_atom_id": "md_ch04_a904", "md_file": "knowledge_base/chapters/ch04_general_assumptions.md", "md_atom_type": "SENTENCE", "md_parent_section": "§4.5.3.2 [Text Strings Greater than 200 Characters in Other Variables]", "md_verbatim": "Some sponsors may collect data values longer than 200 characters for some variables.", "score": 0.9, "match_basis": "verbatim_token+chapter_route:ch04"}, {"md_atom_id": "md_ch04_a895", "md_file": "knowledge_base/chapters/ch04_general_assumptions.md", "md_atom_type": "SENTENCE", "md_parent_section": "§4.5.3.1 [Test Name (--TEST) Greater than 40 Characters]", "md_verbatim": "Sponsors may have test descriptions (--TEST) longer than 40 characters in their operational database.", "score": 0.4971, "match_basis": "verbatim_token+chapter_route:ch04"}, {"md_atom_id": "md_ch04_a131", "md_file": "knowledge_base/chapters/ch04_general_assumptions.md", "md_atom_type": "SENTENCE", "md_parent_section": "§4.1.8.2 [Origin Metadata for Records]", "md_verbatim": "Sponsors are cautioned to recognize that a derived origin means that all values for that variable were derived, and that collected on the CRF applies to all values as well.", "score": 0.4694, "match_basis": "verbatim_token+chapter_route:ch04"}, {"md_atom_id": "md_ch04_a410", "md_file": "knowledge_base/chapters/ch04_general_assumptions.md", "md_atom_type": "SENTENCE", "md_parent_section": "§4.2.9 [Variable Lengths]", "md_verbatim": "One of the main contributors to large file sizes has been sponsors using the maximum length of 200 for character variables.", "score": 0.4671, "match_basis": "verbatim_token+chapter_route:ch04"}, {"md_atom_id": "md_ch04_a508", "md_file": "knowledge_base/chapters/ch04_general_assumptions.md", "md_atom_type": "SENTENCE", "md_parent_section": "§4.4.1 [Formats for Date/Time Variables]", "md_verbatim": "The SDTM fragment employed for date/time character variables is **DTC**.", "score": 0.4548, "match_basis": "verbatim_token+chapter_route:ch04"}], "candidate_count": 5, "zero_candidate": false}
{"pdf_atom_id": "ig34_p0055_a007", "pdf_atom_type": "SENTENCE", "pdf_source": "SDTMIG_v3.4", "pdf_page": 55, "pdf_parent_section": "§4.5.3.2 [Text Strings Greater than 200 Characters in Other Variables]", "pdf_verbatim": "Because of the current requirement for the SAS V5 transport file format, it is not possible to store long text strings using only 1 variable.", "figure_ref": null, "candidates": [{"md_atom_id": "md_ch04_a905", "md_file": "knowledge_base/chapters/ch04_general_assumptions.md", "md_atom_type": "SENTENCE", "md_parent_section": "§4.5.3.2 [Text Strings Greater than 200 Characters in Other Variables]", "md_verbatim": "Because of the current requirement for the SAS V5 transport file format, it is not possible to store long text strings using only 1 variable.", "score": 0.9, "match_basis": "verbatim_token+chapter_route:ch04"}, {"md_atom_id": "md_ch04_a906", "md_file": "knowledge_base/chapters/ch04_general_assumptions.md", "md_atom_type": "SENTENCE", "md_parent_section": "§4.5.3.2 [Text Strings Greater than 200 Characters in Other Variables]", "md_verbatim": "Therefore, the SDTMIG has defined conventions for storing long text strings using multiple variables.", "score": 0.4516, "match_basis": "verbatim_token+chapter_route:ch04"}, {"md_atom_id": "md_ch04_a896", "md_file": "knowledge_base/chapters/ch04_general_assumptions.md", "md_atom_type": "SENTENCE", "md_parent_section": "§4.5.3.1 [Test Name (--TEST) Greater than 40 Characters]", "md_verbatim": "Because the --TEST variable is meant to serve as a label for a --TESTCD when a Findings dataset is transposed to a more horizontal format, the length of --TEST is limited to 40 characters (except as noted below) to conform to the limitations of the SAS V5 transport file format.", "score": 0.4442, "match_basis": "verbatim_token+chapter_route:ch04"}, {"md_atom_id": "md_ch04_a926", "md_file": "knowledge_base/chapters/ch04_general_assumptions.md", "md_atom_type": "SENTENCE", "md_parent_section": "§4.5.3.2 [Text Strings Greater than 200 Characters in Other Variables]", "md_verbatim": "**Example 2 (ae.xpt / suppae.xpt):** AEACNOTH was longer than 200 characters, but required only 1 supplemental qualifier for the text that extended beyond what could be represented in the standard variable.", "score": 0.4053, "match_basis": "verbatim_token+chapter_route:ch04"}, {"md_atom_id": "md_ch04_a138", "md_file": "knowledge_base/chapters/ch04_general_assumptions.md", "md_atom_type": "SENTENCE", "md_parent_section": "§4.1.9 [Assigning Natural Keys in the Metadata]", "md_verbatim": "The following example illustrates how to do this, and include a case where a Supplemental Qualifier variable is referenced because it forms part of the natural key.", "score": 0.4041, "match_basis": "verbatim_token+chapter_route:ch04"}], "candidate_count": 5, "zero_candidate": false}
{"pdf_atom_id": "ig34_p0055_a008", "pdf_atom_type": "SENTENCE", "pdf_source": "SDTMIG_v3.4", "pdf_page": 55, "pdf_parent_section": "§4.5.3.2 [Text Strings Greater than 200 Characters in Other Variables]", "pdf_verbatim": "Therefore, the SDTMIG has defined conventions for storing long text strings using multiple variables.", "figure_ref": null, "candidates": [{"md_atom_id": "md_ch04_a906", "md_file": "knowledge_base/chapters/ch04_general_assumptions.md", "md_atom_type": "SENTENCE", "md_parent_section": "§4.5.3.2 [Text Strings Greater than 200 Characters in Other Variables]", "md_verbatim": "Therefore, the SDTMIG has defined conventions for storing long text strings using multiple variables.", "score": 0.9, "match_basis": "verbatim_token+chapter_route:ch04"}, {"md_atom_id": "md_ch04_a905", "md_file": "knowledge_base/chapters/ch04_general_assumptions.md", "md_atom_type": "SENTENCE", "md_parent_section": "§4.5.3.2 [Text Strings Greater than 200 Characters in Other Variables]", "md_verbatim": "Because of the current requirement for the SAS V5 transport file format, it is not possible to store long text strings using only 1 variable.", "score": 0.4516, "match_basis": "verbatim_token+chapter_route:ch04"}, {"md_atom_id": "md_ch04_a408", "md_file": "knowledge_base/chapters/ch04_general_assumptions.md", "md_atom_type": "SENTENCE", "md_parent_section": "§4.2.9 [Variable Lengths]", "md_verbatim": "When variable length is referenced in the SDTMIG, this refers to the length in bytes of ASCII character strings.", "score": 0.4333, "match_basis": "verbatim_token+chapter_route:ch04"}, {"md_atom_id": "md_ch04_a629", "md_file": "knowledge_base/chapters/ch04_general_assumptions.md", "md_atom_type": "SENTENCE", "md_parent_section": "§4.4.7 [Use of Relative Timing Variables]", "md_verbatim": "The variables --STRF and --ENRF represent the timing of an observation relative to the sponsor-defined study reference period, when information such as \"BEFORE\", \"PRIOR\", \"ONGOING\", or \"CONTINUING\" is collected in lieu of a date and this collected information is in relation to the sponsor-defined study reference period.", "score": 0.4276, "match_basis": "verbatim_token+chapter_route:ch04"}, {"md_atom_id": "md_ch04_a455", "md_file": "knowledge_base/chapters/ch04_general_assumptions.md", "md_atom_type": "SENTENCE", "md_parent_section": "§4.3.6 [Storing Topic Variables for General Domain Models]", "md_verbatim": "For an Interventions domain, the topic variable is --TRT.", "score": 0.4273, "match_basis": "verbatim_token+chapter_route:ch04"}], "candidate_count": 5, "zero_candidate": false}
{"pdf_atom_id": "ig34_p0055_a009", "pdf_atom_type": "SENTENCE", "pdf_source": "SDTMIG_v3.4", "pdf_page": 55, "pdf_parent_section": "§4.5.3.2 [Text Strings Greater than 200 Characters in Other Variables]", "pdf_verbatim": "For general observation-class variables and supplemental qualifiers (i.e., non-standard variables, NSVs), the conventions are as follows:", "figure_ref": null, "candidates": [{"md_atom_id": "md_ch04_a907", "md_file": "knowledge_base/chapters/ch04_general_assumptions.md", "md_atom_type": "SENTENCE", "md_parent_section": "§4.5.3.2 [Text Strings Greater than 200 Characters in Other Variables]", "md_verbatim": "For general observation-class variables and supplemental qualifiers (i.e., non-standard variables, NSVs), the conventions are as follows:", "score": 0.9, "match_basis": "verbatim_token+chapter_route:ch04"}, {"md_atom_id": "md_ch04_a030", "md_file": "knowledge_base/chapters/ch04_general_assumptions.md", "md_atom_type": "SENTENCE", "md_parent_section": "§4.1.4 [Order of the Variables]", "md_verbatim": "Variables for the 3 general observation classes must be ordered with Identifiers variables first, followed by Topic, Qualifier, and Timing variables.", "score": 0.5703, "match_basis": "verbatim_token+chapter_route:ch04"}, {"md_atom_id": "md_ch04_a955", "md_file": "knowledge_base/chapters/ch04_general_assumptions.md", "md_atom_type": "SENTENCE", "md_parent_section": "§4.5.4 [Evaluators in the Interventions and Events Observation Classes]", "md_verbatim": "For observations that have primary and secondary evaluations of specific qualifier variables, sponsors should put data from the primary evaluation into the standard domain dataset and data from the secondary evaluation into the Supplemental Qualifier datasets (SUPP--).", "score": 0.5324, "match_basis": "verbatim_token+chapter_route:ch04"}, {"md_atom_id": "md_ch04_a453", "md_file": "knowledge_base/chapters/ch04_general_assumptions.md", "md_atom_type": "SENTENCE", "md_parent_section": "§4.3.6 [Storing Topic Variables for General Domain Models]", "md_verbatim": "The topic variable for the Interventions and Events general observation-class models is often stored as verbatim text.", "score": 0.4957, "match_basis": "verbatim_token+chapter_route:ch04"}, {"md_atom_id": "md_ch04_a1007", "md_file": "knowledge_base/chapters/ch04_general_assumptions.md", "md_atom_type": "SENTENCE", "md_parent_section": "§4.5.7 [Presence or Absence of Prespecified Interventions and Events]", "md_verbatim": "Refer to the standard domains in the Events and Interventions general observation classes for additional assumptions and examples.", "score": 0.4938, "match_basis": "verbatim_token+chapter_route:ch04"}], "candidate_count": 5, "zero_candidate": false}
{"pdf_atom_id": "ig34_p0055_a010", "pdf_atom_type": "LIST_ITEM", "pdf_source": "SDTMIG_v3.4", "pdf_page": 55, "pdf_parent_section": "§4.5.3.2 [Text Strings Greater than 200 Characters in Other Variables]", "pdf_verbatim": "The first 200 characters of text should be stored in the parent domain variable and each additional 200 characters of text should be stored in a record in the SUPP-- dataset (see Section 8.4, Relating Non-standard Variable Values to a Parent Domain).", "figure_ref": null, "candidates": [{"md_atom_id": "md_ch04_a908", "md_file": "knowledge_base/chapters/ch04_general_assumptions.md", "md_atom_type": "LIST_ITEM", "md_parent_section": "§4.5.3.2 [Text Strings Greater than 200 Characters in Other Variables]", "md_verbatim": "- The **first 200 characters** of text should be stored in the parent domain variable and each additional 200 characters of text should be stored in a record in the SUPP-- dataset (see Section 8.4, Relating Non-standard Variable Values to a Parent Domain)", "score": 0.9, "match_basis": "verbatim_token+chapter_route:ch04"}, {"md_atom_id": "md_ch04_a450", "md_file": "knowledge_base/chapters/ch04_general_assumptions.md", "md_atom_type": "LIST_ITEM", "md_parent_section": "§4.3.5 [Storing Controlled Terminology for Synonym Qualifier Variables (MedDRA and WHODrug)]", "md_verbatim": "- For concomitant medications, supplemental qualifiers may be used to represent additional coding dictionary information (e.g., a drug's ATC codes from the WHO Drug Dictionary); see Section 8.4, Relating Non-standard Variable Values to a Parent Domain", "score": 0.5074, "match_basis": "verbatim_token+chapter_route:ch04"}, {"md_atom_id": "md_ch04_a915", "md_file": "knowledge_base/chapters/ch04_general_assumptions.md", "md_atom_type": "LIST_ITEM", "md_parent_section": "§4.5.3.2 [Text Strings Greater than 200 Characters in Other Variables]", "md_verbatim": "  - In cases where the standard domain variable name is already 8 characters in length, sponsors should **replace the last character with a digit** when creating values for QNAM; for example, for Other Action Taken in Adverse Events (AEACNOTH), values for QNAM for the SUPPAE records would have the values AEACNOT1, AEACNOT2, and so on", "score": 0.4973, "match_basis": "verbatim_token+chapter_route:ch04"}, {"md_atom_id": "md_ch04_a961", "md_file": "knowledge_base/chapters/ch04_general_assumptions.md", "md_atom_type": "SENTENCE", "md_parent_section": "§4.5.4 [Evaluators in the Interventions and Events Observation Classes]", "md_verbatim": "See Section 8.4, Relating Non-standard Variable Values to a Parent Domain.", "score": 0.491, "match_basis": "verbatim_token+chapter_route:ch04"}, {"md_atom_id": "md_ch04_a911", "md_file": "knowledge_base/chapters/ch04_general_assumptions.md", "md_atom_type": "LIST_ITEM", "md_parent_section": "§4.5.3.2 [Text Strings Greater than 200 Characters in Other Variables]", "md_verbatim": "- The value for QNAMs for additional text (>200 characters) should contain a **sequential variable name formed by appending a 1-digit integer, beginning with 1**, to the original domain variable name", "score": 0.4902, "match_basis": "verbatim_token+chapter_route:ch04"}], "candidate_count": 5, "zero_candidate": false}
{"pdf_atom_id": "ig34_p0055_a011", "pdf_atom_type": "LIST_ITEM", "pdf_source": "SDTMIG_v3.4", "pdf_page": 55, "pdf_parent_section": "§4.5.3.2 [Text Strings Greater than 200 Characters in Other Variables]", "pdf_verbatim": "When splitting a text string into several records, the text should be split between words to improve readability.", "figure_ref": null, "candidates": [{"md_atom_id": "md_ch04_a909", "md_file": "knowledge_base/chapters/ch04_general_assumptions.md", "md_atom_type": "LIST_ITEM", "md_parent_section": "§4.5.3.2 [Text Strings Greater than 200 Characters in Other Variables]", "md_verbatim": "- When splitting a text string into several records, the text should be **split between words** to improve readability", "score": 0.9, "match_basis": "verbatim_token+chapter_route:ch04"}, {"md_atom_id": "md_ch04_a949", "md_file": "knowledge_base/chapters/ch04_general_assumptions.md", "md_atom_type": "TABLE_ROW", "md_parent_section": "§4.5.3.2 [Text Strings Greater than 200 Characters in Other Variables]", "md_verbatim": "| Split rule | Split between words to improve readability | Split between words | Split between words | Not applicable |", "score": 0.39, "match_basis": "verbatim_token+chapter_route:ch04"}, {"md_atom_id": "md_ch04_a915", "md_file": "knowledge_base/chapters/ch04_general_assumptions.md", "md_atom_type": "LIST_ITEM", "md_parent_section": "§4.5.3.2 [Text Strings Greater than 200 Characters in Other Variables]", "md_verbatim": "  - In cases where the standard domain variable name is already 8 characters in length, sponsors should **replace the last character with a digit** when creating values for QNAM; for example, for Other Action Taken in Adverse Events (AEACNOTH), values for QNAM for the SUPPAE records would have the values AEACNOT1, AEACNOT2, and so on", "score": 0.3735, "match_basis": "verbatim_token+chapter_route:ch04"}, {"md_atom_id": "md_ch04_a232", "md_file": "knowledge_base/chapters/ch04_general_assumptions.md", "md_atom_type": "LIST_ITEM", "md_parent_section": "§4.2.6 [Grouping Variables and Categorization]", "md_verbatim": "      - Vital Signs recorded during the stress test (VS domain)", "score": 0.3696, "match_basis": "verbatim_token+chapter_route:ch04"}, {"md_atom_id": "md_ch04_a051", "md_file": "knowledge_base/chapters/ch04_general_assumptions.md", "md_atom_type": "LIST_ITEM", "md_parent_section": "§4.1.7 [Splitting Domains]", "md_verbatim": "- A domain based on a general observation class may be split according to values in --CAT. When a domain is split on --CAT, --CAT must not be null.", "score": 0.369, "match_basis": "verbatim_token+chapter_route:ch04"}], "candidate_count": 5, "zero_candidate": false}
{"pdf_atom_id": "ig34_p0055_a012", "pdf_atom_type": "LIST_ITEM", "pdf_source": "SDTMIG_v3.4", "pdf_page": 55, "pdf_parent_section": "§4.5.3.2 [Text Strings Greater than 200 Characters in Other Variables]", "pdf_verbatim": "When the text longer than 200 characters is for a supplemental qualifier, the first QNAM should describe the NSV without any numeric suffix.", "figure_ref": null, "candidates": [{"md_atom_id": "md_ch04_a910", "md_file": "knowledge_base/chapters/ch04_general_assumptions.md", "md_atom_type": "LIST_ITEM", "md_parent_section": "§4.5.3.2 [Text Strings Greater than 200 Characters in Other Variables]", "md_verbatim": "- When the text longer than 200 characters is for a supplemental qualifier, the **first QNAM should describe the NSV without any numeric suffix**", "score": 0.9, "match_basis": "verbatim_token+chapter_route:ch04"}, {"md_atom_id": "md_ch04_a059", "md_file": "knowledge_base/chapters/ch04_general_assumptions.md", "md_atom_type": "LIST_ITEM", "md_parent_section": "§4.1.7 [Splitting Domains]", "md_verbatim": "6. For domains with 2-letter domain codes (i.e., other than SUPPxx and RELREC), split dataset names can be up to 4 characters in length. For example, if splitting by --CAT, dataset names would be the domain name plus up to 2 additional characters (e.g., QS36 for SF-36). If splitting Findings About by parent domain, then the dataset name would be the domain code, \"FA\", plus the 2-character domain code for parent domain code (e.g., \"FACM\"). The 4-character dataset-name limitation allows the use of a Supplemental Qualifier dataset associated with the split dataset.", "score": 0.4432, "match_basis": "verbatim_token+chapter_route:ch04"}, {"md_atom_id": "md_ch04_a060", "md_file": "knowledge_base/chapters/ch04_general_assumptions.md", "md_atom_type": "LIST_ITEM", "md_parent_section": "§4.1.7 [Splitting Domains]", "md_verbatim": "7. Supplemental Qualifier datasets for split domains would also be split. The nomenclature would include the additional 1 to 2 characters used to identify the split dataset (e.g., SUPPQS36, SUPPFACM). The value of RDOMAIN in the SUPP-- datasets would be the 2-character domain code (e.g., QS, FA).", "score": 0.437, "match_basis": "verbatim_token+chapter_route:ch04"}, {"md_atom_id": "md_ch04_a180", "md_file": "knowledge_base/chapters/ch04_general_assumptions.md", "md_atom_type": "SENTENCE", "md_parent_section": "§4.2.1 [Variable-Naming Conventions]", "md_verbatim": "Variable descriptive names (labels), up to 40 characters, should be provided as data variable labels for all variables, including Supplemental Qualifier variables.", "score": 0.4159, "match_basis": "verbatim_token+chapter_route:ch04"}, {"md_atom_id": "md_ch04_a935", "md_file": "knowledge_base/chapters/ch04_general_assumptions.md", "md_atom_type": "SENTENCE", "md_parent_section": "§4.5.3.2 [Text Strings Greater than 200 Characters in Other Variables]", "md_verbatim": "**Example 3 (pr.xpt / supppr.xpt):** PRREAS was longer than 200 characters, but required only 1 supplemental qualifier to represent the remaining text.", "score": 0.4159, "match_basis": "verbatim_token+chapter_route:ch04"}], "candidate_count": 5, "zero_candidate": false}
{"pdf_atom_id": "ig34_p0055_a013", "pdf_atom_type": "LIST_ITEM", "pdf_source": "SDTMIG_v3.4", "pdf_page": 55, "pdf_parent_section": "§4.5.3.2 [Text Strings Greater than 200 Characters in Other Variables]", "pdf_verbatim": "The value for QNAMs for additional text (>200 characters) should contain a sequential variable name, which is formed by appending a 1-digit integer, beginning with 1, to the original domain variable name.", "figure_ref": null, "candidates": [{"md_atom_id": "md_ch04_a911", "md_file": "knowledge_base/chapters/ch04_general_assumptions.md", "md_atom_type": "LIST_ITEM", "md_parent_section": "§4.5.3.2 [Text Strings Greater than 200 Characters in Other Variables]", "md_verbatim": "- The value for QNAMs for additional text (>200 characters) should contain a **sequential variable name formed by appending a 1-digit integer, beginning with 1**, to the original domain variable name", "score": 0.8791, "match_basis": "verbatim_token+chapter_route:ch04"}, {"md_atom_id": "md_ch04_a908", "md_file": "knowledge_base/chapters/ch04_general_assumptions.md", "md_atom_type": "LIST_ITEM", "md_parent_section": "§4.5.3.2 [Text Strings Greater than 200 Characters in Other Variables]", "md_verbatim": "- The **first 200 characters** of text should be stored in the parent domain variable and each additional 200 characters of text should be stored in a record in the SUPP-- dataset (see Section 8.4, Relating Non-standard Variable Values to a Parent Domain)", "score": 0.4857, "match_basis": "verbatim_token+chapter_route:ch04"}, {"md_atom_id": "md_ch04_a912", "md_file": "knowledge_base/chapters/ch04_general_assumptions.md", "md_atom_type": "LIST_ITEM", "md_parent_section": "§4.5.3.2 [Text Strings Greater than 200 Characters in Other Variables]", "md_verbatim": "- The value for **QLABEL should be the original domain variable label**:", "score": 0.4667, "match_basis": "verbatim_token+chapter_route:ch04"}, {"md_atom_id": "md_ch04_a915", "md_file": "knowledge_base/chapters/ch04_general_assumptions.md", "md_atom_type": "LIST_ITEM", "md_parent_section": "§4.5.3.2 [Text Strings Greater than 200 Characters in Other Variables]", "md_verbatim": "  - In cases where the standard domain variable name is already 8 characters in length, sponsors should **replace the last character with a digit** when creating values for QNAM; for example, for Other Action Taken in Adverse Events (AEACNOTH), values for QNAM for the SUPPAE records would have the values AEACNOT1, AEACNOT2, and so on", "score": 0.4444, "match_basis": "verbatim_token+chapter_route:ch04"}, {"md_atom_id": "md_ch04_a913", "md_file": "knowledge_base/chapters/ch04_general_assumptions.md", "md_atom_type": "LIST_ITEM", "md_parent_section": "§4.5.3.2 [Text Strings Greater than 200 Characters in Other Variables]", "md_verbatim": "  - The reason a digit integer or suffix is not appended to the label is because the long text string represents a single value for a variable; the physical representation (SAS V5 transport file format) does not change the concept described by the label", "score": 0.4269, "match_basis": "verbatim_token+chapter_route:ch04"}], "candidate_count": 5, "zero_candidate": false}
{"pdf_atom_id": "ig34_p0055_a014", "pdf_atom_type": "LIST_ITEM", "pdf_source": "SDTMIG_v3.4", "pdf_page": 55, "pdf_parent_section": "§4.5.3.2 [Text Strings Greater than 200 Characters in Other Variables]", "pdf_verbatim": "The value for QLABEL should be the original domain variable label.", "figure_ref": null, "candidates": [{"md_atom_id": "md_ch04_a912", "md_file": "knowledge_base/chapters/ch04_general_assumptions.md", "md_atom_type": "LIST_ITEM", "md_parent_section": "§4.5.3.2 [Text Strings Greater than 200 Characters in Other Variables]", "md_verbatim": "- The value for **QLABEL should be the original domain variable label**:", "score": 0.9, "match_basis": "verbatim_token+chapter_route:ch04"}, {"md_atom_id": "md_ch04_a422", "md_file": "knowledge_base/chapters/ch04_general_assumptions.md", "md_atom_type": "LIST_ITEM", "md_parent_section": "§4.3.1 [Controlled Terms, Codelist or Format Column]", "md_verbatim": "- The single applicable value for the variable DOMAIN (e.g., \"PR\")", "score": 0.5308, "match_basis": "verbatim_token+chapter_route:ch04"}, {"md_atom_id": "md_ch04_a911", "md_file": "knowledge_base/chapters/ch04_general_assumptions.md", "md_atom_type": "LIST_ITEM", "md_parent_section": "§4.5.3.2 [Text Strings Greater than 200 Characters in Other Variables]", "md_verbatim": "- The value for QNAMs for additional text (>200 characters) should contain a **sequential variable name formed by appending a 1-digit integer, beginning with 1**, to the original domain variable name", "score": 0.4724, "match_basis": "verbatim_token+chapter_route:ch04"}, {"md_atom_id": "md_ch04_a055", "md_file": "knowledge_base/chapters/ch04_general_assumptions.md", "md_atom_type": "LIST_ITEM", "md_parent_section": "§4.1.7 [Splitting Domains]", "md_verbatim": "2. All variables that require a domain prefix (e.g., --TESTCD, --LOC) must use the value of DOMAIN as the prefix value (e.g., QS, FA).", "score": 0.468, "match_basis": "verbatim_token+chapter_route:ch04"}, {"md_atom_id": "md_ch04_a950", "md_file": "knowledge_base/chapters/ch04_general_assumptions.md", "md_atom_type": "TABLE_ROW", "md_parent_section": "§4.5.3.2 [Text Strings Greater than 200 Characters in Other Variables]", "md_verbatim": "| Label | QLABEL should be the original domain variable label | Variable labels for COVAL1 to COVALn should be \"Comment\" | Variable labels for TSVAL1 to TSVALn should be \"Parameter Value\" | Not applicable |", "score": 0.4664, "match_basis": "verbatim_token+chapter_route:ch04"}], "candidate_count": 5, "zero_candidate": false}
{"pdf_atom_id": "ig34_p0055_a015", "pdf_atom_type": "LIST_ITEM", "pdf_source": "SDTMIG_v3.4", "pdf_page": 55, "pdf_parent_section": "§4.5.3.2 [Text Strings Greater than 200 Characters in Other Variables]", "pdf_verbatim": "The reason a digit integer or suffix is not appended to the label is because the long text string represents a single value for a variable. The physical representation (i.e., SAS V5 transport file format) does not change the concept described by the label.", "figure_ref": null, "candidates": [{"md_atom_id": "md_ch04_a913", "md_file": "knowledge_base/chapters/ch04_general_assumptions.md", "md_atom_type": "LIST_ITEM", "md_parent_section": "§4.5.3.2 [Text Strings Greater than 200 Characters in Other Variables]", "md_verbatim": "  - The reason a digit integer or suffix is not appended to the label is because the long text string represents a single value for a variable; the physical representation (SAS V5 transport file format) does not change the concept described by the label", "score": 0.9, "match_basis": "verbatim_token+chapter_route:ch04"}, {"md_atom_id": "md_ch04_a911", "md_file": "knowledge_base/chapters/ch04_general_assumptions.md", "md_atom_type": "LIST_ITEM", "md_parent_section": "§4.5.3.2 [Text Strings Greater than 200 Characters in Other Variables]", "md_verbatim": "- The value for QNAMs for additional text (>200 characters) should contain a **sequential variable name formed by appending a 1-digit integer, beginning with 1**, to the original domain variable name", "score": 0.4294, "match_basis": "verbatim_token+chapter_route:ch04"}, {"md_atom_id": "md_ch04_a504", "md_file": "knowledge_base/chapters/ch04_general_assumptions.md", "md_atom_type": "LIST_ITEM", "md_parent_section": "§4.4.1 [Formats for Date/Time Variables]", "md_verbatim": "- ISO 8601 represents times as a text string using the notation hh:mm:ss(.n+)?(((+|-)hh:mm)|Z)?.", "score": 0.4135, "match_basis": "verbatim_token+chapter_route:ch04"}, {"md_atom_id": "md_ch04_a503", "md_file": "knowledge_base/chapters/ch04_general_assumptions.md", "md_atom_type": "LIST_ITEM", "md_parent_section": "§4.4.1 [Formats for Date/Time Variables]", "md_verbatim": "- ISO 8601 represents dates as a text string using the notation YYYY-MM-DD.", "score": 0.4125, "match_basis": "verbatim_token+chapter_route:ch04"}, {"md_atom_id": "md_ch04_a560", "md_file": "knowledge_base/chapters/ch04_general_assumptions.md", "md_atom_type": "LIST_ITEM", "md_parent_section": "§4.4.3.1 [Intervals of Time and Use of Duration]", "md_verbatim": "- [P] (duration designator): precedes the alphanumeric text string that represents the duration. Note that the use of the character \"P\" is based on the historical use of the term \"period\" for duration.", "score": 0.4068, "match_basis": "verbatim_token+chapter_route:ch04"}], "candidate_count": 5, "zero_candidate": false}
{"pdf_atom_id": "ig34_p0055_a016", "pdf_atom_type": "LIST_ITEM", "pdf_source": "SDTMIG_v3.4", "pdf_page": 55, "pdf_parent_section": "§4.5.3.2 [Text Strings Greater than 200 Characters in Other Variables]", "pdf_verbatim": "This is different conceptually from when there are multiple values for a non-result qualifier variable and values are individually stored in SUPP--. In that case, both QNAM and QLABEL must be uniquely named (see Section 4.2.8.3, Multiple Values for a Non-result Qualifier Variable) because they represent multiple values for a single variable.", "figure_ref": null, "candidates": [{"md_atom_id": "md_ch04_a914", "md_file": "knowledge_base/chapters/ch04_general_assumptions.md", "md_atom_type": "LIST_ITEM", "md_parent_section": "§4.5.3.2 [Text Strings Greater than 200 Characters in Other Variables]", "md_verbatim": "  - This is conceptually different from when there are multiple values for a non-result qualifier variable and values are individually stored in SUPP-- (in that case, both QNAM and QLABEL must be uniquely named per Section 4.2.8.3, Multiple Values for a Non-result Qualifier Variable)", "score": 0.8081, "match_basis": "verbatim_token+chapter_route:ch04"}, {"md_atom_id": "md_ch04_a450", "md_file": "knowledge_base/chapters/ch04_general_assumptions.md", "md_atom_type": "LIST_ITEM", "md_parent_section": "§4.3.5 [Storing Controlled Terminology for Synonym Qualifier Variables (MedDRA and WHODrug)]", "md_verbatim": "- For concomitant medications, supplemental qualifiers may be used to represent additional coding dictionary information (e.g., a drug's ATC codes from the WHO Drug Dictionary); see Section 8.4, Relating Non-standard Variable Values to a Parent Domain", "score": 0.4643, "match_basis": "verbatim_token+chapter_route:ch04"}, {"md_atom_id": "md_ch04_a913", "md_file": "knowledge_base/chapters/ch04_general_assumptions.md", "md_atom_type": "LIST_ITEM", "md_parent_section": "§4.5.3.2 [Text Strings Greater than 200 Characters in Other Variables]", "md_verbatim": "  - The reason a digit integer or suffix is not appended to the label is because the long text string represents a single value for a variable; the physical representation (SAS V5 transport file format) does not change the concept described by the label", "score": 0.4261, "match_basis": "verbatim_token+chapter_route:ch04"}, {"md_atom_id": "md_ch04_a228", "md_file": "knowledge_base/chapters/ch04_general_assumptions.md", "md_atom_type": "LIST_ITEM", "md_parent_section": "§4.2.6 [Grouping Variables and Categorization]", "md_verbatim": "   a. Cases where different domains in the same general observation class contain similar conceptual information. Adverse Events (AE), Medical History (MH), and Clinical Events (CE), for example, are conceptually the same data, the only differences being when the event started relative to the study start and whether the event is considered a regulatory-reportable adverse event in the study. Neurotoxicities collected in oncology trials both as separate Medical History CRFs (MH domain) and Adverse Event CRFs (AE domain) could both identify/collect \"Paresthesia of the left arm\". In both domains, the --CAT variable could have the value of \"NEUROTOXICITY\".", "score": 0.4167, "match_basis": "verbatim_token+chapter_route:ch04"}, {"md_atom_id": "md_ch04_a361", "md_file": "knowledge_base/chapters/ch04_general_assumptions.md", "md_atom_type": "SENTENCE", "md_parent_section": "§4.2.8.3 [Multiple Values for a Non-result Qualifier Variable]", "md_verbatim": "If multiple values exist (e.g., due to a \"Check all that apply\" instruction on a CRF), then the value for the qualifier variable should be \"MULTIPLE\" and SUPP-- should be used to store the individual responses.", "score": 0.4143, "match_basis": "verbatim_token+chapter_route:ch04"}], "candidate_count": 5, "zero_candidate": false}
{"pdf_atom_id": "ig34_p0055_a017", "pdf_atom_type": "LIST_ITEM", "pdf_source": "SDTMIG_v3.4", "pdf_page": 55, "pdf_parent_section": "§4.5.3.2 [Text Strings Greater than 200 Characters in Other Variables]", "pdf_verbatim": "In cases where the standard domain variable name is already 8 characters in length, sponsors should replace the last character with a digit when creating values for QNAM. As an example, for Other Action Taken in Adverse Events (AEACNOTH), values for QNAM for the SUPPAE records would have the values AEACNOT1, AEACNOT2, and so on.", "figure_ref": null, "candidates": [{"md_atom_id": "md_ch04_a915", "md_file": "knowledge_base/chapters/ch04_general_assumptions.md", "md_atom_type": "LIST_ITEM", "md_parent_section": "§4.5.3.2 [Text Strings Greater than 200 Characters in Other Variables]", "md_verbatim": "  - In cases where the standard domain variable name is already 8 characters in length, sponsors should **replace the last character with a digit** when creating values for QNAM; for example, for Other Action Taken in Adverse Events (AEACNOTH), values for QNAM for the SUPPAE records would have the values AEACNOT1, AEACNOT2, and so on", "score": 0.9, "match_basis": "verbatim_token+chapter_route:ch04"}, {"md_atom_id": "md_ch04_a957", "md_file": "knowledge_base/chapters/ch04_general_assumptions.md", "md_atom_type": "SENTENCE", "md_parent_section": "§4.5.4 [Evaluators in the Interventions and Events Observation Classes]", "md_verbatim": "In cases where the standard domain variable name is already 8 characters in length, sponsors should replace the last character with a \"1\" (incremented for each additional attribution).", "score": 0.5056, "match_basis": "verbatim_token+chapter_route:ch04"}, {"md_atom_id": "md_ch04_a908", "md_file": "knowledge_base/chapters/ch04_general_assumptions.md", "md_atom_type": "LIST_ITEM", "md_parent_section": "§4.5.3.2 [Text Strings Greater than 200 Characters in Other Variables]", "md_verbatim": "- The **first 200 characters** of text should be stored in the parent domain variable and each additional 200 characters of text should be stored in a record in the SUPP-- dataset (see Section 8.4, Relating Non-standard Variable Values to a Parent Domain)", "score": 0.4973, "match_basis": "verbatim_token+chapter_route:ch04"}, {"md_atom_id": "md_ch04_a911", "md_file": "knowledge_base/chapters/ch04_general_assumptions.md", "md_atom_type": "LIST_ITEM", "md_parent_section": "§4.5.3.2 [Text Strings Greater than 200 Characters in Other Variables]", "md_verbatim": "- The value for QNAMs for additional text (>200 characters) should contain a **sequential variable name formed by appending a 1-digit integer, beginning with 1**, to the original domain variable name", "score": 0.4472, "match_basis": "verbatim_token+chapter_route:ch04"}, {"md_atom_id": "md_ch04_a179", "md_file": "knowledge_base/chapters/ch04_general_assumptions.md", "md_atom_type": "LIST_ITEM", "md_parent_section": "§4.2.1 [Variable-Naming Conventions]", "md_verbatim": "- ARMCD is limited to 20 characters and does not have the character restrictions that apply to --TESTCD. The maximum length of ARMCD is longer than for other \"short\" variables to accommodate the kind of values that are likely to be needed for crossover trials. For example, if ARMCD values for a 7-period crossover were constructed using 2-character abbreviations for each treatment and separating hyphens, the length of ARMCD values would be 20. This same rule applies to the ACTARMCD variable.", "score": 0.4459, "match_basis": "verbatim_token+chapter_route:ch04"}], "candidate_count": 5, "zero_candidate": false}
{"pdf_atom_id": "ig34_p0055_a018", "pdf_atom_type": "CODE_LITERAL", "pdf_source": "SDTMIG_v3.4", "pdf_page": 55, "pdf_parent_section": "§4.5.3.2 [Text Strings Greater than 200 Characters in Other Variables]", "pdf_verbatim": "AEACNOT1", "figure_ref": null, "candidates": [{"md_atom_id": "md_ch04_a379", "md_file": "knowledge_base/chapters/ch04_general_assumptions.md", "md_atom_type": "TABLE_HEADER", "md_parent_section": "§4.2.8.3 [Multiple Values for a Non-result Qualifier Variable]", "md_verbatim": "| AETERM | AEREL | AEACN |\n|--------|-------|-------|", "score": 0.2285, "match_basis": "verbatim_token+chapter_route:ch04"}, {"md_atom_id": "md_ch04_a392", "md_file": "knowledge_base/chapters/ch04_general_assumptions.md", "md_atom_type": "TABLE_HEADER", "md_parent_section": "§4.2.8.3 [Multiple Values for a Non-result Qualifier Variable]", "md_verbatim": "| AETERM | AEREL | AEACN |\n|--------|-------|-------|", "score": 0.2285, "match_basis": "verbatim_token+chapter_route:ch04"}, {"md_atom_id": "md_ch04_a930", "md_file": "knowledge_base/chapters/ch04_general_assumptions.md", "md_atom_type": "TABLE_HEADER", "md_parent_section": "§4.5.3.2 [Text Strings Greater than 200 Characters in Other Variables]", "md_verbatim": "| Row | STUDYID | DOMAIN | USUBJID | AESEQ | AETERM | AEACNOTH |\n|-----|---------|--------|---------|-------|--------|----------|", "score": 0.1934, "match_basis": "verbatim_token+chapter_route:ch04"}, {"md_atom_id": "md_ch04_a934", "md_file": "knowledge_base/chapters/ch04_general_assumptions.md", "md_atom_type": "TABLE_ROW", "md_parent_section": "§4.5.3.2 [Text Strings Greater than 200 Characters in Other Variables]", "md_verbatim": "| 1 | 12345 | AE | 99-123 | AESEQ | 4 | AEACNOT1 | Other Action Taken | remaining characters of text | CRF |", "score": 0.1823, "match_basis": "verbatim_token+chapter_route:ch04"}, {"md_atom_id": "md_ch04_a397", "md_file": "knowledge_base/chapters/ch04_general_assumptions.md", "md_atom_type": "TABLE_ROW", "md_parent_section": "§4.2.8.3 [Multiple Values for a Non-result Qualifier Variable]", "md_verbatim": "| AEACNX | Action Taken with Xyzamin | DOSE NOT CHANGED |", "score": 0.1757, "match_basis": "verbatim_token+chapter_route:ch04"}], "candidate_count": 5, "zero_candidate": false}
{"pdf_atom_id": "ig34_p0055_a019", "pdf_atom_type": "CODE_LITERAL", "pdf_source": "SDTMIG_v3.4", "pdf_page": 55, "pdf_parent_section": "§4.5.3.2 [Text Strings Greater than 200 Characters in Other Variables]", "pdf_verbatim": "AEACNOT2", "figure_ref": null, "candidates": [{"md_atom_id": "md_ch04_a379", "md_file": "knowledge_base/chapters/ch04_general_assumptions.md", "md_atom_type": "TABLE_HEADER", "md_parent_section": "§4.2.8.3 [Multiple Values for a Non-result Qualifier Variable]", "md_verbatim": "| AETERM | AEREL | AEACN |\n|--------|-------|-------|", "score": 0.2285, "match_basis": "verbatim_token+chapter_route:ch04"}, {"md_atom_id": "md_ch04_a392", "md_file": "knowledge_base/chapters/ch04_general_assumptions.md", "md_atom_type": "TABLE_HEADER", "md_parent_section": "§4.2.8.3 [Multiple Values for a Non-result Qualifier Variable]", "md_verbatim": "| AETERM | AEREL | AEACN |\n|--------|-------|-------|", "score": 0.2285, "match_basis": "verbatim_token+chapter_route:ch04"}, {"md_atom_id": "md_ch04_a930", "md_file": "knowledge_base/chapters/ch04_general_assumptions.md", "md_atom_type": "TABLE_HEADER", "md_parent_section": "§4.5.3.2 [Text Strings Greater than 200 Characters in Other Variables]", "md_verbatim": "| Row | STUDYID | DOMAIN | USUBJID | AESEQ | AETERM | AEACNOTH |\n|-----|---------|--------|---------|-------|--------|----------|", "score": 0.1934, "match_basis": "verbatim_token+chapter_route:ch04"}, {"md_atom_id": "md_ch04_a397", "md_file": "knowledge_base/chapters/ch04_general_assumptions.md", "md_atom_type": "TABLE_ROW", "md_parent_section": "§4.2.8.3 [Multiple Values for a Non-result Qualifier Variable]", "md_verbatim": "| AEACNX | Action Taken with Xyzamin | DOSE NOT CHANGED |", "score": 0.1757, "match_basis": "verbatim_token+chapter_route:ch04"}, {"md_atom_id": "md_ch04_a386", "md_file": "knowledge_base/chapters/ch04_general_assumptions.md", "md_atom_type": "TABLE_ROW", "md_parent_section": "§4.2.8.3 [Multiple Values for a Non-result Qualifier Variable]", "md_verbatim": "| AEACNXYZ | Action Taken with Xyzamin | DOSE NOT CHANGED |", "score": 0.1728, "match_basis": "verbatim_token+chapter_route:ch04"}], "candidate_count": 5, "zero_candidate": false}
{"pdf_atom_id": "ig34_p0055_a020", "pdf_atom_type": "HEADING", "pdf_source": "SDTMIG_v3.4", "pdf_page": 55, "pdf_parent_section": "§4.5.3.2 [Text Strings Greater than 200 Characters in Other Variables]", "pdf_verbatim": "Example 1", "figure_ref": null, "candidates": [{"md_atom_id": "md_ch04_a069", "md_file": "knowledge_base/chapters/ch04_general_assumptions.md", "md_atom_type": "HEADING", "md_parent_section": "§4.1.7 [Splitting Domains]", "md_verbatim": "#### 4.1.7.1 Example of Splitting Questionnaires", "score": 0.425, "match_basis": "verbatim_token+chapter_route:ch04"}, {"md_atom_id": "md_ch04_a831", "md_file": "knowledge_base/chapters/ch04_general_assumptions.md", "md_atom_type": "HEADING", "md_parent_section": "§4.5.1 [Original and Standardized Results]", "md_verbatim": "#### 4.5.1.3 Examples of Original and Standard Units and Test Not Done", "score": 0.4154, "match_basis": "verbatim_token+chapter_route:ch04"}, {"md_atom_id": "md_ch04_a007", "md_file": "knowledge_base/chapters/ch04_general_assumptions.md", "md_atom_type": "HEADING", "md_parent_section": "§4.1 [General Domain Assumptions]", "md_verbatim": "### 4.1.1 Review Study Data Tabulation Model and Implementation Guide", "score": 0.3333, "match_basis": "verbatim_token+chapter_route:ch04"}, {"md_atom_id": "md_ch04_a346", "md_file": "knowledge_base/chapters/ch04_general_assumptions.md", "md_atom_type": "HEADING", "md_parent_section": "§4.2 [General Variable Assumptions]", "md_verbatim": "### 4.2.8 Multiple Values for a Variable", "score": 0.3286, "match_basis": "verbatim_token+chapter_route:ch04"}, {"md_atom_id": "md_ch04_a400", "md_file": "knowledge_base/chapters/ch04_general_assumptions.md", "md_atom_type": "HEADING", "md_parent_section": "§4.2.8 [Multiple Values for a Variable]", "md_verbatim": "#### 4.2.8.4 Multiple Values for a Parameter", "score": 0.3273, "match_basis": "verbatim_token+chapter_route:ch04"}, {"md_atom_id": "md_ch04_a891", "md_file": "knowledge_base/chapters/ch04_general_assumptions.md", "md_atom_type": "HEADING", "md_parent_section": "§4.5 [Other Assumptions]", "md_verbatim": "### 4.5.2 Linking Multiple Observations", "score": 0.324, "match_basis": "verbatim_token+chapter_route:ch04"}, {"md_atom_id": "md_ch04_a975", "md_file": "knowledge_base/chapters/ch04_general_assumptions.md", "md_atom_type": "HEADING", "md_parent_section": "§4.5 [Other Assumptions]", "md_verbatim": "### 4.5.6 Supplemental Reason Variables", "score": 0.324, "match_basis": "verbatim_token+chapter_route:ch04"}, {"md_atom_id": "md_ch04_a352", "md_file": "knowledge_base/chapters/ch04_general_assumptions.md", "md_atom_type": "HEADING", "md_parent_section": "§4.2.8 [Multiple Values for a Variable]", "md_verbatim": "#### 4.2.8.2 Multiple Values for a Findings Result Variable", "score": 0.32, "match_basis": "verbatim_token+chapter_route:ch04"}, {"md_atom_id": "md_ch04_a359", "md_file": "knowledge_base/chapters/ch04_general_assumptions.md", "md_atom_type": "HEADING", "md_parent_section": "§4.2.8 [Multiple Values for a Variable]", "md_verbatim": "#### 4.2.8.3 Multiple Values for a Non-result Qualifier Variable", "score": 0.3187, "match_basis": "verbatim_token+chapter_route:ch04"}, {"md_atom_id": "md_ch04_a347", "md_file": "knowledge_base/chapters/ch04_general_assumptions.md", "md_atom_type": "HEADING", "md_parent_section": "§4.2.8 [Multiple Values for a Variable]", "md_verbatim": "#### 4.2.8.1 Multiple Values for an Intervention or Event Topic Variable", "score": 0.3171, "match_basis": "verbatim_token+chapter_route:ch04"}], "candidate_count": 10, "zero_candidate": false}
{"pdf_atom_id": "ig34_p0055_a021", "pdf_atom_type": "SENTENCE", "pdf_source": "SDTMIG_v3.4", "pdf_page": 55, "pdf_parent_section": "§4.5.3.2 [Text Strings Greater than 200 Characters in Other Variables]", "pdf_verbatim": "In this example, the text entered for MHTERM was longer than 200 characters and required 2 supplemental qualifier variables for the text that extended beyond what could be represented in the standard variable.", "figure_ref": null, "candidates": [{"md_atom_id": "md_ch04_a916", "md_file": "knowledge_base/chapters/ch04_general_assumptions.md", "md_atom_type": "SENTENCE", "md_parent_section": "§4.5.3.2 [Text Strings Greater than 200 Characters in Other Variables]", "md_verbatim": "**Example 1 (mh.xpt / suppmh.xpt):** MHTERM was longer than 200 characters and required 2 supplemental qualifier variables for the text that extended beyond what could be represented in the standard variable.", "score": 0.8604, "match_basis": "verbatim_token+chapter_route:ch04"}, {"md_atom_id": "md_ch04_a926", "md_file": "knowledge_base/chapters/ch04_general_assumptions.md", "md_atom_type": "SENTENCE", "md_parent_section": "§4.5.3.2 [Text Strings Greater than 200 Characters in Other Variables]", "md_verbatim": "**Example 2 (ae.xpt / suppae.xpt):** AEACNOTH was longer than 200 characters, but required only 1 supplemental qualifier for the text that extended beyond what could be represented in the standard variable.", "score": 0.786, "match_basis": "verbatim_token+chapter_route:ch04"}, {"md_atom_id": "md_ch04_a935", "md_file": "knowledge_base/chapters/ch04_general_assumptions.md", "md_atom_type": "SENTENCE", "md_parent_section": "§4.5.3.2 [Text Strings Greater than 200 Characters in Other Variables]", "md_verbatim": "**Example 3 (pr.xpt / supppr.xpt):** PRREAS was longer than 200 characters, but required only 1 supplemental qualifier to represent the remaining text.", "score": 0.5971, "match_basis": "verbatim_token+chapter_route:ch04"}, {"md_atom_id": "md_ch04_a180", "md_file": "knowledge_base/chapters/ch04_general_assumptions.md", "md_atom_type": "SENTENCE", "md_parent_section": "§4.2.1 [Variable-Naming Conventions]", "md_verbatim": "Variable descriptive names (labels), up to 40 characters, should be provided as data variable labels for all variables, including Supplemental Qualifier variables.", "score": 0.4785, "match_basis": "verbatim_token+chapter_route:ch04"}, {"md_atom_id": "md_ch04_a507", "md_file": "knowledge_base/chapters/ch04_general_assumptions.md", "md_atom_type": "SENTENCE", "md_parent_section": "§4.4.1 [Formats for Date/Time Variables]", "md_verbatim": "Implementation of the ISO 8601 standard means that date/time variables are character/text data types.", "score": 0.4778, "match_basis": "verbatim_token+chapter_route:ch04"}], "candidate_count": 5, "zero_candidate": false}
{"pdf_atom_id": "ig34_p0055_a022", "pdf_atom_type": "CODE_LITERAL", "pdf_source": "SDTMIG_v3.4", "pdf_page": 55, "pdf_parent_section": "§4.5.3.2 [Text Strings Greater than 200 Characters in Other Variables]", "pdf_verbatim": "mh.xpt", "figure_ref": null, "candidates": [{"md_atom_id": "md_ch04_a207", "md_file": "knowledge_base/chapters/ch04_general_assumptions.md", "md_atom_type": "CODE_LITERAL", "md_parent_section": "§4.2.3 [Use of \"Subject\" and USUBJID]", "md_verbatim": "dm.xpt:", "score": 0.69, "match_basis": "verbatim_token+chapter_route:ch04"}, {"md_atom_id": "md_ch04_a210", "md_file": "knowledge_base/chapters/ch04_general_assumptions.md", "md_atom_type": "CODE_LITERAL", "md_parent_section": "§4.2.3 [Use of \"Subject\" and USUBJID]", "md_verbatim": "dm.xpt:", "score": 0.69, "match_basis": "verbatim_token+chapter_route:ch04"}, {"md_atom_id": "md_ch04_a368", "md_file": "knowledge_base/chapters/ch04_general_assumptions.md", "md_atom_type": "CODE_LITERAL", "md_parent_section": "§4.2.8.3 [Multiple Values for a Non-result Qualifier Variable]", "md_verbatim": "ae.xpt:", "score": 0.69, "match_basis": "verbatim_token+chapter_route:ch04"}, {"md_atom_id": "md_ch04_a378", "md_file": "knowledge_base/chapters/ch04_general_assumptions.md", "md_atom_type": "CODE_LITERAL", "md_parent_section": "§4.2.8.3 [Multiple Values for a Non-result Qualifier Variable]", "md_verbatim": "ae.xpt:", "score": 0.69, "match_basis": "verbatim_token+chapter_route:ch04"}, {"md_atom_id": "md_ch04_a391", "md_file": "knowledge_base/chapters/ch04_general_assumptions.md", "md_atom_type": "CODE_LITERAL", "md_parent_section": "§4.2.8.3 [Multiple Values for a Non-result Qualifier Variable]", "md_verbatim": "ae.xpt:", "score": 0.69, "match_basis": "verbatim_token+chapter_route:ch04"}, {"md_atom_id": "md_ch04_a835", "md_file": "knowledge_base/chapters/ch04_general_assumptions.md", "md_atom_type": "CODE_LITERAL", "md_parent_section": "§4.5.1.3 [Examples of Original and Standard Units and Test Not Done]", "md_verbatim": "lb.xpt", "score": 0.69, "match_basis": "verbatim_token+chapter_route:ch04"}, {"md_atom_id": "md_ch04_a861", "md_file": "knowledge_base/chapters/ch04_general_assumptions.md", "md_atom_type": "CODE_LITERAL", "md_parent_section": "§4.5.1.3 [Examples of Original and Standard Units and Test Not Done]", "md_verbatim": "eg.xpt", "score": 0.69, "match_basis": "verbatim_token+chapter_route:ch04"}, {"md_atom_id": "md_ch04_a877", "md_file": "knowledge_base/chapters/ch04_general_assumptions.md", "md_atom_type": "CODE_LITERAL", "md_parent_section": "§4.5.1.3 [Examples of Original and Standard Units and Test Not Done]", "md_verbatim": "vs.xpt", "score": 0.69, "match_basis": "verbatim_token+chapter_route:ch04"}, {"md_atom_id": "md_ch04_a917", "md_file": "knowledge_base/chapters/ch04_general_assumptions.md", "md_atom_type": "CODE_LITERAL", "md_parent_section": "§4.5.3.2 [Text Strings Greater than 200 Characters in Other Variables]", "md_verbatim": "mh.xpt", "score": 0.69, "match_basis": "verbatim_token+chapter_route:ch04"}, {"md_atom_id": "md_ch04_a919", "md_file": "knowledge_base/chapters/ch04_general_assumptions.md", "md_atom_type": "SENTENCE", "md_parent_section": "§4.5.3.2 [Text Strings Greater than 200 Characters in Other Variables]", "md_verbatim": "mh.xpt:", "score": 0.69, "match_basis": "verbatim_token+chapter_route:ch04"}], "candidate_count": 10, "zero_candidate": false}
{"pdf_atom_id": "ig34_p0055_a023", "pdf_atom_type": "TABLE_HEADER", "pdf_source": "SDTMIG_v3.4", "pdf_page": 55, "pdf_parent_section": "§4.5.3.2 [Text Strings Greater than 200 Characters in Other Variables]", "pdf_verbatim": "Row | STUDYID | DOMAIN | USUBJID | MHSEQ | MHTERM", "figure_ref": null, "candidates": [{"md_atom_id": "md_ch04_a920", "md_file": "knowledge_base/chapters/ch04_general_assumptions.md", "md_atom_type": "TABLE_HEADER", "md_parent_section": "§4.5.3.2 [Text Strings Greater than 200 Characters in Other Variables]", "md_verbatim": "| Row | STUDYID | DOMAIN | USUBJID | MHSEQ | MHTERM |\n|-----|---------|--------|---------|-------|--------|", "score": 0.9, "match_basis": "verbatim_token+chapter_route:ch04"}, {"md_atom_id": "md_ch04_a939", "md_file": "knowledge_base/chapters/ch04_general_assumptions.md", "md_atom_type": "TABLE_HEADER", "md_parent_section": "§4.5.3.2 [Text Strings Greater than 200 Characters in Other Variables]", "md_verbatim": "| Row | STUDYID | DOMAIN | USUBJID | PRSEQ | PRTRT |\n|-----|---------|--------|---------|-------|-------|", "score": 0.6556, "match_basis": "verbatim_token+chapter_route:ch04"}, {"md_atom_id": "md_ch04_a930", "md_file": "knowledge_base/chapters/ch04_general_assumptions.md", "md_atom_type": "TABLE_HEADER", "md_parent_section": "§4.5.3.2 [Text Strings Greater than 200 Characters in Other Variables]", "md_verbatim": "| Row | STUDYID | DOMAIN | USUBJID | AESEQ | AETERM | AEACNOTH |\n|-----|---------|--------|---------|-------|--------|----------|", "score": 0.6375, "match_basis": "verbatim_token+chapter_route:ch04"}, {"md_atom_id": "md_ch04_a208", "md_file": "knowledge_base/chapters/ch04_general_assumptions.md", "md_atom_type": "TABLE_HEADER", "md_parent_section": "§4.2.3 [Use of \"Subject\" and USUBJID]", "md_verbatim": "| Row | STUDYID | DOMAIN | USUBJID | SUBJID | SITEID | INVNAM |\n|-----|---------|--------|---------|--------|--------|--------|", "score": 0.6, "match_basis": "verbatim_token+chapter_route:ch04"}, {"md_atom_id": "md_ch04_a211", "md_file": "knowledge_base/chapters/ch04_general_assumptions.md", "md_atom_type": "TABLE_HEADER", "md_parent_section": "§4.2.3 [Use of \"Subject\" and USUBJID]", "md_verbatim": "| Row | STUDYID | DOMAIN | USUBJID | SUBJID | SITEID | INVNAM |\n|-----|---------|--------|---------|--------|--------|--------|", "score": 0.6, "match_basis": "verbatim_token+chapter_route:ch04"}], "candidate_count": 5, "zero_candidate": false}
{"pdf_atom_id": "ig34_p0055_a024", "pdf_atom_type": "TABLE_ROW", "pdf_source": "SDTMIG_v3.4", "pdf_page": 55, "pdf_parent_section": "§4.5.3.2 [Text Strings Greater than 200 Characters in Other Variables]", "pdf_verbatim": "1 | 12345 | MH | 99-123 | 6 | 1st ~200 chars of text, split between words", "figure_ref": null, "candidates": [{"md_atom_id": "md_ch04_a921", "md_file": "knowledge_base/chapters/ch04_general_assumptions.md", "md_atom_type": "TABLE_ROW", "md_parent_section": "§4.5.3.2 [Text Strings Greater than 200 Characters in Other Variables]", "md_verbatim": "| 1 | 12345 | MH | 99-123 | 6 | 1st ~200 chars of text, split between words |", "score": 0.9, "match_basis": "verbatim_token+chapter_route:ch04"}, {"md_atom_id": "md_ch04_a931", "md_file": "knowledge_base/chapters/ch04_general_assumptions.md", "md_atom_type": "TABLE_ROW", "md_parent_section": "§4.5.3.2 [Text Strings Greater than 200 Characters in Other Variables]", "md_verbatim": "| 1 | 12345 | AE | 99-123 | 4 | HEART FAILURE | 1st ~200 characters of text, split between words |", "score": 0.6429, "match_basis": "verbatim_token+chapter_route:ch04"}, {"md_atom_id": "md_ch04_a943", "md_file": "knowledge_base/chapters/ch04_general_assumptions.md", "md_atom_type": "TABLE_ROW", "md_parent_section": "§4.5.3.2 [Text Strings Greater than 200 Characters in Other Variables]", "md_verbatim": "| 1 | 12345 | PR | 99-123 | PRSEQ | 4 | PRREAS | Reason | 1st ~200 characters of text, split between words | CRF |", "score": 0.6243, "match_basis": "verbatim_token+chapter_route:ch04"}, {"md_atom_id": "md_ch04_a924", "md_file": "knowledge_base/chapters/ch04_general_assumptions.md", "md_atom_type": "TABLE_ROW", "md_parent_section": "§4.5.3.2 [Text Strings Greater than 200 Characters in Other Variables]", "md_verbatim": "| 1 | 12345 | MH | 99-123 | MHSEQ | 6 | MHTERM1 | Reported Term for the Medical History | 2nd ~200 chars of text, split between words | CRF |", "score": 0.5449, "match_basis": "verbatim_token+chapter_route:ch04"}, {"md_atom_id": "md_ch04_a949", "md_file": "knowledge_base/chapters/ch04_general_assumptions.md", "md_atom_type": "TABLE_ROW", "md_parent_section": "§4.5.3.2 [Text Strings Greater than 200 Characters in Other Variables]", "md_verbatim": "| Split rule | Split between words to improve readability | Split between words | Split between words | Not applicable |", "score": 0.45, "match_basis": "verbatim_token+chapter_route:ch04"}], "candidate_count": 5, "zero_candidate": false}
{"pdf_atom_id": "ig34_p0055_a025", "pdf_atom_type": "CODE_LITERAL", "pdf_source": "SDTMIG_v3.4", "pdf_page": 55, "pdf_parent_section": "§4.5.3.2 [Text Strings Greater than 200 Characters in Other Variables]", "pdf_verbatim": "suppmh.xpt", "figure_ref": null, "candidates": [{"md_atom_id": "md_ch04_a918", "md_file": "knowledge_base/chapters/ch04_general_assumptions.md", "md_atom_type": "CODE_LITERAL", "md_parent_section": "§4.5.3.2 [Text Strings Greater than 200 Characters in Other Variables]", "md_verbatim": "suppmh.xpt", "score": 0.69, "match_basis": "verbatim_token+chapter_route:ch04"}, {"md_atom_id": "md_ch04_a922", "md_file": "knowledge_base/chapters/ch04_general_assumptions.md", "md_atom_type": "SENTENCE", "md_parent_section": "§4.5.3.2 [Text Strings Greater than 200 Characters in Other Variables]", "md_verbatim": "suppmh.xpt:", "score": 0.69, "match_basis": "verbatim_token+chapter_route:ch04"}, {"md_atom_id": "md_ch04_a371", "md_file": "knowledge_base/chapters/ch04_general_assumptions.md", "md_atom_type": "CODE_LITERAL", "md_parent_section": "§4.2.8.3 [Multiple Values for a Non-result Qualifier Variable]", "md_verbatim": "suppae.xpt:", "score": 0.3471, "match_basis": "verbatim_token+chapter_route:ch04"}, {"md_atom_id": "md_ch04_a381", "md_file": "knowledge_base/chapters/ch04_general_assumptions.md", "md_atom_type": "CODE_LITERAL", "md_parent_section": "§4.2.8.3 [Multiple Values for a Non-result Qualifier Variable]", "md_verbatim": "suppae.xpt:", "score": 0.3471, "match_basis": "verbatim_token+chapter_route:ch04"}, {"md_atom_id": "md_ch04_a394", "md_file": "knowledge_base/chapters/ch04_general_assumptions.md", "md_atom_type": "CODE_LITERAL", "md_parent_section": "§4.2.8.3 [Multiple Values for a Non-result Qualifier Variable]", "md_verbatim": "suppae.xpt:", "score": 0.3471, "match_basis": "verbatim_token+chapter_route:ch04"}, {"md_atom_id": "md_ch04_a928", "md_file": "knowledge_base/chapters/ch04_general_assumptions.md", "md_atom_type": "CODE_LITERAL", "md_parent_section": "§4.5.3.2 [Text Strings Greater than 200 Characters in Other Variables]", "md_verbatim": "suppae.xpt", "score": 0.3471, "match_basis": "verbatim_token+chapter_route:ch04"}, {"md_atom_id": "md_ch04_a932", "md_file": "knowledge_base/chapters/ch04_general_assumptions.md", "md_atom_type": "SENTENCE", "md_parent_section": "§4.5.3.2 [Text Strings Greater than 200 Characters in Other Variables]", "md_verbatim": "suppae.xpt:", "score": 0.3471, "match_basis": "verbatim_token+chapter_route:ch04"}, {"md_atom_id": "md_ch04_a937", "md_file": "knowledge_base/chapters/ch04_general_assumptions.md", "md_atom_type": "CODE_LITERAL", "md_parent_section": "§4.5.3.2 [Text Strings Greater than 200 Characters in Other Variables]", "md_verbatim": "supppr.xpt", "score": 0.3471, "match_basis": "verbatim_token+chapter_route:ch04"}, {"md_atom_id": "md_ch04_a941", "md_file": "knowledge_base/chapters/ch04_general_assumptions.md", "md_atom_type": "SENTENCE", "md_parent_section": "§4.5.3.2 [Text Strings Greater than 200 Characters in Other Variables]", "md_verbatim": "supppr.xpt:", "score": 0.3471, "match_basis": "verbatim_token+chapter_route:ch04"}, {"md_atom_id": "md_ch04_a963", "md_file": "knowledge_base/chapters/ch04_general_assumptions.md", "md_atom_type": "SENTENCE", "md_parent_section": "§4.5.4 [Evaluators in the Interventions and Events Observation Classes]", "md_verbatim": "suppae.xpt:", "score": 0.3471, "match_basis": "verbatim_token+chapter_route:ch04"}], "candidate_count": 10, "zero_candidate": false}
{"pdf_atom_id": "ig34_p0055_a026", "pdf_atom_type": "TABLE_HEADER", "pdf_source": "SDTMIG_v3.4", "pdf_page": 55, "pdf_parent_section": "§4.5.3.2 [Text Strings Greater than 200 Characters in Other Variables]", "pdf_verbatim": "Row | STUDYID | RDOMAIN | USUBJID | IDVAR | IDVARVAL | QNAM | QLABEL | QVAL | QORIG | QEVAL", "figure_ref": null, "candidates": [{"md_atom_id": "md_ch04_a104", "md_file": "knowledge_base/chapters/ch04_general_assumptions.md", "md_atom_type": "TABLE_HEADER", "md_parent_section": "§4.1.7.1 [Example of Splitting Questionnaires]", "md_verbatim": "| Row | STUDYID | RDOMAIN | USUBJID | IDVAR | IDVARVAL | QNAM | QLABEL | QVAL | QORIG | QEVAL |", "score": 0.9, "match_basis": "verbatim_token+chapter_route:ch04"}, {"md_atom_id": "md_ch04_a108", "md_file": "knowledge_base/chapters/ch04_general_assumptions.md", "md_atom_type": "TABLE_HEADER", "md_parent_section": "§4.1.7.1 [Example of Splitting Questionnaires]", "md_verbatim": "| Row | STUDYID | RDOMAIN | USUBJID | IDVAR | IDVARVAL | QNAM | QLABEL | QVAL | QORIG | QEVAL |", "score": 0.9, "match_basis": "verbatim_token+chapter_route:ch04"}, {"md_atom_id": "md_ch04_a120", "md_file": "knowledge_base/chapters/ch04_general_assumptions.md", "md_atom_type": "TABLE_HEADER", "md_parent_section": "§4.1.7.1 [Example of Splitting Questionnaires]", "md_verbatim": "| Row | STUDYID | RDOMAIN | USUBJID | IDVAR | IDVARVAL | QNAM | QLABEL | QVAL | QORIG | QEVAL |", "score": 0.9, "match_basis": "verbatim_token+chapter_route:ch04"}, {"md_atom_id": "md_ch04_a964", "md_file": "knowledge_base/chapters/ch04_general_assumptions.md", "md_atom_type": "TABLE_HEADER", "md_parent_section": "§4.5.4 [Evaluators in the Interventions and Events Observation Classes]", "md_verbatim": "| Row | STUDYID | RDOMAIN | USUBJID | IDVAR | IDVARVAL | QNAM | QLABEL | QVAL | QORIG | QEVAL |\n|-----|---------|---------|---------|-------|----------|------|--------|------|-------|-------|", "score": 0.9, "match_basis": "verbatim_token+chapter_route:ch04"}, {"md_atom_id": "md_ch04_a923", "md_file": "knowledge_base/chapters/ch04_general_assumptions.md", "md_atom_type": "TABLE_HEADER", "md_parent_section": "§4.5.3.2 [Text Strings Greater than 200 Characters in Other Variables]", "md_verbatim": "| Row | STUDYID | RDOMAIN | USUBJID | IDVAR | IDVARVAL | QNAM | QLABEL | QVAL | QORIG |\n|-----|---------|---------|---------|-------|----------|------|--------|------|-------|", "score": 0.8647, "match_basis": "verbatim_token+chapter_route:ch04"}], "candidate_count": 5, "zero_candidate": false}
{"pdf_atom_id": "ig34_p0055_a027", "pdf_atom_type": "TABLE_ROW", "pdf_source": "SDTMIG_v3.4", "pdf_page": 55, "pdf_parent_section": "§4.5.3.2 [Text Strings Greater than 200 Characters in Other Variables]", "pdf_verbatim": "1 | 12345 | MH | 99-123 | MHSEQ | 6 | MHTERM1 | Reported Term for the Medical History | 2nd ~200 chars of text, split between words | CRF | |", "figure_ref": null, "candidates": [{"md_atom_id": "md_ch04_a924", "md_file": "knowledge_base/chapters/ch04_general_assumptions.md", "md_atom_type": "TABLE_ROW", "md_parent_section": "§4.5.3.2 [Text Strings Greater than 200 Characters in Other Variables]", "md_verbatim": "| 1 | 12345 | MH | 99-123 | MHSEQ | 6 | MHTERM1 | Reported Term for the Medical History | 2nd ~200 chars of text, split between words | CRF |", "score": 0.9, "match_basis": "verbatim_token+chapter_route:ch04"}, {"md_atom_id": "md_ch04_a925", "md_file": "knowledge_base/chapters/ch04_general_assumptions.md", "md_atom_type": "TABLE_ROW", "md_parent_section": "§4.5.3.2 [Text Strings Greater than 200 Characters in Other Variables]", "md_verbatim": "| 2 | 12345 | MH | 99-123 | MHSEQ | 6 | MHTERM2 | Reported Term for the Medical History | last 100 or more chars of text | CRF |", "score": 0.6778, "match_basis": "verbatim_token+chapter_route:ch04"}, {"md_atom_id": "md_ch04_a921", "md_file": "knowledge_base/chapters/ch04_general_assumptions.md", "md_atom_type": "TABLE_ROW", "md_parent_section": "§4.5.3.2 [Text Strings Greater than 200 Characters in Other Variables]", "md_verbatim": "| 1 | 12345 | MH | 99-123 | 6 | 1st ~200 chars of text, split between words |", "score": 0.5449, "match_basis": "verbatim_token+chapter_route:ch04"}, {"md_atom_id": "md_ch04_a943", "md_file": "knowledge_base/chapters/ch04_general_assumptions.md", "md_atom_type": "TABLE_ROW", "md_parent_section": "§4.5.3.2 [Text Strings Greater than 200 Characters in Other Variables]", "md_verbatim": "| 1 | 12345 | PR | 99-123 | PRSEQ | 4 | PRREAS | Reason | 1st ~200 characters of text, split between words | CRF |", "score": 0.5129, "match_basis": "verbatim_token+chapter_route:ch04"}, {"md_atom_id": "md_ch04_a931", "md_file": "knowledge_base/chapters/ch04_general_assumptions.md", "md_atom_type": "TABLE_ROW", "md_parent_section": "§4.5.3.2 [Text Strings Greater than 200 Characters in Other Variables]", "md_verbatim": "| 1 | 12345 | AE | 99-123 | 4 | HEART FAILURE | 1st ~200 characters of text, split between words |", "score": 0.4935, "match_basis": "verbatim_token+chapter_route:ch04"}], "candidate_count": 5, "zero_candidate": false}
{"pdf_atom_id": "ig34_p0055_a028", "pdf_atom_type": "TABLE_ROW", "pdf_source": "SDTMIG_v3.4", "pdf_page": 55, "pdf_parent_section": "§4.5.3.2 [Text Strings Greater than 200 Characters in Other Variables]", "pdf_verbatim": "2 | 12345 | MH | 99-123 | MHSEQ | 6 | MHTERM2 | Reported Term for the Medical History | last 100 or more chars of text | CRF | |", "figure_ref": null, "candidates": [{"md_atom_id": "md_ch04_a925", "md_file": "knowledge_base/chapters/ch04_general_assumptions.md", "md_atom_type": "TABLE_ROW", "md_parent_section": "§4.5.3.2 [Text Strings Greater than 200 Characters in Other Variables]", "md_verbatim": "| 2 | 12345 | MH | 99-123 | MHSEQ | 6 | MHTERM2 | Reported Term for the Medical History | last 100 or more chars of text | CRF |", "score": 0.9, "match_basis": "verbatim_token+chapter_route:ch04"}, {"md_atom_id": "md_ch04_a924", "md_file": "knowledge_base/chapters/ch04_general_assumptions.md", "md_atom_type": "TABLE_ROW", "md_parent_section": "§4.5.3.2 [Text Strings Greater than 200 Characters in Other Variables]", "md_verbatim": "| 1 | 12345 | MH | 99-123 | MHSEQ | 6 | MHTERM1 | Reported Term for the Medical History | 2nd ~200 chars of text, split between words | CRF |", "score": 0.6778, "match_basis": "verbatim_token+chapter_route:ch04"}, {"md_atom_id": "md_ch04_a944", "md_file": "knowledge_base/chapters/ch04_general_assumptions.md", "md_atom_type": "TABLE_ROW", "md_parent_section": "§4.5.3.2 [Text Strings Greater than 200 Characters in Other Variables]", "md_verbatim": "| 2 | 12345 | PR | 99-123 | PRSEQ | 4 | PRREAS1 | Reason | remaining characters of text | CRF |", "score": 0.3984, "match_basis": "verbatim_token+chapter_route:ch04"}, {"md_atom_id": "md_ch04_a934", "md_file": "knowledge_base/chapters/ch04_general_assumptions.md", "md_atom_type": "TABLE_ROW", "md_parent_section": "§4.5.3.2 [Text Strings Greater than 200 Characters in Other Variables]", "md_verbatim": "| 1 | 12345 | AE | 99-123 | AESEQ | 4 | AEACNOT1 | Other Action Taken | remaining characters of text | CRF |", "score": 0.3971, "match_basis": "verbatim_token+chapter_route:ch04"}, {"md_atom_id": "md_ch04_a943", "md_file": "knowledge_base/chapters/ch04_general_assumptions.md", "md_atom_type": "TABLE_ROW", "md_parent_section": "§4.5.3.2 [Text Strings Greater than 200 Characters in Other Variables]", "md_verbatim": "| 1 | 12345 | PR | 99-123 | PRSEQ | 4 | PRREAS | Reason | 1st ~200 characters of text, split between words | CRF |", "score": 0.3909, "match_basis": "verbatim_token+chapter_route:ch04"}], "candidate_count": 5, "zero_candidate": false}
{"pdf_atom_id": "ig34_p0055_a029", "pdf_atom_type": "CODE_LITERAL", "pdf_source": "SDTMIG_v3.4", "pdf_page": 55, "pdf_parent_section": "§4.5.3.2 [Text Strings Greater than 200 Characters in Other Variables]", "pdf_verbatim": "MHTERM1", "figure_ref": null, "candidates": [{"md_atom_id": "md_ch04_a465", "md_file": "knowledge_base/chapters/ch04_general_assumptions.md", "md_atom_type": "TABLE_ROW", "md_parent_section": "§4.3.6 [Storing Topic Variables for General Domain Models]", "md_verbatim": "| MH | MHTERM | MHMODIFY | MHDECOD |", "score": 0.24, "match_basis": "verbatim_token+chapter_route:ch04"}, {"md_atom_id": "md_ch04_a369", "md_file": "knowledge_base/chapters/ch04_general_assumptions.md", "md_atom_type": "TABLE_HEADER", "md_parent_section": "§4.2.8.3 [Multiple Values for a Non-result Qualifier Variable]", "md_verbatim": "| AETERM | AELOC |\n|--------|-------|", "score": 0.21, "match_basis": "verbatim_token+chapter_route:ch04"}, {"md_atom_id": "md_ch04_a920", "md_file": "knowledge_base/chapters/ch04_general_assumptions.md", "md_atom_type": "TABLE_HEADER", "md_parent_section": "§4.5.3.2 [Text Strings Greater than 200 Characters in Other Variables]", "md_verbatim": "| Row | STUDYID | DOMAIN | USUBJID | MHSEQ | MHTERM |\n|-----|---------|--------|---------|-------|--------|", "score": 0.1943, "match_basis": "verbatim_token+chapter_route:ch04"}, {"md_atom_id": "md_ch04_a463", "md_file": "knowledge_base/chapters/ch04_general_assumptions.md", "md_atom_type": "TABLE_ROW", "md_parent_section": "§4.3.6 [Storing Topic Variables for General Domain Models]", "md_verbatim": "| DS | DSTERM | | DSDECOD |", "score": 0.19, "match_basis": "verbatim_token+chapter_route:ch04"}, {"md_atom_id": "md_ch04_a379", "md_file": "knowledge_base/chapters/ch04_general_assumptions.md", "md_atom_type": "TABLE_HEADER", "md_parent_section": "§4.2.8.3 [Multiple Values for a Non-result Qualifier Variable]", "md_verbatim": "| AETERM | AEREL | AEACN |\n|--------|-------|-------|", "score": 0.1823, "match_basis": "verbatim_token+chapter_route:ch04"}, {"md_atom_id": "md_ch04_a392", "md_file": "knowledge_base/chapters/ch04_general_assumptions.md", "md_atom_type": "TABLE_HEADER", "md_parent_section": "§4.2.8.3 [Multiple Values for a Non-result Qualifier Variable]", "md_verbatim": "| AETERM | AEREL | AEACN |\n|--------|-------|-------|", "score": 0.1823, "match_basis": "verbatim_token+chapter_route:ch04"}, {"md_atom_id": "md_ch04_a189", "md_file": "knowledge_base/chapters/ch04_general_assumptions.md", "md_atom_type": "HEADING", "md_parent_section": "§4.2.1 [Variable-Naming Conventions]", "md_verbatim": "#### 4.2.1.3 --TERM Conventions (Events)", "score": 0.165, "match_basis": "verbatim_token+chapter_route:ch04"}, {"md_atom_id": "md_ch04_a462", "md_file": "knowledge_base/chapters/ch04_general_assumptions.md", "md_atom_type": "TABLE_ROW", "md_parent_section": "§4.3.6 [Storing Topic Variables for General Domain Models]", "md_verbatim": "| AE | AETERM | AEMODIFY | AEDECOD |", "score": 0.1567, "match_basis": "verbatim_token+chapter_route:ch04"}, {"md_atom_id": "md_ch04_a924", "md_file": "knowledge_base/chapters/ch04_general_assumptions.md", "md_atom_type": "TABLE_ROW", "md_parent_section": "§4.5.3.2 [Text Strings Greater than 200 Characters in Other Variables]", "md_verbatim": "| 1 | 12345 | MH | 99-123 | MHSEQ | 6 | MHTERM1 | Reported Term for the Medical History | 2nd ~200 chars of text, split between words | CRF |", "score": 0.1525, "match_basis": "verbatim_token+chapter_route:ch04"}, {"md_atom_id": "md_ch04_a1008", "md_file": "knowledge_base/chapters/ch04_general_assumptions.md", "md_atom_type": "HEADING", "md_parent_section": "§4.5 [Other Assumptions]", "md_verbatim": "### 4.5.8 Accounting for Long-term Follow-up", "score": 0.15, "match_basis": "verbatim_token+chapter_route:ch04"}], "candidate_count": 10, "zero_candidate": false}
{"pdf_atom_id": "ig34_p0055_a030", "pdf_atom_type": "CODE_LITERAL", "pdf_source": "SDTMIG_v3.4", "pdf_page": 55, "pdf_parent_section": "§4.5.3.2 [Text Strings Greater than 200 Characters in Other Variables]", "pdf_verbatim": "MHTERM2", "figure_ref": null, "candidates": [{"md_atom_id": "md_ch04_a465", "md_file": "knowledge_base/chapters/ch04_general_assumptions.md", "md_atom_type": "TABLE_ROW", "md_parent_section": "§4.3.6 [Storing Topic Variables for General Domain Models]", "md_verbatim": "| MH | MHTERM | MHMODIFY | MHDECOD |", "score": 0.24, "match_basis": "verbatim_token+chapter_route:ch04"}, {"md_atom_id": "md_ch04_a369", "md_file": "knowledge_base/chapters/ch04_general_assumptions.md", "md_atom_type": "TABLE_HEADER", "md_parent_section": "§4.2.8.3 [Multiple Values for a Non-result Qualifier Variable]", "md_verbatim": "| AETERM | AELOC |\n|--------|-------|", "score": 0.21, "match_basis": "verbatim_token+chapter_route:ch04"}, {"md_atom_id": "md_ch04_a920", "md_file": "knowledge_base/chapters/ch04_general_assumptions.md", "md_atom_type": "TABLE_HEADER", "md_parent_section": "§4.5.3.2 [Text Strings Greater than 200 Characters in Other Variables]", "md_verbatim": "| Row | STUDYID | DOMAIN | USUBJID | MHSEQ | MHTERM |\n|-----|---------|--------|---------|-------|--------|", "score": 0.1943, "match_basis": "verbatim_token+chapter_route:ch04"}, {"md_atom_id": "md_ch04_a463", "md_file": "knowledge_base/chapters/ch04_general_assumptions.md", "md_atom_type": "TABLE_ROW", "md_parent_section": "§4.3.6 [Storing Topic Variables for General Domain Models]", "md_verbatim": "| DS | DSTERM | | DSDECOD |", "score": 0.19, "match_basis": "verbatim_token+chapter_route:ch04"}, {"md_atom_id": "md_ch04_a379", "md_file": "knowledge_base/chapters/ch04_general_assumptions.md", "md_atom_type": "TABLE_HEADER", "md_parent_section": "§4.2.8.3 [Multiple Values for a Non-result Qualifier Variable]", "md_verbatim": "| AETERM | AEREL | AEACN |\n|--------|-------|-------|", "score": 0.1823, "match_basis": "verbatim_token+chapter_route:ch04"}, {"md_atom_id": "md_ch04_a392", "md_file": "knowledge_base/chapters/ch04_general_assumptions.md", "md_atom_type": "TABLE_HEADER", "md_parent_section": "§4.2.8.3 [Multiple Values for a Non-result Qualifier Variable]", "md_verbatim": "| AETERM | AEREL | AEACN |\n|--------|-------|-------|", "score": 0.1823, "match_basis": "verbatim_token+chapter_route:ch04"}, {"md_atom_id": "md_ch04_a189", "md_file": "knowledge_base/chapters/ch04_general_assumptions.md", "md_atom_type": "HEADING", "md_parent_section": "§4.2.1 [Variable-Naming Conventions]", "md_verbatim": "#### 4.2.1.3 --TERM Conventions (Events)", "score": 0.165, "match_basis": "verbatim_token+chapter_route:ch04"}, {"md_atom_id": "md_ch04_a925", "md_file": "knowledge_base/chapters/ch04_general_assumptions.md", "md_atom_type": "TABLE_ROW", "md_parent_section": "§4.5.3.2 [Text Strings Greater than 200 Characters in Other Variables]", "md_verbatim": "| 2 | 12345 | MH | 99-123 | MHSEQ | 6 | MHTERM2 | Reported Term for the Medical History | last 100 or more chars of text | CRF |", "score": 0.165, "match_basis": "verbatim_token+chapter_route:ch04"}, {"md_atom_id": "md_ch04_a462", "md_file": "knowledge_base/chapters/ch04_general_assumptions.md", "md_atom_type": "TABLE_ROW", "md_parent_section": "§4.3.6 [Storing Topic Variables for General Domain Models]", "md_verbatim": "| AE | AETERM | AEMODIFY | AEDECOD |", "score": 0.1567, "match_basis": "verbatim_token+chapter_route:ch04"}, {"md_atom_id": "md_ch04_a1008", "md_file": "knowledge_base/chapters/ch04_general_assumptions.md", "md_atom_type": "HEADING", "md_parent_section": "§4.5 [Other Assumptions]", "md_verbatim": "### 4.5.8 Accounting for Long-term Follow-up", "score": 0.15, "match_basis": "verbatim_token+chapter_route:ch04"}], "candidate_count": 10, "zero_candidate": false}
{"pdf_atom_id": "ig34_p0055_a031", "pdf_atom_type": "HEADING", "pdf_source": "SDTMIG_v3.4", "pdf_page": 55, "pdf_parent_section": "§4.5.3.2 [Text Strings Greater than 200 Characters in Other Variables]", "pdf_verbatim": "Example 2", "figure_ref": null, "candidates": [{"md_atom_id": "md_ch04_a069", "md_file": "knowledge_base/chapters/ch04_general_assumptions.md", "md_atom_type": "HEADING", "md_parent_section": "§4.1.7 [Splitting Domains]", "md_verbatim": "#### 4.1.7.1 Example of Splitting Questionnaires", "score": 0.425, "match_basis": "verbatim_token+chapter_route:ch04"}, {"md_atom_id": "md_ch04_a831", "md_file": "knowledge_base/chapters/ch04_general_assumptions.md", "md_atom_type": "HEADING", "md_parent_section": "§4.5.1 [Original and Standardized Results]", "md_verbatim": "#### 4.5.1.3 Examples of Original and Standard Units and Test Not Done", "score": 0.4154, "match_basis": "verbatim_token+chapter_route:ch04"}, {"md_atom_id": "md_ch04_a007", "md_file": "knowledge_base/chapters/ch04_general_assumptions.md", "md_atom_type": "HEADING", "md_parent_section": "§4.1 [General Domain Assumptions]", "md_verbatim": "### 4.1.1 Review Study Data Tabulation Model and Implementation Guide", "score": 0.3333, "match_basis": "verbatim_token+chapter_route:ch04"}, {"md_atom_id": "md_ch04_a346", "md_file": "knowledge_base/chapters/ch04_general_assumptions.md", "md_atom_type": "HEADING", "md_parent_section": "§4.2 [General Variable Assumptions]", "md_verbatim": "### 4.2.8 Multiple Values for a Variable", "score": 0.3286, "match_basis": "verbatim_token+chapter_route:ch04"}, {"md_atom_id": "md_ch04_a400", "md_file": "knowledge_base/chapters/ch04_general_assumptions.md", "md_atom_type": "HEADING", "md_parent_section": "§4.2.8 [Multiple Values for a Variable]", "md_verbatim": "#### 4.2.8.4 Multiple Values for a Parameter", "score": 0.3273, "match_basis": "verbatim_token+chapter_route:ch04"}, {"md_atom_id": "md_ch04_a891", "md_file": "knowledge_base/chapters/ch04_general_assumptions.md", "md_atom_type": "HEADING", "md_parent_section": "§4.5 [Other Assumptions]", "md_verbatim": "### 4.5.2 Linking Multiple Observations", "score": 0.324, "match_basis": "verbatim_token+chapter_route:ch04"}, {"md_atom_id": "md_ch04_a975", "md_file": "knowledge_base/chapters/ch04_general_assumptions.md", "md_atom_type": "HEADING", "md_parent_section": "§4.5 [Other Assumptions]", "md_verbatim": "### 4.5.6 Supplemental Reason Variables", "score": 0.324, "match_basis": "verbatim_token+chapter_route:ch04"}, {"md_atom_id": "md_ch04_a352", "md_file": "knowledge_base/chapters/ch04_general_assumptions.md", "md_atom_type": "HEADING", "md_parent_section": "§4.2.8 [Multiple Values for a Variable]", "md_verbatim": "#### 4.2.8.2 Multiple Values for a Findings Result Variable", "score": 0.32, "match_basis": "verbatim_token+chapter_route:ch04"}, {"md_atom_id": "md_ch04_a359", "md_file": "knowledge_base/chapters/ch04_general_assumptions.md", "md_atom_type": "HEADING", "md_parent_section": "§4.2.8 [Multiple Values for a Variable]", "md_verbatim": "#### 4.2.8.3 Multiple Values for a Non-result Qualifier Variable", "score": 0.3187, "match_basis": "verbatim_token+chapter_route:ch04"}, {"md_atom_id": "md_ch04_a347", "md_file": "knowledge_base/chapters/ch04_general_assumptions.md", "md_atom_type": "HEADING", "md_parent_section": "§4.2.8 [Multiple Values for a Variable]", "md_verbatim": "#### 4.2.8.1 Multiple Values for an Intervention or Event Topic Variable", "score": 0.3171, "match_basis": "verbatim_token+chapter_route:ch04"}], "candidate_count": 10, "zero_candidate": false}
{"pdf_atom_id": "ig34_p0055_a032", "pdf_atom_type": "SENTENCE", "pdf_source": "SDTMIG_v3.4", "pdf_page": 55, "pdf_parent_section": "§4.5.3.2 [Text Strings Greater than 200 Characters in Other Variables]", "pdf_verbatim": "In this example, the text entered for AEACNOTH was longer than 200 characters, but required only 1 supplemental qualifier for the text that extended beyond what could be represented in the standard variable.", "figure_ref": null, "candidates": [{"md_atom_id": "md_ch04_a926", "md_file": "knowledge_base/chapters/ch04_general_assumptions.md", "md_atom_type": "SENTENCE", "md_parent_section": "§4.5.3.2 [Text Strings Greater than 200 Characters in Other Variables]", "md_verbatim": "**Example 2 (ae.xpt / suppae.xpt):** AEACNOTH was longer than 200 characters, but required only 1 supplemental qualifier for the text that extended beyond what could be represented in the standard variable.", "score": 0.8625, "match_basis": "verbatim_token+chapter_route:ch04"}, {"md_atom_id": "md_ch04_a916", "md_file": "knowledge_base/chapters/ch04_general_assumptions.md", "md_atom_type": "SENTENCE", "md_parent_section": "§4.5.3.2 [Text Strings Greater than 200 Characters in Other Variables]", "md_verbatim": "**Example 1 (mh.xpt / suppmh.xpt):** MHTERM was longer than 200 characters and required 2 supplemental qualifier variables for the text that extended beyond what could be represented in the standard variable.", "score": 0.786, "match_basis": "verbatim_token+chapter_route:ch04"}, {"md_atom_id": "md_ch04_a935", "md_file": "knowledge_base/chapters/ch04_general_assumptions.md", "md_atom_type": "SENTENCE", "md_parent_section": "§4.5.3.2 [Text Strings Greater than 200 Characters in Other Variables]", "md_verbatim": "**Example 3 (pr.xpt / supppr.xpt):** PRREAS was longer than 200 characters, but required only 1 supplemental qualifier to represent the remaining text.", "score": 0.6084, "match_basis": "verbatim_token+chapter_route:ch04"}, {"md_atom_id": "md_ch04_a180", "md_file": "knowledge_base/chapters/ch04_general_assumptions.md", "md_atom_type": "SENTENCE", "md_parent_section": "§4.2.1 [Variable-Naming Conventions]", "md_verbatim": "Variable descriptive names (labels), up to 40 characters, should be provided as data variable labels for all variables, including Supplemental Qualifier variables.", "score": 0.4654, "match_basis": "verbatim_token+chapter_route:ch04"}, {"md_atom_id": "md_ch04_a507", "md_file": "knowledge_base/chapters/ch04_general_assumptions.md", "md_atom_type": "SENTENCE", "md_parent_section": "§4.4.1 [Formats for Date/Time Variables]", "md_verbatim": "Implementation of the ISO 8601 standard means that date/time variables are character/text data types.", "score": 0.4632, "match_basis": "verbatim_token+chapter_route:ch04"}], "candidate_count": 5, "zero_candidate": false}
{"pdf_atom_id": "ig34_p0056_a001", "pdf_atom_type": "SENTENCE", "pdf_source": "SDTMIG_v3.4", "pdf_page": 56, "pdf_parent_section": "§4.5.3.2 [Text Strings Greater than 200 Characters in Other Variables]", "pdf_verbatim": "The first 200 characters of text should be stored in the variable and separate additional 200 characters of text in supplemental qualifiers.", "figure_ref": null, "candidates": [{"md_atom_id": "md_ch04_a180", "md_file": "knowledge_base/chapters/ch04_general_assumptions.md", "md_atom_type": "SENTENCE", "md_parent_section": "§4.2.1 [Variable-Naming Conventions]", "md_verbatim": "Variable descriptive names (labels), up to 40 characters, should be provided as data variable labels for all variables, including Supplemental Qualifier variables.", "score": 0.5234, "match_basis": "verbatim_token+chapter_route:ch04"}, {"md_atom_id": "md_ch04_a148", "md_file": "knowledge_base/chapters/ch04_general_assumptions.md", "md_atom_type": "SENTENCE", "md_parent_section": "§4.1.9 [Assigning Natural Keys in the Metadata]", "md_verbatim": "Supplemental Qualifier variables should be referenced in the natural key by using a 2-part name.", "score": 0.5148, "match_basis": "verbatim_token+chapter_route:ch04"}, {"md_atom_id": "md_ch04_a916", "md_file": "knowledge_base/chapters/ch04_general_assumptions.md", "md_atom_type": "SENTENCE", "md_parent_section": "§4.5.3.2 [Text Strings Greater than 200 Characters in Other Variables]", "md_verbatim": "**Example 1 (mh.xpt / suppmh.xpt):** MHTERM was longer than 200 characters and required 2 supplemental qualifier variables for the text that extended beyond what could be represented in the standard variable.", "score": 0.5147, "match_basis": "verbatim_token+chapter_route:ch04"}, {"md_atom_id": "md_ch04_a926", "md_file": "knowledge_base/chapters/ch04_general_assumptions.md", "md_atom_type": "SENTENCE", "md_parent_section": "§4.5.3.2 [Text Strings Greater than 200 Characters in Other Variables]", "md_verbatim": "**Example 2 (ae.xpt / suppae.xpt):** AEACNOTH was longer than 200 characters, but required only 1 supplemental qualifier for the text that extended beyond what could be represented in the standard variable.", "score": 0.5053, "match_basis": "verbatim_token+chapter_route:ch04"}, {"md_atom_id": "md_ch04_a935", "md_file": "knowledge_base/chapters/ch04_general_assumptions.md", "md_atom_type": "SENTENCE", "md_parent_section": "§4.5.3.2 [Text Strings Greater than 200 Characters in Other Variables]", "md_verbatim": "**Example 3 (pr.xpt / supppr.xpt):** PRREAS was longer than 200 characters, but required only 1 supplemental qualifier to represent the remaining text.", "score": 0.4818, "match_basis": "verbatim_token+chapter_route:ch04"}], "candidate_count": 5, "zero_candidate": false}
{"pdf_atom_id": "ig34_p0056_a002", "pdf_atom_type": "SENTENCE", "pdf_source": "SDTMIG_v3.4", "pdf_page": 56, "pdf_parent_section": "§4.5.3.2 [Text Strings Greater than 200 Characters in Other Variables]", "pdf_verbatim": "When splitting a text string into several records, the text should be split between words to improve readability.", "figure_ref": null, "candidates": [{"md_atom_id": "md_ch04_a909", "md_file": "knowledge_base/chapters/ch04_general_assumptions.md", "md_atom_type": "LIST_ITEM", "md_parent_section": "§4.5.3.2 [Text Strings Greater than 200 Characters in Other Variables]", "md_verbatim": "- When splitting a text string into several records, the text should be **split between words** to improve readability", "score": 0.81, "match_basis": "verbatim_token+chapter_route:ch04"}, {"md_atom_id": "md_ch04_a405", "md_file": "knowledge_base/chapters/ch04_general_assumptions.md", "md_atom_type": "SENTENCE", "md_parent_section": "§4.2.8.4 [Multiple Values for a Parameter]", "md_verbatim": "When a parameter can have multiple values, the key structure for the dataset must be adequate to distinguish between the multiple records.", "score": 0.398, "match_basis": "verbatim_token+chapter_route:ch04"}, {"md_atom_id": "md_ch04_a137", "md_file": "knowledge_base/chapters/ch04_general_assumptions.md", "md_atom_type": "SENTENCE", "md_parent_section": "§4.1.9 [Assigning Natural Keys in the Metadata]", "md_verbatim": "In a case where a dataset includes a mix of records with different natural keys, the natural key that provides the most granularity is the one that should be provided.", "score": 0.3937, "match_basis": "verbatim_token+chapter_route:ch04"}, {"md_atom_id": "md_ch04_a025", "md_file": "knowledge_base/chapters/ch04_general_assumptions.md", "md_atom_type": "SENTENCE", "md_parent_section": "§4.1.3.1 [EPOCH Variable Guidance]", "md_verbatim": "For such records, EPOCH should be null.", "score": 0.3931, "match_basis": "verbatim_token+chapter_route:ch04"}, {"md_atom_id": "md_ch04_a319", "md_file": "knowledge_base/chapters/ch04_general_assumptions.md", "md_atom_type": "SENTENCE", "md_parent_section": "§4.2.7.3 [\"Specify\" Values for Topic Variables]", "md_verbatim": "If the sponsor wishes to distinguish between the prespecified list of treatments and those recorded in \"Other, Specify,\" the --PRESP variable could be used.", "score": 0.3891, "match_basis": "verbatim_token+chapter_route:ch04"}], "candidate_count": 5, "zero_candidate": false}
{"pdf_atom_id": "ig34_p0056_a003", "pdf_atom_type": "SENTENCE", "pdf_source": "SDTMIG_v3.4", "pdf_page": 56, "pdf_parent_section": "§4.5.3.2 [Text Strings Greater than 200 Characters in Other Variables]", "pdf_verbatim": "The value for QLABEL should be the original domain variable label.", "figure_ref": null, "candidates": [{"md_atom_id": "md_ch04_a912", "md_file": "knowledge_base/chapters/ch04_general_assumptions.md", "md_atom_type": "LIST_ITEM", "md_parent_section": "§4.5.3.2 [Text Strings Greater than 200 Characters in Other Variables]", "md_verbatim": "- The value for **QLABEL should be the original domain variable label**:", "score": 0.81, "match_basis": "verbatim_token+chapter_route:ch04"}, {"md_atom_id": "md_ch04_a454", "md_file": "knowledge_base/chapters/ch04_general_assumptions.md", "md_atom_type": "SENTENCE", "md_parent_section": "§4.3.6 [Storing Topic Variables for General Domain Models]", "md_verbatim": "For an Events domain, the topic variable is --TERM.", "score": 0.4895, "match_basis": "verbatim_token+chapter_route:ch04"}, {"md_atom_id": "md_ch04_a956", "md_file": "knowledge_base/chapters/ch04_general_assumptions.md", "md_atom_type": "SENTENCE", "md_parent_section": "§4.5.4 [Evaluators in the Interventions and Events Observation Classes]", "md_verbatim": "Within each SUPP-- record, the value for QNAM should be formed by appending a \"1\" to the corresponding standard domain variable name.", "score": 0.4701, "match_basis": "verbatim_token+chapter_route:ch04"}, {"md_atom_id": "md_ch04_a455", "md_file": "knowledge_base/chapters/ch04_general_assumptions.md", "md_atom_type": "SENTENCE", "md_parent_section": "§4.3.6 [Storing Topic Variables for General Domain Models]", "md_verbatim": "For an Interventions domain, the topic variable is --TRT.", "score": 0.4636, "match_basis": "verbatim_token+chapter_route:ch04"}, {"md_atom_id": "md_ch04_a364", "md_file": "knowledge_base/chapters/ch04_general_assumptions.md", "md_atom_type": "SENTENCE", "md_parent_section": "§4.2.8.3 [Multiple Values for a Non-result Qualifier Variable]", "md_verbatim": "Likewise, the QLABEL value should be similar to the standard label.", "score": 0.4565, "match_basis": "verbatim_token+chapter_route:ch04"}], "candidate_count": 5, "zero_candidate": false}
{"pdf_atom_id": "ig34_p0056_a004", "pdf_atom_type": "TABLE_HEADER", "pdf_source": "SDTMIG_v3.4", "pdf_page": 56, "pdf_parent_section": "§4.5.3.2 [Text Strings Greater than 200 Characters in Other Variables]", "pdf_verbatim": "Text Strings >200 Char Conventions for General Supplemental Qualifier Variables | Text Strings >200 Char Conventions for COVAL and Related Columns | Text Strings >200 Char Conventions for TSVAL and Related Columns | Text Strings >200 Char Conventions for IETEST", "figure_ref": null, "candidates": [{"md_atom_id": "md_ch04_a947", "md_file": "knowledge_base/chapters/ch04_general_assumptions.md", "md_atom_type": "TABLE_HEADER", "md_parent_section": "§4.5.3.2 [Text Strings Greater than 200 Characters in Other Variables]", "md_verbatim": "| Convention | General Observation Class and Supplemental Qualifier Variables | CO.COVAL | TS.TSVAL | TI.IETEST and IE.IETEST |\n|------------|---------------------------------------------------------------|----------|----------|------------------------|", "score": 0.6538, "match_basis": "verbatim_token+chapter_route:ch04"}, {"md_atom_id": "md_ch04_a1034", "md_file": "knowledge_base/chapters/ch04_general_assumptions.md", "md_atom_type": "TABLE_HEADER", "md_parent_section": "§4.5.9 [Baseline Values]", "md_verbatim": "| Variable | Structure Where It Is Defined | Requirement in That Structure | Definition | Intended Use |\n|----------|-------------------------------|-------------------------------|------------|--------------|", "score": 0.372, "match_basis": "verbatim_token+chapter_route:ch04"}, {"md_atom_id": "md_ch04_a948", "md_file": "knowledge_base/chapters/ch04_general_assumptions.md", "md_atom_type": "TABLE_ROW", "md_parent_section": "§4.5.3.2 [Text Strings Greater than 200 Characters in Other Variables]", "md_verbatim": "| Storage | First 200 chars in parent domain variable; each additional 200 chars in a SUPP-- record | First 200 chars in COVAL; each additional 200 chars in a CO domain record linked to COVALn | First 200 chars in TSVAL; each additional 200 chars in a TS domain record linked to TSVALn | If text >200 chars, put meaningful text in IETEST and describe full text in study metadata |", "score": 0.3696, "match_basis": "verbatim_token+chapter_route:ch04"}, {"md_atom_id": "md_ch04_a631", "md_file": "knowledge_base/chapters/ch04_general_assumptions.md", "md_atom_type": "TABLE_HEADER", "md_parent_section": "§4.4.7 [Use of Relative Timing Variables]", "md_verbatim": "| Variable | Allowable Values | Purpose |\n|----------|-----------------|---------|", "score": 0.3519, "match_basis": "verbatim_token+chapter_route:ch04"}, {"md_atom_id": "md_ch04_a642", "md_file": "knowledge_base/chapters/ch04_general_assumptions.md", "md_atom_type": "TABLE_HEADER", "md_parent_section": "§4.4.7 [Use of Relative Timing Variables]", "md_verbatim": "| Variable | Allowable Values | Purpose |\n|----------|-----------------|---------|", "score": 0.3519, "match_basis": "verbatim_token+chapter_route:ch04"}], "candidate_count": 5, "zero_candidate": false}
{"pdf_atom_id": "ig34_p0056_a005", "pdf_atom_type": "TABLE_ROW", "pdf_source": "SDTMIG_v3.4", "pdf_page": 56, "pdf_parent_section": "§4.5.3.2 [Text Strings Greater than 200 Characters in Other Variables]", "pdf_verbatim": "The first 200 characters of text should be stored in the variable and separate additional 200 characters of text in the SUPP-- dataset | The first 200 characters of text should be stored in COVAL and each additional 200 characters of text stored in additional columns COVAL+ | The first 200 characters of text should be stored in TSVAL and each additional 200 characters of text stored in additional columns TSVALn | If the inclusion/exclusion criteria text is >200 characters, put meaningful text in IETEST and describe the full text of the criteria, if appropriate", "figure_ref": null, "candidates": [{"md_atom_id": "md_ch04_a948", "md_file": "knowledge_base/chapters/ch04_general_assumptions.md", "md_atom_type": "TABLE_ROW", "md_parent_section": "§4.5.3.2 [Text Strings Greater than 200 Characters in Other Variables]", "md_verbatim": "| Storage | First 200 chars in parent domain variable; each additional 200 chars in a SUPP-- record | First 200 chars in COVAL; each additional 200 chars in a CO domain record linked to COVALn | First 200 chars in TSVAL; each additional 200 chars in a TS domain record linked to TSVALn | If text >200 chars, put meaningful text in IETEST and describe full text in study metadata |", "score": 0.574, "match_basis": "verbatim_token+chapter_route:ch04"}, {"md_atom_id": "md_ch04_a034", "md_file": "knowledge_base/chapters/ch04_general_assumptions.md", "md_atom_type": "TABLE_ROW", "md_parent_section": "§4.1.5 [SDTM Core Designations]", "md_verbatim": "| **Req** (Required) | A Required variable is any variable that is basic to the identification of a data record (i.e., essential key variables and a topic variable) or is necessary to make the record meaningful. Required variables must always be included in the dataset and cannot be null for any record. | Must always be populated; cannot be null for any record |", "score": 0.4055, "match_basis": "verbatim_token+chapter_route:ch04"}, {"md_atom_id": "md_ch04_a950", "md_file": "knowledge_base/chapters/ch04_general_assumptions.md", "md_atom_type": "TABLE_ROW", "md_parent_section": "§4.5.3.2 [Text Strings Greater than 200 Characters in Other Variables]", "md_verbatim": "| Label | QLABEL should be the original domain variable label | Variable labels for COVAL1 to COVALn should be \"Comment\" | Variable labels for TSVAL1 to TSVALn should be \"Parameter Value\" | Not applicable |", "score": 0.4038, "match_basis": "verbatim_token+chapter_route:ch04"}, {"md_atom_id": "md_ch04_a035", "md_file": "knowledge_base/chapters/ch04_general_assumptions.md", "md_atom_type": "TABLE_ROW", "md_parent_section": "§4.1.5 [SDTM Core Designations]", "md_verbatim": "| **Exp** (Expected) | Must be included in the dataset | Value should be populated when available; null values allowed when data not collected/applicable; must still include the column and add a comment in the Define-XML document to state that the study does not include the data item |", "score": 0.3964, "match_basis": "verbatim_token+chapter_route:ch04"}, {"md_atom_id": "md_ch04_a036", "md_file": "knowledge_base/chapters/ch04_general_assumptions.md", "md_atom_type": "TABLE_ROW", "md_parent_section": "§4.1.5 [SDTM Core Designations]", "md_verbatim": "| **Perm** (Permissible) | May be included in the dataset | If a study includes a data item that would be represented in a Permissible variable, then that variable must be included (even if null) and declared in Define-XML; if a study did not collect the data, do not include the variable and do not declare it in Define-XML |", "score": 0.3914, "match_basis": "verbatim_token+chapter_route:ch04"}], "candidate_count": 5, "zero_candidate": false}
{"pdf_atom_id": "ig34_p0056_a006", "pdf_atom_type": "TABLE_ROW", "pdf_source": "SDTMIG_v3.4", "pdf_page": 56, "pdf_parent_section": "§4.5.3.2 [Text Strings Greater than 200 Characters in Other Variables]", "pdf_verbatim": "When splitting a text string into several records, the text should be split between words to improve readability | When splitting a text string into several records, the text should be split between words | When splitting a text string into several records, the text should be split between words | Not applicable", "figure_ref": null, "candidates": [{"md_atom_id": "md_ch04_a909", "md_file": "knowledge_base/chapters/ch04_general_assumptions.md", "md_atom_type": "LIST_ITEM", "md_parent_section": "§4.5.3.2 [Text Strings Greater than 200 Characters in Other Variables]", "md_verbatim": "- When splitting a text string into several records, the text should be **split between words** to improve readability", "score": 0.6372, "match_basis": "verbatim_token+chapter_route:ch04"}, {"md_atom_id": "md_ch04_a949", "md_file": "knowledge_base/chapters/ch04_general_assumptions.md", "md_atom_type": "TABLE_ROW", "md_parent_section": "§4.5.3.2 [Text Strings Greater than 200 Characters in Other Variables]", "md_verbatim": "| Split rule | Split between words to improve readability | Split between words | Split between words | Not applicable |", "score": 0.62, "match_basis": "verbatim_token+chapter_route:ch04"}, {"md_atom_id": "md_ch04_a921", "md_file": "knowledge_base/chapters/ch04_general_assumptions.md", "md_atom_type": "TABLE_ROW", "md_parent_section": "§4.5.3.2 [Text Strings Greater than 200 Characters in Other Variables]", "md_verbatim": "| 1 | 12345 | MH | 99-123 | 6 | 1st ~200 chars of text, split between words |", "score": 0.4182, "match_basis": "verbatim_token+chapter_route:ch04"}, {"md_atom_id": "md_ch04_a943", "md_file": "knowledge_base/chapters/ch04_general_assumptions.md", "md_atom_type": "TABLE_ROW", "md_parent_section": "§4.5.3.2 [Text Strings Greater than 200 Characters in Other Variables]", "md_verbatim": "| 1 | 12345 | PR | 99-123 | PRSEQ | 4 | PRREAS | Reason | 1st ~200 characters of text, split between words | CRF |", "score": 0.405, "match_basis": "verbatim_token+chapter_route:ch04"}, {"md_atom_id": "md_ch04_a924", "md_file": "knowledge_base/chapters/ch04_general_assumptions.md", "md_atom_type": "TABLE_ROW", "md_parent_section": "§4.5.3.2 [Text Strings Greater than 200 Characters in Other Variables]", "md_verbatim": "| 1 | 12345 | MH | 99-123 | MHSEQ | 6 | MHTERM1 | Reported Term for the Medical History | 2nd ~200 chars of text, split between words | CRF |", "score": 0.3989, "match_basis": "verbatim_token+chapter_route:ch04"}], "candidate_count": 5, "zero_candidate": false}
{"pdf_atom_id": "ig34_p0056_a007", "pdf_atom_type": "TABLE_ROW", "pdf_source": "SDTMIG_v3.4", "pdf_page": 56, "pdf_parent_section": "§4.5.3.2 [Text Strings Greater than 200 Characters in Other Variables]", "pdf_verbatim": "The value for QLABEL should be the original domain variable label | The variable labels for COVAL+ to COVALn should be \"Comment\" | The variable labels for TSVAL+ to TSVALn should be \"Parameter Value\" | Not applicable", "figure_ref": null, "candidates": [{"md_atom_id": "md_ch04_a950", "md_file": "knowledge_base/chapters/ch04_general_assumptions.md", "md_atom_type": "TABLE_ROW", "md_parent_section": "§4.5.3.2 [Text Strings Greater than 200 Characters in Other Variables]", "md_verbatim": "| Label | QLABEL should be the original domain variable label | Variable labels for COVAL1 to COVALn should be \"Comment\" | Variable labels for TSVAL1 to TSVALn should be \"Parameter Value\" | Not applicable |", "score": 0.8891, "match_basis": "verbatim_token+chapter_route:ch04"}, {"md_atom_id": "md_ch04_a912", "md_file": "knowledge_base/chapters/ch04_general_assumptions.md", "md_atom_type": "LIST_ITEM", "md_parent_section": "§4.5.3.2 [Text Strings Greater than 200 Characters in Other Variables]", "md_verbatim": "- The value for **QLABEL should be the original domain variable label**:", "score": 0.4422, "match_basis": "verbatim_token+chapter_route:ch04"}, {"md_atom_id": "md_ch04_a035", "md_file": "knowledge_base/chapters/ch04_general_assumptions.md", "md_atom_type": "TABLE_ROW", "md_parent_section": "§4.1.5 [SDTM Core Designations]", "md_verbatim": "| **Exp** (Expected) | Must be included in the dataset | Value should be populated when available; null values allowed when data not collected/applicable; must still include the column and add a comment in the Define-XML document to state that the study does not include the data item |", "score": 0.4104, "match_basis": "verbatim_token+chapter_route:ch04"}, {"md_atom_id": "md_ch04_a948", "md_file": "knowledge_base/chapters/ch04_general_assumptions.md", "md_atom_type": "TABLE_ROW", "md_parent_section": "§4.5.3.2 [Text Strings Greater than 200 Characters in Other Variables]", "md_verbatim": "| Storage | First 200 chars in parent domain variable; each additional 200 chars in a SUPP-- record | First 200 chars in COVAL; each additional 200 chars in a CO domain record linked to COVALn | First 200 chars in TSVAL; each additional 200 chars in a TS domain record linked to TSVALn | If text >200 chars, put meaningful text in IETEST and describe full text in study metadata |", "score": 0.4077, "match_basis": "verbatim_token+chapter_route:ch04"}, {"md_atom_id": "md_ch04_a949", "md_file": "knowledge_base/chapters/ch04_general_assumptions.md", "md_atom_type": "TABLE_ROW", "md_parent_section": "§4.5.3.2 [Text Strings Greater than 200 Characters in Other Variables]", "md_verbatim": "| Split rule | Split between words to improve readability | Split between words | Split between words | Not applicable |", "score": 0.3684, "match_basis": "verbatim_token+chapter_route:ch04"}], "candidate_count": 5, "zero_candidate": false}
{"pdf_atom_id": "ig34_p0056_a008", "pdf_atom_type": "HEADING", "pdf_source": "SDTMIG_v3.4", "pdf_page": 56, "pdf_parent_section": "§4.5.4 [Evaluators in the Interventions and Events Observation Classes]", "pdf_verbatim": "4.5.4 Evaluators in the Interventions and Events Observation Classes", "figure_ref": null, "candidates": [{"md_atom_id": "md_ch04_a951", "md_file": "knowledge_base/chapters/ch04_general_assumptions.md", "md_atom_type": "HEADING", "md_parent_section": "§4.5 [Other Assumptions]", "md_verbatim": "### 4.5.4 Evaluators in the Interventions and Events Observation Classes", "score": 0.9, "match_basis": "verbatim_token+chapter_route:ch04"}, {"md_atom_id": "md_ch04_a987", "md_file": "knowledge_base/chapters/ch04_general_assumptions.md", "md_atom_type": "HEADING", "md_parent_section": "§4.5 [Other Assumptions]", "md_verbatim": "### 4.5.7 Presence or Absence of Prespecified Interventions and Events", "score": 0.4837, "match_basis": "verbatim_token+chapter_route:ch04"}, {"md_atom_id": "md_ch04_a186", "md_file": "knowledge_base/chapters/ch04_general_assumptions.md", "md_atom_type": "HEADING", "md_parent_section": "§4.2.1 [Variable-Naming Conventions]", "md_verbatim": "#### 4.2.1.2 --TRT Conventions (Interventions)", "score": 0.4737, "match_basis": "verbatim_token+chapter_route:ch04"}, {"md_atom_id": "md_ch04_a447", "md_file": "knowledge_base/chapters/ch04_general_assumptions.md", "md_atom_type": "HEADING", "md_parent_section": "§4.3.5 [Storing Controlled Terminology for Synonym Qualifier Variables (MedDRA and WHODrug)]", "md_verbatim": "#### WHODrug Coding (Interventions)", "score": 0.4535, "match_basis": "verbatim_token+chapter_route:ch04"}, {"md_atom_id": "md_ch04_a347", "md_file": "knowledge_base/chapters/ch04_general_assumptions.md", "md_atom_type": "HEADING", "md_parent_section": "§4.2.8 [Multiple Values for a Variable]", "md_verbatim": "#### 4.2.8.1 Multiple Values for an Intervention or Event Topic Variable", "score": 0.45, "match_basis": "verbatim_token+chapter_route:ch04"}], "candidate_count": 5, "zero_candidate": false}
{"pdf_atom_id": "ig34_p0056_a009", "pdf_atom_type": "SENTENCE", "pdf_source": "SDTMIG_v3.4", "pdf_page": 56, "pdf_parent_section": "§4.5.4 [Evaluators in the Interventions and Events Observation Classes]", "pdf_verbatim": "Because observations may originate from more than 1 source (e.g., investigator, independent assessor), observations recorded in the Findings class include the --EVAL qualifier.", "figure_ref": null, "candidates": [{"md_atom_id": "md_ch04_a952", "md_file": "knowledge_base/chapters/ch04_general_assumptions.md", "md_atom_type": "SENTENCE", "md_parent_section": "§4.5.4 [Evaluators in the Interventions and Events Observation Classes]", "md_verbatim": "Because observations may originate from more than 1 source (e.g., investigator, independent assessor), observations recorded in the Findings class include the --EVAL qualifier.", "score": 0.9, "match_basis": "verbatim_token+chapter_route:ch04"}, {"md_atom_id": "md_ch04_a953", "md_file": "knowledge_base/chapters/ch04_general_assumptions.md", "md_atom_type": "SENTENCE", "md_parent_section": "§4.5.4 [Evaluators in the Interventions and Events Observation Classes]", "md_verbatim": "For the Interventions and Events observation classes, which do not include the --EVAL variable, all data are assumed to be attributed to the principal investigator.", "score": 0.4606, "match_basis": "verbatim_token+chapter_route:ch04"}, {"md_atom_id": "md_ch04_a682", "md_file": "knowledge_base/chapters/ch04_general_assumptions.md", "md_atom_type": "SENTENCE", "md_parent_section": "§4.4.8 [Date and Time Reported in a Domain Based on Findings]", "md_verbatim": "For any domain based on the Findings general observation class (e.g., lab tests based on a specimen), the collection date is likely to be tied to when the source of the finding was captured, not necessarily when the data were recorded.", "score": 0.4352, "match_basis": "verbatim_token+chapter_route:ch04"}, {"md_atom_id": "md_ch04_a031", "md_file": "knowledge_base/chapters/ch04_general_assumptions.md", "md_atom_type": "SENTENCE", "md_parent_section": "§4.1.4 [Order of the Variables]", "md_verbatim": "Within each role, variables must be ordered as shown in SDTM Sections 3.1.1, The Interventions Observation Class; 3.1.2, The Events Observation Class; 3.1.3, The Findings Observation Class; 3.1.3.1, Findings About Events or Interventions; 3.1.4, Identifiers for All Classes; and 3.1.5, Timing Variables for All Classes.", "score": 0.4308, "match_basis": "verbatim_token+chapter_route:ch04"}, {"md_atom_id": "md_ch04_a976", "md_file": "knowledge_base/chapters/ch04_general_assumptions.md", "md_atom_type": "SENTENCE", "md_parent_section": "§4.5.6 [Supplemental Reason Variables]", "md_verbatim": "The SDTM general observation classes include the --REASND variable to submit the reason a response is not present (a result in a findings class or an --OCCUR value in an events or interventions variable).", "score": 0.4308, "match_basis": "verbatim_token+chapter_route:ch04"}], "candidate_count": 5, "zero_candidate": false}
{"pdf_atom_id": "ig34_p0056_a010", "pdf_atom_type": "SENTENCE", "pdf_source": "SDTMIG_v3.4", "pdf_page": 56, "pdf_parent_section": "§4.5.4 [Evaluators in the Interventions and Events Observation Classes]", "pdf_verbatim": "For the Interventions and Events observation classes, which do not include the --EVAL variable, all data are assumed to be attributed to the principal investigator.", "figure_ref": null, "candidates": [{"md_atom_id": "md_ch04_a953", "md_file": "knowledge_base/chapters/ch04_general_assumptions.md", "md_atom_type": "SENTENCE", "md_parent_section": "§4.5.4 [Evaluators in the Interventions and Events Observation Classes]", "md_verbatim": "For the Interventions and Events observation classes, which do not include the --EVAL variable, all data are assumed to be attributed to the principal investigator.", "score": 0.9, "match_basis": "verbatim_token+chapter_route:ch04"}, {"md_atom_id": "md_ch04_a976", "md_file": "knowledge_base/chapters/ch04_general_assumptions.md", "md_atom_type": "SENTENCE", "md_parent_section": "§4.5.6 [Supplemental Reason Variables]", "md_verbatim": "The SDTM general observation classes include the --REASND variable to submit the reason a response is not present (a result in a findings class or an --OCCUR value in an events or interventions variable).", "score": 0.4983, "match_basis": "verbatim_token+chapter_route:ch04"}, {"md_atom_id": "md_ch04_a453", "md_file": "knowledge_base/chapters/ch04_general_assumptions.md", "md_atom_type": "SENTENCE", "md_parent_section": "§4.3.6 [Storing Topic Variables for General Domain Models]", "md_verbatim": "The topic variable for the Interventions and Events general observation-class models is often stored as verbatim text.", "score": 0.4901, "match_basis": "verbatim_token+chapter_route:ch04"}, {"md_atom_id": "md_ch04_a018", "md_file": "knowledge_base/chapters/ch04_general_assumptions.md", "md_atom_type": "SENTENCE", "md_parent_section": "§4.1.3.1 [EPOCH Variable Guidance]", "md_verbatim": "For observations in Interventions or Events class domains, EPOCH should be based on the --STDTC variable, since this is the start of the intervention or event.", "score": 0.4842, "match_basis": "verbatim_token+chapter_route:ch04"}, {"md_atom_id": "md_ch04_a998", "md_file": "knowledge_base/chapters/ch04_general_assumptions.md", "md_atom_type": "SENTENCE", "md_parent_section": "§4.5.7 [Presence or Absence of Prespecified Interventions and Events]", "md_verbatim": "The --STAT and --REASND variables can be used to provide information about prespecified interventions and events for which there is no response (e.g., investigator forgot to ask).", "score": 0.4831, "match_basis": "verbatim_token+chapter_route:ch04"}], "candidate_count": 5, "zero_candidate": false}
{"pdf_atom_id": "ig34_p0057_a001", "pdf_atom_type": "SENTENCE", "pdf_source": "SDTMIG_v3.4", "pdf_page": 57, "pdf_parent_section": "§4.5.4 [Evaluators in the Interventions and Events Observation Classes]", "pdf_verbatim": "The QEVAL variable can be used to describe the evaluator for any data item in a SUPP-- dataset.", "figure_ref": null, "candidates": [{"md_atom_id": "md_ch04_a954", "md_file": "knowledge_base/chapters/ch04_general_assumptions.md", "md_atom_type": "SENTENCE", "md_parent_section": "§4.5.4 [Evaluators in the Interventions and Events Observation Classes]", "md_verbatim": "The QEVAL variable can be used to describe the evaluator for any data item in a SUPP-- dataset (see Section 8.4.1, Supplemental Qualifiers -- SUPP-- Datasets), but is not required when the data are objective.", "score": 0.5838, "match_basis": "verbatim_token+chapter_route:ch04"}, {"md_atom_id": "md_ch04_a015", "md_file": "knowledge_base/chapters/ch04_general_assumptions.md", "md_atom_type": "SENTENCE", "md_parent_section": "§4.1.3 [Additional Timing Variables]", "md_verbatim": "Timing variables cannot be added to SUPPQUAL datasets or to RELREC (described in Section 8, Representing Relationships and Data).", "score": 0.4519, "match_basis": "verbatim_token+chapter_route:ch04"}, {"md_atom_id": "md_ch04_a272", "md_file": "knowledge_base/chapters/ch04_general_assumptions.md", "md_atom_type": "SENTENCE", "md_parent_section": "§4.2.7.1 [\"Specify\" Values for Non-Result Qualifier Variables]", "md_verbatim": "The free-text description should be stored in the SUPPEX dataset.", "score": 0.4472, "match_basis": "verbatim_token+chapter_route:ch04"}, {"md_atom_id": "md_ch04_a241", "md_file": "knowledge_base/chapters/ch04_general_assumptions.md", "md_atom_type": "SENTENCE", "md_parent_section": "§4.2.6 [Grouping Variables and Categorization]", "md_verbatim": "As such, these variables are often used in IDVAR in a RELREC relationship when there is a dataset-to-dataset relationship.", "score": 0.4333, "match_basis": "verbatim_token+chapter_route:ch04"}, {"md_atom_id": "md_ch04_a262", "md_file": "knowledge_base/chapters/ch04_general_assumptions.md", "md_atom_type": "SENTENCE", "md_parent_section": "§4.2.7.1 [\"Specify\" Values for Non-Result Qualifier Variables]", "md_verbatim": "When free-text information is collected to supplement a standard non-result qualifier field, the free-text value should be placed in the SUPP-- dataset described in Section 8.4, Relating Non-standard Variable Values to a Parent Domain.", "score": 0.429, "match_basis": "verbatim_token+chapter_route:ch04"}], "candidate_count": 5, "zero_candidate": false}
{"pdf_atom_id": "ig34_p0057_a002", "pdf_atom_type": "SENTENCE", "pdf_source": "SDTMIG_v3.4", "pdf_page": 57, "pdf_parent_section": "§4.5.4 [Evaluators in the Interventions and Events Observation Classes]", "pdf_verbatim": "See Section 8.4.1, Supplemental Qualifiers—SUPP-- Datasets for additional detail.", "figure_ref": null, "candidates": [{"md_atom_id": "md_ch04_a103", "md_file": "knowledge_base/chapters/ch04_general_assumptions.md", "md_atom_type": "SENTENCE", "md_parent_section": "§4.1.7.1 [Example of Splitting Questionnaires]", "md_verbatim": "**Supplemental Qualifiers for QSCG — suppqscg.xpt**", "score": 0.5478, "match_basis": "verbatim_token+chapter_route:ch04"}, {"md_atom_id": "md_ch04_a107", "md_file": "knowledge_base/chapters/ch04_general_assumptions.md", "md_atom_type": "SENTENCE", "md_parent_section": "§4.1.7.1 [Example of Splitting Questionnaires]", "md_verbatim": "**Supplemental Qualifiers for QSPI — suppqspi.xpt**", "score": 0.5478, "match_basis": "verbatim_token+chapter_route:ch04"}, {"md_atom_id": "md_ch04_a119", "md_file": "knowledge_base/chapters/ch04_general_assumptions.md", "md_atom_type": "SENTENCE", "md_parent_section": "§4.1.7.1 [Example of Splitting Questionnaires]", "md_verbatim": "**Supplemental Qualifiers for QSSW — suppqssw.xpt**", "score": 0.5478, "match_basis": "verbatim_token+chapter_route:ch04"}, {"md_atom_id": "md_ch04_a901", "md_file": "knowledge_base/chapters/ch04_general_assumptions.md", "md_atom_type": "SENTENCE", "md_parent_section": "§4.5.3.1 [Test Name (--TEST) Greater than 40 Characters]", "md_verbatim": "This convention should also be applied to the qualifier value label (QLABEL) in Supplemental Qualifiers (SUPP--) datasets.", "score": 0.5364, "match_basis": "verbatim_token+chapter_route:ch04"}, {"md_atom_id": "md_ch04_a954", "md_file": "knowledge_base/chapters/ch04_general_assumptions.md", "md_atom_type": "SENTENCE", "md_parent_section": "§4.5.4 [Evaluators in the Interventions and Events Observation Classes]", "md_verbatim": "The QEVAL variable can be used to describe the evaluator for any data item in a SUPP-- dataset (see Section 8.4.1, Supplemental Qualifiers -- SUPP-- Datasets), but is not required when the data are objective.", "score": 0.5214, "match_basis": "verbatim_token+chapter_route:ch04"}], "candidate_count": 5, "zero_candidate": false}
{"pdf_atom_id": "ig34_p0057_a003", "pdf_atom_type": "SENTENCE", "pdf_source": "SDTMIG_v3.4", "pdf_page": 57, "pdf_parent_section": "§4.5.4 [Evaluators in the Interventions and Events Observation Classes]", "pdf_verbatim": "This example illustrates a case where an adjudication committee evaluated an adverse event.", "figure_ref": null, "candidates": [{"md_atom_id": "md_ch04_a958", "md_file": "knowledge_base/chapters/ch04_general_assumptions.md", "md_atom_type": "SENTENCE", "md_parent_section": "§4.5.4 [Evaluators in the Interventions and Events Observation Classes]", "md_verbatim": "**Example:** An adjudication committee evaluated an adverse event.", "score": 0.7269, "match_basis": "verbatim_token+chapter_route:ch04"}, {"md_atom_id": "md_ch04_a960", "md_file": "knowledge_base/chapters/ch04_general_assumptions.md", "md_atom_type": "SENTENCE", "md_parent_section": "§4.5.4 [Evaluators in the Interventions and Events Observation Classes]", "md_verbatim": "The evaluations of the adjudication committee were represented in SUPPAE.", "score": 0.5273, "match_basis": "verbatim_token+chapter_route:ch04"}, {"md_atom_id": "md_ch04_a672", "md_file": "knowledge_base/chapters/ch04_general_assumptions.md", "md_atom_type": "SENTENCE", "md_parent_section": "§4.4.7 [Use of Relative Timing Variables]", "md_verbatim": "**Example 3: Adverse Events**", "score": 0.4472, "match_basis": "verbatim_token+chapter_route:ch04"}, {"md_atom_id": "md_ch04_a959", "md_file": "knowledge_base/chapters/ch04_general_assumptions.md", "md_atom_type": "SENTENCE", "md_parent_section": "§4.5.4 [Evaluators in the Interventions and Events Observation Classes]", "md_verbatim": "The evaluations of the adverse event by the primary investigator were represented in the standard AE dataset.", "score": 0.431, "match_basis": "verbatim_token+chapter_route:ch04"}, {"md_atom_id": "md_ch04_a264", "md_file": "knowledge_base/chapters/ch04_general_assumptions.md", "md_atom_type": "SENTENCE", "md_parent_section": "§4.2.7.1 [\"Specify\" Values for Non-Result Qualifier Variables]", "md_verbatim": "For example, when a description of \"Other Medically Important Serious Adverse Event\" category is collected on a CRF, the free-text description should be stored in the SUPPAE dataset.", "score": 0.4243, "match_basis": "verbatim_token+chapter_route:ch04"}], "candidate_count": 5, "zero_candidate": false}
{"pdf_atom_id": "ig34_p0057_a004", "pdf_atom_type": "SENTENCE", "pdf_source": "SDTMIG_v3.4", "pdf_page": 57, "pdf_parent_section": "§4.5.4 [Evaluators in the Interventions and Events Observation Classes]", "pdf_verbatim": "The evaluations of the adverse event by the primary investigator were represented in the standard AE dataset.", "figure_ref": null, "candidates": [{"md_atom_id": "md_ch04_a959", "md_file": "knowledge_base/chapters/ch04_general_assumptions.md", "md_atom_type": "SENTENCE", "md_parent_section": "§4.5.4 [Evaluators in the Interventions and Events Observation Classes]", "md_verbatim": "The evaluations of the adverse event by the primary investigator were represented in the standard AE dataset.", "score": 0.9, "match_basis": "verbatim_token+chapter_route:ch04"}, {"md_atom_id": "md_ch04_a960", "md_file": "knowledge_base/chapters/ch04_general_assumptions.md", "md_atom_type": "SENTENCE", "md_parent_section": "§4.5.4 [Evaluators in the Interventions and Events Observation Classes]", "md_verbatim": "The evaluations of the adjudication committee were represented in SUPPAE.", "score": 0.475, "match_basis": "verbatim_token+chapter_route:ch04"}, {"md_atom_id": "md_ch04_a953", "md_file": "knowledge_base/chapters/ch04_general_assumptions.md", "md_atom_type": "SENTENCE", "md_parent_section": "§4.5.4 [Evaluators in the Interventions and Events Observation Classes]", "md_verbatim": "For the Interventions and Events observation classes, which do not include the --EVAL variable, all data are assumed to be attributed to the principal investigator.", "score": 0.45, "match_basis": "verbatim_token+chapter_route:ch04"}, {"md_atom_id": "md_ch04_a955", "md_file": "knowledge_base/chapters/ch04_general_assumptions.md", "md_atom_type": "SENTENCE", "md_parent_section": "§4.5.4 [Evaluators in the Interventions and Events Observation Classes]", "md_verbatim": "For observations that have primary and secondary evaluations of specific qualifier variables, sponsors should put data from the primary evaluation into the standard domain dataset and data from the secondary evaluation into the Supplemental Qualifier datasets (SUPP--).", "score": 0.4397, "match_basis": "verbatim_token+chapter_route:ch04"}, {"md_atom_id": "md_ch04_a958", "md_file": "knowledge_base/chapters/ch04_general_assumptions.md", "md_atom_type": "SENTENCE", "md_parent_section": "§4.5.4 [Evaluators in the Interventions and Events Observation Classes]", "md_verbatim": "**Example:** An adjudication committee evaluated an adverse event.", "score": 0.4378, "match_basis": "verbatim_token+chapter_route:ch04"}], "candidate_count": 5, "zero_candidate": false}
{"pdf_atom_id": "ig34_p0057_a005", "pdf_atom_type": "SENTENCE", "pdf_source": "SDTMIG_v3.4", "pdf_page": 57, "pdf_parent_section": "§4.5.4 [Evaluators in the Interventions and Events Observation Classes]", "pdf_verbatim": "The evaluations of the adjudication committee were represented in SUPPAE.", "figure_ref": null, "candidates": [{"md_atom_id": "md_ch04_a960", "md_file": "knowledge_base/chapters/ch04_general_assumptions.md", "md_atom_type": "SENTENCE", "md_parent_section": "§4.5.4 [Evaluators in the Interventions and Events Observation Classes]", "md_verbatim": "The evaluations of the adjudication committee were represented in SUPPAE.", "score": 0.9, "match_basis": "verbatim_token+chapter_route:ch04"}, {"md_atom_id": "md_ch04_a958", "md_file": "knowledge_base/chapters/ch04_general_assumptions.md", "md_atom_type": "SENTENCE", "md_parent_section": "§4.5.4 [Evaluators in the Interventions and Events Observation Classes]", "md_verbatim": "**Example:** An adjudication committee evaluated an adverse event.", "score": 0.5769, "match_basis": "verbatim_token+chapter_route:ch04"}, {"md_atom_id": "md_ch04_a959", "md_file": "knowledge_base/chapters/ch04_general_assumptions.md", "md_atom_type": "SENTENCE", "md_parent_section": "§4.5.4 [Evaluators in the Interventions and Events Observation Classes]", "md_verbatim": "The evaluations of the adverse event by the primary investigator were represented in the standard AE dataset.", "score": 0.475, "match_basis": "verbatim_token+chapter_route:ch04"}, {"md_atom_id": "md_ch04_a574", "md_file": "knowledge_base/chapters/ch04_general_assumptions.md", "md_atom_type": "SENTENCE", "md_parent_section": "§4.4.3.1 [Intervals of Time and Use of Duration]", "md_verbatim": "If no time component is represented, the [T] time designator must be omitted in ISO 8601 representation.", "score": 0.4645, "match_basis": "verbatim_token+chapter_route:ch04"}, {"md_atom_id": "md_ch04_a569", "md_file": "knowledge_base/chapters/ch04_general_assumptions.md", "md_atom_type": "SENTENCE", "md_parent_section": "§4.4.3.1 [Intervals of Time and Use of Duration]", "md_verbatim": "The letter \"P\" must precede other values in the ISO 8601 representation of duration.", "score": 0.44, "match_basis": "verbatim_token+chapter_route:ch04"}], "candidate_count": 5, "zero_candidate": false}
{"pdf_atom_id": "ig34_p0057_a006", "pdf_atom_type": "SENTENCE", "pdf_source": "SDTMIG_v3.4", "pdf_page": 57, "pdf_parent_section": "§4.5.4 [Evaluators in the Interventions and Events Observation Classes]", "pdf_verbatim": "See Section 8.4, Relating Non-standard Variable Values to a Datasets.", "figure_ref": null, "candidates": [{"md_atom_id": "md_ch04_a961", "md_file": "knowledge_base/chapters/ch04_general_assumptions.md", "md_atom_type": "SENTENCE", "md_parent_section": "§4.5.4 [Evaluators in the Interventions and Events Observation Classes]", "md_verbatim": "See Section 8.4, Relating Non-standard Variable Values to a Parent Domain.", "score": 0.7047, "match_basis": "verbatim_token+chapter_route:ch04"}, {"md_atom_id": "md_ch04_a366", "md_file": "knowledge_base/chapters/ch04_general_assumptions.md", "md_atom_type": "SENTENCE", "md_parent_section": "§4.2.8.3 [Multiple Values for a Non-result Qualifier Variable]", "md_verbatim": "See Section 8.4, Relating Non-standard Variable Values to a Parent Domain, for additional guidance on maintaining appropriately unique QNAM values.", "score": 0.526, "match_basis": "verbatim_token+chapter_route:ch04"}, {"md_atom_id": "md_ch04_a262", "md_file": "knowledge_base/chapters/ch04_general_assumptions.md", "md_atom_type": "SENTENCE", "md_parent_section": "§4.2.7.1 [\"Specify\" Values for Non-Result Qualifier Variables]", "md_verbatim": "When free-text information is collected to supplement a standard non-result qualifier field, the free-text value should be placed in the SUPP-- dataset described in Section 8.4, Relating Non-standard Variable Values to a Parent Domain.", "score": 0.5041, "match_basis": "verbatim_token+chapter_route:ch04"}, {"md_atom_id": "md_ch04_a015", "md_file": "knowledge_base/chapters/ch04_general_assumptions.md", "md_atom_type": "SENTENCE", "md_parent_section": "§4.1.3 [Additional Timing Variables]", "md_verbatim": "Timing variables cannot be added to SUPPQUAL datasets or to RELREC (described in Section 8, Representing Relationships and Data).", "score": 0.492, "match_basis": "verbatim_token+chapter_route:ch04"}, {"md_atom_id": "md_ch04_a241", "md_file": "knowledge_base/chapters/ch04_general_assumptions.md", "md_atom_type": "SENTENCE", "md_parent_section": "§4.2.6 [Grouping Variables and Categorization]", "md_verbatim": "As such, these variables are often used in IDVAR in a RELREC relationship when there is a dataset-to-dataset relationship.", "score": 0.47, "match_basis": "verbatim_token+chapter_route:ch04"}], "candidate_count": 5, "zero_candidate": false}
{"pdf_atom_id": "ig34_p0057_a007", "pdf_atom_type": "HEADING", "pdf_source": "SDTMIG_v3.4", "pdf_page": 57, "pdf_parent_section": "§4.5.5 [Clinical Significance for Findings Observation Class Data]", "pdf_verbatim": "4.5.5 Clinical Significance for Findings Observation Class Data", "figure_ref": null, "candidates": [{"md_atom_id": "md_ch04_a968", "md_file": "knowledge_base/chapters/ch04_general_assumptions.md", "md_atom_type": "HEADING", "md_parent_section": "§4.5 [Other Assumptions]", "md_verbatim": "### 4.5.5 Clinical Significance for Findings Observation Class Data", "score": 0.9, "match_basis": "verbatim_token+chapter_route:ch04"}, {"md_atom_id": "md_ch04_a891", "md_file": "knowledge_base/chapters/ch04_general_assumptions.md", "md_atom_type": "HEADING", "md_parent_section": "§4.5 [Other Assumptions]", "md_verbatim": "### 4.5.2 Linking Multiple Observations", "score": 0.4435, "match_basis": "verbatim_token+chapter_route:ch04"}, {"md_atom_id": "md_ch04_a951", "md_file": "knowledge_base/chapters/ch04_general_assumptions.md", "md_atom_type": "HEADING", "md_parent_section": "§4.5 [Other Assumptions]", "md_verbatim": "### 4.5.4 Evaluators in the Interventions and Events Observation Classes", "score": 0.4241, "match_basis": "verbatim_token+chapter_route:ch04"}, {"md_atom_id": "md_ch04_a893", "md_file": "knowledge_base/chapters/ch04_general_assumptions.md", "md_atom_type": "HEADING", "md_parent_section": "§4.5 [Other Assumptions]", "md_verbatim": "### 4.5.3 Text Strings that Exceed the Maximum Length for General Observation-class Domain Variables", "score": 0.4233, "match_basis": "verbatim_token+chapter_route:ch04"}, {"md_atom_id": "md_ch04_a182", "md_file": "knowledge_base/chapters/ch04_general_assumptions.md", "md_atom_type": "HEADING", "md_parent_section": "§4.2.1 [Variable-Naming Conventions]", "md_verbatim": "#### 4.2.1.1 --TEST and --TESTCD Conventions (Findings)", "score": 0.4, "match_basis": "verbatim_token+chapter_route:ch04"}], "candidate_count": 5, "zero_candidate": false}
{"pdf_atom_id": "ig34_p0057_a008", "pdf_atom_type": "SENTENCE", "pdf_source": "SDTMIG_v3.4", "pdf_page": 57, "pdf_parent_section": "§4.5.5 [Clinical Significance for Findings Observation Class Data]", "pdf_verbatim": "For assessments of clinical significance when the overall interpretation is a record in the domain, use the --CLSIG (Clinically Significant) variable on the record that contains the overall interpretation or a particular result.", "figure_ref": null, "candidates": [{"md_atom_id": "md_ch04_a969", "md_file": "knowledge_base/chapters/ch04_general_assumptions.md", "md_atom_type": "SENTENCE", "md_parent_section": "§4.5.5 [Clinical Significance for Findings Observation Class Data]", "md_verbatim": "For assessments of clinical significance when the overall interpretation is in the domain, use the --CLSIG (Clinically Significant) variable on the record that contains the overall interpretation or a particular result.", "score": 0.9, "match_basis": "verbatim_token+chapter_route:ch04"}, {"md_atom_id": "md_ch04_a970", "md_file": "knowledge_base/chapters/ch04_general_assumptions.md", "md_atom_type": "SENTENCE", "md_parent_section": "§4.5.5 [Clinical Significance for Findings Observation Class Data]", "md_verbatim": "For example, EGCLSIG = \"Y\" indicates that an ECG result of \"ATRIAL FIBRILLATION\" was clinically significant.", "score": 0.4611, "match_basis": "verbatim_token+chapter_route:ch04"}, {"md_atom_id": "md_ch04_a701", "md_file": "knowledge_base/chapters/ch04_general_assumptions.md", "md_atom_type": "SENTENCE", "md_parent_section": "§4.4.9 [Use of Dates as Result Variables]", "md_verbatim": "One approach to modeling these data would be to place the text of the question in --TEST and the response to the question (a date represented in ISO 8601 format) in --ORRES and --STRESC, as long as these date results do not contain the dates of medically significant events or interventions.", "score": 0.4315, "match_basis": "verbatim_token+chapter_route:ch04"}, {"md_atom_id": "md_ch04_a255", "md_file": "knowledge_base/chapters/ch04_general_assumptions.md", "md_atom_type": "SENTENCE", "md_parent_section": "§4.2.6 [Grouping Variables and Categorization]", "md_verbatim": "In domains based on the Findings general observation class, the --RESCAT variable can be used to categorize results after the fact.", "score": 0.4271, "match_basis": "verbatim_token+chapter_route:ch04"}, {"md_atom_id": "md_ch04_a788", "md_file": "knowledge_base/chapters/ch04_general_assumptions.md", "md_atom_type": "SENTENCE", "md_parent_section": "§4.4.11 [Disease Milestones and Disease Milestone Timing Variables]", "md_verbatim": "Disease Milestones (defined in TM, recorded in SM) provide a way to anchor observations to clinically significant time points.", "score": 0.4268, "match_basis": "verbatim_token+chapter_route:ch04"}], "candidate_count": 5, "zero_candidate": false}
{"pdf_atom_id": "ig34_p0057_a009", "pdf_atom_type": "SENTENCE", "pdf_source": "SDTMIG_v3.4", "pdf_page": 57, "pdf_parent_section": "§4.5.5 [Clinical Significance for Findings Observation Class Data]", "pdf_verbatim": "For example, EGCLSIG = \"Y\" indicates that an ECG result of \"ATRIAL FIBRILLATION\" was clinically significant.", "figure_ref": null, "candidates": [{"md_atom_id": "md_ch04_a970", "md_file": "knowledge_base/chapters/ch04_general_assumptions.md", "md_atom_type": "SENTENCE", "md_parent_section": "§4.5.5 [Clinical Significance for Findings Observation Class Data]", "md_verbatim": "For example, EGCLSIG = \"Y\" indicates that an ECG result of \"ATRIAL FIBRILLATION\" was clinically significant.", "score": 0.9, "match_basis": "verbatim_token+chapter_route:ch04"}, {"md_atom_id": "md_ch04_a969", "md_file": "knowledge_base/chapters/ch04_general_assumptions.md", "md_atom_type": "SENTENCE", "md_parent_section": "§4.5.5 [Clinical Significance for Findings Observation Class Data]", "md_verbatim": "For assessments of clinical significance when the overall interpretation is in the domain, use the --CLSIG (Clinically Significant) variable on the record that contains the overall interpretation or a particular result.", "score": 0.4611, "match_basis": "verbatim_token+chapter_route:ch04"}, {"md_atom_id": "md_ch04_a971", "md_file": "knowledge_base/chapters/ch04_general_assumptions.md", "md_atom_type": "SENTENCE", "md_parent_section": "§4.5.5 [Clinical Significance for Findings Observation Class Data]", "md_verbatim": "Separate from clinical significance are results of \"NORMAL\" or \"ABNORMAL\", or lab values that are out of normal range.", "score": 0.45, "match_basis": "verbatim_token+chapter_route:ch04"}, {"md_atom_id": "md_ch04_a788", "md_file": "knowledge_base/chapters/ch04_general_assumptions.md", "md_atom_type": "SENTENCE", "md_parent_section": "§4.4.11 [Disease Milestones and Disease Milestone Timing Variables]", "md_verbatim": "Disease Milestones (defined in TM, recorded in SM) provide a way to anchor observations to clinically significant time points.", "score": 0.4129, "match_basis": "verbatim_token+chapter_route:ch04"}, {"md_atom_id": "md_ch04_a701", "md_file": "knowledge_base/chapters/ch04_general_assumptions.md", "md_atom_type": "SENTENCE", "md_parent_section": "§4.4.9 [Use of Dates as Result Variables]", "md_verbatim": "One approach to modeling these data would be to place the text of the question in --TEST and the response to the question (a date represented in ISO 8601 format) in --ORRES and --STRESC, as long as these date results do not contain the dates of medically significant events or interventions.", "score": 0.4095, "match_basis": "verbatim_token+chapter_route:ch04"}], "candidate_count": 5, "zero_candidate": false}
{"pdf_atom_id": "ig34_p0057_a010", "pdf_atom_type": "SENTENCE", "pdf_source": "SDTMIG_v3.4", "pdf_page": 57, "pdf_parent_section": "§4.5.5 [Clinical Significance for Findings Observation Class Data]", "pdf_verbatim": "Separate from clinical significance are results of \"NORMAL\" or \"ABNORMAL\", or lab values that are out of normal range.", "figure_ref": null, "candidates": [{"md_atom_id": "md_ch04_a971", "md_file": "knowledge_base/chapters/ch04_general_assumptions.md", "md_atom_type": "SENTENCE", "md_parent_section": "§4.5.5 [Clinical Significance for Findings Observation Class Data]", "md_verbatim": "Separate from clinical significance are results of \"NORMAL\" or \"ABNORMAL\", or lab values that are out of normal range.", "score": 0.9, "match_basis": "verbatim_token+chapter_route:ch04"}, {"md_atom_id": "md_ch04_a970", "md_file": "knowledge_base/chapters/ch04_general_assumptions.md", "md_atom_type": "SENTENCE", "md_parent_section": "§4.5.5 [Clinical Significance for Findings Observation Class Data]", "md_verbatim": "For example, EGCLSIG = \"Y\" indicates that an ECG result of \"ATRIAL FIBRILLATION\" was clinically significant.", "score": 0.45, "match_basis": "verbatim_token+chapter_route:ch04"}, {"md_atom_id": "md_ch04_a240", "md_file": "knowledge_base/chapters/ch04_general_assumptions.md", "md_atom_type": "SENTENCE", "md_parent_section": "§4.2.6 [Grouping Variables and Categorization]", "md_verbatim": "--LNKID and --LNKGRP express values that are used to link records in separate domains.", "score": 0.4286, "match_basis": "verbatim_token+chapter_route:ch04"}, {"md_atom_id": "md_ch04_a969", "md_file": "knowledge_base/chapters/ch04_general_assumptions.md", "md_atom_type": "SENTENCE", "md_parent_section": "§4.5.5 [Clinical Significance for Findings Observation Class Data]", "md_verbatim": "For assessments of clinical significance when the overall interpretation is in the domain, use the --CLSIG (Clinically Significant) variable on the record that contains the overall interpretation or a particular result.", "score": 0.4234, "match_basis": "verbatim_token+chapter_route:ch04"}, {"md_atom_id": "md_ch04_a571", "md_file": "knowledge_base/chapters/ch04_general_assumptions.md", "md_atom_type": "SENTENCE", "md_parent_section": "§4.4.3.1 [Intervals of Time and Use of Duration]", "md_verbatim": "As with the date/time format, \"T\" is used to separate the date components from time components.", "score": 0.3937, "match_basis": "verbatim_token+chapter_route:ch04"}], "candidate_count": 5, "zero_candidate": false}
{"pdf_atom_id": "ig34_p0057_a011", "pdf_atom_type": "LIST_ITEM", "pdf_source": "SDTMIG_v3.4", "pdf_page": 57, "pdf_parent_section": "§4.5.5 [Clinical Significance for Findings Observation Class Data]", "pdf_verbatim": "An ECG test with EGTESTCD = \"INTP\" (which addresses the ECG as a whole) should have a result of or \"NORMAL\" or \"ABNORMAL\". A record for EGTESTCD = \"INTP\" may also have EGCLSIG indicating whether the result is clinically significant.", "figure_ref": null, "candidates": [{"md_atom_id": "md_ch04_a973", "md_file": "knowledge_base/chapters/ch04_general_assumptions.md", "md_atom_type": "LIST_ITEM", "md_parent_section": "§4.5.5 [Clinical Significance for Findings Observation Class Data]", "md_verbatim": "- An ECG test with EGTESTCD = \"INTP\" (which addresses the ECG as a whole) should have a result of \"NORMAL\" or \"ABNORMAL\". A record for EGTESTCD = \"INTP\" may also have EGCLSIG indicating whether the result is clinically significant.", "score": 0.9, "match_basis": "verbatim_token+chapter_route:ch04"}, {"md_atom_id": "md_ch04_a974", "md_file": "knowledge_base/chapters/ch04_general_assumptions.md", "md_atom_type": "LIST_ITEM", "md_parent_section": "§4.5.5 [Clinical Significance for Findings Observation Class Data]", "md_verbatim": "- A record for a vital signs measurement (e.g., systolic blood pressure) or a lab test (e.g., hematocrit) that contains a measurement may have a normal range and a normal range indicator. It could also have --CLSIG indicating whether the result was clinically significant.", "score": 0.5504, "match_basis": "verbatim_token+chapter_route:ch04"}, {"md_atom_id": "md_ch04_a867", "md_file": "knowledge_base/chapters/ch04_general_assumptions.md", "md_atom_type": "LIST_ITEM", "md_parent_section": "§4.5.1.3 [Examples of Original and Standard Units and Test Not Done]", "md_verbatim": "- **Row 7:** At visit 3, there were no ECG results, as indicated by EGTESTCD = \"EGALL\" and EGSTAT = \"NOT DONE\".", "score": 0.4163, "match_basis": "verbatim_token+chapter_route:ch04"}, {"md_atom_id": "md_ch04_a866", "md_file": "knowledge_base/chapters/ch04_general_assumptions.md", "md_atom_type": "LIST_ITEM", "md_parent_section": "§4.5.1.3 [Examples of Original and Standard Units and Test Not Done]", "md_verbatim": "- **Row 6:** The result for EGTESTCD = \"PRAG\" was missing at visit 2, as indicated by EGSTAT = \"NOT DONE\"; neither EGORRES nor EGSTRESC is populated.", "score": 0.4115, "match_basis": "verbatim_token+chapter_route:ch04"}, {"md_atom_id": "md_ch04_a879", "md_file": "knowledge_base/chapters/ch04_general_assumptions.md", "md_atom_type": "LIST_ITEM", "md_parent_section": "§4.5.1.3 [Examples of Original and Standard Units and Test Not Done]", "md_verbatim": "- **Row 3:** A result for VSTESTCD = \"HR\" is missing, as indicated by VSSTAT = \"NOT DONE\"; neither VSORRES nor VSSTRESC is populated.", "score": 0.4046, "match_basis": "verbatim_token+chapter_route:ch04"}], "candidate_count": 5, "zero_candidate": false}
{"pdf_atom_id": "ig34_p0057_a012", "pdf_atom_type": "LIST_ITEM", "pdf_source": "SDTMIG_v3.4", "pdf_page": 57, "pdf_parent_section": "§4.5.5 [Clinical Significance for Findings Observation Class Data]", "pdf_verbatim": "A record for a vital signs measurement (e.g., systolic blood pressure) or a lab test (e.g., hematocrit) that contains a measurement may have a normal range and a normal range indicator. It could also have --CLSIG indicating whether the result is clinically significant.", "figure_ref": null, "candidates": [{"md_atom_id": "md_ch04_a974", "md_file": "knowledge_base/chapters/ch04_general_assumptions.md", "md_atom_type": "LIST_ITEM", "md_parent_section": "§4.5.5 [Clinical Significance for Findings Observation Class Data]", "md_verbatim": "- A record for a vital signs measurement (e.g., systolic blood pressure) or a lab test (e.g., hematocrit) that contains a measurement may have a normal range and a normal range indicator. It could also have --CLSIG indicating whether the result was clinically significant.", "score": 0.8941, "match_basis": "verbatim_token+chapter_route:ch04"}, {"md_atom_id": "md_ch04_a973", "md_file": "knowledge_base/chapters/ch04_general_assumptions.md", "md_atom_type": "LIST_ITEM", "md_parent_section": "§4.5.5 [Clinical Significance for Findings Observation Class Data]", "md_verbatim": "- An ECG test with EGTESTCD = \"INTP\" (which addresses the ECG as a whole) should have a result of \"NORMAL\" or \"ABNORMAL\". A record for EGTESTCD = \"INTP\" may also have EGCLSIG indicating whether the result is clinically significant.", "score": 0.5524, "match_basis": "verbatim_token+chapter_route:ch04"}, {"md_atom_id": "md_ch04_a881", "md_file": "knowledge_base/chapters/ch04_general_assumptions.md", "md_atom_type": "LIST_ITEM", "md_parent_section": "§4.5.1.3 [Examples of Original and Standard Units and Test Not Done]", "md_verbatim": "- **Row 6:** A third measurement for VSTESTCD = \"SYSBP\" at visit 1 was a derived record, as indicated by VSDRVFL = \"Y\".", "score": 0.4048, "match_basis": "verbatim_token+chapter_route:ch04"}, {"md_atom_id": "md_ch04_a882", "md_file": "knowledge_base/chapters/ch04_general_assumptions.md", "md_atom_type": "LIST_ITEM", "md_parent_section": "§4.5.1.3 [Examples of Original and Standard Units and Test Not Done]", "md_verbatim": "- **Row 7:** At visit 2, there were no Vital Signs results, as indicated by VSTESTCD = \"VSALL\" and VSSTAT = \"NOT DONE\".", "score": 0.4033, "match_basis": "verbatim_token+chapter_route:ch04"}, {"md_atom_id": "md_ch04_a1024", "md_file": "knowledge_base/chapters/ch04_general_assumptions.md", "md_atom_type": "LIST_ITEM", "md_parent_section": "§4.5.8 [Accounting for Long-term Follow-up]", "md_verbatim": "3. The disposition of the subject at the time of the final follow-up contact should be stored in DS. Note that overall study conclusion is the point where any contact with the subject ceases, which in this example is also the conclusion of long-term follow-up. The disposition of the subject at the conclusion of the 2-month clinical treatment phase would be stored in DS as the conclusion to that epoch. Long-term follow-up would be represented as a separate epoch. Therefore, in this example the subject could have 3 disposition records in DS, with both the follow-up epoch disposition and the overall study conclusion disposition being collected at the final telephone contact. See Section 6.2.4, Disposition, for detailed assumptions and examples.", "score": 0.4009, "match_basis": "verbatim_token+chapter_route:ch04"}], "candidate_count": 5, "zero_candidate": false}
{"pdf_atom_id": "ig34_p0057_a013", "pdf_atom_type": "HEADING", "pdf_source": "SDTMIG_v3.4", "pdf_page": 57, "pdf_parent_section": "§4.5.6 [Supplemental Reason Variables]", "pdf_verbatim": "4.5.6 Supplemental Reason Variables", "figure_ref": null, "candidates": [{"md_atom_id": "md_ch04_a975", "md_file": "knowledge_base/chapters/ch04_general_assumptions.md", "md_atom_type": "HEADING", "md_parent_section": "§4.5 [Other Assumptions]", "md_verbatim": "### 4.5.6 Supplemental Reason Variables", "score": 0.9, "match_basis": "verbatim_token+chapter_route:ch04"}, {"md_atom_id": "md_ch04_a027", "md_file": "knowledge_base/chapters/ch04_general_assumptions.md", "md_atom_type": "HEADING", "md_parent_section": "§4.1 [General Domain Assumptions]", "md_verbatim": "### 4.1.4 Order of the Variables", "score": 0.468, "match_basis": "verbatim_token+chapter_route:ch04"}, {"md_atom_id": "md_ch04_a599", "md_file": "knowledge_base/chapters/ch04_general_assumptions.md", "md_atom_type": "HEADING", "md_parent_section": "§4.4 [Actual and Relative Time Assumptions]", "md_verbatim": "### 4.4.4 Study Day Variables", "score": 0.468, "match_basis": "verbatim_token+chapter_route:ch04"}, {"md_atom_id": "md_ch04_a693", "md_file": "knowledge_base/chapters/ch04_general_assumptions.md", "md_atom_type": "HEADING", "md_parent_section": "§4.4 [Use of Timing Variables]", "md_verbatim": "### 4.4.9 Use of Dates as Result Variables", "score": 0.4448, "match_basis": "verbatim_token+chapter_route:ch04"}, {"md_atom_id": "md_ch04_a221", "md_file": "knowledge_base/chapters/ch04_general_assumptions.md", "md_atom_type": "HEADING", "md_parent_section": "§4.2.6 [Grouping Variables and Categorization]", "md_verbatim": "#### How Grouping Variables Group Data", "score": 0.44, "match_basis": "verbatim_token+chapter_route:ch04"}], "candidate_count": 5, "zero_candidate": false}
{"pdf_atom_id": "ig34_p0057_a014", "pdf_atom_type": "SENTENCE", "pdf_source": "SDTMIG_v3.4", "pdf_page": 57, "pdf_parent_section": "§4.5.6 [Supplemental Reason Variables]", "pdf_verbatim": "The SDTM general observation classes include the --REASND variable to submit the reason a response is not present (a result in a findings class or an --OCCUR value in an events or interventions variable).", "figure_ref": null, "candidates": [{"md_atom_id": "md_ch04_a976", "md_file": "knowledge_base/chapters/ch04_general_assumptions.md", "md_atom_type": "SENTENCE", "md_parent_section": "§4.5.6 [Supplemental Reason Variables]", "md_verbatim": "The SDTM general observation classes include the --REASND variable to submit the reason a response is not present (a result in a findings class or an --OCCUR value in an events or interventions variable).", "score": 0.9, "match_basis": "verbatim_token+chapter_route:ch04"}, {"md_atom_id": "md_ch04_a980", "md_file": "knowledge_base/chapters/ch04_general_assumptions.md", "md_atom_type": "SENTENCE", "md_parent_section": "§4.5.6 [Supplemental Reason Variables]", "md_verbatim": "For the Findings general observation class, --REASPF is available to represent the reason a test was performed.", "score": 0.5187, "match_basis": "verbatim_token+chapter_route:ch04"}, {"md_atom_id": "md_ch04_a255", "md_file": "knowledge_base/chapters/ch04_general_assumptions.md", "md_atom_type": "SENTENCE", "md_parent_section": "§4.2.6 [Grouping Variables and Categorization]", "md_verbatim": "In domains based on the Findings general observation class, the --RESCAT variable can be used to categorize results after the fact.", "score": 0.5059, "match_basis": "verbatim_token+chapter_route:ch04"}, {"md_atom_id": "md_ch04_a979", "md_file": "knowledge_base/chapters/ch04_general_assumptions.md", "md_atom_type": "SENTENCE", "md_parent_section": "§4.5.6 [Supplemental Reason Variables]", "md_verbatim": "For the Interventions general observation class, --INDC is available to represent the medical condition for which the intervention was given, and --ADJ is available to represent the reason for a dose adjustment.", "score": 0.5054, "match_basis": "verbatim_token+chapter_route:ch04"}, {"md_atom_id": "md_ch04_a453", "md_file": "knowledge_base/chapters/ch04_general_assumptions.md", "md_atom_type": "SENTENCE", "md_parent_section": "§4.3.6 [Storing Topic Variables for General Domain Models]", "md_verbatim": "The topic variable for the Interventions and Events general observation-class models is often stored as verbatim text.", "score": 0.504, "match_basis": "verbatim_token+chapter_route:ch04"}], "candidate_count": 5, "zero_candidate": false}
{"pdf_atom_id": "ig34_p0057_a015", "pdf_atom_type": "SENTENCE", "pdf_source": "SDTMIG_v3.4", "pdf_page": 57, "pdf_parent_section": "§4.5.6 [Supplemental Reason Variables]", "pdf_verbatim": "For Events and Interventions domains where specified occurrences have a reason for the \"Y\" or \"N\" value of --OCCUR, the reason can be represented with the variable --REASOC.", "figure_ref": null, "candidates": [{"md_atom_id": "md_ch04_a977", "md_file": "knowledge_base/chapters/ch04_general_assumptions.md", "md_atom_type": "SENTENCE", "md_parent_section": "§4.5.6 [Supplemental Reason Variables]", "md_verbatim": "For Events and Interventions domains where prespecified occurrences have a reason for the \"Y\" or \"N\" value of --OCCUR, the reason can be represented with the variable --REASOC.", "score": 0.891, "match_basis": "verbatim_token+chapter_route:ch04"}, {"md_atom_id": "md_ch04_a994", "md_file": "knowledge_base/chapters/ch04_general_assumptions.md", "md_atom_type": "SENTENCE", "md_parent_section": "§4.5.7 [Presence or Absence of Prespecified Interventions and Events]", "md_verbatim": "The --OCCUR variable is used to indicate whether a prespecified intervention or event occurred or did not occur.", "score": 0.555, "match_basis": "verbatim_token+chapter_route:ch04"}, {"md_atom_id": "md_ch04_a1006", "md_file": "knowledge_base/chapters/ch04_general_assumptions.md", "md_atom_type": "SENTENCE", "md_parent_section": "§4.5.7 [Presence or Absence of Prespecified Interventions and Events]", "md_verbatim": "When an explicit question asks about the occurrence of a group of interventions or events, the group value should be represented in --TRT or --TERM, respectively.", "score": 0.5143, "match_basis": "verbatim_token+chapter_route:ch04"}, {"md_atom_id": "md_ch04_a997", "md_file": "knowledge_base/chapters/ch04_general_assumptions.md", "md_atom_type": "SENTENCE", "md_parent_section": "§4.5.7 [Presence or Absence of Prespecified Interventions and Events]", "md_verbatim": "If a study collects both prespecified interventions and events as well as free-text events and interventions, the value of --OCCUR should be \"Y\" or \"N\" for all prespecified interventions and events, and null for those reported as free text.", "score": 0.502, "match_basis": "verbatim_token+chapter_route:ch04"}, {"md_atom_id": "md_ch04_a998", "md_file": "knowledge_base/chapters/ch04_general_assumptions.md", "md_atom_type": "SENTENCE", "md_parent_section": "§4.5.7 [Presence or Absence of Prespecified Interventions and Events]", "md_verbatim": "The --STAT and --REASND variables can be used to provide information about prespecified interventions and events for which there is no response (e.g., investigator forgot to ask).", "score": 0.5, "match_basis": "verbatim_token+chapter_route:ch04"}], "candidate_count": 5, "zero_candidate": false}
{"pdf_atom_id": "ig34_p0057_a016", "pdf_atom_type": "SENTENCE", "pdf_source": "SDTMIG_v3.4", "pdf_page": 57, "pdf_parent_section": "§4.5.6 [Supplemental Reason Variables]", "pdf_verbatim": "However, sponsors sometimes collect the reason that something was done.", "figure_ref": null, "candidates": [{"md_atom_id": "md_ch04_a978", "md_file": "knowledge_base/chapters/ch04_general_assumptions.md", "md_atom_type": "SENTENCE", "md_parent_section": "§4.5.6 [Supplemental Reason Variables]", "md_verbatim": "However, sponsors sometimes collect the reason that something was done.", "score": 0.9, "match_basis": "verbatim_token+chapter_route:ch04"}, {"md_atom_id": "md_ch04_a904", "md_file": "knowledge_base/chapters/ch04_general_assumptions.md", "md_atom_type": "SENTENCE", "md_parent_section": "§4.5.3.2 [Text Strings Greater than 200 Characters in Other Variables]", "md_verbatim": "Some sponsors may collect data values longer than 200 characters for some variables.", "score": 0.4273, "match_basis": "verbatim_token+chapter_route:ch04"}, {"md_atom_id": "md_ch04_a470", "md_file": "knowledge_base/chapters/ch04_general_assumptions.md", "md_atom_type": "SENTENCE", "md_parent_section": "§4.3.7 [Use of \"Yes\" and \"No\" Values]", "md_verbatim": "However, some variables are collected or derived in a manner that allows only 1 response, such as when a single checkbox indicates \"Yes\".", "score": 0.4256, "match_basis": "verbatim_token+chapter_route:ch04"}, {"md_atom_id": "md_ch04_a983", "md_file": "knowledge_base/chapters/ch04_general_assumptions.md", "md_atom_type": "SENTENCE", "md_parent_section": "§4.5.6 [Supplemental Reason Variables]", "md_verbatim": "For example, if the sponsor collected the reason for admission to a nursing home was for rehabilitation, a SUPPHO record might be populated as follows.", "score": 0.4213, "match_basis": "verbatim_token+chapter_route:ch04"}, {"md_atom_id": "md_ch04_a150", "md_file": "knowledge_base/chapters/ch04_general_assumptions.md", "md_atom_type": "SENTENCE", "md_parent_section": "§4.1.9 [Assigning Natural Keys in the Metadata]", "md_verbatim": "In this example, sponsor B might have collected data that used different imaging methods, using imaging devices with different makes and models, and using different hand positions.", "score": 0.4043, "match_basis": "verbatim_token+chapter_route:ch04"}], "candidate_count": 5, "zero_candidate": false}
{"pdf_atom_id": "ig34_p0057_a017", "pdf_atom_type": "SENTENCE", "pdf_source": "SDTMIG_v3.4", "pdf_page": 57, "pdf_parent_section": "§4.5.6 [Supplemental Reason Variables]", "pdf_verbatim": "For the Interventions general observation class, --INDC is available to represent the medical condition for which the intervention was given, and --ADJ is available to represent the reason for a dose adjustment.", "figure_ref": null, "candidates": [{"md_atom_id": "md_ch04_a979", "md_file": "knowledge_base/chapters/ch04_general_assumptions.md", "md_atom_type": "SENTENCE", "md_parent_section": "§4.5.6 [Supplemental Reason Variables]", "md_verbatim": "For the Interventions general observation class, --INDC is available to represent the medical condition for which the intervention was given, and --ADJ is available to represent the reason for a dose adjustment.", "score": 0.9, "match_basis": "verbatim_token+chapter_route:ch04"}, {"md_atom_id": "md_ch04_a980", "md_file": "knowledge_base/chapters/ch04_general_assumptions.md", "md_atom_type": "SENTENCE", "md_parent_section": "§4.5.6 [Supplemental Reason Variables]", "md_verbatim": "For the Findings general observation class, --REASPF is available to represent the reason a test was performed.", "score": 0.5894, "match_basis": "verbatim_token+chapter_route:ch04"}, {"md_atom_id": "md_ch04_a976", "md_file": "knowledge_base/chapters/ch04_general_assumptions.md", "md_atom_type": "SENTENCE", "md_parent_section": "§4.5.6 [Supplemental Reason Variables]", "md_verbatim": "The SDTM general observation classes include the --REASND variable to submit the reason a response is not present (a result in a findings class or an --OCCUR value in an events or interventions variable).", "score": 0.5054, "match_basis": "verbatim_token+chapter_route:ch04"}, {"md_atom_id": "md_ch04_a477", "md_file": "knowledge_base/chapters/ch04_general_assumptions.md", "md_atom_type": "SENTENCE", "md_parent_section": "§4.4 [Actual and Relative Time Assumptions]", "md_verbatim": "In the Events or Interventions general observation class, this could be the start date of the event or intervention.", "score": 0.4857, "match_basis": "verbatim_token+chapter_route:ch04"}, {"md_atom_id": "md_ch04_a453", "md_file": "knowledge_base/chapters/ch04_general_assumptions.md", "md_atom_type": "SENTENCE", "md_parent_section": "§4.3.6 [Storing Topic Variables for General Domain Models]", "md_verbatim": "The topic variable for the Interventions and Events general observation-class models is often stored as verbatim text.", "score": 0.4818, "match_basis": "verbatim_token+chapter_route:ch04"}], "candidate_count": 5, "zero_candidate": false}
{"pdf_atom_id": "ig34_p0057_a018", "pdf_atom_type": "SENTENCE", "pdf_source": "SDTMIG_v3.4", "pdf_page": 57, "pdf_parent_section": "§4.5.6 [Supplemental Reason Variables]", "pdf_verbatim": "For the Findings general observation class, --REASPE is available to represent the reason a test was performed.", "figure_ref": null, "candidates": [{"md_atom_id": "md_ch04_a980", "md_file": "knowledge_base/chapters/ch04_general_assumptions.md", "md_atom_type": "SENTENCE", "md_parent_section": "§4.5.6 [Supplemental Reason Variables]", "md_verbatim": "For the Findings general observation class, --REASPF is available to represent the reason a test was performed.", "score": 0.8782, "match_basis": "verbatim_token+chapter_route:ch04"}, {"md_atom_id": "md_ch04_a979", "md_file": "knowledge_base/chapters/ch04_general_assumptions.md", "md_atom_type": "SENTENCE", "md_parent_section": "§4.5.6 [Supplemental Reason Variables]", "md_verbatim": "For the Interventions general observation class, --INDC is available to represent the medical condition for which the intervention was given, and --ADJ is available to represent the reason for a dose adjustment.", "score": 0.5894, "match_basis": "verbatim_token+chapter_route:ch04"}, {"md_atom_id": "md_ch04_a976", "md_file": "knowledge_base/chapters/ch04_general_assumptions.md", "md_atom_type": "SENTENCE", "md_parent_section": "§4.5.6 [Supplemental Reason Variables]", "md_verbatim": "The SDTM general observation classes include the --REASND variable to submit the reason a response is not present (a result in a findings class or an --OCCUR value in an events or interventions variable).", "score": 0.5187, "match_basis": "verbatim_token+chapter_route:ch04"}, {"md_atom_id": "md_ch04_a255", "md_file": "knowledge_base/chapters/ch04_general_assumptions.md", "md_atom_type": "SENTENCE", "md_parent_section": "§4.2.6 [Grouping Variables and Categorization]", "md_verbatim": "In domains based on the Findings general observation class, the --RESCAT variable can be used to categorize results after the fact.", "score": 0.4862, "match_basis": "verbatim_token+chapter_route:ch04"}, {"md_atom_id": "md_ch04_a216", "md_file": "knowledge_base/chapters/ch04_general_assumptions.md", "md_atom_type": "SENTENCE", "md_parent_section": "§4.2.5 [Convention for Missing Values]", "md_verbatim": "Missing values are represented as null. When a test is not performed, use --STAT = \"NOT DONE\" and --REASND for the reason. See Section 4.5.1.2 for details.", "score": 0.4744, "match_basis": "verbatim_token+chapter_route:ch04"}], "candidate_count": 5, "zero_candidate": false}
{"pdf_atom_id": "ig34_p0057_a019", "pdf_atom_type": "SENTENCE", "pdf_source": "SDTMIG_v3.4", "pdf_page": 57, "pdf_parent_section": "§4.5.6 [Supplemental Reason Variables]", "pdf_verbatim": "If the sponsor collects a reason for performing an activity represented in an Events domain where the topic is not a medical condition, or a reason for an intervention other than a medical indication, the reason can be represented in the SUPP-- dataset (as described in Section 8.4.1, Supplemental Qualifiers—SUPP--Datasets) using the supplemental qualifier with QNAM of \"--REAS\" listed in Appendix C1, Supplemental Qualifiers Name Codes.", "figure_ref": null, "candidates": [{"md_atom_id": "md_ch04_a981", "md_file": "knowledge_base/chapters/ch04_general_assumptions.md", "md_atom_type": "SENTENCE", "md_parent_section": "§4.5.6 [Supplemental Reason Variables]", "md_verbatim": "If the sponsor collects a reason for performing an activity represented in an Events domain where the topic is not a medical condition, or a reason for an intervention other than a medical indication, the reason can be represented in the SUPP-- dataset (as described in Section 8.4.1, Supplemental Qualifiers -- SUPP-- Datasets) using the supplemental qualifier with QNAM of \"--REAS\" listed in Appendix C1, Supplemental Qualifiers Name Codes.", "score": 0.9, "match_basis": "verbatim_token+chapter_route:ch04"}, {"md_atom_id": "md_ch04_a262", "md_file": "knowledge_base/chapters/ch04_general_assumptions.md", "md_atom_type": "SENTENCE", "md_parent_section": "§4.2.7.1 [\"Specify\" Values for Non-Result Qualifier Variables]", "md_verbatim": "When free-text information is collected to supplement a standard non-result qualifier field, the free-text value should be placed in the SUPP-- dataset described in Section 8.4, Relating Non-standard Variable Values to a Parent Domain.", "score": 0.4674, "match_basis": "verbatim_token+chapter_route:ch04"}, {"md_atom_id": "md_ch04_a263", "md_file": "knowledge_base/chapters/ch04_general_assumptions.md", "md_atom_type": "SENTENCE", "md_parent_section": "§4.2.7.1 [\"Specify\" Values for Non-Result Qualifier Variables]", "md_verbatim": "When applicable, controlled terminology should be used for SUPP-- field names (QNAM) and their associated labels (QLABEL; see Section 8.4 and Appendix C1, Supplemental Qualifiers Name Codes).", "score": 0.4653, "match_basis": "verbatim_token+chapter_route:ch04"}, {"md_atom_id": "md_ch04_a181", "md_file": "knowledge_base/chapters/ch04_general_assumptions.md", "md_atom_type": "SENTENCE", "md_parent_section": "§4.2.1 [Variable-Naming Conventions]", "md_verbatim": "Use of variable names (other than domain prefixes), formats, decodes, terminology, and data types for the same type of data (even for custom domains and Supplemental Qualifiers) should be consistent within and across studies within a submission.", "score": 0.4598, "match_basis": "verbatim_token+chapter_route:ch04"}, {"md_atom_id": "md_ch04_a694", "md_file": "knowledge_base/chapters/ch04_general_assumptions.md", "md_atom_type": "SENTENCE", "md_parent_section": "§4.4.9 [Use of Dates as Result Variables]", "md_verbatim": "Dates are generally used only as timing variables to describe the timing of an event, intervention, or collection activity, but there may be occasions when it may be preferable to model a date as a result (--ORRES) in a Findings dataset.", "score": 0.4588, "match_basis": "verbatim_token+chapter_route:ch04"}], "candidate_count": 5, "zero_candidate": false}
{"pdf_atom_id": "ig34_p0057_a020", "pdf_atom_type": "SENTENCE", "pdf_source": "SDTMIG_v3.4", "pdf_page": 57, "pdf_parent_section": "§4.5.6 [Supplemental Reason Variables]", "pdf_verbatim": "If multiple reasons are reported, refer to Section 4.2.8.3, Multiple Values for a Non-result Qualifier Variable.", "figure_ref": null, "candidates": [{"md_atom_id": "md_ch04_a982", "md_file": "knowledge_base/chapters/ch04_general_assumptions.md", "md_atom_type": "SENTENCE", "md_parent_section": "§4.5.6 [Supplemental Reason Variables]", "md_verbatim": "If multiple reasons are reported, refer to Section 4.2.8.3, Multiple Values for a Non-result Qualifier Variable.", "score": 0.9, "match_basis": "verbatim_token+chapter_route:ch04"}, {"md_atom_id": "md_ch04_a361", "md_file": "knowledge_base/chapters/ch04_general_assumptions.md", "md_atom_type": "SENTENCE", "md_parent_section": "§4.2.8.3 [Multiple Values for a Non-result Qualifier Variable]", "md_verbatim": "If multiple values exist (e.g., due to a \"Check all that apply\" instruction on a CRF), then the value for the qualifier variable should be \"MULTIPLE\" and SUPP-- should be used to store the individual responses.", "score": 0.4851, "match_basis": "verbatim_token+chapter_route:ch04"}, {"md_atom_id": "md_ch04_a262", "md_file": "knowledge_base/chapters/ch04_general_assumptions.md", "md_atom_type": "SENTENCE", "md_parent_section": "§4.2.7.1 [\"Specify\" Values for Non-Result Qualifier Variables]", "md_verbatim": "When free-text information is collected to supplement a standard non-result qualifier field, the free-text value should be placed in the SUPP-- dataset described in Section 8.4, Relating Non-standard Variable Values to a Parent Domain.", "score": 0.4661, "match_basis": "verbatim_token+chapter_route:ch04"}, {"md_atom_id": "md_ch04_a360", "md_file": "knowledge_base/chapters/ch04_general_assumptions.md", "md_atom_type": "SENTENCE", "md_parent_section": "§4.2.8.3 [Multiple Values for a Non-result Qualifier Variable]", "md_verbatim": "The SDTM permits 1 value for each qualifier variable per record.", "score": 0.4645, "match_basis": "verbatim_token+chapter_route:ch04"}, {"md_atom_id": "md_ch04_a177", "md_file": "knowledge_base/chapters/ch04_general_assumptions.md", "md_atom_type": "SENTENCE", "md_parent_section": "§4.2.1 [Variable-Naming Conventions]", "md_verbatim": "Values of other \"CD\" variables are **not** subject to the same restrictions as --TESTCD:", "score": 0.4522, "match_basis": "verbatim_token+chapter_route:ch04"}], "candidate_count": 5, "zero_candidate": false}
{"pdf_atom_id": "ig34_p0058_a001", "pdf_atom_type": "HEADING", "pdf_source": "SDTMIG_v3.4", "pdf_page": 58, "pdf_parent_section": "§4.5.7 [Presence or Absence of Prespecified Interventions and Events]", "pdf_verbatim": "4.5.7 Presence or Absence of Prespecified Interventions and Events", "figure_ref": null, "candidates": [{"md_atom_id": "md_ch04_a987", "md_file": "knowledge_base/chapters/ch04_general_assumptions.md", "md_atom_type": "HEADING", "md_parent_section": "§4.5 [Other Assumptions]", "md_verbatim": "### 4.5.7 Presence or Absence of Prespecified Interventions and Events", "score": 0.9, "match_basis": "verbatim_token+chapter_route:ch04"}, {"md_atom_id": "md_ch04_a186", "md_file": "knowledge_base/chapters/ch04_general_assumptions.md", "md_atom_type": "HEADING", "md_parent_section": "§4.2.1 [Variable-Naming Conventions]", "md_verbatim": "#### 4.2.1.2 --TRT Conventions (Interventions)", "score": 0.4941, "match_basis": "verbatim_token+chapter_route:ch04"}, {"md_atom_id": "md_ch04_a951", "md_file": "knowledge_base/chapters/ch04_general_assumptions.md", "md_atom_type": "HEADING", "md_parent_section": "§4.5 [Other Assumptions]", "md_verbatim": "### 4.5.4 Evaluators in the Interventions and Events Observation Classes", "score": 0.4837, "match_basis": "verbatim_token+chapter_route:ch04"}, {"md_atom_id": "md_ch04_a447", "md_file": "knowledge_base/chapters/ch04_general_assumptions.md", "md_atom_type": "HEADING", "md_parent_section": "§4.3.5 [Storing Controlled Terminology for Synonym Qualifier Variables (MedDRA and WHODrug)]", "md_verbatim": "#### WHODrug Coding (Interventions)", "score": 0.4692, "match_basis": "verbatim_token+chapter_route:ch04"}, {"md_atom_id": "md_ch04_a189", "md_file": "knowledge_base/chapters/ch04_general_assumptions.md", "md_atom_type": "HEADING", "md_parent_section": "§4.2.1 [Variable-Naming Conventions]", "md_verbatim": "#### 4.2.1.3 --TERM Conventions (Events)", "score": 0.4588, "match_basis": "verbatim_token+chapter_route:ch04"}], "candidate_count": 5, "zero_candidate": false}
{"pdf_atom_id": "ig34_p0058_a002", "pdf_atom_type": "SENTENCE", "pdf_source": "SDTMIG_v3.4", "pdf_page": 58, "pdf_parent_section": "§4.5.7 [Presence or Absence of Prespecified Interventions and Events]", "pdf_verbatim": "Interventions (e.g., concomitant medications) and events (e.g., medical history) can generally be collected in 2 different ways, by recording either verbatim free text or the responses to a prespecified list of treatments or terms.", "figure_ref": null, "candidates": [{"md_atom_id": "md_ch04_a988", "md_file": "knowledge_base/chapters/ch04_general_assumptions.md", "md_atom_type": "SENTENCE", "md_parent_section": "§4.5.7 [Presence or Absence of Prespecified Interventions and Events]", "md_verbatim": "Interventions (e.g., concomitant medications) and events (e.g., medical history) can generally be collected in 2 different ways, by recording either verbatim free text or the responses to a prespecified list of treatments or terms.", "score": 0.9, "match_basis": "verbatim_token+chapter_route:ch04"}, {"md_atom_id": "md_ch04_a277", "md_file": "knowledge_base/chapters/ch04_general_assumptions.md", "md_atom_type": "SENTENCE", "md_parent_section": "§4.2.7.1 [\"Specify\" Values for Non-Result Qualifier Variables]", "md_verbatim": "For example, consider a CRF that collects the indication for an analgesic concomitant medication (CMINDC) using a list of prespecified values and an \"Other, specify\" field:", "score": 0.4708, "match_basis": "verbatim_token+chapter_route:ch04"}, {"md_atom_id": "md_ch04_a997", "md_file": "knowledge_base/chapters/ch04_general_assumptions.md", "md_atom_type": "SENTENCE", "md_parent_section": "§4.5.7 [Presence or Absence of Prespecified Interventions and Events]", "md_verbatim": "If a study collects both prespecified interventions and events as well as free-text events and interventions, the value of --OCCUR should be \"Y\" or \"N\" for all prespecified interventions and events, and null for those reported as free text.", "score": 0.4662, "match_basis": "verbatim_token+chapter_route:ch04"}, {"md_atom_id": "md_ch04_a636", "md_file": "knowledge_base/chapters/ch04_general_assumptions.md", "md_atom_type": "SENTENCE", "md_parent_section": "§4.4.7 [Use of Relative Timing Variables]", "md_verbatim": "Note that in this example, the information collected is with respect to the start of the concomitant medication use only, and therefore the collected data corresponds to variable CMSTRF, not CMENRF.", "score": 0.4562, "match_basis": "verbatim_token+chapter_route:ch04"}, {"md_atom_id": "md_ch04_a458", "md_file": "knowledge_base/chapters/ch04_general_assumptions.md", "md_atom_type": "SENTENCE", "md_parent_section": "§4.3.6 [Storing Topic Variables for General Domain Models]", "md_verbatim": "If the verbatim topic variable in an Interventions or Event domain is modified to facilitate coding, the modified text is stored in --MODIFY.", "score": 0.4417, "match_basis": "verbatim_token+chapter_route:ch04"}], "candidate_count": 5, "zero_candidate": false}
{"pdf_atom_id": "ig34_p0058_a003", "pdf_atom_type": "SENTENCE", "pdf_source": "SDTMIG_v3.4", "pdf_page": 58, "pdf_parent_section": "§4.5.7 [Presence or Absence of Prespecified Interventions and Events]", "pdf_verbatim": "Because the method of solicitation for information on treatments and terms may affect the frequency at which they are reported, whether they were prespecified or not may be of interest to reviewers.", "figure_ref": null, "candidates": [{"md_atom_id": "md_ch04_a989", "md_file": "knowledge_base/chapters/ch04_general_assumptions.md", "md_atom_type": "SENTENCE", "md_parent_section": "§4.5.7 [Presence or Absence of Prespecified Interventions and Events]", "md_verbatim": "Because the method of solicitation for information on treatments and terms may affect the frequency at which they are reported, whether they were prespecified may be of interest to reviewers.", "score": 0.893, "match_basis": "verbatim_token+chapter_route:ch04"}, {"md_atom_id": "md_ch04_a998", "md_file": "knowledge_base/chapters/ch04_general_assumptions.md", "md_atom_type": "SENTENCE", "md_parent_section": "§4.5.7 [Presence or Absence of Prespecified Interventions and Events]", "md_verbatim": "The --STAT and --REASND variables can be used to provide information about prespecified interventions and events for which there is no response (e.g., investigator forgot to ask).", "score": 0.4628, "match_basis": "verbatim_token+chapter_route:ch04"}, {"md_atom_id": "md_ch04_a990", "md_file": "knowledge_base/chapters/ch04_general_assumptions.md", "md_atom_type": "SENTENCE", "md_parent_section": "§4.5.7 [Presence or Absence of Prespecified Interventions and Events]", "md_verbatim": "The --PRESP variable is used to indicate whether a specific intervention (--TRT) or event (--TERM) was solicited.", "score": 0.45, "match_basis": "verbatim_token+chapter_route:ch04"}, {"md_atom_id": "md_ch04_a997", "md_file": "knowledge_base/chapters/ch04_general_assumptions.md", "md_atom_type": "SENTENCE", "md_parent_section": "§4.5.7 [Presence or Absence of Prespecified Interventions and Events]", "md_verbatim": "If a study collects both prespecified interventions and events as well as free-text events and interventions, the value of --OCCUR should be \"Y\" or \"N\" for all prespecified interventions and events, and null for those reported as free text.", "score": 0.4426, "match_basis": "verbatim_token+chapter_route:ch04"}, {"md_atom_id": "md_ch04_a988", "md_file": "knowledge_base/chapters/ch04_general_assumptions.md", "md_atom_type": "SENTENCE", "md_parent_section": "§4.5.7 [Presence or Absence of Prespecified Interventions and Events]", "md_verbatim": "Interventions (e.g., concomitant medications) and events (e.g., medical history) can generally be collected in 2 different ways, by recording either verbatim free text or the responses to a prespecified list of treatments or terms.", "score": 0.4382, "match_basis": "verbatim_token+chapter_route:ch04"}], "candidate_count": 5, "zero_candidate": false}
{"pdf_atom_id": "ig34_p0058_a004", "pdf_atom_type": "SENTENCE", "pdf_source": "SDTMIG_v3.4", "pdf_page": 58, "pdf_parent_section": "§4.5.7 [Presence or Absence of Prespecified Interventions and Events]", "pdf_verbatim": "The --PRESP variable is used to indicate whether a specific intervention (--TRT) or event (--TERM) was solicited.", "figure_ref": null, "candidates": [{"md_atom_id": "md_ch04_a990", "md_file": "knowledge_base/chapters/ch04_general_assumptions.md", "md_atom_type": "SENTENCE", "md_parent_section": "§4.5.7 [Presence or Absence of Prespecified Interventions and Events]", "md_verbatim": "The --PRESP variable is used to indicate whether a specific intervention (--TRT) or event (--TERM) was solicited.", "score": 0.9, "match_basis": "verbatim_token+chapter_route:ch04"}, {"md_atom_id": "md_ch04_a994", "md_file": "knowledge_base/chapters/ch04_general_assumptions.md", "md_atom_type": "SENTENCE", "md_parent_section": "§4.5.7 [Presence or Absence of Prespecified Interventions and Events]", "md_verbatim": "The --OCCUR variable is used to indicate whether a prespecified intervention or event occurred or did not occur.", "score": 0.6864, "match_basis": "verbatim_token+chapter_route:ch04"}, {"md_atom_id": "md_ch04_a977", "md_file": "knowledge_base/chapters/ch04_general_assumptions.md", "md_atom_type": "SENTENCE", "md_parent_section": "§4.5.6 [Supplemental Reason Variables]", "md_verbatim": "For Events and Interventions domains where prespecified occurrences have a reason for the \"Y\" or \"N\" value of --OCCUR, the reason can be represented with the variable --REASOC.", "score": 0.5, "match_basis": "verbatim_token+chapter_route:ch04"}, {"md_atom_id": "md_ch04_a455", "md_file": "knowledge_base/chapters/ch04_general_assumptions.md", "md_atom_type": "SENTENCE", "md_parent_section": "§4.3.6 [Storing Topic Variables for General Domain Models]", "md_verbatim": "For an Interventions domain, the topic variable is --TRT.", "score": 0.4862, "match_basis": "verbatim_token+chapter_route:ch04"}, {"md_atom_id": "md_ch04_a998", "md_file": "knowledge_base/chapters/ch04_general_assumptions.md", "md_atom_type": "SENTENCE", "md_parent_section": "§4.5.7 [Presence or Absence of Prespecified Interventions and Events]", "md_verbatim": "The --STAT and --REASND variables can be used to provide information about prespecified interventions and events for which there is no response (e.g., investigator forgot to ask).", "score": 0.4776, "match_basis": "verbatim_token+chapter_route:ch04"}], "candidate_count": 5, "zero_candidate": false}
{"pdf_atom_id": "ig34_p0058_a005", "pdf_atom_type": "SENTENCE", "pdf_source": "SDTMIG_v3.4", "pdf_page": 58, "pdf_parent_section": "§4.5.7 [Presence or Absence of Prespecified Interventions and Events]", "pdf_verbatim": "The --PRESP variable has controlled terminology of \"Y\" (for \"Yes\") or a null value.", "figure_ref": null, "candidates": [{"md_atom_id": "md_ch04_a991", "md_file": "knowledge_base/chapters/ch04_general_assumptions.md", "md_atom_type": "SENTENCE", "md_parent_section": "§4.5.7 [Presence or Absence of Prespecified Interventions and Events]", "md_verbatim": "It has controlled terminology of \"Y\" (for \"Yes\") or a null value.", "score": 0.7286, "match_basis": "verbatim_token+chapter_route:ch04"}, {"md_atom_id": "md_ch04_a995", "md_file": "knowledge_base/chapters/ch04_general_assumptions.md", "md_atom_type": "SENTENCE", "md_parent_section": "§4.5.7 [Presence or Absence of Prespecified Interventions and Events]", "md_verbatim": "It has controlled terminology of \"Y\" and \"N\" (for \"Yes\" and \"No\").", "score": 0.6333, "match_basis": "verbatim_token+chapter_route:ch04"}, {"md_atom_id": "md_ch04_a365", "md_file": "knowledge_base/chapters/ch04_general_assumptions.md", "md_atom_type": "SENTENCE", "md_parent_section": "§4.2.8.3 [Multiple Values for a Non-result Qualifier Variable]", "md_verbatim": "The values stored in QVAL should be consistent with the controlled terminology associated with the standard variable.", "score": 0.5382, "match_basis": "verbatim_token+chapter_route:ch04"}, {"md_atom_id": "md_ch04_a999", "md_file": "knowledge_base/chapters/ch04_general_assumptions.md", "md_atom_type": "SENTENCE", "md_parent_section": "§4.5.7 [Presence or Absence of Prespecified Interventions and Events]", "md_verbatim": "As in Findings, --STAT has controlled terminology of NOT DONE.", "score": 0.5348, "match_basis": "verbatim_token+chapter_route:ch04"}, {"md_atom_id": "md_ch04_a456", "md_file": "knowledge_base/chapters/ch04_general_assumptions.md", "md_atom_type": "SENTENCE", "md_parent_section": "§4.3.6 [Storing Topic Variables for General Domain Models]", "md_verbatim": "For a Findings domain, the topic variable --TESTCD should use controlled terminology (e.g., \"SYSBP\" for systolic blood pressure).", "score": 0.525, "match_basis": "verbatim_token+chapter_route:ch04"}], "candidate_count": 5, "zero_candidate": false}
{"pdf_atom_id": "ig34_p0058_a006", "pdf_atom_type": "SENTENCE", "pdf_source": "SDTMIG_v3.4", "pdf_page": 58, "pdf_parent_section": "§4.5.7 [Presence or Absence of Prespecified Interventions and Events]", "pdf_verbatim": "It is a permissible variable, and should only be used when the topic variable values come from a prespecified list.", "figure_ref": null, "candidates": [{"md_atom_id": "md_ch04_a992", "md_file": "knowledge_base/chapters/ch04_general_assumptions.md", "md_atom_type": "SENTENCE", "md_parent_section": "§4.5.7 [Presence or Absence of Prespecified Interventions and Events]", "md_verbatim": "It is a permissible variable, and should only be used when the topic variable values come from a prespecified list.", "score": 0.9, "match_basis": "verbatim_token+chapter_route:ch04"}, {"md_atom_id": "md_ch04_a996", "md_file": "knowledge_base/chapters/ch04_general_assumptions.md", "md_atom_type": "SENTENCE", "md_parent_section": "§4.5.7 [Presence or Absence of Prespecified Interventions and Events]", "md_verbatim": "It is a permissible variable and may be omitted from the dataset if no topic-variable values were prespecified.", "score": 0.6387, "match_basis": "verbatim_token+chapter_route:ch04"}, {"md_atom_id": "md_ch04_a432", "md_file": "knowledge_base/chapters/ch04_general_assumptions.md", "md_atom_type": "SENTENCE", "md_parent_section": "§4.3.3 [Controlled Terminology Values]", "md_verbatim": "Note that a null value should not be included in the permissible value set.", "score": 0.4645, "match_basis": "verbatim_token+chapter_route:ch04"}, {"md_atom_id": "md_ch04_a1032", "md_file": "knowledge_base/chapters/ch04_general_assumptions.md", "md_atom_type": "SENTENCE", "md_parent_section": "§4.5.9 [Baseline Values]", "md_verbatim": "In domains where --BLFL was permissible, the variable --LOBXFL was added with a core value of permissible.", "score": 0.4629, "match_basis": "verbatim_token+chapter_route:ch04"}, {"md_atom_id": "md_ch04_a319", "md_file": "knowledge_base/chapters/ch04_general_assumptions.md", "md_atom_type": "SENTENCE", "md_parent_section": "§4.2.7.3 [\"Specify\" Values for Topic Variables]", "md_verbatim": "If the sponsor wishes to distinguish between the prespecified list of treatments and those recorded in \"Other, Specify,\" the --PRESP variable could be used.", "score": 0.4582, "match_basis": "verbatim_token+chapter_route:ch04"}], "candidate_count": 5, "zero_candidate": false}
{"pdf_atom_id": "ig34_p0058_a007", "pdf_atom_type": "SENTENCE", "pdf_source": "SDTMIG_v3.4", "pdf_page": 58, "pdf_parent_section": "§4.5.7 [Presence or Absence of Prespecified Interventions and Events]", "pdf_verbatim": "Questions such as \"Did the subject have any concomitant medications?\" or \"Did the subject have any medical history?\" should not have records in an SDTM domain because these are not valid values for the topic variable.", "figure_ref": null, "candidates": [{"md_atom_id": "md_ch04_a993", "md_file": "knowledge_base/chapters/ch04_general_assumptions.md", "md_atom_type": "SENTENCE", "md_parent_section": "§4.5.7 [Presence or Absence of Prespecified Interventions and Events]", "md_verbatim": "Questions such as \"Did the subject have any concomitant medications?\" or \"Did the subject have any medical history?\" should not have records in an SDTM domain because (1) these are not valid values for the respective topic variables of CMTRT and MHTERM, and (2) records whose sole purpose is to indicate whether or not a subject had records are not meaningful.", "score": 0.695, "match_basis": "verbatim_token+chapter_route:ch04"}, {"md_atom_id": "md_ch04_a218", "md_file": "knowledge_base/chapters/ch04_general_assumptions.md", "md_atom_type": "SENTENCE", "md_parent_section": "§4.2.6 [Grouping Variables and Categorization]", "md_verbatim": "Grouping variables are Identifiers and Qualifiers variables — such as the --CAT (Category) and --SCAT (Subcategory) — that group records in the SDTM domains/datasets and can be assigned by sponsors to categorize topic-variable values. For example, a lab record with LBTEST = \"SODIUM\" might have LBCAT = \"CHEMISTRY\" and LBSCAT = \"ELECTROLYTES\". Values for --CAT and --SCAT should not be redundant with the domain name or dictionary classification provided by --DECOD and --BODSYS.", "score": 0.4554, "match_basis": "verbatim_token+chapter_route:ch04"}, {"md_atom_id": "md_ch04_a177", "md_file": "knowledge_base/chapters/ch04_general_assumptions.md", "md_atom_type": "SENTENCE", "md_parent_section": "§4.2.1 [Variable-Naming Conventions]", "md_verbatim": "Values of other \"CD\" variables are **not** subject to the same restrictions as --TESTCD:", "score": 0.4419, "match_basis": "verbatim_token+chapter_route:ch04"}, {"md_atom_id": "md_ch04_a636", "md_file": "knowledge_base/chapters/ch04_general_assumptions.md", "md_atom_type": "SENTENCE", "md_parent_section": "§4.4.7 [Use of Relative Timing Variables]", "md_verbatim": "Note that in this example, the information collected is with respect to the start of the concomitant medication use only, and therefore the collected data corresponds to variable CMSTRF, not CMENRF.", "score": 0.4364, "match_basis": "verbatim_token+chapter_route:ch04"}, {"md_atom_id": "md_ch04_a956", "md_file": "knowledge_base/chapters/ch04_general_assumptions.md", "md_atom_type": "SENTENCE", "md_parent_section": "§4.5.4 [Evaluators in the Interventions and Events Observation Classes]", "md_verbatim": "Within each SUPP-- record, the value for QNAM should be formed by appending a \"1\" to the corresponding standard domain variable name.", "score": 0.4351, "match_basis": "verbatim_token+chapter_route:ch04"}], "candidate_count": 5, "zero_candidate": false}
{"pdf_atom_id": "ig34_p0058_a008", "pdf_atom_type": "SENTENCE", "pdf_source": "SDTMIG_v3.4", "pdf_page": 58, "pdf_parent_section": "§4.5.7 [Presence or Absence of Prespecified Interventions and Events]", "pdf_verbatim": "(1) these are not valid values for the respective topic variables of CMTRT and MHTERM, and (2) records whose sole purpose is to indicate whether or not a subject had records are not meaningful.", "figure_ref": null, "candidates": [{"md_atom_id": "md_ch04_a993", "md_file": "knowledge_base/chapters/ch04_general_assumptions.md", "md_atom_type": "SENTENCE", "md_parent_section": "§4.5.7 [Presence or Absence of Prespecified Interventions and Events]", "md_verbatim": "Questions such as \"Did the subject have any concomitant medications?\" or \"Did the subject have any medical history?\" should not have records in an SDTM domain because (1) these are not valid values for the respective topic variables of CMTRT and MHTERM, and (2) records whose sole purpose is to indicate whether or not a subject had records are not meaningful.", "score": 0.675, "match_basis": "verbatim_token+chapter_route:ch04"}, {"md_atom_id": "md_ch04_a990", "md_file": "knowledge_base/chapters/ch04_general_assumptions.md", "md_atom_type": "SENTENCE", "md_parent_section": "§4.5.7 [Presence or Absence of Prespecified Interventions and Events]", "md_verbatim": "The --PRESP variable is used to indicate whether a specific intervention (--TRT) or event (--TERM) was solicited.", "score": 0.4515, "match_basis": "verbatim_token+chapter_route:ch04"}, {"md_atom_id": "md_ch04_a177", "md_file": "knowledge_base/chapters/ch04_general_assumptions.md", "md_atom_type": "SENTENCE", "md_parent_section": "§4.2.1 [Variable-Naming Conventions]", "md_verbatim": "Values of other \"CD\" variables are **not** subject to the same restrictions as --TESTCD:", "score": 0.4483, "match_basis": "verbatim_token+chapter_route:ch04"}, {"md_atom_id": "md_ch04_a994", "md_file": "knowledge_base/chapters/ch04_general_assumptions.md", "md_atom_type": "SENTENCE", "md_parent_section": "§4.5.7 [Presence or Absence of Prespecified Interventions and Events]", "md_verbatim": "The --OCCUR variable is used to indicate whether a prespecified intervention or event occurred or did not occur.", "score": 0.438, "match_basis": "verbatim_token+chapter_route:ch04"}, {"md_atom_id": "md_ch04_a342", "md_file": "knowledge_base/chapters/ch04_general_assumptions.md", "md_atom_type": "SENTENCE", "md_parent_section": "§4.2.7.4 [\"Specify\" Values for --OBJ]", "md_verbatim": "As illustrated in the following figure, when findings are collected about an event or intervention, and the name of the event or intervention is collected in an \"Other, specify\" CRF field, the value in --OBJ variable depends on whether the Findings record has a parent record and whether the \"Other, specify\" value was coded.", "score": 0.4226, "match_basis": "verbatim_token+chapter_route:ch04"}], "candidate_count": 5, "zero_candidate": false}
{"pdf_atom_id": "ig34_p0058_a009", "pdf_atom_type": "SENTENCE", "pdf_source": "SDTMIG_v3.4", "pdf_page": 58, "pdf_parent_section": "§4.5.7 [Presence or Absence of Prespecified Interventions and Events]", "pdf_verbatim": "The --OCCUR variable is used to indicate whether a prespecified intervention or event occurred or did not occur.", "figure_ref": null, "candidates": [{"md_atom_id": "md_ch04_a994", "md_file": "knowledge_base/chapters/ch04_general_assumptions.md", "md_atom_type": "SENTENCE", "md_parent_section": "§4.5.7 [Presence or Absence of Prespecified Interventions and Events]", "md_verbatim": "The --OCCUR variable is used to indicate whether a prespecified intervention or event occurred or did not occur.", "score": 0.9, "match_basis": "verbatim_token+chapter_route:ch04"}, {"md_atom_id": "md_ch04_a990", "md_file": "knowledge_base/chapters/ch04_general_assumptions.md", "md_atom_type": "SENTENCE", "md_parent_section": "§4.5.7 [Presence or Absence of Prespecified Interventions and Events]", "md_verbatim": "The --PRESP variable is used to indicate whether a specific intervention (--TRT) or event (--TERM) was solicited.", "score": 0.6864, "match_basis": "verbatim_token+chapter_route:ch04"}, {"md_atom_id": "md_ch04_a977", "md_file": "knowledge_base/chapters/ch04_general_assumptions.md", "md_atom_type": "SENTENCE", "md_parent_section": "§4.5.6 [Supplemental Reason Variables]", "md_verbatim": "For Events and Interventions domains where prespecified occurrences have a reason for the \"Y\" or \"N\" value of --OCCUR, the reason can be represented with the variable --REASOC.", "score": 0.5625, "match_basis": "verbatim_token+chapter_route:ch04"}, {"md_atom_id": "md_ch04_a998", "md_file": "knowledge_base/chapters/ch04_general_assumptions.md", "md_atom_type": "SENTENCE", "md_parent_section": "§4.5.7 [Presence or Absence of Prespecified Interventions and Events]", "md_verbatim": "The --STAT and --REASND variables can be used to provide information about prespecified interventions and events for which there is no response (e.g., investigator forgot to ask).", "score": 0.4958, "match_basis": "verbatim_token+chapter_route:ch04"}, {"md_atom_id": "md_ch04_a455", "md_file": "knowledge_base/chapters/ch04_general_assumptions.md", "md_atom_type": "SENTENCE", "md_parent_section": "§4.3.6 [Storing Topic Variables for General Domain Models]", "md_verbatim": "For an Interventions domain, the topic variable is --TRT.", "score": 0.4759, "match_basis": "verbatim_token+chapter_route:ch04"}], "candidate_count": 5, "zero_candidate": false}
{"pdf_atom_id": "ig34_p0058_a010", "pdf_atom_type": "SENTENCE", "pdf_source": "SDTMIG_v3.4", "pdf_page": 58, "pdf_parent_section": "§4.5.7 [Presence or Absence of Prespecified Interventions and Events]", "pdf_verbatim": "It has controlled terminology of \"Y\" and \"N\" (for \"Yes\" and \"No\").", "figure_ref": null, "candidates": [{"md_atom_id": "md_ch04_a995", "md_file": "knowledge_base/chapters/ch04_general_assumptions.md", "md_atom_type": "SENTENCE", "md_parent_section": "§4.5.7 [Presence or Absence of Prespecified Interventions and Events]", "md_verbatim": "It has controlled terminology of \"Y\" and \"N\" (for \"Yes\" and \"No\").", "score": 0.9, "match_basis": "verbatim_token+chapter_route:ch04"}, {"md_atom_id": "md_ch04_a991", "md_file": "knowledge_base/chapters/ch04_general_assumptions.md", "md_atom_type": "SENTENCE", "md_parent_section": "§4.5.7 [Presence or Absence of Prespecified Interventions and Events]", "md_verbatim": "It has controlled terminology of \"Y\" (for \"Yes\") or a null value.", "score": 0.7615, "match_basis": "verbatim_token+chapter_route:ch04"}, {"md_atom_id": "md_ch04_a999", "md_file": "knowledge_base/chapters/ch04_general_assumptions.md", "md_atom_type": "SENTENCE", "md_parent_section": "§4.5.7 [Presence or Absence of Prespecified Interventions and Events]", "md_verbatim": "As in Findings, --STAT has controlled terminology of NOT DONE.", "score": 0.6375, "match_basis": "verbatim_token+chapter_route:ch04"}, {"md_atom_id": "md_ch04_a248", "md_file": "knowledge_base/chapters/ch04_general_assumptions.md", "md_atom_type": "LIST_ITEM", "md_parent_section": "§4.2.6 [Grouping Variables and Categorization]", "md_verbatim": "3. --CAT/--SCAT may have some controlled terminology.", "score": 0.5743, "match_basis": "verbatim_token+chapter_route:ch04"}, {"md_atom_id": "md_ch04_a420", "md_file": "knowledge_base/chapters/ch04_general_assumptions.md", "md_atom_type": "SENTENCE", "md_parent_section": "§4.3.1 [Controlled Terms, Codelist or Format Column]", "md_verbatim": "As of SDTMIG v3.3, controlled terminology is represented in the following ways:", "score": 0.5372, "match_basis": "verbatim_token+chapter_route:ch04"}], "candidate_count": 5, "zero_candidate": false}
