{"pdf_atom_id": "ig34_p0433_a033", "pdf_atom_type": "SENTENCE", "pdf_source": "SDTMIG_v3.4", "pdf_page": 433, "pdf_parent_section": "§8.4.3 SUPP-- Examples", "pdf_verbatim": "The language recorded in QVAL applies to all of the subject’s records, where IDVAR (QSCAT) equals the value specified in IDVARVAL.", "figure_ref": null, "candidates": [{"md_atom_id": "md_ch08_a191", "md_file": "knowledge_base/chapters/ch08_relationships.md", "md_atom_type": "SENTENCE", "md_parent_section": "§8.4.3 [Examples]", "md_verbatim": "**Example 2:** This example illustrates how the language used for a questionnaire might be represented. The parent domain (RDOMAIN) is QS, and IDVAR is QSCAT. QNAM holds the name of the supplemental qualifier variable being defined (QSLANG). The language recorded in QVAL applies to all of the subject's records, where IDVAR (QSCAT) equals the value specified in IDVARVAL. In this case, IDVARVAL has values for 2 questionnaires — Brief Pain Inventory (BPI) and Alzheimer's Disease Assessment Scale-Cognitive Subscale (ADAS-Cog) — for 2 separate subjects. QVAL identifies the questionnaire language version (French or German) for each subject.", "score": 0.4538, "match_basis": "verbatim_token+chapter_route:ch08"}, {"md_atom_id": "md_ch08_a059", "md_file": "knowledge_base/chapters/ch08_relationships.md", "md_atom_type": "SENTENCE", "md_parent_section": "§8.2 [Relating Peer Records]", "md_verbatim": "Records expressing a relationship are specified using the key variables STUDYID, RDOMAIN (the domain code of the record in the relationship), and USUBJID, along with IDVAR and IDVARVAL.", "score": 0.4273, "match_basis": "verbatim_token+chapter_route:ch08"}, {"md_atom_id": "md_ch08_a208", "md_file": "knowledge_base/chapters/ch08_relationships.md", "md_atom_type": "SENTENCE", "md_parent_section": "§8.5 [Relating Comments to a Parent Domain]", "md_verbatim": "Comments may be related to a subject, a domain for a subject, or to specific parent records in any domain.", "score": 0.4233, "match_basis": "verbatim_token+chapter_route:ch08"}, {"md_atom_id": "md_ch08_a151", "md_file": "knowledge_base/chapters/ch08_relationships.md", "md_atom_type": "SENTENCE", "md_parent_section": "§8.4 [Relating Non-standard Variable Values to a Parent Domain]", "md_verbatim": "That is, there should not be multiple records in a SUPP-- dataset for the same QNAM value, as it relates to IDVAR/IDVARVAL for a USUBJID in a domain.", "score": 0.4227, "match_basis": "verbatim_token+chapter_route:ch08"}, {"md_atom_id": "md_ch08_a209", "md_file": "knowledge_base/chapters/ch08_relationships.md", "md_atom_type": "SENTENCE", "md_parent_section": "§8.5 [Relating Comments to a Parent Domain]", "md_verbatim": "The CO special-purpose domain is structured similarly to the Supplemental Qualifiers (SUPP--) dataset, in that it uses the same set of keys (STUDYID, RDOMAIN, USUBJID, IDVAR, and IDVARVAL) to identify related records.", "score": 0.4073, "match_basis": "verbatim_token+chapter_route:ch08"}], "candidate_count": 5, "zero_candidate": false}
{"pdf_atom_id": "ig34_p0433_a034", "pdf_atom_type": "SENTENCE", "pdf_source": "SDTMIG_v3.4", "pdf_page": 433, "pdf_parent_section": "§8.4.3 SUPP-- Examples", "pdf_verbatim": "In this case, IDVARVAL has values for 2 questionnaires—Brief Pain Inventory (BPI) and Alzheimer's Disease Assessment Scale–Cognitive Subscale (ADAS-Cog)—for 2 separate subjects.", "figure_ref": null, "candidates": [{"md_atom_id": "md_ch08_a191", "md_file": "knowledge_base/chapters/ch08_relationships.md", "md_atom_type": "SENTENCE", "md_parent_section": "§8.4.3 [Examples]", "md_verbatim": "**Example 2:** This example illustrates how the language used for a questionnaire might be represented. The parent domain (RDOMAIN) is QS, and IDVAR is QSCAT. QNAM holds the name of the supplemental qualifier variable being defined (QSLANG). The language recorded in QVAL applies to all of the subject's records, where IDVAR (QSCAT) equals the value specified in IDVARVAL. In this case, IDVARVAL has values for 2 questionnaires — Brief Pain Inventory (BPI) and Alzheimer's Disease Assessment Scale-Cognitive Subscale (ADAS-Cog) — for 2 separate subjects. QVAL identifies the questionnaire language version (French or German) for each subject.", "score": 0.5533, "match_basis": "verbatim_token+chapter_route:ch08"}, {"md_atom_id": "md_ch08_a271", "md_file": "knowledge_base/chapters/ch08_relationships.md", "md_atom_type": "SENTENCE", "md_parent_section": "§8.6.3 [Guidelines for Differentiating Between Interventions, Events, Findings, and Findings About Events or Interventions]", "md_verbatim": "If there are multiple assessments of an event, then each should be stored in a separate FA record.", "score": 0.3873, "match_basis": "verbatim_token+chapter_route:ch08"}, {"md_atom_id": "md_ch08_a238", "md_file": "knowledge_base/chapters/ch08_relationships.md", "md_atom_type": "SENTENCE", "md_parent_section": "§8.6.1 [Guidelines for Determining the General Observation Class]", "md_verbatim": "Findings general observation class data include measurements, tests, assessments, or examinations performed on a subject in the clinical trial.", "score": 0.3851, "match_basis": "verbatim_token+chapter_route:ch08"}, {"md_atom_id": "md_ch08_a031", "md_file": "knowledge_base/chapters/ch08_relationships.md", "md_atom_type": "SENTENCE", "md_parent_section": "§8.1.1 [--GRPID Example]", "md_verbatim": "In this example, both subjects 1234 and 5678 have reported 2 combination therapies, each consisting of 3 separate medications.", "score": 0.3824, "match_basis": "verbatim_token+chapter_route:ch08"}, {"md_atom_id": "md_ch08_a152", "md_file": "knowledge_base/chapters/ch08_relationships.md", "md_atom_type": "SENTENCE", "md_parent_section": "§8.4 [Relating Non-standard Variable Values to a Parent Domain]", "md_verbatim": "For example, if 2 individuals (e.g., the investigator and an independent adjudicator) provide a determination regarding whether an adverse event is treatment-emergent, then separate QNAM values should be used for each set of information (e.g., \"AETRTEMI\", \"AETRTEMA\").", "score": 0.3767, "match_basis": "verbatim_token+chapter_route:ch08"}], "candidate_count": 5, "zero_candidate": false}
{"pdf_atom_id": "ig34_p0433_a035", "pdf_atom_type": "SENTENCE", "pdf_source": "SDTMIG_v3.4", "pdf_page": 433, "pdf_parent_section": "§8.4.3 SUPP-- Examples", "pdf_verbatim": "QVAL identifies the questionnaire language version (French or German) for each subject.", "figure_ref": null, "candidates": [{"md_atom_id": "md_ch08_a191", "md_file": "knowledge_base/chapters/ch08_relationships.md", "md_atom_type": "SENTENCE", "md_parent_section": "§8.4.3 [Examples]", "md_verbatim": "**Example 2:** This example illustrates how the language used for a questionnaire might be represented. The parent domain (RDOMAIN) is QS, and IDVAR is QSCAT. QNAM holds the name of the supplemental qualifier variable being defined (QSLANG). The language recorded in QVAL applies to all of the subject's records, where IDVAR (QSCAT) equals the value specified in IDVARVAL. In this case, IDVARVAL has values for 2 questionnaires — Brief Pain Inventory (BPI) and Alzheimer's Disease Assessment Scale-Cognitive Subscale (ADAS-Cog) — for 2 separate subjects. QVAL identifies the questionnaire language version (French or German) for each subject.", "score": 0.4447, "match_basis": "verbatim_token+chapter_route:ch08"}, {"md_atom_id": "md_ch08_a319", "md_file": "knowledge_base/chapters/ch08_relationships.md", "md_atom_type": "SENTENCE", "md_parent_section": "§8.8 [Related Specimens (RELSPEC)]", "md_verbatim": "relspec.xpt, Related Specimens — Relationship. One record per specimen identifier per subject, Tabulation.", "score": 0.4063, "match_basis": "verbatim_token+chapter_route:ch08"}, {"md_atom_id": "md_ch08_a015", "md_file": "knowledge_base/chapters/ch08_relationships.md", "md_atom_type": "SENTENCE", "md_parent_section": "§8 [Representing Relationships and Data]", "md_verbatim": "All relationships make use of the standard domain identifiers STUDYID, DOMAIN, and USUBJID.", "score": 0.3975, "match_basis": "verbatim_token+chapter_route:ch08"}, {"md_atom_id": "md_ch08_a055", "md_file": "knowledge_base/chapters/ch08_relationships.md", "md_atom_type": "SENTENCE", "md_parent_section": "§8.2 [Relating Peer Records]", "md_verbatim": "A relationship is defined by adding a record to RELREC for each record to be related and by assigning a unique character identifier value for the relationship.", "score": 0.3968, "match_basis": "verbatim_token+chapter_route:ch08"}, {"md_atom_id": "md_ch08_a111", "md_file": "knowledge_base/chapters/ch08_relationships.md", "md_atom_type": "SENTENCE", "md_parent_section": "§8.3 [Relating Datasets Using RELREC]", "md_verbatim": "The relationship is defined by including a single record for each related dataset that identifies the key(s) of the dataset that can be used to relate the respective records.", "score": 0.3937, "match_basis": "verbatim_token+chapter_route:ch08"}], "candidate_count": 5, "zero_candidate": false}
{"pdf_atom_id": "ig34_p0434_a001", "pdf_atom_type": "CODE_LITERAL", "pdf_source": "SDTMIG_v3.4", "pdf_page": 434, "pdf_parent_section": "§8.4.3 SUPP-- Examples", "pdf_verbatim": "suppqs.xpt", "figure_ref": null, "candidates": [{"md_atom_id": "md_ch08_a192", "md_file": "knowledge_base/chapters/ch08_relationships.md", "md_atom_type": "SENTENCE", "md_parent_section": "§8.4.3 [Examples]", "md_verbatim": "suppqs.xpt:", "score": 0.69, "match_basis": "verbatim_token+chapter_route:ch08"}, {"md_atom_id": "md_ch08_a187", "md_file": "knowledge_base/chapters/ch08_relationships.md", "md_atom_type": "SENTENCE", "md_parent_section": "§8.4.3 [Examples]", "md_verbatim": "suppae.xpt:", "score": 0.3471, "match_basis": "verbatim_token+chapter_route:ch08"}, {"md_atom_id": "md_ch08_a038", "md_file": "knowledge_base/chapters/ch08_relationships.md", "md_atom_type": "SENTENCE", "md_parent_section": "§8.1.1 [--GRPID Example]", "md_verbatim": "cm.xpt:", "score": 0.21, "match_basis": "verbatim_token+chapter_route:ch08"}, {"md_atom_id": "md_ch08_a297", "md_file": "knowledge_base/chapters/ch08_relationships.md", "md_atom_type": "SENTENCE", "md_parent_section": "§8.7 [Related Subjects (RELSUB)]", "md_verbatim": "dm.xpt:", "score": 0.21, "match_basis": "verbatim_token+chapter_route:ch08"}, {"md_atom_id": "md_ch08_a085", "md_file": "knowledge_base/chapters/ch08_relationships.md", "md_atom_type": "SENTENCE", "md_parent_section": "§8.2.2 [RELREC Dataset Examples]", "md_verbatim": "relrec.xpt:", "score": 0.1567, "match_basis": "verbatim_token+chapter_route:ch08"}, {"md_atom_id": "md_ch08_a094", "md_file": "knowledge_base/chapters/ch08_relationships.md", "md_atom_type": "SENTENCE", "md_parent_section": "§8.2.2 [RELREC Dataset Examples]", "md_verbatim": "relrec.xpt:", "score": 0.1567, "match_basis": "verbatim_token+chapter_route:ch08"}, {"md_atom_id": "md_ch08_a102", "md_file": "knowledge_base/chapters/ch08_relationships.md", "md_atom_type": "SENTENCE", "md_parent_section": "§8.2.2 [RELREC Dataset Examples]", "md_verbatim": "relrec.xpt:", "score": 0.1567, "match_basis": "verbatim_token+chapter_route:ch08"}, {"md_atom_id": "md_ch08_a116", "md_file": "knowledge_base/chapters/ch08_relationships.md", "md_atom_type": "SENTENCE", "md_parent_section": "§8.3.1 [RELREC Dataset Relationship Example]", "md_verbatim": "relrec.xpt:", "score": 0.1567, "match_basis": "verbatim_token+chapter_route:ch08"}, {"md_atom_id": "md_ch08_a306", "md_file": "knowledge_base/chapters/ch08_relationships.md", "md_atom_type": "SENTENCE", "md_parent_section": "§8.7 [Related Subjects (RELSUB)]", "md_verbatim": "relsub.xpt:", "score": 0.1567, "match_basis": "verbatim_token+chapter_route:ch08"}, {"md_atom_id": "md_ch08_a338", "md_file": "knowledge_base/chapters/ch08_relationships.md", "md_atom_type": "SENTENCE", "md_parent_section": "§8.8 [Related Specimens (RELSPEC)]", "md_verbatim": "relspec.xpt:", "score": 0.15, "match_basis": "verbatim_token+chapter_route:ch08"}], "candidate_count": 10, "zero_candidate": false}
{"pdf_atom_id": "ig34_p0434_a002", "pdf_atom_type": "TABLE_HEADER", "pdf_source": "SDTMIG_v3.4", "pdf_page": 434, "pdf_parent_section": "§8.4.3 SUPP-- Examples", "pdf_verbatim": "Row STUDYID RDOMAIN USUBJID IDVAR IDVARVAL QNAM QLABEL QVAL QORIG QEVAL", "figure_ref": null, "candidates": [{"md_atom_id": "md_ch08_a188", "md_file": "knowledge_base/chapters/ch08_relationships.md", "md_atom_type": "TABLE_HEADER", "md_parent_section": "§8.4.3 [Examples]", "md_verbatim": "| Row | STUDYID | RDOMAIN | USUBJID | IDVAR | IDVARVAL | QNAM | QLABEL | QVAL | QORIG | QEVAL |\n|-----|---------|---------|---------|-------|----------|------|--------|------|-------|-------|", "score": 0.9, "match_basis": "verbatim_token+chapter_route:ch08"}, {"md_atom_id": "md_ch08_a193", "md_file": "knowledge_base/chapters/ch08_relationships.md", "md_atom_type": "TABLE_HEADER", "md_parent_section": "§8.4.3 [Examples]", "md_verbatim": "| Row | STUDYID | RDOMAIN | USUBJID | IDVAR | IDVARVAL | QNAM | QLABEL | QVAL | QORIG | QEVAL |\n|-----|---------|---------|---------|-------|----------|------|--------|------|-------|-------|", "score": 0.9, "match_basis": "verbatim_token+chapter_route:ch08"}, {"md_atom_id": "md_ch08_a086", "md_file": "knowledge_base/chapters/ch08_relationships.md", "md_atom_type": "TABLE_HEADER", "md_parent_section": "§8.2.2 [RELREC Dataset Examples]", "md_verbatim": "| Row | STUDYID | RDOMAIN | USUBJID | IDVAR | IDVARVAL | RELTYPE | RELID |\n|-----|---------|---------|---------|-------|----------|---------|-------|", "score": 0.622, "match_basis": "verbatim_token+chapter_route:ch08"}, {"md_atom_id": "md_ch08_a095", "md_file": "knowledge_base/chapters/ch08_relationships.md", "md_atom_type": "TABLE_HEADER", "md_parent_section": "§8.2.2 [RELREC Dataset Examples]", "md_verbatim": "| Row | STUDYID | RDOMAIN | USUBJID | IDVAR | IDVARVAL | RELTYPE | RELID |\n|-----|---------|---------|---------|-------|----------|---------|-------|", "score": 0.622, "match_basis": "verbatim_token+chapter_route:ch08"}, {"md_atom_id": "md_ch08_a103", "md_file": "knowledge_base/chapters/ch08_relationships.md", "md_atom_type": "TABLE_HEADER", "md_parent_section": "§8.2.2 [RELREC Dataset Examples]", "md_verbatim": "| Row | STUDYID | RDOMAIN | USUBJID | IDVAR | IDVARVAL | RELTYPE | RELID |\n|-----|---------|---------|---------|-------|----------|---------|-------|", "score": 0.622, "match_basis": "verbatim_token+chapter_route:ch08"}], "candidate_count": 5, "zero_candidate": false}
{"pdf_atom_id": "ig34_p0434_a003", "pdf_atom_type": "TABLE_ROW", "pdf_source": "SDTMIG_v3.4", "pdf_page": 434, "pdf_parent_section": "§8.4.3 SUPP-- Examples", "pdf_verbatim": "1 | 1996001 | QS | 99-401 | QSCAT | BPI | QSLANG | Questionnaire Language | FRENCH | CRF | ", "figure_ref": null, "candidates": [{"md_atom_id": "md_ch08_a194", "md_file": "knowledge_base/chapters/ch08_relationships.md", "md_atom_type": "TABLE_ROW", "md_parent_section": "§8.4.3 [Examples]", "md_verbatim": "| 1 | 1996001 | QS | 99-401 | QSCAT | BPI | QSLANG | Questionnaire Language | FRENCH | CRF | |", "score": 0.9, "match_basis": "verbatim_token+chapter_route:ch08"}, {"md_atom_id": "md_ch08_a195", "md_file": "knowledge_base/chapters/ch08_relationships.md", "md_atom_type": "TABLE_ROW", "md_parent_section": "§8.4.3 [Examples]", "md_verbatim": "| 2 | 1996001 | QS | 99-401 | QSCAT | ADAS-COG | QSLANG | Questionnaire Language | FRENCH | CRF | |", "score": 0.8351, "match_basis": "verbatim_token+chapter_route:ch08"}, {"md_atom_id": "md_ch08_a196", "md_file": "knowledge_base/chapters/ch08_relationships.md", "md_atom_type": "TABLE_ROW", "md_parent_section": "§8.4.3 [Examples]", "md_verbatim": "| 3 | 1996001 | QS | 99-802 | QSCAT | BPI | QSLANG | Questionnaire Language | GERMAN | CRF | |", "score": 0.7462, "match_basis": "verbatim_token+chapter_route:ch08"}, {"md_atom_id": "md_ch08_a197", "md_file": "knowledge_base/chapters/ch08_relationships.md", "md_atom_type": "TABLE_ROW", "md_parent_section": "§8.4.3 [Examples]", "md_verbatim": "| 4 | 1996001 | QS | 99-802 | QSCAT | ADAS-COG | QSLANG | Questionnaire Language | GERMAN | CRF | |", "score": 0.7, "match_basis": "verbatim_token+chapter_route:ch08"}, {"md_atom_id": "md_ch08_a189", "md_file": "knowledge_base/chapters/ch08_relationships.md", "md_atom_type": "TABLE_ROW", "md_parent_section": "§8.4.3 [Examples]", "md_verbatim": "| 1 | 1996001 | AE | 99-401 | AESEQ | 1 | AESOSP | Other Medically Important SAE | Spontaneous Abortion | CRF | |", "score": 0.3783, "match_basis": "verbatim_token+chapter_route:ch08"}], "candidate_count": 5, "zero_candidate": false}
{"pdf_atom_id": "ig34_p0434_a004", "pdf_atom_type": "TABLE_ROW", "pdf_source": "SDTMIG_v3.4", "pdf_page": 434, "pdf_parent_section": "§8.4.3 SUPP-- Examples", "pdf_verbatim": "2 | 1996001 | QS | 99-401 | QSCAT | ADAS-COG | QSLANG | Questionnaire Language | FRENCH | CRF | ", "figure_ref": null, "candidates": [{"md_atom_id": "md_ch08_a195", "md_file": "knowledge_base/chapters/ch08_relationships.md", "md_atom_type": "TABLE_ROW", "md_parent_section": "§8.4.3 [Examples]", "md_verbatim": "| 2 | 1996001 | QS | 99-401 | QSCAT | ADAS-COG | QSLANG | Questionnaire Language | FRENCH | CRF | |", "score": 0.9, "match_basis": "verbatim_token+chapter_route:ch08"}, {"md_atom_id": "md_ch08_a194", "md_file": "knowledge_base/chapters/ch08_relationships.md", "md_atom_type": "TABLE_ROW", "md_parent_section": "§8.4.3 [Examples]", "md_verbatim": "| 1 | 1996001 | QS | 99-401 | QSCAT | BPI | QSLANG | Questionnaire Language | FRENCH | CRF | |", "score": 0.8351, "match_basis": "verbatim_token+chapter_route:ch08"}, {"md_atom_id": "md_ch08_a197", "md_file": "knowledge_base/chapters/ch08_relationships.md", "md_atom_type": "TABLE_ROW", "md_parent_section": "§8.4.3 [Examples]", "md_verbatim": "| 4 | 1996001 | QS | 99-802 | QSCAT | ADAS-COG | QSLANG | Questionnaire Language | GERMAN | CRF | |", "score": 0.7537, "match_basis": "verbatim_token+chapter_route:ch08"}, {"md_atom_id": "md_ch08_a196", "md_file": "knowledge_base/chapters/ch08_relationships.md", "md_atom_type": "TABLE_ROW", "md_parent_section": "§8.4.3 [Examples]", "md_verbatim": "| 3 | 1996001 | QS | 99-802 | QSCAT | BPI | QSLANG | Questionnaire Language | GERMAN | CRF | |", "score": 0.7, "match_basis": "verbatim_token+chapter_route:ch08"}, {"md_atom_id": "md_ch08_a189", "md_file": "knowledge_base/chapters/ch08_relationships.md", "md_atom_type": "TABLE_ROW", "md_parent_section": "§8.4.3 [Examples]", "md_verbatim": "| 1 | 1996001 | AE | 99-401 | AESEQ | 1 | AESOSP | Other Medically Important SAE | Spontaneous Abortion | CRF | |", "score": 0.3761, "match_basis": "verbatim_token+chapter_route:ch08"}], "candidate_count": 5, "zero_candidate": false}
{"pdf_atom_id": "ig34_p0434_a005", "pdf_atom_type": "TABLE_ROW", "pdf_source": "SDTMIG_v3.4", "pdf_page": 434, "pdf_parent_section": "§8.4.3 SUPP-- Examples", "pdf_verbatim": "3 | 1996001 | QS | 99-802 | QSCAT | BPI | QSLANG | Questionnaire Language | GERMAN | CRF | ", "figure_ref": null, "candidates": [{"md_atom_id": "md_ch08_a196", "md_file": "knowledge_base/chapters/ch08_relationships.md", "md_atom_type": "TABLE_ROW", "md_parent_section": "§8.4.3 [Examples]", "md_verbatim": "| 3 | 1996001 | QS | 99-802 | QSCAT | BPI | QSLANG | Questionnaire Language | GERMAN | CRF | |", "score": 0.9, "match_basis": "verbatim_token+chapter_route:ch08"}, {"md_atom_id": "md_ch08_a197", "md_file": "knowledge_base/chapters/ch08_relationships.md", "md_atom_type": "TABLE_ROW", "md_parent_section": "§8.4.3 [Examples]", "md_verbatim": "| 4 | 1996001 | QS | 99-802 | QSCAT | ADAS-COG | QSLANG | Questionnaire Language | GERMAN | CRF | |", "score": 0.8351, "match_basis": "verbatim_token+chapter_route:ch08"}, {"md_atom_id": "md_ch08_a194", "md_file": "knowledge_base/chapters/ch08_relationships.md", "md_atom_type": "TABLE_ROW", "md_parent_section": "§8.4.3 [Examples]", "md_verbatim": "| 1 | 1996001 | QS | 99-401 | QSCAT | BPI | QSLANG | Questionnaire Language | FRENCH | CRF | |", "score": 0.7462, "match_basis": "verbatim_token+chapter_route:ch08"}, {"md_atom_id": "md_ch08_a195", "md_file": "knowledge_base/chapters/ch08_relationships.md", "md_atom_type": "TABLE_ROW", "md_parent_section": "§8.4.3 [Examples]", "md_verbatim": "| 2 | 1996001 | QS | 99-401 | QSCAT | ADAS-COG | QSLANG | Questionnaire Language | FRENCH | CRF | |", "score": 0.7, "match_basis": "verbatim_token+chapter_route:ch08"}, {"md_atom_id": "md_ch08_a189", "md_file": "knowledge_base/chapters/ch08_relationships.md", "md_atom_type": "TABLE_ROW", "md_parent_section": "§8.4.3 [Examples]", "md_verbatim": "| 1 | 1996001 | AE | 99-401 | AESEQ | 1 | AESOSP | Other Medically Important SAE | Spontaneous Abortion | CRF | |", "score": 0.3686, "match_basis": "verbatim_token+chapter_route:ch08"}], "candidate_count": 5, "zero_candidate": false}
{"pdf_atom_id": "ig34_p0434_a006", "pdf_atom_type": "TABLE_ROW", "pdf_source": "SDTMIG_v3.4", "pdf_page": 434, "pdf_parent_section": "§8.4.3 SUPP-- Examples", "pdf_verbatim": "4 | 1996001 | QS | 99-802 | QSCAT | ADAS-COG | QSLANG | Questionnaire Language | GERMAN | CRF | ", "figure_ref": null, "candidates": [{"md_atom_id": "md_ch08_a197", "md_file": "knowledge_base/chapters/ch08_relationships.md", "md_atom_type": "TABLE_ROW", "md_parent_section": "§8.4.3 [Examples]", "md_verbatim": "| 4 | 1996001 | QS | 99-802 | QSCAT | ADAS-COG | QSLANG | Questionnaire Language | GERMAN | CRF | |", "score": 0.9, "match_basis": "verbatim_token+chapter_route:ch08"}, {"md_atom_id": "md_ch08_a196", "md_file": "knowledge_base/chapters/ch08_relationships.md", "md_atom_type": "TABLE_ROW", "md_parent_section": "§8.4.3 [Examples]", "md_verbatim": "| 3 | 1996001 | QS | 99-802 | QSCAT | BPI | QSLANG | Questionnaire Language | GERMAN | CRF | |", "score": 0.8351, "match_basis": "verbatim_token+chapter_route:ch08"}, {"md_atom_id": "md_ch08_a195", "md_file": "knowledge_base/chapters/ch08_relationships.md", "md_atom_type": "TABLE_ROW", "md_parent_section": "§8.4.3 [Examples]", "md_verbatim": "| 2 | 1996001 | QS | 99-401 | QSCAT | ADAS-COG | QSLANG | Questionnaire Language | FRENCH | CRF | |", "score": 0.7537, "match_basis": "verbatim_token+chapter_route:ch08"}, {"md_atom_id": "md_ch08_a194", "md_file": "knowledge_base/chapters/ch08_relationships.md", "md_atom_type": "TABLE_ROW", "md_parent_section": "§8.4.3 [Examples]", "md_verbatim": "| 1 | 1996001 | QS | 99-401 | QSCAT | BPI | QSLANG | Questionnaire Language | FRENCH | CRF | |", "score": 0.7, "match_basis": "verbatim_token+chapter_route:ch08"}, {"md_atom_id": "md_ch08_a189", "md_file": "knowledge_base/chapters/ch08_relationships.md", "md_atom_type": "TABLE_ROW", "md_parent_section": "§8.4.3 [Examples]", "md_verbatim": "| 1 | 1996001 | AE | 99-401 | AESEQ | 1 | AESOSP | Other Medically Important SAE | Spontaneous Abortion | CRF | |", "score": 0.3667, "match_basis": "verbatim_token+chapter_route:ch08"}], "candidate_count": 5, "zero_candidate": false}
{"pdf_atom_id": "ig34_p0434_a007", "pdf_atom_type": "SENTENCE", "pdf_source": "SDTMIG_v3.4", "pdf_page": 434, "pdf_parent_section": "§8.4.3 SUPP-- Examples", "pdf_verbatim": "Additional examples may be found in the domain examples, such as in Section 5.2 Demographics, Examples 3 and 4, in Section 6.3.3, ECG Test Results, Example 1, and in Section 6.3.5.6, Laboratory Test Results, Example 1.", "figure_ref": null, "candidates": [{"md_atom_id": "md_ch08_a198", "md_file": "knowledge_base/chapters/ch08_relationships.md", "md_atom_type": "SENTENCE", "md_parent_section": "§8.4.3 [Examples]", "md_verbatim": "Additional examples may be found in the domain examples such as Section 5.2 Demographics, Examples 3 and 4, in Section 6.3.3, ECG Test Results, Example 1, and in Section 6.3.5.6, Laboratory Test Results, Example 1.", "score": 0.9, "match_basis": "verbatim_token+chapter_route:ch08"}, {"md_atom_id": "md_ch08_a108", "md_file": "knowledge_base/chapters/ch08_relationships.md", "md_atom_type": "SENTENCE", "md_parent_section": "§8.2.2 [RELREC Dataset Examples]", "md_verbatim": "Additional examples may be found in the domain examples such as Section 6.2.4, Disposition, Example 4, and all of the Pharmacokinetics examples in Section 6.3.5.9.3, Relating PP Records to PC Records.", "score": 0.5093, "match_basis": "verbatim_token+chapter_route:ch08"}, {"md_atom_id": "md_ch08_a178", "md_file": "knowledge_base/chapters/ch08_relationships.md", "md_atom_type": "SENTENCE", "md_parent_section": "§8.4.2 [Submitting Supplemental Qualifiers in Separate Datasets]", "md_verbatim": "For example, Demographics (DM) qualifiers would be submitted in suppdm.xpt.", "score": 0.4139, "match_basis": "verbatim_token+chapter_route:ch08"}, {"md_atom_id": "md_ch08_a033", "md_file": "knowledge_base/chapters/ch08_relationships.md", "md_atom_type": "SENTENCE", "md_parent_section": "§8.1.1 [--GRPID Example]", "md_verbatim": "This example illustrates how CMGRPID groups information only within a subject within a domain.", "score": 0.3933, "match_basis": "verbatim_token+chapter_route:ch08"}, {"md_atom_id": "md_ch08_a185", "md_file": "knowledge_base/chapters/ch08_relationships.md", "md_atom_type": "SENTENCE", "md_parent_section": "§8.4.3 [Examples]", "md_verbatim": "These examples illustrate how a set of SUPP-- datasets could be used to relate non-standard information to a parent domain.", "score": 0.3918, "match_basis": "verbatim_token+chapter_route:ch08"}], "candidate_count": 5, "zero_candidate": false}
{"pdf_atom_id": "ig34_p0434_a008", "pdf_atom_type": "HEADING", "pdf_source": "SDTMIG_v3.4", "pdf_page": 434, "pdf_parent_section": "§8.4 [RELATING NON-STANDARD VARIABLE VALUES TO A PARENT DOMAIN]", "pdf_verbatim": "8.4.4 When Not to Use Supplemental Qualifiers", "figure_ref": null, "candidates": [{"md_atom_id": "md_ch08_a199", "md_file": "knowledge_base/chapters/ch08_relationships.md", "md_atom_type": "HEADING", "md_parent_section": "§8.4 [Relating Non-standard Variable Values to a Parent Domain]", "md_verbatim": "### 8.4.4 When Not to Use Supplemental Qualifiers", "score": 0.9, "match_basis": "verbatim_token+chapter_route:ch08"}, {"md_atom_id": "md_ch08_a155", "md_file": "knowledge_base/chapters/ch08_relationships.md", "md_atom_type": "HEADING", "md_parent_section": "§8.4 [Relating Non-standard Variable Values to a Parent Domain]", "md_verbatim": "### 8.4.1 Supplemental Qualifiers (SUPP--)", "score": 0.7909, "match_basis": "verbatim_token+chapter_route:ch08"}, {"md_atom_id": "md_ch08_a174", "md_file": "knowledge_base/chapters/ch08_relationships.md", "md_atom_type": "HEADING", "md_parent_section": "§8.4 [Relating Non-standard Variable Values to a Parent Domain]", "md_verbatim": "### 8.4.2 Submitting Supplemental Qualifiers in Separate Datasets", "score": 0.5571, "match_basis": "verbatim_token+chapter_route:ch08"}, {"md_atom_id": "md_ch08_a205", "md_file": "knowledge_base/chapters/ch08_relationships.md", "md_atom_type": "HEADING", "md_parent_section": "§8 [Representing Relationships and Data]", "md_verbatim": "## 8.5 Relating Comments to a Parent Domain", "score": 0.3308, "match_basis": "verbatim_token+chapter_route:ch08"}, {"md_atom_id": "md_ch08_a292", "md_file": "knowledge_base/chapters/ch08_relationships.md", "md_atom_type": "HEADING", "md_parent_section": "§8.7 [Related Subjects (RELSUB)]", "md_verbatim": "### Example", "score": 0.3231, "match_basis": "verbatim_token+chapter_route:ch08"}], "candidate_count": 5, "zero_candidate": false}
{"pdf_atom_id": "ig34_p0434_a009", "pdf_atom_type": "SENTENCE", "pdf_source": "SDTMIG_v3.4", "pdf_page": 434, "pdf_parent_section": "§8.4.4 When Not to Use Supplemental Qualifiers", "pdf_verbatim": "The following are examples of data that should not be submitted as supplemental qualifiers:", "figure_ref": null, "candidates": [{"md_atom_id": "md_ch08_a200", "md_file": "knowledge_base/chapters/ch08_relationships.md", "md_atom_type": "SENTENCE", "md_parent_section": "§8.4.4 [When Not to Use Supplemental Qualifiers]", "md_verbatim": "The following are examples of data that should **not** be submitted as supplemental qualifiers:", "score": 0.9, "match_basis": "verbatim_token+chapter_route:ch08"}, {"md_atom_id": "md_ch08_a178", "md_file": "knowledge_base/chapters/ch08_relationships.md", "md_atom_type": "SENTENCE", "md_parent_section": "§8.4.2 [Submitting Supplemental Qualifiers in Separate Datasets]", "md_verbatim": "For example, Demographics (DM) qualifiers would be submitted in suppdm.xpt.", "score": 0.5286, "match_basis": "verbatim_token+chapter_route:ch08"}, {"md_atom_id": "md_ch08_a018", "md_file": "knowledge_base/chapters/ch08_relationships.md", "md_atom_type": "SENTENCE", "md_parent_section": "§8 [Representing Relationships and Data]", "md_verbatim": "The following are examples of variables that could be used in IDVAR:", "score": 0.4932, "match_basis": "verbatim_token+chapter_route:ch08"}, {"md_atom_id": "md_ch08_a137", "md_file": "knowledge_base/chapters/ch08_relationships.md", "md_atom_type": "SENTENCE", "md_parent_section": "§8.4 [Relating Non-standard Variable Values to a Parent Domain]", "md_verbatim": "Supplemental qualifiers are represented as separate SUPP-- datasets for each dataset containing sponsor-defined variables (see Section 8.4.2, Submitting Supplemental Qualifiers in Separate Datasets).", "score": 0.4776, "match_basis": "verbatim_token+chapter_route:ch08"}, {"md_atom_id": "md_ch08_a141", "md_file": "knowledge_base/chapters/ch08_relationships.md", "md_atom_type": "SENTENCE", "md_parent_section": "§8.4 [Relating Non-standard Variable Values to a Parent Domain]", "md_verbatim": "The Supplemental Qualifiers dataset is structured similarly to the RELREC dataset, in that it uses the same set of keys to identify parent records.", "score": 0.4655, "match_basis": "verbatim_token+chapter_route:ch08"}], "candidate_count": 5, "zero_candidate": false}
{"pdf_atom_id": "ig34_p0434_a010", "pdf_atom_type": "LIST_ITEM", "pdf_source": "SDTMIG_v3.4", "pdf_page": 434, "pdf_parent_section": "§8.4.4 When Not to Use Supplemental Qualifiers", "pdf_verbatim": "•      Subject-level objective data that fit in Subject Characteristics (SC; e.g., national origin, twin type)", "figure_ref": null, "candidates": [{"md_atom_id": "md_ch08_a201", "md_file": "knowledge_base/chapters/ch08_relationships.md", "md_atom_type": "LIST_ITEM", "md_parent_section": "§8.4.4 [When Not to Use Supplemental Qualifiers]", "md_verbatim": "- Subject-level objective data that fit in Subject Characteristics (SC; e.g., national origin, twin type)", "score": 0.9, "match_basis": "verbatim_token+chapter_route:ch08"}, {"md_atom_id": "md_ch08_a172", "md_file": "knowledge_base/chapters/ch08_relationships.md", "md_atom_type": "LIST_ITEM", "md_parent_section": "§8.4 [Relating Non-standard Variable Values to a Parent Domain]", "md_verbatim": "- See Section 4.5.3, Text Strings that Exceed the Maximum Length for General Observation-class Domain Variables, for information on representing data values greater than 200 characters in length", "score": 0.3814, "match_basis": "verbatim_token+chapter_route:ch08"}, {"md_atom_id": "md_ch08_a013", "md_file": "knowledge_base/chapters/ch08_relationships.md", "md_atom_type": "LIST_ITEM", "md_parent_section": "§8 [Representing Relationships and Data]", "md_verbatim": "- **Section 8.7**, Relating Subjects — representing collected relationships between persons, both of whom are study subjects (e.g., \"MOTHER, BIOLOGICAL\"; \"CHILD, BIOLOGICAL\"; \"TWIN, DIZYGOTIC\")", "score": 0.3736, "match_basis": "verbatim_token+chapter_route:ch08"}, {"md_atom_id": "md_ch08_a066", "md_file": "knowledge_base/chapters/ch08_relationships.md", "md_atom_type": "LIST_ITEM", "md_parent_section": "§8.2 [Relating Peer Records]", "md_verbatim": "- information of a nature that necessitates using multiple datasets, as described in Section 8.3, Relating Datasets.", "score": 0.3682, "match_basis": "verbatim_token+chapter_route:ch08"}, {"md_atom_id": "md_ch08_a252", "md_file": "knowledge_base/chapters/ch08_relationships.md", "md_atom_type": "LIST_ITEM", "md_parent_section": "§8.6.3 [Guidelines for Differentiating Between Interventions, Events, Findings, and Findings About Events or Interventions]", "md_verbatim": "- Some events may be so long-lasting that they are perceived as \"conditions\" rather than events, and their beginning and end dates are not of interest.", "score": 0.3652, "match_basis": "verbatim_token+chapter_route:ch08"}], "candidate_count": 5, "zero_candidate": false}
{"pdf_atom_id": "ig34_p0434_a011", "pdf_atom_type": "LIST_ITEM", "pdf_source": "SDTMIG_v3.4", "pdf_page": 434, "pdf_parent_section": "§8.4.4 When Not to Use Supplemental Qualifiers", "pdf_verbatim": "•      Findings interpretations that should be added as an additional test code and result. An example of this would be a record for electrocardiogram interpretation where EGTESTCD = “INTP”, and the same EGGRPID or EGREFID value would be assigned for all records associated with that ECG (see Section 4.5.5, Clinical Significance for Findings Observation Class Data).", "figure_ref": null, "candidates": [{"md_atom_id": "md_ch08_a202", "md_file": "knowledge_base/chapters/ch08_relationships.md", "md_atom_type": "LIST_ITEM", "md_parent_section": "§8.4.4 [When Not to Use Supplemental Qualifiers]", "md_verbatim": "- Findings interpretations that should be added as an additional test code and result. An example of this would be a record for electrocardiogram interpretation where EGTESTCD = \"INTP\", and the same EGGRPID or EGREFID value would be assigned for all records associated with that ECG (see Section 4.5.5, Clinical Significance for Findings Observation Class Data)", "score": 0.9, "match_basis": "verbatim_token+chapter_route:ch08"}, {"md_atom_id": "md_ch08_a273", "md_file": "knowledge_base/chapters/ch08_relationships.md", "md_atom_type": "LIST_ITEM", "md_parent_section": "§8.6.3 [Guidelines for Differentiating Between Interventions, Events, Findings, and Findings About Events or Interventions]", "md_verbatim": "- If the data consist of a finding or intervention that is associated with the event, it is likely that it can be stored in a relevant Findings or Intervention general observation class dataset, with the connection to the Event record being captured using RELREC. For example, if a subject had a fever of 102°F that was treated with aspirin, the fever would be stored in an AE record, the temperature could be stored in a Vital Signs record, and the aspirin could be stored in a Concomitant Medication record; RELREC might be used to link those records.", "score": 0.4546, "match_basis": "verbatim_token+chapter_route:ch08"}, {"md_atom_id": "md_ch08_a274", "md_file": "knowledge_base/chapters/ch08_relationships.md", "md_atom_type": "LIST_ITEM", "md_parent_section": "§8.6.3 [Guidelines for Differentiating Between Interventions, Events, Findings, and Findings About Events or Interventions]", "md_verbatim": "- If the data item contains information about the event, then the choices for representing it are a supplemental qualifier or in an FA record. The data should be represented as a supplemental qualifier unless circumstances rule out the use of a supplemental qualifier. If a supplemental qualifier is not appropriate, the data may be stored in FA. See Section 6.4.1, When to Use Findings About Events or Interventions.", "score": 0.4127, "match_basis": "verbatim_token+chapter_route:ch08"}, {"md_atom_id": "md_ch08_a010", "md_file": "knowledge_base/chapters/ch08_relationships.md", "md_atom_type": "LIST_ITEM", "md_parent_section": "§8 [Representing Relationships and Data]", "md_verbatim": "- **Section 8.4**, Relating Non-standard Variable Values to a Parent Domain — the method for representing the dependent relationship where data that cannot be represented by a standard variable within DM or a GOC domain record can be related back to that record", "score": 0.4123, "match_basis": "verbatim_token+chapter_route:ch08"}, {"md_atom_id": "md_ch08_a129", "md_file": "knowledge_base/chapters/ch08_relationships.md", "md_atom_type": "LIST_ITEM", "md_parent_section": "§8.3.1 [RELREC Dataset Relationship Example]", "md_verbatim": "1. **ONE and ONE.** This combination indicates that there is NO hierarchical relationship between the datasets and the records in the datasets. Only 1 record from each dataset will potentially have the same value of the IDVAR within USUBJID.", "score": 0.4005, "match_basis": "verbatim_token+chapter_route:ch08"}], "candidate_count": 5, "zero_candidate": false}
{"pdf_atom_id": "ig34_p0434_a012", "pdf_atom_type": "LIST_ITEM", "pdf_source": "SDTMIG_v3.4", "pdf_page": 434, "pdf_parent_section": "§8.4.4 When Not to Use Supplemental Qualifiers", "pdf_verbatim": "•      Comments related to a record or records contained within a parent dataset. Although they may have been collected in the same record by the sponsor, comments should instead be captured in the CO special-purpose domain.", "figure_ref": null, "candidates": [{"md_atom_id": "md_ch08_a203", "md_file": "knowledge_base/chapters/ch08_relationships.md", "md_atom_type": "LIST_ITEM", "md_parent_section": "§8.4.4 [When Not to Use Supplemental Qualifiers]", "md_verbatim": "- Comments related to a record or records contained within a parent dataset. Although they may have been collected in the same record by the sponsor, comments should instead be captured in the CO special-purpose domain", "score": 0.9, "match_basis": "verbatim_token+chapter_route:ch08"}, {"md_atom_id": "md_ch08_a204", "md_file": "knowledge_base/chapters/ch08_relationships.md", "md_atom_type": "LIST_ITEM", "md_parent_section": "§8.4.4 [When Not to Use Supplemental Qualifiers]", "md_verbatim": "- Data not directly related to records in a parent domain. Such records should instead be captured in either a separate general observation class domain or special-purpose domain", "score": 0.5441, "match_basis": "verbatim_token+chapter_route:ch08"}, {"md_atom_id": "md_ch08_a214", "md_file": "knowledge_base/chapters/ch08_relationships.md", "md_atom_type": "LIST_ITEM", "md_parent_section": "§8.5 [Relating Comments to a Parent Domain]", "md_verbatim": "2. Comments related only to a specific domain (and not to any specific records) for a subject would populate RDOMAIN with the domain code for the domain with which they are associated. IDVAR and IDVARVAL would be null.", "score": 0.4536, "match_basis": "verbatim_token+chapter_route:ch08"}, {"md_atom_id": "md_ch08_a215", "md_file": "knowledge_base/chapters/ch08_relationships.md", "md_atom_type": "LIST_ITEM", "md_parent_section": "§8.5 [Relating Comments to a Parent Domain]", "md_verbatim": "3. Comments related to specific domain record(s) for a subject would populate the RDOMAIN, IDVAR, and IDVARVAL variables with values that identify the specific parent record(s).", "score": 0.4488, "match_basis": "verbatim_token+chapter_route:ch08"}, {"md_atom_id": "md_ch08_a011", "md_file": "knowledge_base/chapters/ch08_relationships.md", "md_atom_type": "LIST_ITEM", "md_parent_section": "§8 [Representing Relationships and Data]", "md_verbatim": "- **Section 8.5**, Relating Comments to a Parent Domain — representing a dependent relationship between a comment in the CO domain and a parent record in other domains", "score": 0.4271, "match_basis": "verbatim_token+chapter_route:ch08"}], "candidate_count": 5, "zero_candidate": false}
{"pdf_atom_id": "ig34_p0434_a013", "pdf_atom_type": "LIST_ITEM", "pdf_source": "SDTMIG_v3.4", "pdf_page": 434, "pdf_parent_section": "§8.4.4 When Not to Use Supplemental Qualifiers", "pdf_verbatim": "•      Data not directly related to records in a parent domain. Such records should instead be captured in either a separate general observation class domain or special-purpose domain.", "figure_ref": null, "candidates": [{"md_atom_id": "md_ch08_a204", "md_file": "knowledge_base/chapters/ch08_relationships.md", "md_atom_type": "LIST_ITEM", "md_parent_section": "§8.4.4 [When Not to Use Supplemental Qualifiers]", "md_verbatim": "- Data not directly related to records in a parent domain. Such records should instead be captured in either a separate general observation class domain or special-purpose domain", "score": 0.9, "match_basis": "verbatim_token+chapter_route:ch08"}, {"md_atom_id": "md_ch08_a203", "md_file": "knowledge_base/chapters/ch08_relationships.md", "md_atom_type": "LIST_ITEM", "md_parent_section": "§8.4.4 [When Not to Use Supplemental Qualifiers]", "md_verbatim": "- Comments related to a record or records contained within a parent dataset. Although they may have been collected in the same record by the sponsor, comments should instead be captured in the CO special-purpose domain", "score": 0.5441, "match_basis": "verbatim_token+chapter_route:ch08"}, {"md_atom_id": "md_ch08_a020", "md_file": "knowledge_base/chapters/ch08_relationships.md", "md_atom_type": "LIST_ITEM", "md_parent_section": "§8 [Representing Relationships and Data]", "md_verbatim": "- The reference identifier (--REFID) variable can be used to capture a sponsor-defined or external identifier, such as lab-specimen identifiers and ECG identifiers. --REFID is permissible in all general observation-class domains, but is never required. Values are sponsor-defined.", "score": 0.4572, "match_basis": "verbatim_token+chapter_route:ch08"}, {"md_atom_id": "md_ch08_a214", "md_file": "knowledge_base/chapters/ch08_relationships.md", "md_atom_type": "LIST_ITEM", "md_parent_section": "§8.5 [Relating Comments to a Parent Domain]", "md_verbatim": "2. Comments related only to a specific domain (and not to any specific records) for a subject would populate RDOMAIN with the domain code for the domain with which they are associated. IDVAR and IDVARVAL would be null.", "score": 0.4412, "match_basis": "verbatim_token+chapter_route:ch08"}, {"md_atom_id": "md_ch08_a273", "md_file": "knowledge_base/chapters/ch08_relationships.md", "md_atom_type": "LIST_ITEM", "md_parent_section": "§8.6.3 [Guidelines for Differentiating Between Interventions, Events, Findings, and Findings About Events or Interventions]", "md_verbatim": "- If the data consist of a finding or intervention that is associated with the event, it is likely that it can be stored in a relevant Findings or Intervention general observation class dataset, with the connection to the Event record being captured using RELREC. For example, if a subject had a fever of 102°F that was treated with aspirin, the fever would be stored in an AE record, the temperature could be stored in a Vital Signs record, and the aspirin could be stored in a Concomitant Medication record; RELREC might be used to link those records.", "score": 0.4355, "match_basis": "verbatim_token+chapter_route:ch08"}], "candidate_count": 5, "zero_candidate": false}
{"pdf_atom_id": "ig34_p0434_a014", "pdf_atom_type": "HEADING", "pdf_source": "SDTMIG_v3.4", "pdf_page": 434, "pdf_parent_section": "§8 [REPRESENTING RELATIONSHIPS AND DATA]", "pdf_verbatim": "8.5 Relating Comments to a Parent Domain", "figure_ref": null, "candidates": [{"md_atom_id": "md_ch08_a205", "md_file": "knowledge_base/chapters/ch08_relationships.md", "md_atom_type": "HEADING", "md_parent_section": "§8 [Representing Relationships and Data]", "md_verbatim": "## 8.5 Relating Comments to a Parent Domain", "score": 0.9, "match_basis": "verbatim_token+chapter_route:ch08"}, {"md_atom_id": "md_ch08_a134", "md_file": "knowledge_base/chapters/ch08_relationships.md", "md_atom_type": "HEADING", "md_parent_section": "§8 [Representing Relationships and Data]", "md_verbatim": "## 8.4 Relating Non-standard Variable Values to a Parent Domain", "score": 0.5333, "match_basis": "verbatim_token+chapter_route:ch08"}, {"md_atom_id": "md_ch08_a022", "md_file": "knowledge_base/chapters/ch08_relationships.md", "md_atom_type": "HEADING", "md_parent_section": "§8 [Representing Relationships and Data]", "md_verbatim": "## 8.1 Relating Groups of Records Within a Domain Using --GRPID", "score": 0.4622, "match_basis": "verbatim_token+chapter_route:ch08"}, {"md_atom_id": "md_ch08_a052", "md_file": "knowledge_base/chapters/ch08_relationships.md", "md_atom_type": "HEADING", "md_parent_section": "§8 [Representing Relationships and Data]", "md_verbatim": "## 8.2 Relating Peer Records", "score": 0.4385, "match_basis": "verbatim_token+chapter_route:ch08"}, {"md_atom_id": "md_ch08_a109", "md_file": "knowledge_base/chapters/ch08_relationships.md", "md_atom_type": "HEADING", "md_parent_section": "§8 [Representing Relationships and Data]", "md_verbatim": "## 8.3 Relating Datasets Using RELREC", "score": 0.42, "match_basis": "verbatim_token+chapter_route:ch08"}], "candidate_count": 5, "zero_candidate": false}
{"pdf_atom_id": "ig34_p0434_a015", "pdf_atom_type": "SENTENCE", "pdf_source": "SDTMIG_v3.4", "pdf_page": 434, "pdf_parent_section": "§8.5 Relating Comments to a Parent Domain", "pdf_verbatim": "The Comments (CO) special-purpose domain (see Section 5.1, Comments) is used to capture unstructured free-text comments.", "figure_ref": null, "candidates": [{"md_atom_id": "md_ch08_a206", "md_file": "knowledge_base/chapters/ch08_relationships.md", "md_atom_type": "SENTENCE", "md_parent_section": "§8.5 [Relating Comments to a Parent Domain]", "md_verbatim": "The Comments (CO) special-purpose domain (see Section 5.1, Comments) is used to capture unstructured free-text comments.", "score": 0.9, "match_basis": "verbatim_token+chapter_route:ch08"}, {"md_atom_id": "md_ch08_a209", "md_file": "knowledge_base/chapters/ch08_relationships.md", "md_atom_type": "SENTENCE", "md_parent_section": "§8.5 [Relating Comments to a Parent Domain]", "md_verbatim": "The CO special-purpose domain is structured similarly to the Supplemental Qualifiers (SUPP--) dataset, in that it uses the same set of keys (STUDYID, RDOMAIN, USUBJID, IDVAR, and IDVARVAL) to identify related records.", "score": 0.4368, "match_basis": "verbatim_token+chapter_route:ch08"}, {"md_atom_id": "md_ch08_a221", "md_file": "knowledge_base/chapters/ch08_relationships.md", "md_atom_type": "SENTENCE", "md_parent_section": "§8.5 [Relating Comments to a Parent Domain]", "md_verbatim": "If a single comment relates to records in multiple domains, the comment may need to be repeated in the CO special-purpose domain to facilitate the understanding of the relationships.", "score": 0.4347, "match_basis": "verbatim_token+chapter_route:ch08"}, {"md_atom_id": "md_ch08_a208", "md_file": "knowledge_base/chapters/ch08_relationships.md", "md_atom_type": "SENTENCE", "md_parent_section": "§8.5 [Relating Comments to a Parent Domain]", "md_verbatim": "Comments may be related to a subject, a domain for a subject, or to specific parent records in any domain.", "score": 0.4217, "match_basis": "verbatim_token+chapter_route:ch08"}, {"md_atom_id": "md_ch08_a053", "md_file": "knowledge_base/chapters/ch08_relationships.md", "md_atom_type": "SENTENCE", "md_parent_section": "§8.2 [Relating Peer Records]", "md_verbatim": "The Related Records (RELREC) special-purpose dataset is used to describe relationships between records for a subject (as described in this section), and relationships between datasets (as described in Section 8.3, Relating Datasets).", "score": 0.4174, "match_basis": "verbatim_token+chapter_route:ch08"}], "candidate_count": 5, "zero_candidate": false}
{"pdf_atom_id": "ig34_p0434_a016", "pdf_atom_type": "SENTENCE", "pdf_source": "SDTMIG_v3.4", "pdf_page": 434, "pdf_parent_section": "§8.5 Relating Comments to a Parent Domain", "pdf_verbatim": "It allows for the submission of comments related to a particular domain (e.g., Adverse Events) or those collected on separate general-comment log-style pages not associated with a domain.", "figure_ref": null, "candidates": [{"md_atom_id": "md_ch08_a207", "md_file": "knowledge_base/chapters/ch08_relationships.md", "md_atom_type": "SENTENCE", "md_parent_section": "§8.5 [Relating Comments to a Parent Domain]", "md_verbatim": "It allows for the submission of comments related to a particular domain (e.g., Adverse Events) or those collected on separate general-comment log-style pages not associated with a domain.", "score": 0.9, "match_basis": "verbatim_token+chapter_route:ch08"}, {"md_atom_id": "md_ch08_a210", "md_file": "knowledge_base/chapters/ch08_relationships.md", "md_atom_type": "SENTENCE", "md_parent_section": "§8.5 [Relating Comments to a Parent Domain]", "md_verbatim": "All comments except those collected on log-style pages not associated with a domain are considered child records of subject data captured in domains.", "score": 0.5127, "match_basis": "verbatim_token+chapter_route:ch08"}, {"md_atom_id": "md_ch08_a248", "md_file": "knowledge_base/chapters/ch08_relationships.md", "md_atom_type": "SENTENCE", "md_parent_section": "§8.6.3 [Guidelines for Differentiating Between Interventions, Events, Findings, and Findings About Events or Interventions]", "md_verbatim": "This section discusses events and findings generally, but it is particularly useful for understanding the distinction between the Clinical Events (CE) and FA domains.", "score": 0.4266, "match_basis": "verbatim_token+chapter_route:ch08"}, {"md_atom_id": "md_ch08_a082", "md_file": "knowledge_base/chapters/ch08_relationships.md", "md_atom_type": "SENTENCE", "md_parent_section": "§8.2.2 [RELREC Dataset Examples]", "md_verbatim": "**Example 1:** This example illustrates the use of the RELREC dataset to relate records stored in separate domains for USUBJID = \"123456\". This example represents a situation in which a single adverse event is part of 2 collected relationships, one with 2 concomitant medications and the other with 2 laboratory findings, but there is no collected relationship between the 2 laboratory findings and the 2 concomitant medications.", "score": 0.4254, "match_basis": "verbatim_token+chapter_route:ch08"}, {"md_atom_id": "md_ch08_a208", "md_file": "knowledge_base/chapters/ch08_relationships.md", "md_atom_type": "SENTENCE", "md_parent_section": "§8.5 [Relating Comments to a Parent Domain]", "md_verbatim": "Comments may be related to a subject, a domain for a subject, or to specific parent records in any domain.", "score": 0.4187, "match_basis": "verbatim_token+chapter_route:ch08"}], "candidate_count": 5, "zero_candidate": false}
{"pdf_atom_id": "ig34_p0434_a017", "pdf_atom_type": "SENTENCE", "pdf_source": "SDTMIG_v3.4", "pdf_page": 434, "pdf_parent_section": "§8.5 Relating Comments to a Parent Domain", "pdf_verbatim": "Comments may be related to a subject, a domain for a subject, or to specific parent records in any domain.", "figure_ref": null, "candidates": [{"md_atom_id": "md_ch08_a208", "md_file": "knowledge_base/chapters/ch08_relationships.md", "md_atom_type": "SENTENCE", "md_parent_section": "§8.5 [Relating Comments to a Parent Domain]", "md_verbatim": "Comments may be related to a subject, a domain for a subject, or to specific parent records in any domain.", "score": 0.9, "match_basis": "verbatim_token+chapter_route:ch08"}, {"md_atom_id": "md_ch08_a215", "md_file": "knowledge_base/chapters/ch08_relationships.md", "md_atom_type": "LIST_ITEM", "md_parent_section": "§8.5 [Relating Comments to a Parent Domain]", "md_verbatim": "3. Comments related to specific domain record(s) for a subject would populate the RDOMAIN, IDVAR, and IDVARVAL variables with values that identify the specific parent record(s).", "score": 0.4973, "match_basis": "verbatim_token+chapter_route:ch08"}, {"md_atom_id": "md_ch08_a319", "md_file": "knowledge_base/chapters/ch08_relationships.md", "md_atom_type": "SENTENCE", "md_parent_section": "§8.8 [Related Specimens (RELSPEC)]", "md_verbatim": "relspec.xpt, Related Specimens — Relationship. One record per specimen identifier per subject, Tabulation.", "score": 0.4935, "match_basis": "verbatim_token+chapter_route:ch08"}, {"md_atom_id": "md_ch08_a214", "md_file": "knowledge_base/chapters/ch08_relationships.md", "md_atom_type": "LIST_ITEM", "md_parent_section": "§8.5 [Relating Comments to a Parent Domain]", "md_verbatim": "2. Comments related only to a specific domain (and not to any specific records) for a subject would populate RDOMAIN with the domain code for the domain with which they are associated. IDVAR and IDVARVAL would be null.", "score": 0.4933, "match_basis": "verbatim_token+chapter_route:ch08"}, {"md_atom_id": "md_ch08_a220", "md_file": "knowledge_base/chapters/ch08_relationships.md", "md_atom_type": "SENTENCE", "md_parent_section": "§8.5 [Relating Comments to a Parent Domain]", "md_verbatim": "The limitation of this is that a single comment may only be related to a group of records in 1 domain (RDOMAIN can have only 1 value).", "score": 0.4818, "match_basis": "verbatim_token+chapter_route:ch08"}], "candidate_count": 5, "zero_candidate": false}
{"pdf_atom_id": "ig34_p0434_a018", "pdf_atom_type": "SENTENCE", "pdf_source": "SDTMIG_v3.4", "pdf_page": 434, "pdf_parent_section": "§8.5 Relating Comments to a Parent Domain", "pdf_verbatim": "The CO special-purpose domain is structured similarly to the Supplemental Qualifiers (SUPP--) dataset, in that it uses the same set of keys (STUDYID, RDOMAIN, USUBJID, IDVAR, and IDVARVAL) to identify related records.", "figure_ref": null, "candidates": [{"md_atom_id": "md_ch08_a209", "md_file": "knowledge_base/chapters/ch08_relationships.md", "md_atom_type": "SENTENCE", "md_parent_section": "§8.5 [Relating Comments to a Parent Domain]", "md_verbatim": "The CO special-purpose domain is structured similarly to the Supplemental Qualifiers (SUPP--) dataset, in that it uses the same set of keys (STUDYID, RDOMAIN, USUBJID, IDVAR, and IDVARVAL) to identify related records.", "score": 0.9, "match_basis": "verbatim_token+chapter_route:ch08"}, {"md_atom_id": "md_ch08_a141", "md_file": "knowledge_base/chapters/ch08_relationships.md", "md_atom_type": "SENTENCE", "md_parent_section": "§8.4 [Relating Non-standard Variable Values to a Parent Domain]", "md_verbatim": "The Supplemental Qualifiers dataset is structured similarly to the RELREC dataset, in that it uses the same set of keys to identify parent records.", "score": 0.6515, "match_basis": "verbatim_token+chapter_route:ch08"}, {"md_atom_id": "md_ch08_a056", "md_file": "knowledge_base/chapters/ch08_relationships.md", "md_atom_type": "SENTENCE", "md_parent_section": "§8.2 [Relating Peer Records]", "md_verbatim": "Each record in the RELREC special-purpose dataset contains keys that identify a record (or group of records) and the relationship identifier, which is stored in the RELID variable.", "score": 0.5016, "match_basis": "verbatim_token+chapter_route:ch08"}, {"md_atom_id": "md_ch08_a151", "md_file": "knowledge_base/chapters/ch08_relationships.md", "md_atom_type": "SENTENCE", "md_parent_section": "§8.4 [Relating Non-standard Variable Values to a Parent Domain]", "md_verbatim": "That is, there should not be multiple records in a SUPP-- dataset for the same QNAM value, as it relates to IDVAR/IDVARVAL for a USUBJID in a domain.", "score": 0.4982, "match_basis": "verbatim_token+chapter_route:ch08"}, {"md_atom_id": "md_ch08_a219", "md_file": "knowledge_base/chapters/ch08_relationships.md", "md_atom_type": "SENTENCE", "md_parent_section": "§8.5 [Relating Comments to a Parent Domain]", "md_verbatim": "As with Supplemental Qualifiers (SUPP--) and Related Records (RELREC), --GRPID and other grouping variables can be used as the value in IDVAR to identify comments with relationships to multiple domain records.", "score": 0.4941, "match_basis": "verbatim_token+chapter_route:ch08"}], "candidate_count": 5, "zero_candidate": false}
{"pdf_atom_id": "ig34_p0434_a019", "pdf_atom_type": "SENTENCE", "pdf_source": "SDTMIG_v3.4", "pdf_page": 434, "pdf_parent_section": "§8.5 Relating Comments to a Parent Domain", "pdf_verbatim": "All comments except those collected on log-style pages not associated with a domain are considered child records of subject data captured in domains.", "figure_ref": null, "candidates": [{"md_atom_id": "md_ch08_a210", "md_file": "knowledge_base/chapters/ch08_relationships.md", "md_atom_type": "SENTENCE", "md_parent_section": "§8.5 [Relating Comments to a Parent Domain]", "md_verbatim": "All comments except those collected on log-style pages not associated with a domain are considered child records of subject data captured in domains.", "score": 0.9, "match_basis": "verbatim_token+chapter_route:ch08"}, {"md_atom_id": "md_ch08_a207", "md_file": "knowledge_base/chapters/ch08_relationships.md", "md_atom_type": "SENTENCE", "md_parent_section": "§8.5 [Relating Comments to a Parent Domain]", "md_verbatim": "It allows for the submission of comments related to a particular domain (e.g., Adverse Events) or those collected on separate general-comment log-style pages not associated with a domain.", "score": 0.5127, "match_basis": "verbatim_token+chapter_route:ch08"}, {"md_atom_id": "md_ch08_a208", "md_file": "knowledge_base/chapters/ch08_relationships.md", "md_atom_type": "SENTENCE", "md_parent_section": "§8.5 [Relating Comments to a Parent Domain]", "md_verbatim": "Comments may be related to a subject, a domain for a subject, or to specific parent records in any domain.", "score": 0.4624, "match_basis": "verbatim_token+chapter_route:ch08"}, {"md_atom_id": "md_ch08_a005", "md_file": "knowledge_base/chapters/ch08_relationships.md", "md_atom_type": "SENTENCE", "md_parent_section": "§8 [Representing Relationships and Data]", "md_verbatim": "Collected data that may not entirely fit includes relationships between records within a domain, records in separate domains, and sponsor-defined \"variables.\"", "score": 0.421, "match_basis": "verbatim_token+chapter_route:ch08"}, {"md_atom_id": "md_ch08_a206", "md_file": "knowledge_base/chapters/ch08_relationships.md", "md_atom_type": "SENTENCE", "md_parent_section": "§8.5 [Relating Comments to a Parent Domain]", "md_verbatim": "The Comments (CO) special-purpose domain (see Section 5.1, Comments) is used to capture unstructured free-text comments.", "score": 0.4163, "match_basis": "verbatim_token+chapter_route:ch08"}], "candidate_count": 5, "zero_candidate": false}
{"pdf_atom_id": "ig34_p0434_a020", "pdf_atom_type": "SENTENCE", "pdf_source": "SDTMIG_v3.4", "pdf_page": 434, "pdf_parent_section": "§8.5 Relating Comments to a Parent Domain", "pdf_verbatim": "STUDYID, USUBJID, and DOMAIN (with the value CO) must always be populated.", "figure_ref": null, "candidates": [{"md_atom_id": "md_ch08_a211", "md_file": "knowledge_base/chapters/ch08_relationships.md", "md_atom_type": "SENTENCE", "md_parent_section": "§8.5 [Relating Comments to a Parent Domain]", "md_verbatim": "STUDYID, USUBJID, and DOMAIN (with the value CO) must always be populated.", "score": 0.9, "match_basis": "verbatim_token+chapter_route:ch08"}, {"md_atom_id": "md_ch08_a015", "md_file": "knowledge_base/chapters/ch08_relationships.md", "md_atom_type": "SENTENCE", "md_parent_section": "§8 [Representing Relationships and Data]", "md_verbatim": "All relationships make use of the standard domain identifiers STUDYID, DOMAIN, and USUBJID.", "score": 0.4645, "match_basis": "verbatim_token+chapter_route:ch08"}, {"md_atom_id": "md_ch08_a212", "md_file": "knowledge_base/chapters/ch08_relationships.md", "md_atom_type": "SENTENCE", "md_parent_section": "§8.5 [Relating Comments to a Parent Domain]", "md_verbatim": "RDOMAIN, IDVAR, and IDVARVAL should be populated as follows:", "score": 0.4592, "match_basis": "verbatim_token+chapter_route:ch08"}, {"md_atom_id": "md_ch08_a057", "md_file": "knowledge_base/chapters/ch08_relationships.md", "md_atom_type": "SENTENCE", "md_parent_section": "§8.2 [Relating Peer Records]", "md_verbatim": "The value of RELID is chosen by the sponsor, but must be identical for all related records within USUBJID.", "score": 0.45, "match_basis": "verbatim_token+chapter_route:ch08"}, {"md_atom_id": "md_ch08_a059", "md_file": "knowledge_base/chapters/ch08_relationships.md", "md_atom_type": "SENTENCE", "md_parent_section": "§8.2 [Relating Peer Records]", "md_verbatim": "Records expressing a relationship are specified using the key variables STUDYID, RDOMAIN (the domain code of the record in the relationship), and USUBJID, along with IDVAR and IDVARVAL.", "score": 0.4446, "match_basis": "verbatim_token+chapter_route:ch08"}], "candidate_count": 5, "zero_candidate": false}
{"pdf_atom_id": "ig34_p0434_a021", "pdf_atom_type": "SENTENCE", "pdf_source": "SDTMIG_v3.4", "pdf_page": 434, "pdf_parent_section": "§8.5 Relating Comments to a Parent Domain", "pdf_verbatim": "RDOMAIN, IDVAR, and IDVARVAL should be populated as follows:", "figure_ref": null, "candidates": [{"md_atom_id": "md_ch08_a212", "md_file": "knowledge_base/chapters/ch08_relationships.md", "md_atom_type": "SENTENCE", "md_parent_section": "§8.5 [Relating Comments to a Parent Domain]", "md_verbatim": "RDOMAIN, IDVAR, and IDVARVAL should be populated as follows:", "score": 0.9, "match_basis": "verbatim_token+chapter_route:ch08"}, {"md_atom_id": "md_ch08_a211", "md_file": "knowledge_base/chapters/ch08_relationships.md", "md_atom_type": "SENTENCE", "md_parent_section": "§8.5 [Relating Comments to a Parent Domain]", "md_verbatim": "STUDYID, USUBJID, and DOMAIN (with the value CO) must always be populated.", "score": 0.4592, "match_basis": "verbatim_token+chapter_route:ch08"}, {"md_atom_id": "md_ch08_a151", "md_file": "knowledge_base/chapters/ch08_relationships.md", "md_atom_type": "SENTENCE", "md_parent_section": "§8.4 [Relating Non-standard Variable Values to a Parent Domain]", "md_verbatim": "That is, there should not be multiple records in a SUPP-- dataset for the same QNAM value, as it relates to IDVAR/IDVARVAL for a USUBJID in a domain.", "score": 0.4433, "match_basis": "verbatim_token+chapter_route:ch08"}, {"md_atom_id": "md_ch08_a062", "md_file": "knowledge_base/chapters/ch08_relationships.md", "md_atom_type": "SENTENCE", "md_parent_section": "§8.2 [Relating Peer Records]", "md_verbatim": "IDVARVAL would contain the value of the variable described in IDVAR.", "score": 0.4125, "match_basis": "verbatim_token+chapter_route:ch08"}, {"md_atom_id": "md_ch08_a018", "md_file": "knowledge_base/chapters/ch08_relationships.md", "md_atom_type": "SENTENCE", "md_parent_section": "§8 [Representing Relationships and Data]", "md_verbatim": "The following are examples of variables that could be used in IDVAR:", "score": 0.4102, "match_basis": "verbatim_token+chapter_route:ch08"}], "candidate_count": 5, "zero_candidate": false}
{"pdf_atom_id": "ig34_p0434_a022", "pdf_atom_type": "LIST_ITEM", "pdf_source": "SDTMIG_v3.4", "pdf_page": 434, "pdf_parent_section": "§8.5 Relating Comments to a Parent Domain", "pdf_verbatim": "1.     Comments related only to a subject in general (likely collected on a log-style CRF page/screen) would have RDOMAIN, IDVAR, IDVARVAL null, as the only key needed to identify the relationship/association to that subject is USUBJID.", "figure_ref": null, "candidates": [{"md_atom_id": "md_ch08_a213", "md_file": "knowledge_base/chapters/ch08_relationships.md", "md_atom_type": "LIST_ITEM", "md_parent_section": "§8.5 [Relating Comments to a Parent Domain]", "md_verbatim": "1. Comments related only to a subject in general (likely collected on a log-style CRF page/screen) would have RDOMAIN, IDVAR, IDVARVAL null, as the only key needed to identify the relationship/association to that subject is USUBJID.", "score": 0.9, "match_basis": "verbatim_token+chapter_route:ch08"}, {"md_atom_id": "md_ch08_a214", "md_file": "knowledge_base/chapters/ch08_relationships.md", "md_atom_type": "LIST_ITEM", "md_parent_section": "§8.5 [Relating Comments to a Parent Domain]", "md_verbatim": "2. Comments related only to a specific domain (and not to any specific records) for a subject would populate RDOMAIN with the domain code for the domain with which they are associated. IDVAR and IDVARVAL would be null.", "score": 0.5085, "match_basis": "verbatim_token+chapter_route:ch08"}, {"md_atom_id": "md_ch08_a215", "md_file": "knowledge_base/chapters/ch08_relationships.md", "md_atom_type": "LIST_ITEM", "md_parent_section": "§8.5 [Relating Comments to a Parent Domain]", "md_verbatim": "3. Comments related to specific domain record(s) for a subject would populate the RDOMAIN, IDVAR, and IDVARVAL variables with values that identify the specific parent record(s).", "score": 0.49, "match_basis": "verbatim_token+chapter_route:ch08"}, {"md_atom_id": "md_ch08_a129", "md_file": "knowledge_base/chapters/ch08_relationships.md", "md_atom_type": "LIST_ITEM", "md_parent_section": "§8.3.1 [RELREC Dataset Relationship Example]", "md_verbatim": "1. **ONE and ONE.** This combination indicates that there is NO hierarchical relationship between the datasets and the records in the datasets. Only 1 record from each dataset will potentially have the same value of the IDVAR within USUBJID.", "score": 0.428, "match_basis": "verbatim_token+chapter_route:ch08"}, {"md_atom_id": "md_ch08_a170", "md_file": "knowledge_base/chapters/ch08_relationships.md", "md_atom_type": "LIST_ITEM", "md_parent_section": "§8.4 [Relating Non-standard Variable Values to a Parent Domain]", "md_verbatim": "- A record in a SUPP-- dataset relates back to its parent record(s) via the key identified by the STUDYID, RDOMAIN, USUBJID, and IDVAR/IDVARVAL variables. An exception is SUPP-- dataset records that are related to Demographics (DM) records, where both IDVAR and IDVARVAL will be null because STUDYID, RDOMAIN, and USUBJID are sufficient to identify the unique parent record in DM (DM has 1 record per USUBJID)", "score": 0.4273, "match_basis": "verbatim_token+chapter_route:ch08"}], "candidate_count": 5, "zero_candidate": false}
{"pdf_atom_id": "ig34_p0434_a023", "pdf_atom_type": "LIST_ITEM", "pdf_source": "SDTMIG_v3.4", "pdf_page": 434, "pdf_parent_section": "§8.5 Relating Comments to a Parent Domain", "pdf_verbatim": "2.     Comments related only to a specific domain (and not to any specific records) for a subject would populate RDOMAIN with the domain code for the domain with which they are associated. IDVAR and IDVARVAL would be null.", "figure_ref": null, "candidates": [{"md_atom_id": "md_ch08_a214", "md_file": "knowledge_base/chapters/ch08_relationships.md", "md_atom_type": "LIST_ITEM", "md_parent_section": "§8.5 [Relating Comments to a Parent Domain]", "md_verbatim": "2. Comments related only to a specific domain (and not to any specific records) for a subject would populate RDOMAIN with the domain code for the domain with which they are associated. IDVAR and IDVARVAL would be null.", "score": 0.9, "match_basis": "verbatim_token+chapter_route:ch08"}, {"md_atom_id": "md_ch08_a215", "md_file": "knowledge_base/chapters/ch08_relationships.md", "md_atom_type": "LIST_ITEM", "md_parent_section": "§8.5 [Relating Comments to a Parent Domain]", "md_verbatim": "3. Comments related to specific domain record(s) for a subject would populate the RDOMAIN, IDVAR, and IDVARVAL variables with values that identify the specific parent record(s).", "score": 0.6448, "match_basis": "verbatim_token+chapter_route:ch08"}, {"md_atom_id": "md_ch08_a213", "md_file": "knowledge_base/chapters/ch08_relationships.md", "md_atom_type": "LIST_ITEM", "md_parent_section": "§8.5 [Relating Comments to a Parent Domain]", "md_verbatim": "1. Comments related only to a subject in general (likely collected on a log-style CRF page/screen) would have RDOMAIN, IDVAR, IDVARVAL null, as the only key needed to identify the relationship/association to that subject is USUBJID.", "score": 0.5085, "match_basis": "verbatim_token+chapter_route:ch08"}, {"md_atom_id": "md_ch08_a208", "md_file": "knowledge_base/chapters/ch08_relationships.md", "md_atom_type": "SENTENCE", "md_parent_section": "§8.5 [Relating Comments to a Parent Domain]", "md_verbatim": "Comments may be related to a subject, a domain for a subject, or to specific parent records in any domain.", "score": 0.4933, "match_basis": "verbatim_token+chapter_route:ch08"}, {"md_atom_id": "md_ch08_a203", "md_file": "knowledge_base/chapters/ch08_relationships.md", "md_atom_type": "LIST_ITEM", "md_parent_section": "§8.4.4 [When Not to Use Supplemental Qualifiers]", "md_verbatim": "- Comments related to a record or records contained within a parent dataset. Although they may have been collected in the same record by the sponsor, comments should instead be captured in the CO special-purpose domain", "score": 0.4536, "match_basis": "verbatim_token+chapter_route:ch08"}], "candidate_count": 5, "zero_candidate": false}
{"pdf_atom_id": "ig34_p0434_a024", "pdf_atom_type": "LIST_ITEM", "pdf_source": "SDTMIG_v3.4", "pdf_page": 434, "pdf_parent_section": "§8.5 Relating Comments to a Parent Domain", "pdf_verbatim": "3.     Comments related to specific domain record(s) for a subject would populate the RDOMAIN, IDVAR, and IDVARVAL variables with values that identify the specific parent record(s).", "figure_ref": null, "candidates": [{"md_atom_id": "md_ch08_a215", "md_file": "knowledge_base/chapters/ch08_relationships.md", "md_atom_type": "LIST_ITEM", "md_parent_section": "§8.5 [Relating Comments to a Parent Domain]", "md_verbatim": "3. Comments related to specific domain record(s) for a subject would populate the RDOMAIN, IDVAR, and IDVARVAL variables with values that identify the specific parent record(s).", "score": 0.9, "match_basis": "verbatim_token+chapter_route:ch08"}, {"md_atom_id": "md_ch08_a214", "md_file": "knowledge_base/chapters/ch08_relationships.md", "md_atom_type": "LIST_ITEM", "md_parent_section": "§8.5 [Relating Comments to a Parent Domain]", "md_verbatim": "2. Comments related only to a specific domain (and not to any specific records) for a subject would populate RDOMAIN with the domain code for the domain with which they are associated. IDVAR and IDVARVAL would be null.", "score": 0.6448, "match_basis": "verbatim_token+chapter_route:ch08"}, {"md_atom_id": "md_ch08_a021", "md_file": "knowledge_base/chapters/ch08_relationships.md", "md_atom_type": "LIST_ITEM", "md_parent_section": "§8 [Representing Relationships and Data]", "md_verbatim": "- The grouping identifier (--GRPID) variable, used to link related records for a subject within a domain, is explained in Section 8.1.", "score": 0.5125, "match_basis": "verbatim_token+chapter_route:ch08"}, {"md_atom_id": "md_ch08_a208", "md_file": "knowledge_base/chapters/ch08_relationships.md", "md_atom_type": "SENTENCE", "md_parent_section": "§8.5 [Relating Comments to a Parent Domain]", "md_verbatim": "Comments may be related to a subject, a domain for a subject, or to specific parent records in any domain.", "score": 0.4973, "match_basis": "verbatim_token+chapter_route:ch08"}, {"md_atom_id": "md_ch08_a010", "md_file": "knowledge_base/chapters/ch08_relationships.md", "md_atom_type": "LIST_ITEM", "md_parent_section": "§8 [Representing Relationships and Data]", "md_verbatim": "- **Section 8.4**, Relating Non-standard Variable Values to a Parent Domain — the method for representing the dependent relationship where data that cannot be represented by a standard variable within DM or a GOC domain record can be related back to that record", "score": 0.493, "match_basis": "verbatim_token+chapter_route:ch08"}], "candidate_count": 5, "zero_candidate": false}
{"pdf_atom_id": "ig34_p0434_a025", "pdf_atom_type": "SENTENCE", "pdf_source": "SDTMIG_v3.4", "pdf_page": 434, "pdf_parent_section": "§8.5 Relating Comments to a Parent Domain", "pdf_verbatim": "For additional information collected further describing the comment relationship to a parent record(s) that cannot be represented using the relationship variables RDOMAIN, IDVAR and IDVARVAL:", "figure_ref": null, "candidates": [{"md_atom_id": "md_ch08_a216", "md_file": "knowledge_base/chapters/ch08_relationships.md", "md_atom_type": "SENTENCE", "md_parent_section": "§8.5 [Relating Comments to a Parent Domain]", "md_verbatim": "For additional information collected further describing the comment relationship to a parent record(s) that cannot be represented using the relationship variables RDOMAIN, IDVAR and IDVARVAL:", "score": 0.9, "match_basis": "verbatim_token+chapter_route:ch08"}, {"md_atom_id": "md_ch08_a059", "md_file": "knowledge_base/chapters/ch08_relationships.md", "md_atom_type": "SENTENCE", "md_parent_section": "§8.2 [Relating Peer Records]", "md_verbatim": "Records expressing a relationship are specified using the key variables STUDYID, RDOMAIN (the domain code of the record in the relationship), and USUBJID, along with IDVAR and IDVARVAL.", "score": 0.5, "match_basis": "verbatim_token+chapter_route:ch08"}, {"md_atom_id": "md_ch08_a005", "md_file": "knowledge_base/chapters/ch08_relationships.md", "md_atom_type": "SENTENCE", "md_parent_section": "§8 [Representing Relationships and Data]", "md_verbatim": "Collected data that may not entirely fit includes relationships between records within a domain, records in separate domains, and sponsor-defined \"variables.\"", "score": 0.4857, "match_basis": "verbatim_token+chapter_route:ch08"}, {"md_atom_id": "md_ch08_a219", "md_file": "knowledge_base/chapters/ch08_relationships.md", "md_atom_type": "SENTENCE", "md_parent_section": "§8.5 [Relating Comments to a Parent Domain]", "md_verbatim": "As with Supplemental Qualifiers (SUPP--) and Related Records (RELREC), --GRPID and other grouping variables can be used as the value in IDVAR to identify comments with relationships to multiple domain records.", "score": 0.4746, "match_basis": "verbatim_token+chapter_route:ch08"}, {"md_atom_id": "md_ch08_a016", "md_file": "knowledge_base/chapters/ch08_relationships.md", "md_atom_type": "SENTENCE", "md_parent_section": "§8 [Representing Relationships and Data]", "md_verbatim": "In addition, the variables IDVAR and IDVARVAL are used for identifying the record-level merge/join keys.", "score": 0.4585, "match_basis": "verbatim_token+chapter_route:ch08"}], "candidate_count": 5, "zero_candidate": false}
{"pdf_atom_id": "ig34_p0434_a026", "pdf_atom_type": "LIST_ITEM", "pdf_source": "SDTMIG_v3.4", "pdf_page": 434, "pdf_parent_section": "§8.5 Relating Comments to a Parent Domain", "pdf_verbatim": "1.     Values (e.g., CRF page number or name) may be placed in COREF.", "figure_ref": null, "candidates": [{"md_atom_id": "md_ch08_a217", "md_file": "knowledge_base/chapters/ch08_relationships.md", "md_atom_type": "LIST_ITEM", "md_parent_section": "§8.5 [Relating Comments to a Parent Domain]", "md_verbatim": "1. Values (e.g., CRF page number or name) may be placed in COREF.", "score": 0.9, "match_basis": "verbatim_token+chapter_route:ch08"}, {"md_atom_id": "md_ch08_a019", "md_file": "knowledge_base/chapters/ch08_relationships.md", "md_atom_type": "LIST_ITEM", "md_parent_section": "§8 [Representing Relationships and Data]", "md_verbatim": "- The sequence number (--SEQ) variable uniquely identifies a record for a given USUBJID within a domain. --SEQ is required in all domains except DM. Conventions for establishing and maintaining --SEQ values are sponsor-defined. Values may or may not be sequential depending on data processes and sources.", "score": 0.3462, "match_basis": "verbatim_token+chapter_route:ch08"}, {"md_atom_id": "md_ch08_a288", "md_file": "knowledge_base/chapters/ch08_relationships.md", "md_atom_type": "LIST_ITEM", "md_parent_section": "§8.7 [Related Subjects (RELSUB)]", "md_verbatim": "5. RSUBJID must be a USUBJID value present in the Demographics (DM) domain. RSUBJID must be populated in every record.", "score": 0.3387, "match_basis": "verbatim_token+chapter_route:ch08"}, {"md_atom_id": "md_ch08_a215", "md_file": "knowledge_base/chapters/ch08_relationships.md", "md_atom_type": "LIST_ITEM", "md_parent_section": "§8.5 [Relating Comments to a Parent Domain]", "md_verbatim": "3. Comments related to specific domain record(s) for a subject would populate the RDOMAIN, IDVAR, and IDVARVAL variables with values that identify the specific parent record(s).", "score": 0.3357, "match_basis": "verbatim_token+chapter_route:ch08"}, {"md_atom_id": "md_ch08_a173", "md_file": "knowledge_base/chapters/ch08_relationships.md", "md_atom_type": "LIST_ITEM", "md_parent_section": "§8.4 [Relating Non-standard Variable Values to a Parent Domain]", "md_verbatim": "- See Appendix C1, Supplemental Qualifiers Name Codes, for controlled terminology for QNAM and QLABEL for some of the most common supplemental qualifiers. Additional QNAM values may be created as needed, following the guidelines provided in the CDISC Notes for QVAL", "score": 0.3339, "match_basis": "verbatim_token+chapter_route:ch08"}], "candidate_count": 5, "zero_candidate": false}
{"pdf_atom_id": "ig34_p0434_a027", "pdf_atom_type": "LIST_ITEM", "pdf_source": "SDTMIG_v3.4", "pdf_page": 434, "pdf_parent_section": "§8.5 Relating Comments to a Parent Domain", "pdf_verbatim": "2.     Timing variables (e.g., VISITNUM, VISIT) may be added to the CO special-purpose domain. See Section 5.1, Comments, assumption 5 for a complete list of identifier and timing variables that can be added to the CO special-purpose domain.", "figure_ref": null, "candidates": [{"md_atom_id": "md_ch08_a218", "md_file": "knowledge_base/chapters/ch08_relationships.md", "md_atom_type": "LIST_ITEM", "md_parent_section": "§8.5 [Relating Comments to a Parent Domain]", "md_verbatim": "2. Timing variables (e.g., VISITNUM, VISIT) may be added to the CO special-purpose domain. See Section 5.1, Comments, assumption 5 for a complete list of identifier and timing variables that can be added to the CO special-purpose domain.", "score": 0.9, "match_basis": "verbatim_token+chapter_route:ch08"}, {"md_atom_id": "md_ch08_a215", "md_file": "knowledge_base/chapters/ch08_relationships.md", "md_atom_type": "LIST_ITEM", "md_parent_section": "§8.5 [Relating Comments to a Parent Domain]", "md_verbatim": "3. Comments related to specific domain record(s) for a subject would populate the RDOMAIN, IDVAR, and IDVARVAL variables with values that identify the specific parent record(s).", "score": 0.4691, "match_basis": "verbatim_token+chapter_route:ch08"}, {"md_atom_id": "md_ch08_a021", "md_file": "knowledge_base/chapters/ch08_relationships.md", "md_atom_type": "LIST_ITEM", "md_parent_section": "§8 [Representing Relationships and Data]", "md_verbatim": "- The grouping identifier (--GRPID) variable, used to link related records for a subject within a domain, is explained in Section 8.1.", "score": 0.4431, "match_basis": "verbatim_token+chapter_route:ch08"}, {"md_atom_id": "md_ch08_a010", "md_file": "knowledge_base/chapters/ch08_relationships.md", "md_atom_type": "LIST_ITEM", "md_parent_section": "§8 [Representing Relationships and Data]", "md_verbatim": "- **Section 8.4**, Relating Non-standard Variable Values to a Parent Domain — the method for representing the dependent relationship where data that cannot be represented by a standard variable within DM or a GOC domain record can be related back to that record", "score": 0.4136, "match_basis": "verbatim_token+chapter_route:ch08"}, {"md_atom_id": "md_ch08_a020", "md_file": "knowledge_base/chapters/ch08_relationships.md", "md_atom_type": "LIST_ITEM", "md_parent_section": "§8 [Representing Relationships and Data]", "md_verbatim": "- The reference identifier (--REFID) variable can be used to capture a sponsor-defined or external identifier, such as lab-specimen identifiers and ECG identifiers. --REFID is permissible in all general observation-class domains, but is never required. Values are sponsor-defined.", "score": 0.412, "match_basis": "verbatim_token+chapter_route:ch08"}], "candidate_count": 5, "zero_candidate": false}
{"pdf_atom_id": "ig34_p0434_a028", "pdf_atom_type": "SENTENCE", "pdf_source": "SDTMIG_v3.4", "pdf_page": 434, "pdf_parent_section": "§8.5 Relating Comments to a Parent Domain", "pdf_verbatim": "As with Supplemental Qualifiers (SUPP--) and Related Records (RELREC), --GRPID and other grouping variables can be used as the value in IDVAR to identify comments with relationships to multiple domain records, for example a comment that applies to a group of concomitant medications, perhaps taken as a combination therapy.", "figure_ref": null, "candidates": [{"md_atom_id": "md_ch08_a219", "md_file": "knowledge_base/chapters/ch08_relationships.md", "md_atom_type": "SENTENCE", "md_parent_section": "§8.5 [Relating Comments to a Parent Domain]", "md_verbatim": "As with Supplemental Qualifiers (SUPP--) and Related Records (RELREC), --GRPID and other grouping variables can be used as the value in IDVAR to identify comments with relationships to multiple domain records.", "score": 0.7095, "match_basis": "verbatim_token+chapter_route:ch08"}, {"md_atom_id": "md_ch08_a154", "md_file": "knowledge_base/chapters/ch08_relationships.md", "md_atom_type": "SENTENCE", "md_parent_section": "§8.4 [Relating Non-standard Variable Values to a Parent Domain]", "md_verbatim": "Just as use of the optional grouping identifier variable (--GRPID) can be a more efficient method of representing relationships in RELREC, it can also be used in a SUPP-- dataset to identify individual qualifier values (SUPP-- records) related to multiple general-observation class domain records that could be grouped, such as relating an attribution to a group of ECG measurements.", "score": 0.519, "match_basis": "verbatim_token+chapter_route:ch08"}, {"md_atom_id": "md_ch08_a030", "md_file": "knowledge_base/chapters/ch08_relationships.md", "md_atom_type": "SENTENCE", "md_parent_section": "§8.1.1 [--GRPID Example]", "md_verbatim": "The following table illustrates --GRPID used in the Concomitant Medications (CM) domain to identify a combination therapy.", "score": 0.5, "match_basis": "verbatim_token+chapter_route:ch08"}, {"md_atom_id": "md_ch08_a101", "md_file": "knowledge_base/chapters/ch08_relationships.md", "md_atom_type": "SENTENCE", "md_parent_section": "§8.2.2 [RELREC Dataset Examples]", "md_verbatim": "**Example 3:** Same scenario as Example 2, but the sponsor grouped the 2 concomitant medications in the CM domain using CMGRPID = \"COMBO 1\", allowing the relationship among these 5 records to be represented with 4, rather than 5, records in the RELREC dataset.", "score": 0.4988, "match_basis": "verbatim_token+chapter_route:ch08"}, {"md_atom_id": "md_ch08_a024", "md_file": "knowledge_base/chapters/ch08_relationships.md", "md_atom_type": "SENTENCE", "md_parent_section": "§8.1 [Relating Groups of Records Within a Domain Using --GRPID]", "md_verbatim": "It is used to identify relationships between records within a USUBJID within a single domain (e.g., intervention records for a combination therapy where treatments in the combination varies from subject to subject).", "score": 0.48, "match_basis": "verbatim_token+chapter_route:ch08"}], "candidate_count": 5, "zero_candidate": false}
{"pdf_atom_id": "ig34_p0435_a001", "pdf_atom_type": "SENTENCE", "pdf_source": "SDTMIG_v3.4", "pdf_page": 435, "pdf_parent_section": "§8.5 Relating Comments to a Parent Domain", "pdf_verbatim": "The limitation of this is that a single comment may only be related to a group of records in 1 domain (RDOMAIN can have only 1 value).", "figure_ref": null, "candidates": [{"md_atom_id": "md_ch08_a220", "md_file": "knowledge_base/chapters/ch08_relationships.md", "md_atom_type": "SENTENCE", "md_parent_section": "§8.5 [Relating Comments to a Parent Domain]", "md_verbatim": "The limitation of this is that a single comment may only be related to a group of records in 1 domain (RDOMAIN can have only 1 value).", "score": 0.9, "match_basis": "verbatim_token+chapter_route:ch08"}, {"md_atom_id": "md_ch08_a221", "md_file": "knowledge_base/chapters/ch08_relationships.md", "md_atom_type": "SENTENCE", "md_parent_section": "§8.5 [Relating Comments to a Parent Domain]", "md_verbatim": "If a single comment relates to records in multiple domains, the comment may need to be repeated in the CO special-purpose domain to facilitate the understanding of the relationships.", "score": 0.4935, "match_basis": "verbatim_token+chapter_route:ch08"}, {"md_atom_id": "md_ch08_a208", "md_file": "knowledge_base/chapters/ch08_relationships.md", "md_atom_type": "SENTENCE", "md_parent_section": "§8.5 [Relating Comments to a Parent Domain]", "md_verbatim": "Comments may be related to a subject, a domain for a subject, or to specific parent records in any domain.", "score": 0.4818, "match_basis": "verbatim_token+chapter_route:ch08"}, {"md_atom_id": "md_ch08_a219", "md_file": "knowledge_base/chapters/ch08_relationships.md", "md_atom_type": "SENTENCE", "md_parent_section": "§8.5 [Relating Comments to a Parent Domain]", "md_verbatim": "As with Supplemental Qualifiers (SUPP--) and Related Records (RELREC), --GRPID and other grouping variables can be used as the value in IDVAR to identify comments with relationships to multiple domain records.", "score": 0.4788, "match_basis": "verbatim_token+chapter_route:ch08"}, {"md_atom_id": "md_ch08_a216", "md_file": "knowledge_base/chapters/ch08_relationships.md", "md_atom_type": "SENTENCE", "md_parent_section": "§8.5 [Relating Comments to a Parent Domain]", "md_verbatim": "For additional information collected further describing the comment relationship to a parent record(s) that cannot be represented using the relationship variables RDOMAIN, IDVAR and IDVARVAL:", "score": 0.4556, "match_basis": "verbatim_token+chapter_route:ch08"}], "candidate_count": 5, "zero_candidate": false}
{"pdf_atom_id": "ig34_p0435_a002", "pdf_atom_type": "SENTENCE", "pdf_source": "SDTMIG_v3.4", "pdf_page": 435, "pdf_parent_section": "§8.5 Relating Comments to a Parent Domain", "pdf_verbatim": "If a single comment relates to records in multiple domains, the comment may need to be repeated in the CO special-purpose domain to facilitate the understanding of the relationships.", "figure_ref": null, "candidates": [{"md_atom_id": "md_ch08_a221", "md_file": "knowledge_base/chapters/ch08_relationships.md", "md_atom_type": "SENTENCE", "md_parent_section": "§8.5 [Relating Comments to a Parent Domain]", "md_verbatim": "If a single comment relates to records in multiple domains, the comment may need to be repeated in the CO special-purpose domain to facilitate the understanding of the relationships.", "score": 0.9, "match_basis": "verbatim_token+chapter_route:ch08"}, {"md_atom_id": "md_ch08_a220", "md_file": "knowledge_base/chapters/ch08_relationships.md", "md_atom_type": "SENTENCE", "md_parent_section": "§8.5 [Relating Comments to a Parent Domain]", "md_verbatim": "The limitation of this is that a single comment may only be related to a group of records in 1 domain (RDOMAIN can have only 1 value).", "score": 0.4935, "match_basis": "verbatim_token+chapter_route:ch08"}, {"md_atom_id": "md_ch08_a219", "md_file": "knowledge_base/chapters/ch08_relationships.md", "md_atom_type": "SENTENCE", "md_parent_section": "§8.5 [Relating Comments to a Parent Domain]", "md_verbatim": "As with Supplemental Qualifiers (SUPP--) and Related Records (RELREC), --GRPID and other grouping variables can be used as the value in IDVAR to identify comments with relationships to multiple domain records.", "score": 0.4805, "match_basis": "verbatim_token+chapter_route:ch08"}, {"md_atom_id": "md_ch08_a053", "md_file": "knowledge_base/chapters/ch08_relationships.md", "md_atom_type": "SENTENCE", "md_parent_section": "§8.2 [Relating Peer Records]", "md_verbatim": "The Related Records (RELREC) special-purpose dataset is used to describe relationships between records for a subject (as described in this section), and relationships between datasets (as described in Section 8.3, Relating Datasets).", "score": 0.4738, "match_basis": "verbatim_token+chapter_route:ch08"}, {"md_atom_id": "md_ch08_a110", "md_file": "knowledge_base/chapters/ch08_relationships.md", "md_atom_type": "SENTENCE", "md_parent_section": "§8.3 [Relating Datasets Using RELREC]", "md_verbatim": "The Related Records (RELREC) special-purpose dataset can also be used to identify relationships between datasets (e.g., a one-to-many or parent-child relationship).", "score": 0.4698, "match_basis": "verbatim_token+chapter_route:ch08"}], "candidate_count": 5, "zero_candidate": false}
{"pdf_atom_id": "ig34_p0435_a003", "pdf_atom_type": "SENTENCE", "pdf_source": "SDTMIG_v3.4", "pdf_page": 435, "pdf_parent_section": "§8.5 Relating Comments to a Parent Domain", "pdf_verbatim": "See examples for CO data in Section 5.1, Comments.", "figure_ref": null, "candidates": [{"md_atom_id": "md_ch08_a206", "md_file": "knowledge_base/chapters/ch08_relationships.md", "md_atom_type": "SENTENCE", "md_parent_section": "§8.5 [Relating Comments to a Parent Domain]", "md_verbatim": "The Comments (CO) special-purpose domain (see Section 5.1, Comments) is used to capture unstructured free-text comments.", "score": 0.4309, "match_basis": "verbatim_token+chapter_route:ch08"}, {"md_atom_id": "md_ch08_a227", "md_file": "knowledge_base/chapters/ch08_relationships.md", "md_atom_type": "SENTENCE", "md_parent_section": "§8.6.1 [Guidelines for Determining the General Observation Class]", "md_verbatim": "For example, from a structural standpoint, one might expect events observations to include a start and stop date.", "score": 0.4091, "match_basis": "verbatim_token+chapter_route:ch08"}, {"md_atom_id": "md_ch08_a185", "md_file": "knowledge_base/chapters/ch08_relationships.md", "md_atom_type": "SENTENCE", "md_parent_section": "§8.4.3 [Examples]", "md_verbatim": "These examples illustrate how a set of SUPP-- datasets could be used to relate non-standard information to a parent domain.", "score": 0.4075, "match_basis": "verbatim_token+chapter_route:ch08"}, {"md_atom_id": "md_ch08_a138", "md_file": "knowledge_base/chapters/ch08_relationships.md", "md_atom_type": "SENTENCE", "md_parent_section": "§8.4 [Relating Non-standard Variable Values to a Parent Domain]", "md_verbatim": "SUPP-- represents the metadata and data for each NSV/value combination.", "score": 0.4021, "match_basis": "verbatim_token+chapter_route:ch08"}, {"md_atom_id": "md_ch08_a200", "md_file": "knowledge_base/chapters/ch08_relationships.md", "md_atom_type": "SENTENCE", "md_parent_section": "§8.4.4 [When Not to Use Supplemental Qualifiers]", "md_verbatim": "The following are examples of data that should **not** be submitted as supplemental qualifiers:", "score": 0.4017, "match_basis": "verbatim_token+chapter_route:ch08"}], "candidate_count": 5, "zero_candidate": false}
{"pdf_atom_id": "ig34_p0435_a004", "pdf_atom_type": "HEADING", "pdf_source": "SDTMIG_v3.4", "pdf_page": 435, "pdf_parent_section": "§8 [REPRESENTING RELATIONSHIPS AND DATA]", "pdf_verbatim": "8.6 How to Determine Where Data Belong in SDTM-Compliant Data Tabulations", "figure_ref": null, "candidates": [{"md_atom_id": "md_ch08_a222", "md_file": "knowledge_base/chapters/ch08_relationships.md", "md_atom_type": "HEADING", "md_parent_section": "§8 [Representing Relationships and Data]", "md_verbatim": "## 8.6 Where Data Belong", "score": 0.4543, "match_basis": "verbatim_token+chapter_route:ch08"}, {"md_atom_id": "md_ch08_a001", "md_file": "knowledge_base/chapters/ch08_relationships.md", "md_atom_type": "HEADING", "md_parent_section": "§8 [Representing Relationships and Data]", "md_verbatim": "# SDTMIG v3.4 — Chapter 8: Representing Relationships and Data", "score": 0.4034, "match_basis": "verbatim_token+chapter_route:ch08"}, {"md_atom_id": "md_ch08_a223", "md_file": "knowledge_base/chapters/ch08_relationships.md", "md_atom_type": "HEADING", "md_parent_section": "§8.6 [Where Data Belong]", "md_verbatim": "### 8.6.1 Guidelines for Determining the General Observation Class", "score": 0.3984, "match_basis": "verbatim_token+chapter_route:ch08"}, {"md_atom_id": "md_ch08_a114", "md_file": "knowledge_base/chapters/ch08_relationships.md", "md_atom_type": "HEADING", "md_parent_section": "§8.3 [Relating Datasets Using RELREC]", "md_verbatim": "### 8.3.1 RELREC Dataset Relationship Example", "score": 0.396, "match_basis": "verbatim_token+chapter_route:ch08"}, {"md_atom_id": "md_ch08_a244", "md_file": "knowledge_base/chapters/ch08_relationships.md", "md_atom_type": "HEADING", "md_parent_section": "§8.6 [Where Data Belong]", "md_verbatim": "### 8.6.3 Guidelines for Differentiating Between Interventions, Events, Findings, and Findings About Events or Interventions", "score": 0.356, "match_basis": "verbatim_token+chapter_route:ch08"}], "candidate_count": 5, "zero_candidate": false}
{"pdf_atom_id": "ig34_p0435_a005", "pdf_atom_type": "HEADING", "pdf_source": "SDTMIG_v3.4", "pdf_page": 435, "pdf_parent_section": "§8.6 [HOW TO DETERMINE WHERE DATA BELONG IN SDTM-COMPLIANT DATA TABULATIONS]", "pdf_verbatim": "8.6.1 Guidelines for Determining the General Observation Class", "figure_ref": null, "candidates": [{"md_atom_id": "md_ch08_a223", "md_file": "knowledge_base/chapters/ch08_relationships.md", "md_atom_type": "HEADING", "md_parent_section": "§8.6 [Where Data Belong]", "md_verbatim": "### 8.6.1 Guidelines for Determining the General Observation Class", "score": 0.9, "match_basis": "verbatim_token+chapter_route:ch08"}, {"md_atom_id": "md_ch08_a242", "md_file": "knowledge_base/chapters/ch08_relationships.md", "md_atom_type": "HEADING", "md_parent_section": "§8.6 [Where Data Belong]", "md_verbatim": "### 8.6.2 Guidelines for Forming New Domains", "score": 0.4674, "match_basis": "verbatim_token+chapter_route:ch08"}, {"md_atom_id": "md_ch08_a244", "md_file": "knowledge_base/chapters/ch08_relationships.md", "md_atom_type": "HEADING", "md_parent_section": "§8.6 [Where Data Belong]", "md_verbatim": "### 8.6.3 Guidelines for Differentiating Between Interventions, Events, Findings, and Findings About Events or Interventions", "score": 0.4324, "match_basis": "verbatim_token+chapter_route:ch08"}, {"md_atom_id": "md_ch08_a001", "md_file": "knowledge_base/chapters/ch08_relationships.md", "md_atom_type": "HEADING", "md_parent_section": "§8 [Representing Relationships and Data]", "md_verbatim": "# SDTMIG v3.4 — Chapter 8: Representing Relationships and Data", "score": 0.3469, "match_basis": "verbatim_token+chapter_route:ch08"}, {"md_atom_id": "md_ch08_a283", "md_file": "knowledge_base/chapters/ch08_relationships.md", "md_atom_type": "HEADING", "md_parent_section": "§8.7 [Related Subjects (RELSUB)]", "md_verbatim": "### Assumptions", "score": 0.3429, "match_basis": "verbatim_token+chapter_route:ch08"}], "candidate_count": 5, "zero_candidate": false}
{"pdf_atom_id": "ig34_p0435_a006", "pdf_atom_type": "SENTENCE", "pdf_source": "SDTMIG_v3.4", "pdf_page": 435, "pdf_parent_section": "§8.6.1 Guidelines for Determining the General Observation Class", "pdf_verbatim": "Section 2.6, Creating a New Domain, discusses when to place data in an existing domain and how to create a new domain.", "figure_ref": null, "candidates": [{"md_atom_id": "md_ch08_a224", "md_file": "knowledge_base/chapters/ch08_relationships.md", "md_atom_type": "SENTENCE", "md_parent_section": "§8.6.1 [Guidelines for Determining the General Observation Class]", "md_verbatim": "Section 2.6, Creating a New Domain, discusses when to place data in an existing domain and how to create a new domain.", "score": 0.9, "match_basis": "verbatim_token+chapter_route:ch08"}, {"md_atom_id": "md_ch08_a243", "md_file": "knowledge_base/chapters/ch08_relationships.md", "md_atom_type": "SENTENCE", "md_parent_section": "§8.6.2 [Guidelines for Forming New Domains]", "md_verbatim": "When existing domains do not fit, follow the procedure in Section 2.6 (Creating a New Domain).", "score": 0.5538, "match_basis": "verbatim_token+chapter_route:ch08"}, {"md_atom_id": "md_ch08_a245", "md_file": "knowledge_base/chapters/ch08_relationships.md", "md_atom_type": "SENTENCE", "md_parent_section": "§8.6.3 [Guidelines for Differentiating Between Interventions, Events, Findings, and Findings About Events or Interventions]", "md_verbatim": "This section discusses events, findings, and findings about events.", "score": 0.4647, "match_basis": "verbatim_token+chapter_route:ch08"}, {"md_atom_id": "md_ch08_a248", "md_file": "knowledge_base/chapters/ch08_relationships.md", "md_atom_type": "SENTENCE", "md_parent_section": "§8.6.3 [Guidelines for Differentiating Between Interventions, Events, Findings, and Findings About Events or Interventions]", "md_verbatim": "This section discusses events and findings generally, but it is particularly useful for understanding the distinction between the Clinical Events (CE) and FA domains.", "score": 0.4355, "match_basis": "verbatim_token+chapter_route:ch08"}, {"md_atom_id": "md_ch08_a235", "md_file": "knowledge_base/chapters/ch08_relationships.md", "md_atom_type": "SENTENCE", "md_parent_section": "§8.6.1 [Guidelines for Determining the General Observation Class]", "md_verbatim": "Because many medical events must, by regulation, be treated as adverse events, a new Events domain will be created only for events that are clearly not adverse events; the existing Medical History (MH) and Clinical Events (CE) domains are the appropriate places to store most medical events that are not adverse events.", "score": 0.4282, "match_basis": "verbatim_token+chapter_route:ch08"}], "candidate_count": 5, "zero_candidate": false}
{"pdf_atom_id": "ig34_p0435_a007", "pdf_atom_type": "SENTENCE", "pdf_source": "SDTMIG_v3.4", "pdf_page": 435, "pdf_parent_section": "§8.6.1 Guidelines for Determining the General Observation Class", "pdf_verbatim": "A key part of the process of creating a new domain is determining whether an observation represents an event, an intervention, or a finding.", "figure_ref": null, "candidates": [{"md_atom_id": "md_ch08_a225", "md_file": "knowledge_base/chapters/ch08_relationships.md", "md_atom_type": "SENTENCE", "md_parent_section": "§8.6.1 [Guidelines for Determining the General Observation Class]", "md_verbatim": "A key part of the process of creating a new domain is determining whether an observation represents an event, an intervention, or a finding.", "score": 0.9, "match_basis": "verbatim_token+chapter_route:ch08"}, {"md_atom_id": "md_ch08_a247", "md_file": "knowledge_base/chapters/ch08_relationships.md", "md_atom_type": "SENTENCE", "md_parent_section": "§8.6.3 [Guidelines for Differentiating Between Interventions, Events, Findings, and Findings About Events or Interventions]", "md_verbatim": "The Findings About (FA) domain was initially created to represent findings about events, but can also be used for findings about interventions.", "score": 0.543, "match_basis": "verbatim_token+chapter_route:ch08"}, {"md_atom_id": "md_ch08_a266", "md_file": "knowledge_base/chapters/ch08_relationships.md", "md_atom_type": "SENTENCE", "md_parent_section": "§8.6.3 [Guidelines for Differentiating Between Interventions, Events, Findings, and Findings About Events or Interventions]", "md_verbatim": "A record in the Events general observation class is intended to represent the event as a whole.", "score": 0.4714, "match_basis": "verbatim_token+chapter_route:ch08"}, {"md_atom_id": "md_ch08_a257", "md_file": "knowledge_base/chapters/ch08_relationships.md", "md_atom_type": "SENTENCE", "md_parent_section": "§8.6.3 [Guidelines for Differentiating Between Interventions, Events, Findings, and Findings About Events or Interventions]", "md_verbatim": "The structure of the data being considered, although not definitive, will often help determine whether the data represent an event or a finding.", "score": 0.4592, "match_basis": "verbatim_token+chapter_route:ch08"}, {"md_atom_id": "md_ch08_a272", "md_file": "knowledge_base/chapters/ch08_relationships.md", "md_atom_type": "SENTENCE", "md_parent_section": "§8.6.3 [Guidelines for Differentiating Between Interventions, Events, Findings, and Findings About Events or Interventions]", "md_verbatim": "When data related to an event do not fit into one of the existing Event general observation class qualifiers, the first question to consider is whether the data represent information about the event itself, or about something (a finding or intervention) that is associated with the event.", "score": 0.4581, "match_basis": "verbatim_token+chapter_route:ch08"}], "candidate_count": 5, "zero_candidate": false}
{"pdf_atom_id": "ig34_p0435_a008", "pdf_atom_type": "SENTENCE", "pdf_source": "SDTMIG_v3.4", "pdf_page": 435, "pdf_parent_section": "§8.6.1 Guidelines for Determining the General Observation Class", "pdf_verbatim": "Begin by considering the content of the information in the light of the definitions of the 3 general observation classes (see Section 2.3, The General Observation Classes), rather than by trying to deduce the class from the information's physical structure; physical structure can sometimes be misleading.", "figure_ref": null, "candidates": [{"md_atom_id": "md_ch08_a226", "md_file": "knowledge_base/chapters/ch08_relationships.md", "md_atom_type": "SENTENCE", "md_parent_section": "§8.6.1 [Guidelines for Determining the General Observation Class]", "md_verbatim": "Begin by considering the content of the information in the light of the definitions of the 3 general observation classes (see Section 2.3, The General Observation Classes), rather than by trying to deduce the class from the information's physical structure; physical structure can sometimes be misleading.", "score": 0.9, "match_basis": "verbatim_token+chapter_route:ch08"}, {"md_atom_id": "md_ch08_a272", "md_file": "knowledge_base/chapters/ch08_relationships.md", "md_atom_type": "SENTENCE", "md_parent_section": "§8.6.3 [Guidelines for Differentiating Between Interventions, Events, Findings, and Findings About Events or Interventions]", "md_verbatim": "When data related to an event do not fit into one of the existing Event general observation class qualifiers, the first question to consider is whether the data represent information about the event itself, or about something (a finding or intervention) that is associated with the event.", "score": 0.4481, "match_basis": "verbatim_token+chapter_route:ch08"}, {"md_atom_id": "md_ch08_a238", "md_file": "knowledge_base/chapters/ch08_relationships.md", "md_atom_type": "SENTENCE", "md_parent_section": "§8.6.1 [Guidelines for Determining the General Observation Class]", "md_verbatim": "Findings general observation class data include measurements, tests, assessments, or examinations performed on a subject in the clinical trial.", "score": 0.4352, "match_basis": "verbatim_token+chapter_route:ch08"}, {"md_atom_id": "md_ch08_a183", "md_file": "knowledge_base/chapters/ch08_relationships.md", "md_atom_type": "SENTENCE", "md_parent_section": "§8.4.2 [Submitting Supplemental Qualifiers in Separate Datasets]", "md_verbatim": "See Section 4.5.3, Text Strings that Exceed the Maximum Length for General Observation-class Domain Variables, for information on representing data values greater than 200 characters in length.", "score": 0.4333, "match_basis": "verbatim_token+chapter_route:ch08"}, {"md_atom_id": "md_ch08_a120", "md_file": "knowledge_base/chapters/ch08_relationships.md", "md_atom_type": "SENTENCE", "md_parent_section": "§8.3.1 [RELREC Dataset Relationship Example]", "md_verbatim": "In the sponsor's operational database, these datasets may have existed as either separate datasets that were merged for analysis, or a single dataset that may have included observations from more than 1 general observation class (e.g., Events and Findings).", "score": 0.4208, "match_basis": "verbatim_token+chapter_route:ch08"}], "candidate_count": 5, "zero_candidate": false}
{"pdf_atom_id": "ig34_p0435_a009", "pdf_atom_type": "SENTENCE", "pdf_source": "SDTMIG_v3.4", "pdf_page": 435, "pdf_parent_section": "§8.6.1 Guidelines for Determining the General Observation Class", "pdf_verbatim": "For example, from a structural standpoint, one might expect events observations to include a start and stop date.", "figure_ref": null, "candidates": [{"md_atom_id": "md_ch08_a227", "md_file": "knowledge_base/chapters/ch08_relationships.md", "md_atom_type": "SENTENCE", "md_parent_section": "§8.6.1 [Guidelines for Determining the General Observation Class]", "md_verbatim": "For example, from a structural standpoint, one might expect events observations to include a start and stop date.", "score": 0.9, "match_basis": "verbatim_token+chapter_route:ch08"}, {"md_atom_id": "md_ch08_a122", "md_file": "knowledge_base/chapters/ch08_relationships.md", "md_atom_type": "SENTENCE", "md_parent_section": "§8.3.1 [RELREC Dataset Relationship Example]", "md_verbatim": "In this example, the --LNKID variable is used as the key to identify the related observations.", "score": 0.4259, "match_basis": "verbatim_token+chapter_route:ch08"}, {"md_atom_id": "md_ch08_a120", "md_file": "knowledge_base/chapters/ch08_relationships.md", "md_atom_type": "SENTENCE", "md_parent_section": "§8.3.1 [RELREC Dataset Relationship Example]", "md_verbatim": "In the sponsor's operational database, these datasets may have existed as either separate datasets that were merged for analysis, or a single dataset that may have included observations from more than 1 general observation class (e.g., Events and Findings).", "score": 0.4248, "match_basis": "verbatim_token+chapter_route:ch08"}, {"md_atom_id": "md_ch08_a238", "md_file": "knowledge_base/chapters/ch08_relationships.md", "md_atom_type": "SENTENCE", "md_parent_section": "§8.6.1 [Guidelines for Determining the General Observation Class]", "md_verbatim": "Findings general observation class data include measurements, tests, assessments, or examinations performed on a subject in the clinical trial.", "score": 0.4243, "match_basis": "verbatim_token+chapter_route:ch08"}, {"md_atom_id": "md_ch08_a226", "md_file": "knowledge_base/chapters/ch08_relationships.md", "md_atom_type": "SENTENCE", "md_parent_section": "§8.6.1 [Guidelines for Determining the General Observation Class]", "md_verbatim": "Begin by considering the content of the information in the light of the definitions of the 3 general observation classes (see Section 2.3, The General Observation Classes), rather than by trying to deduce the class from the information's physical structure; physical structure can sometimes be misleading.", "score": 0.4108, "match_basis": "verbatim_token+chapter_route:ch08"}], "candidate_count": 5, "zero_candidate": false}
{"pdf_atom_id": "ig34_p0435_a010", "pdf_atom_type": "SENTENCE", "pdf_source": "SDTMIG_v3.4", "pdf_page": 435, "pdf_parent_section": "§8.6.1 Guidelines for Determining the General Observation Class", "pdf_verbatim": "However, medical history data (data about previous conditions or events) is events data regardless of whether dates were collected.", "figure_ref": null, "candidates": [{"md_atom_id": "md_ch08_a228", "md_file": "knowledge_base/chapters/ch08_relationships.md", "md_atom_type": "SENTENCE", "md_parent_section": "§8.6.1 [Guidelines for Determining the General Observation Class]", "md_verbatim": "However, medical history data (data about previous conditions or events) is events data regardless of whether dates were collected.", "score": 0.9, "match_basis": "verbatim_token+chapter_route:ch08"}, {"md_atom_id": "md_ch08_a093", "md_file": "knowledge_base/chapters/ch08_relationships.md", "md_atom_type": "SENTENCE", "md_parent_section": "§8.2.2 [RELREC Dataset Examples]", "md_verbatim": "**Example 2:** Same scenario as Example 1, but in this case the way the data were collected indicated that the concomitant medications and laboratory findings were all in a single relationship to each other and the adverse event.", "score": 0.4563, "match_basis": "verbatim_token+chapter_route:ch08"}, {"md_atom_id": "md_ch08_a337", "md_file": "knowledge_base/chapters/ch08_relationships.md", "md_atom_type": "SENTENCE", "md_parent_section": "§8.8 [Related Specimens (RELSPEC)]", "md_verbatim": "SPEC reflects the specimen type for the sample regardless of whether it is collected or derived.", "score": 0.4446, "match_basis": "verbatim_token+chapter_route:ch08"}, {"md_atom_id": "md_ch08_a180", "md_file": "knowledge_base/chapters/ch08_relationships.md", "md_atom_type": "SENTENCE", "md_parent_section": "§8.4.2 [Submitting Supplemental Qualifiers in Separate Datasets]", "md_verbatim": "In cases where data about associated persons have been collected, supplemental qualifiers for Findings About events or interventions for an associated person may need to be represented (see the SDTMIG for Associated Persons).", "score": 0.4311, "match_basis": "verbatim_token+chapter_route:ch08"}, {"md_atom_id": "md_ch08_a082", "md_file": "knowledge_base/chapters/ch08_relationships.md", "md_atom_type": "SENTENCE", "md_parent_section": "§8.2.2 [RELREC Dataset Examples]", "md_verbatim": "**Example 1:** This example illustrates the use of the RELREC dataset to relate records stored in separate domains for USUBJID = \"123456\". This example represents a situation in which a single adverse event is part of 2 collected relationships, one with 2 concomitant medications and the other with 2 laboratory findings, but there is no collected relationship between the 2 laboratory findings and the 2 concomitant medications.", "score": 0.4252, "match_basis": "verbatim_token+chapter_route:ch08"}], "candidate_count": 5, "zero_candidate": false}
{"pdf_atom_id": "ig34_p0435_a011", "pdf_atom_type": "SENTENCE", "pdf_source": "SDTMIG_v3.4", "pdf_page": 435, "pdf_parent_section": "§8.6.1 Guidelines for Determining the General Observation Class", "pdf_verbatim": "An intervention is something that is done to a subject (possibly by the subject) that is expected to have a physiological effect.", "figure_ref": null, "candidates": [{"md_atom_id": "md_ch08_a229", "md_file": "knowledge_base/chapters/ch08_relationships.md", "md_atom_type": "SENTENCE", "md_parent_section": "§8.6.1 [Guidelines for Determining the General Observation Class]", "md_verbatim": "An intervention is something that is done to a subject (possibly by the subject) that is expected to have a physiological effect.", "score": 0.9, "match_basis": "verbatim_token+chapter_route:ch08"}, {"md_atom_id": "md_ch08_a240", "md_file": "knowledge_base/chapters/ch08_relationships.md", "md_atom_type": "SENTENCE", "md_parent_section": "§8.6.1 [Guidelines for Determining the General Observation Class]", "md_verbatim": "Sometimes the relationship between a subject and a finding is less direct; a finding may be about an event that happened to the subject or an intervention received.", "score": 0.4361, "match_basis": "verbatim_token+chapter_route:ch08"}, {"md_atom_id": "md_ch08_a233", "md_file": "knowledge_base/chapters/ch08_relationships.md", "md_atom_type": "SENTENCE", "md_parent_section": "§8.6.1 [Guidelines for Determining the General Observation Class]", "md_verbatim": "An event is something that happens to a subject spontaneously.", "score": 0.4352, "match_basis": "verbatim_token+chapter_route:ch08"}, {"md_atom_id": "md_ch08_a236", "md_file": "knowledge_base/chapters/ch08_relationships.md", "md_atom_type": "SENTENCE", "md_parent_section": "§8.6.1 [Guidelines for Determining the General Observation Class]", "md_verbatim": "Many aspects of medical events — including tests performed to evaluate them, interventions that may have caused them, and interventions given to treat them — may be collected in clinical trials.", "score": 0.42, "match_basis": "verbatim_token+chapter_route:ch08"}, {"md_atom_id": "md_ch08_a230", "md_file": "knowledge_base/chapters/ch08_relationships.md", "md_atom_type": "SENTENCE", "md_parent_section": "§8.6.1 [Guidelines for Determining the General Observation Class]", "md_verbatim": "This concept of intended effect makes interventions relatively easy to recognize, although there are gray areas around some testing procedures.", "score": 0.4009, "match_basis": "verbatim_token+chapter_route:ch08"}], "candidate_count": 5, "zero_candidate": false}
{"pdf_atom_id": "ig34_p0435_a012", "pdf_atom_type": "SENTENCE", "pdf_source": "SDTMIG_v3.4", "pdf_page": 435, "pdf_parent_section": "§8.6.1 Guidelines for Determining the General Observation Class", "pdf_verbatim": "This concept of intended effect makes interventions relatively easy to recognize, although there are gray areas around some testing procedures.", "figure_ref": null, "candidates": [{"md_atom_id": "md_ch08_a230", "md_file": "knowledge_base/chapters/ch08_relationships.md", "md_atom_type": "SENTENCE", "md_parent_section": "§8.6.1 [Guidelines for Determining the General Observation Class]", "md_verbatim": "This concept of intended effect makes interventions relatively easy to recognize, although there are gray areas around some testing procedures.", "score": 0.9, "match_basis": "verbatim_token+chapter_route:ch08"}, {"md_atom_id": "md_ch08_a232", "md_file": "knowledge_base/chapters/ch08_relationships.md", "md_atom_type": "SENTENCE", "md_parent_section": "§8.6.1 [Guidelines for Determining the General Observation Class]", "md_verbatim": "The measurements from such a testing procedure are findings, although some aspects of the procedure might be modeled as interventions.", "score": 0.4981, "match_basis": "verbatim_token+chapter_route:ch08"}, {"md_atom_id": "md_ch08_a240", "md_file": "knowledge_base/chapters/ch08_relationships.md", "md_atom_type": "SENTENCE", "md_parent_section": "§8.6.1 [Guidelines for Determining the General Observation Class]", "md_verbatim": "Sometimes the relationship between a subject and a finding is less direct; a finding may be about an event that happened to the subject or an intervention received.", "score": 0.4091, "match_basis": "verbatim_token+chapter_route:ch08"}, {"md_atom_id": "md_ch08_a024", "md_file": "knowledge_base/chapters/ch08_relationships.md", "md_atom_type": "SENTENCE", "md_parent_section": "§8.1 [Relating Groups of Records Within a Domain Using --GRPID]", "md_verbatim": "It is used to identify relationships between records within a USUBJID within a single domain (e.g., intervention records for a combination therapy where treatments in the combination varies from subject to subject).", "score": 0.4059, "match_basis": "verbatim_token+chapter_route:ch08"}, {"md_atom_id": "md_ch08_a225", "md_file": "knowledge_base/chapters/ch08_relationships.md", "md_atom_type": "SENTENCE", "md_parent_section": "§8.6.1 [Guidelines for Determining the General Observation Class]", "md_verbatim": "A key part of the process of creating a new domain is determining whether an observation represents an event, an intervention, or a finding.", "score": 0.4034, "match_basis": "verbatim_token+chapter_route:ch08"}], "candidate_count": 5, "zero_candidate": false}
{"pdf_atom_id": "ig34_p0435_a013", "pdf_atom_type": "SENTENCE", "pdf_source": "SDTMIG_v3.4", "pdf_page": 435, "pdf_parent_section": "§8.6.1 Guidelines for Determining the General Observation Class", "pdf_verbatim": "For example, exercise stress tests are designed to produce and then measure certain physiological effects.", "figure_ref": null, "candidates": [{"md_atom_id": "md_ch08_a231", "md_file": "knowledge_base/chapters/ch08_relationships.md", "md_atom_type": "SENTENCE", "md_parent_section": "§8.6.1 [Guidelines for Determining the General Observation Class]", "md_verbatim": "For example, exercise stress tests are designed to produce and then measure certain physiological effects.", "score": 0.9, "match_basis": "verbatim_token+chapter_route:ch08"}, {"md_atom_id": "md_ch08_a229", "md_file": "knowledge_base/chapters/ch08_relationships.md", "md_atom_type": "SENTENCE", "md_parent_section": "§8.6.1 [Guidelines for Determining the General Observation Class]", "md_verbatim": "An intervention is something that is done to a subject (possibly by the subject) that is expected to have a physiological effect.", "score": 0.398, "match_basis": "verbatim_token+chapter_route:ch08"}, {"md_atom_id": "md_ch08_a054", "md_file": "knowledge_base/chapters/ch08_relationships.md", "md_atom_type": "SENTENCE", "md_parent_section": "§8.2 [Relating Peer Records]", "md_verbatim": "In both cases, relationships represented in RELREC are collected relationships, either by explicit references or checkboxes on the CRF, or by design of the CRF (e.g., vital signs captured during an exercise stress test).", "score": 0.3916, "match_basis": "verbatim_token+chapter_route:ch08"}, {"md_atom_id": "md_ch08_a238", "md_file": "knowledge_base/chapters/ch08_relationships.md", "md_atom_type": "SENTENCE", "md_parent_section": "§8.6.1 [Guidelines for Determining the General Observation Class]", "md_verbatim": "Findings general observation class data include measurements, tests, assessments, or examinations performed on a subject in the clinical trial.", "score": 0.3793, "match_basis": "verbatim_token+chapter_route:ch08"}, {"md_atom_id": "md_ch08_a198", "md_file": "knowledge_base/chapters/ch08_relationships.md", "md_atom_type": "SENTENCE", "md_parent_section": "§8.4.3 [Examples]", "md_verbatim": "Additional examples may be found in the domain examples such as Section 5.2 Demographics, Examples 3 and 4, in Section 6.3.3, ECG Test Results, Example 1, and in Section 6.3.5.6, Laboratory Test Results, Example 1.", "score": 0.3699, "match_basis": "verbatim_token+chapter_route:ch08"}], "candidate_count": 5, "zero_candidate": false}
{"pdf_atom_id": "ig34_p0435_a014", "pdf_atom_type": "SENTENCE", "pdf_source": "SDTMIG_v3.4", "pdf_page": 435, "pdf_parent_section": "§8.6.1 Guidelines for Determining the General Observation Class", "pdf_verbatim": "The measurements from such a testing procedure are findings, although some aspects of the procedure might be modeled as interventions.", "figure_ref": null, "candidates": [{"md_atom_id": "md_ch08_a232", "md_file": "knowledge_base/chapters/ch08_relationships.md", "md_atom_type": "SENTENCE", "md_parent_section": "§8.6.1 [Guidelines for Determining the General Observation Class]", "md_verbatim": "The measurements from such a testing procedure are findings, although some aspects of the procedure might be modeled as interventions.", "score": 0.9, "match_basis": "verbatim_token+chapter_route:ch08"}, {"md_atom_id": "md_ch08_a230", "md_file": "knowledge_base/chapters/ch08_relationships.md", "md_atom_type": "SENTENCE", "md_parent_section": "§8.6.1 [Guidelines for Determining the General Observation Class]", "md_verbatim": "This concept of intended effect makes interventions relatively easy to recognize, although there are gray areas around some testing procedures.", "score": 0.4981, "match_basis": "verbatim_token+chapter_route:ch08"}, {"md_atom_id": "md_ch08_a241", "md_file": "knowledge_base/chapters/ch08_relationships.md", "md_atom_type": "SENTENCE", "md_parent_section": "§8.6.1 [Guidelines for Determining the General Observation Class]", "md_verbatim": "Findings about events and interventions are discussed further in Section 8.6.3, Guidelines for Differentiating Between Interventions, Events, Findings, and Findings About Events or Interventions.", "score": 0.434, "match_basis": "verbatim_token+chapter_route:ch08"}, {"md_atom_id": "md_ch08_a225", "md_file": "knowledge_base/chapters/ch08_relationships.md", "md_atom_type": "SENTENCE", "md_parent_section": "§8.6.1 [Guidelines for Determining the General Observation Class]", "md_verbatim": "A key part of the process of creating a new domain is determining whether an observation represents an event, an intervention, or a finding.", "score": 0.426, "match_basis": "verbatim_token+chapter_route:ch08"}, {"md_atom_id": "md_ch08_a238", "md_file": "knowledge_base/chapters/ch08_relationships.md", "md_atom_type": "SENTENCE", "md_parent_section": "§8.6.1 [Guidelines for Determining the General Observation Class]", "md_verbatim": "Findings general observation class data include measurements, tests, assessments, or examinations performed on a subject in the clinical trial.", "score": 0.4241, "match_basis": "verbatim_token+chapter_route:ch08"}], "candidate_count": 5, "zero_candidate": false}
{"pdf_atom_id": "ig34_p0435_a015", "pdf_atom_type": "SENTENCE", "pdf_source": "SDTMIG_v3.4", "pdf_page": 435, "pdf_parent_section": "§8.6.1 Guidelines for Determining the General Observation Class", "pdf_verbatim": "An event is something that happens to a subject spontaneously.", "figure_ref": null, "candidates": [{"md_atom_id": "md_ch08_a233", "md_file": "knowledge_base/chapters/ch08_relationships.md", "md_atom_type": "SENTENCE", "md_parent_section": "§8.6.1 [Guidelines for Determining the General Observation Class]", "md_verbatim": "An event is something that happens to a subject spontaneously.", "score": 0.9, "match_basis": "verbatim_token+chapter_route:ch08"}, {"md_atom_id": "md_ch08_a250", "md_file": "knowledge_base/chapters/ch08_relationships.md", "md_atom_type": "SENTENCE", "md_parent_section": "§8.6.3 [Guidelines for Differentiating Between Interventions, Events, Findings, and Findings About Events or Interventions]", "md_verbatim": "Although an \"event\" is generally perceived as something that happens spontaneously, and has a beginning and end, one should consider the following:", "score": 0.5127, "match_basis": "verbatim_token+chapter_route:ch08"}, {"md_atom_id": "md_ch08_a229", "md_file": "knowledge_base/chapters/ch08_relationships.md", "md_atom_type": "SENTENCE", "md_parent_section": "§8.6.1 [Guidelines for Determining the General Observation Class]", "md_verbatim": "An intervention is something that is done to a subject (possibly by the subject) that is expected to have a physiological effect.", "score": 0.4352, "match_basis": "verbatim_token+chapter_route:ch08"}, {"md_atom_id": "md_ch08_a240", "md_file": "knowledge_base/chapters/ch08_relationships.md", "md_atom_type": "SENTENCE", "md_parent_section": "§8.6.1 [Guidelines for Determining the General Observation Class]", "md_verbatim": "Sometimes the relationship between a subject and a finding is less direct; a finding may be about an event that happened to the subject or an intervention received.", "score": 0.435, "match_basis": "verbatim_token+chapter_route:ch08"}, {"md_atom_id": "md_ch08_a027", "md_file": "knowledge_base/chapters/ch08_relationships.md", "md_atom_type": "SENTENCE", "md_parent_section": "§8.1 [Relating Groups of Records Within a Domain Using --GRPID]", "md_verbatim": "It is important to note that --GRPID has no inherent meaning across subjects or across domains.", "score": 0.3937, "match_basis": "verbatim_token+chapter_route:ch08"}], "candidate_count": 5, "zero_candidate": false}
{"pdf_atom_id": "ig34_p0435_a016", "pdf_atom_type": "SENTENCE", "pdf_source": "SDTMIG_v3.4", "pdf_page": 435, "pdf_parent_section": "§8.6.1 Guidelines for Determining the General Observation Class", "pdf_verbatim": "Most, although not all, events data captured in clinical trials is about medical events.", "figure_ref": null, "candidates": [{"md_atom_id": "md_ch08_a234", "md_file": "knowledge_base/chapters/ch08_relationships.md", "md_atom_type": "SENTENCE", "md_parent_section": "§8.6.1 [Guidelines for Determining the General Observation Class]", "md_verbatim": "Most, although not all, events data captured in clinical trials is about medical events.", "score": 0.9, "match_basis": "verbatim_token+chapter_route:ch08"}, {"md_atom_id": "md_ch08_a257", "md_file": "knowledge_base/chapters/ch08_relationships.md", "md_atom_type": "SENTENCE", "md_parent_section": "§8.6.3 [Guidelines for Differentiating Between Interventions, Events, Findings, and Findings About Events or Interventions]", "md_verbatim": "The structure of the data being considered, although not definitive, will often help determine whether the data represent an event or a finding.", "score": 0.4091, "match_basis": "verbatim_token+chapter_route:ch08"}, {"md_atom_id": "md_ch08_a236", "md_file": "knowledge_base/chapters/ch08_relationships.md", "md_atom_type": "SENTENCE", "md_parent_section": "§8.6.1 [Guidelines for Determining the General Observation Class]", "md_verbatim": "Many aspects of medical events — including tests performed to evaluate them, interventions that may have caused them, and interventions given to treat them — may be collected in clinical trials.", "score": 0.403, "match_basis": "verbatim_token+chapter_route:ch08"}, {"md_atom_id": "md_ch08_a228", "md_file": "knowledge_base/chapters/ch08_relationships.md", "md_atom_type": "SENTENCE", "md_parent_section": "§8.6.1 [Guidelines for Determining the General Observation Class]", "md_verbatim": "However, medical history data (data about previous conditions or events) is events data regardless of whether dates were collected.", "score": 0.3988, "match_basis": "verbatim_token+chapter_route:ch08"}, {"md_atom_id": "md_ch08_a144", "md_file": "knowledge_base/chapters/ch08_relationships.md", "md_atom_type": "SENTENCE", "md_parent_section": "§8.4 [Relating Non-standard Variable Values to a Parent Domain]", "md_verbatim": "SUPP-- datasets are also used to capture **attributions**.", "score": 0.3947, "match_basis": "verbatim_token+chapter_route:ch08"}], "candidate_count": 5, "zero_candidate": false}
{"pdf_atom_id": "ig34_p0435_a017", "pdf_atom_type": "SENTENCE", "pdf_source": "SDTMIG_v3.4", "pdf_page": 435, "pdf_parent_section": "§8.6.1 Guidelines for Determining the General Observation Class", "pdf_verbatim": "Because many medical events must, by regulation, be treated as adverse events, a new Events domain will be created only for events that are clearly not adverse events; the existing Medical History (MH) and Clinical Events (CE) domains are the appropriate places to store most medical events that are not adverse events.", "figure_ref": null, "candidates": [{"md_atom_id": "md_ch08_a235", "md_file": "knowledge_base/chapters/ch08_relationships.md", "md_atom_type": "SENTENCE", "md_parent_section": "§8.6.1 [Guidelines for Determining the General Observation Class]", "md_verbatim": "Because many medical events must, by regulation, be treated as adverse events, a new Events domain will be created only for events that are clearly not adverse events; the existing Medical History (MH) and Clinical Events (CE) domains are the appropriate places to store most medical events that are not adverse events.", "score": 0.9, "match_basis": "verbatim_token+chapter_route:ch08"}, {"md_atom_id": "md_ch08_a236", "md_file": "knowledge_base/chapters/ch08_relationships.md", "md_atom_type": "SENTENCE", "md_parent_section": "§8.6.1 [Guidelines for Determining the General Observation Class]", "md_verbatim": "Many aspects of medical events — including tests performed to evaluate them, interventions that may have caused them, and interventions given to treat them — may be collected in clinical trials.", "score": 0.4433, "match_basis": "verbatim_token+chapter_route:ch08"}, {"md_atom_id": "md_ch08_a248", "md_file": "knowledge_base/chapters/ch08_relationships.md", "md_atom_type": "SENTENCE", "md_parent_section": "§8.6.3 [Guidelines for Differentiating Between Interventions, Events, Findings, and Findings About Events or Interventions]", "md_verbatim": "This section discusses events and findings generally, but it is particularly useful for understanding the distinction between the Clinical Events (CE) and FA domains.", "score": 0.4333, "match_basis": "verbatim_token+chapter_route:ch08"}, {"md_atom_id": "md_ch08_a224", "md_file": "knowledge_base/chapters/ch08_relationships.md", "md_atom_type": "SENTENCE", "md_parent_section": "§8.6.1 [Guidelines for Determining the General Observation Class]", "md_verbatim": "Section 2.6, Creating a New Domain, discusses when to place data in an existing domain and how to create a new domain.", "score": 0.4282, "match_basis": "verbatim_token+chapter_route:ch08"}, {"md_atom_id": "md_ch08_a243", "md_file": "knowledge_base/chapters/ch08_relationships.md", "md_atom_type": "SENTENCE", "md_parent_section": "§8.6.2 [Guidelines for Forming New Domains]", "md_verbatim": "When existing domains do not fit, follow the procedure in Section 2.6 (Creating a New Domain).", "score": 0.4212, "match_basis": "verbatim_token+chapter_route:ch08"}], "candidate_count": 5, "zero_candidate": false}
{"pdf_atom_id": "ig34_p0435_a018", "pdf_atom_type": "SENTENCE", "pdf_source": "SDTMIG_v3.4", "pdf_page": 435, "pdf_parent_section": "§8.6.1 Guidelines for Determining the General Observation Class", "pdf_verbatim": "Many aspects of medical events—including tests performed to evaluate them, interventions that may have caused them, and interventions given to treat them—may be collected in clinical trials.", "figure_ref": null, "candidates": [{"md_atom_id": "md_ch08_a236", "md_file": "knowledge_base/chapters/ch08_relationships.md", "md_atom_type": "SENTENCE", "md_parent_section": "§8.6.1 [Guidelines for Determining the General Observation Class]", "md_verbatim": "Many aspects of medical events — including tests performed to evaluate them, interventions that may have caused them, and interventions given to treat them — may be collected in clinical trials.", "score": 0.9, "match_basis": "verbatim_token+chapter_route:ch08"}, {"md_atom_id": "md_ch08_a238", "md_file": "knowledge_base/chapters/ch08_relationships.md", "md_atom_type": "SENTENCE", "md_parent_section": "§8.6.1 [Guidelines for Determining the General Observation Class]", "md_verbatim": "Findings general observation class data include measurements, tests, assessments, or examinations performed on a subject in the clinical trial.", "score": 0.4623, "match_basis": "verbatim_token+chapter_route:ch08"}, {"md_atom_id": "md_ch08_a247", "md_file": "knowledge_base/chapters/ch08_relationships.md", "md_atom_type": "SENTENCE", "md_parent_section": "§8.6.3 [Guidelines for Differentiating Between Interventions, Events, Findings, and Findings About Events or Interventions]", "md_verbatim": "The Findings About (FA) domain was initially created to represent findings about events, but can also be used for findings about interventions.", "score": 0.4486, "match_basis": "verbatim_token+chapter_route:ch08"}, {"md_atom_id": "md_ch08_a235", "md_file": "knowledge_base/chapters/ch08_relationships.md", "md_atom_type": "SENTENCE", "md_parent_section": "§8.6.1 [Guidelines for Determining the General Observation Class]", "md_verbatim": "Because many medical events must, by regulation, be treated as adverse events, a new Events domain will be created only for events that are clearly not adverse events; the existing Medical History (MH) and Clinical Events (CE) domains are the appropriate places to store most medical events that are not adverse events.", "score": 0.4433, "match_basis": "verbatim_token+chapter_route:ch08"}, {"md_atom_id": "md_ch08_a180", "md_file": "knowledge_base/chapters/ch08_relationships.md", "md_atom_type": "SENTENCE", "md_parent_section": "§8.4.2 [Submitting Supplemental Qualifiers in Separate Datasets]", "md_verbatim": "In cases where data about associated persons have been collected, supplemental qualifiers for Findings About events or interventions for an associated person may need to be represented (see the SDTMIG for Associated Persons).", "score": 0.4308, "match_basis": "verbatim_token+chapter_route:ch08"}], "candidate_count": 5, "zero_candidate": false}
{"pdf_atom_id": "ig34_p0435_a019", "pdf_atom_type": "SENTENCE", "pdf_source": "SDTMIG_v3.4", "pdf_page": 435, "pdf_parent_section": "§8.6.1 Guidelines for Determining the General Observation Class", "pdf_verbatim": "Where to place data on assessments of events can be particularly challenging, and is discussed further in Section 8.6.3, Guidelines for Differentiating Between Interventions, Events, Findings, and Findings About Events or Interventions.", "figure_ref": null, "candidates": [{"md_atom_id": "md_ch08_a237", "md_file": "knowledge_base/chapters/ch08_relationships.md", "md_atom_type": "SENTENCE", "md_parent_section": "§8.6.1 [Guidelines for Determining the General Observation Class]", "md_verbatim": "Where to place data on assessments of events can be particularly challenging, and is discussed further in Section 8.6.3, Guidelines for Differentiating Between Interventions, Events, Findings, and Findings About Events or Interventions.", "score": 0.9, "match_basis": "verbatim_token+chapter_route:ch08"}, {"md_atom_id": "md_ch08_a241", "md_file": "knowledge_base/chapters/ch08_relationships.md", "md_atom_type": "SENTENCE", "md_parent_section": "§8.6.1 [Guidelines for Determining the General Observation Class]", "md_verbatim": "Findings about events and interventions are discussed further in Section 8.6.3, Guidelines for Differentiating Between Interventions, Events, Findings, and Findings About Events or Interventions.", "score": 0.6957, "match_basis": "verbatim_token+chapter_route:ch08"}, {"md_atom_id": "md_ch08_a248", "md_file": "knowledge_base/chapters/ch08_relationships.md", "md_atom_type": "SENTENCE", "md_parent_section": "§8.6.3 [Guidelines for Differentiating Between Interventions, Events, Findings, and Findings About Events or Interventions]", "md_verbatim": "This section discusses events and findings generally, but it is particularly useful for understanding the distinction between the Clinical Events (CE) and FA domains.", "score": 0.5031, "match_basis": "verbatim_token+chapter_route:ch08"}, {"md_atom_id": "md_ch08_a246", "md_file": "knowledge_base/chapters/ch08_relationships.md", "md_atom_type": "SENTENCE", "md_parent_section": "§8.6.3 [Guidelines for Differentiating Between Interventions, Events, Findings, and Findings About Events or Interventions]", "md_verbatim": "The relationship between interventions, findings, and findings about interventions would be handled similarly.", "score": 0.4691, "match_basis": "verbatim_token+chapter_route:ch08"}, {"md_atom_id": "md_ch08_a245", "md_file": "knowledge_base/chapters/ch08_relationships.md", "md_atom_type": "SENTENCE", "md_parent_section": "§8.6.3 [Guidelines for Differentiating Between Interventions, Events, Findings, and Findings About Events or Interventions]", "md_verbatim": "This section discusses events, findings, and findings about events.", "score": 0.4642, "match_basis": "verbatim_token+chapter_route:ch08"}], "candidate_count": 5, "zero_candidate": false}
{"pdf_atom_id": "ig34_p0435_a020", "pdf_atom_type": "SENTENCE", "pdf_source": "SDTMIG_v3.4", "pdf_page": 435, "pdf_parent_section": "§8.6.1 Guidelines for Determining the General Observation Class", "pdf_verbatim": "Findings general observation class data include measurements, tests, assessments, or examinations performed on a subject in the clinical trial.", "figure_ref": null, "candidates": [{"md_atom_id": "md_ch08_a238", "md_file": "knowledge_base/chapters/ch08_relationships.md", "md_atom_type": "SENTENCE", "md_parent_section": "§8.6.1 [Guidelines for Determining the General Observation Class]", "md_verbatim": "Findings general observation class data include measurements, tests, assessments, or examinations performed on a subject in the clinical trial.", "score": 0.9, "match_basis": "verbatim_token+chapter_route:ch08"}, {"md_atom_id": "md_ch08_a236", "md_file": "knowledge_base/chapters/ch08_relationships.md", "md_atom_type": "SENTENCE", "md_parent_section": "§8.6.1 [Guidelines for Determining the General Observation Class]", "md_verbatim": "Many aspects of medical events — including tests performed to evaluate them, interventions that may have caused them, and interventions given to treat them — may be collected in clinical trials.", "score": 0.4623, "match_basis": "verbatim_token+chapter_route:ch08"}, {"md_atom_id": "md_ch08_a120", "md_file": "knowledge_base/chapters/ch08_relationships.md", "md_atom_type": "SENTENCE", "md_parent_section": "§8.3.1 [RELREC Dataset Relationship Example]", "md_verbatim": "In the sponsor's operational database, these datasets may have existed as either separate datasets that were merged for analysis, or a single dataset that may have included observations from more than 1 general observation class (e.g., Events and Findings).", "score": 0.46, "match_basis": "verbatim_token+chapter_route:ch08"}, {"md_atom_id": "md_ch08_a004", "md_file": "knowledge_base/chapters/ch08_relationships.md", "md_atom_type": "SENTENCE", "md_parent_section": "§8 [Representing Relationships and Data]", "md_verbatim": "The defined variables of the SDTM general observation classes could restrict the ability of sponsors to represent all the data they wish to submit.", "score": 0.4475, "match_basis": "verbatim_token+chapter_route:ch08"}, {"md_atom_id": "md_ch08_a136", "md_file": "knowledge_base/chapters/ch08_relationships.md", "md_atom_type": "SENTENCE", "md_parent_section": "§8.4 [Relating Non-standard Variable Values to a Parent Domain]", "md_verbatim": "Therefore, the Supplemental Qualifiers special-purpose dataset model is used to capture non-standard variables (NSVs) and their association to parent records in general-observation class datasets (Events, Findings, Interventions), Demographics (DM), and Subject Visits (SV).", "score": 0.442, "match_basis": "verbatim_token+chapter_route:ch08"}], "candidate_count": 5, "zero_candidate": false}
{"pdf_atom_id": "ig34_p0435_a021", "pdf_atom_type": "SENTENCE", "pdf_source": "SDTMIG_v3.4", "pdf_page": 435, "pdf_parent_section": "§8.6.1 Guidelines for Determining the General Observation Class", "pdf_verbatim": "These may be performed on the subject as a whole (e.g., height, heart rate), or on a specimen taken from a subject (e.g., blood sample, ECG tracing, tissue sample).", "figure_ref": null, "candidates": [{"md_atom_id": "md_ch08_a239", "md_file": "knowledge_base/chapters/ch08_relationships.md", "md_atom_type": "SENTENCE", "md_parent_section": "§8.6.1 [Guidelines for Determining the General Observation Class]", "md_verbatim": "These may be performed on the subject as a whole (e.g., height, heart rate), or on a specimen taken from a subject (e.g., blood sample, ECG tracing, tissue sample).", "score": 0.9, "match_basis": "verbatim_token+chapter_route:ch08"}, {"md_atom_id": "md_ch08_a332", "md_file": "knowledge_base/chapters/ch08_relationships.md", "md_atom_type": "SENTENCE", "md_parent_section": "§8.8 [Related Specimens (RELSPEC)]", "md_verbatim": "Example 1: This example uses the sample specimen lineage illustrated below.", "score": 0.4105, "match_basis": "verbatim_token+chapter_route:ch08"}, {"md_atom_id": "md_ch08_a335", "md_file": "knowledge_base/chapters/ch08_relationships.md", "md_atom_type": "SENTENCE", "md_parent_section": "§8.8 [Related Specimens (RELSPEC)]", "md_verbatim": "A specimen with a LEVEL value of \"1\" and a blank value for PARENT indicates a collected sample.", "score": 0.3929, "match_basis": "verbatim_token+chapter_route:ch08"}, {"md_atom_id": "md_ch08_a337", "md_file": "knowledge_base/chapters/ch08_relationships.md", "md_atom_type": "SENTENCE", "md_parent_section": "§8.8 [Related Specimens (RELSPEC)]", "md_verbatim": "SPEC reflects the specimen type for the sample regardless of whether it is collected or derived.", "score": 0.3918, "match_basis": "verbatim_token+chapter_route:ch08"}, {"md_atom_id": "md_ch08_a208", "md_file": "knowledge_base/chapters/ch08_relationships.md", "md_atom_type": "SENTENCE", "md_parent_section": "§8.5 [Relating Comments to a Parent Domain]", "md_verbatim": "Comments may be related to a subject, a domain for a subject, or to specific parent records in any domain.", "score": 0.3889, "match_basis": "verbatim_token+chapter_route:ch08"}], "candidate_count": 5, "zero_candidate": false}
{"pdf_atom_id": "ig34_p0435_a022", "pdf_atom_type": "SENTENCE", "pdf_source": "SDTMIG_v3.4", "pdf_page": 435, "pdf_parent_section": "§8.6.1 Guidelines for Determining the General Observation Class", "pdf_verbatim": "Sometimes the relationship between a subject and a finding is less direct; a finding may be about an event that happened to the subject or an intervention received.", "figure_ref": null, "candidates": [{"md_atom_id": "md_ch08_a240", "md_file": "knowledge_base/chapters/ch08_relationships.md", "md_atom_type": "SENTENCE", "md_parent_section": "§8.6.1 [Guidelines for Determining the General Observation Class]", "md_verbatim": "Sometimes the relationship between a subject and a finding is less direct; a finding may be about an event that happened to the subject or an intervention received.", "score": 0.9, "match_basis": "verbatim_token+chapter_route:ch08"}, {"md_atom_id": "md_ch08_a246", "md_file": "knowledge_base/chapters/ch08_relationships.md", "md_atom_type": "SENTENCE", "md_parent_section": "§8.6.3 [Guidelines for Differentiating Between Interventions, Events, Findings, and Findings About Events or Interventions]", "md_verbatim": "The relationship between interventions, findings, and findings about interventions would be handled similarly.", "score": 0.5475, "match_basis": "verbatim_token+chapter_route:ch08"}, {"md_atom_id": "md_ch08_a241", "md_file": "knowledge_base/chapters/ch08_relationships.md", "md_atom_type": "SENTENCE", "md_parent_section": "§8.6.1 [Guidelines for Determining the General Observation Class]", "md_verbatim": "Findings about events and interventions are discussed further in Section 8.6.3, Guidelines for Differentiating Between Interventions, Events, Findings, and Findings About Events or Interventions.", "score": 0.4758, "match_basis": "verbatim_token+chapter_route:ch08"}, {"md_atom_id": "md_ch08_a084", "md_file": "knowledge_base/chapters/ch08_relationships.md", "md_atom_type": "SENTENCE", "md_parent_section": "§8.2.2 [RELREC Dataset Examples]", "md_verbatim": "**Rows 4-6:** Show the representation of a relationship between the same AE record and 2 laboratory findings records.", "score": 0.4648, "match_basis": "verbatim_token+chapter_route:ch08"}, {"md_atom_id": "md_ch08_a024", "md_file": "knowledge_base/chapters/ch08_relationships.md", "md_atom_type": "SENTENCE", "md_parent_section": "§8.1 [Relating Groups of Records Within a Domain Using --GRPID]", "md_verbatim": "It is used to identify relationships between records within a USUBJID within a single domain (e.g., intervention records for a combination therapy where treatments in the combination varies from subject to subject).", "score": 0.4603, "match_basis": "verbatim_token+chapter_route:ch08"}], "candidate_count": 5, "zero_candidate": false}
{"pdf_atom_id": "ig34_p0435_a023", "pdf_atom_type": "SENTENCE", "pdf_source": "SDTMIG_v3.4", "pdf_page": 435, "pdf_parent_section": "§8.6.1 Guidelines for Determining the General Observation Class", "pdf_verbatim": "Findings about events and interventions are discussed further in Section 8.6.3, Guidelines for Differentiating Between Interventions, Events, Findings, and Findings About Events or Interventions.", "figure_ref": null, "candidates": [{"md_atom_id": "md_ch08_a241", "md_file": "knowledge_base/chapters/ch08_relationships.md", "md_atom_type": "SENTENCE", "md_parent_section": "§8.6.1 [Guidelines for Determining the General Observation Class]", "md_verbatim": "Findings about events and interventions are discussed further in Section 8.6.3, Guidelines for Differentiating Between Interventions, Events, Findings, and Findings About Events or Interventions.", "score": 0.9, "match_basis": "verbatim_token+chapter_route:ch08"}, {"md_atom_id": "md_ch08_a237", "md_file": "knowledge_base/chapters/ch08_relationships.md", "md_atom_type": "SENTENCE", "md_parent_section": "§8.6.1 [Guidelines for Determining the General Observation Class]", "md_verbatim": "Where to place data on assessments of events can be particularly challenging, and is discussed further in Section 8.6.3, Guidelines for Differentiating Between Interventions, Events, Findings, and Findings About Events or Interventions.", "score": 0.6957, "match_basis": "verbatim_token+chapter_route:ch08"}, {"md_atom_id": "md_ch08_a245", "md_file": "knowledge_base/chapters/ch08_relationships.md", "md_atom_type": "SENTENCE", "md_parent_section": "§8.6.3 [Guidelines for Differentiating Between Interventions, Events, Findings, and Findings About Events or Interventions]", "md_verbatim": "This section discusses events, findings, and findings about events.", "score": 0.5273, "match_basis": "verbatim_token+chapter_route:ch08"}, {"md_atom_id": "md_ch08_a244", "md_file": "knowledge_base/chapters/ch08_relationships.md", "md_atom_type": "HEADING", "md_parent_section": "§8.6 [Where Data Belong]", "md_verbatim": "### 8.6.3 Guidelines for Differentiating Between Interventions, Events, Findings, and Findings About Events or Interventions", "score": 0.5076, "match_basis": "verbatim_token+chapter_route:ch08"}, {"md_atom_id": "md_ch08_a246", "md_file": "knowledge_base/chapters/ch08_relationships.md", "md_atom_type": "SENTENCE", "md_parent_section": "§8.6.3 [Guidelines for Differentiating Between Interventions, Events, Findings, and Findings About Events or Interventions]", "md_verbatim": "The relationship between interventions, findings, and findings about interventions would be handled similarly.", "score": 0.5024, "match_basis": "verbatim_token+chapter_route:ch08"}], "candidate_count": 5, "zero_candidate": false}
{"pdf_atom_id": "ig34_p0435_a024", "pdf_atom_type": "HEADING", "pdf_source": "SDTMIG_v3.4", "pdf_page": 435, "pdf_parent_section": "§8.6 [HOW TO DETERMINE WHERE DATA BELONG IN SDTM-COMPLIANT DATA TABULATIONS]", "pdf_verbatim": "8.6.2 Guidelines for Forming New Domains", "figure_ref": null, "candidates": [{"md_atom_id": "md_ch08_a242", "md_file": "knowledge_base/chapters/ch08_relationships.md", "md_atom_type": "HEADING", "md_parent_section": "§8.6 [Where Data Belong]", "md_verbatim": "### 8.6.2 Guidelines for Forming New Domains", "score": 0.9, "match_basis": "verbatim_token+chapter_route:ch08"}, {"md_atom_id": "md_ch08_a223", "md_file": "knowledge_base/chapters/ch08_relationships.md", "md_atom_type": "HEADING", "md_parent_section": "§8.6 [Where Data Belong]", "md_verbatim": "### 8.6.1 Guidelines for Determining the General Observation Class", "score": 0.4674, "match_basis": "verbatim_token+chapter_route:ch08"}, {"md_atom_id": "md_ch08_a244", "md_file": "knowledge_base/chapters/ch08_relationships.md", "md_atom_type": "HEADING", "md_parent_section": "§8.6 [Where Data Belong]", "md_verbatim": "### 8.6.3 Guidelines for Differentiating Between Interventions, Events, Findings, and Findings About Events or Interventions", "score": 0.4071, "match_basis": "verbatim_token+chapter_route:ch08"}, {"md_atom_id": "md_ch08_a205", "md_file": "knowledge_base/chapters/ch08_relationships.md", "md_atom_type": "HEADING", "md_parent_section": "§8 [Representing Relationships and Data]", "md_verbatim": "## 8.5 Relating Comments to a Parent Domain", "score": 0.3909, "match_basis": "verbatim_token+chapter_route:ch08"}, {"md_atom_id": "md_ch08_a022", "md_file": "knowledge_base/chapters/ch08_relationships.md", "md_atom_type": "HEADING", "md_parent_section": "§8 [Representing Relationships and Data]", "md_verbatim": "## 8.1 Relating Groups of Records Within a Domain Using --GRPID", "score": 0.3714, "match_basis": "verbatim_token+chapter_route:ch08"}], "candidate_count": 5, "zero_candidate": false}
{"pdf_atom_id": "ig34_p0435_a025", "pdf_atom_type": "SENTENCE", "pdf_source": "SDTMIG_v3.4", "pdf_page": 435, "pdf_parent_section": "§8.6.2 Guidelines for Forming New Domains", "pdf_verbatim": "It may not always be clear whether a set of data represents a single topic or more, and thus whether it should be combined into 1 domain or split into 2 or more domains.", "figure_ref": null, "candidates": [{"md_atom_id": "md_ch08_a064", "md_file": "knowledge_base/chapters/ch08_relationships.md", "md_atom_type": "SENTENCE", "md_parent_section": "§8.2 [Relating Peer Records]", "md_verbatim": "The RELREC dataset should be used to represent either:", "score": 0.4433, "match_basis": "verbatim_token+chapter_route:ch08"}, {"md_atom_id": "md_ch08_a138", "md_file": "knowledge_base/chapters/ch08_relationships.md", "md_atom_type": "SENTENCE", "md_parent_section": "§8.4 [Relating Non-standard Variable Values to a Parent Domain]", "md_verbatim": "SUPP-- represents the metadata and data for each NSV/value combination.", "score": 0.428, "match_basis": "verbatim_token+chapter_route:ch08"}, {"md_atom_id": "md_ch08_a225", "md_file": "knowledge_base/chapters/ch08_relationships.md", "md_atom_type": "SENTENCE", "md_parent_section": "§8.6.1 [Guidelines for Determining the General Observation Class]", "md_verbatim": "A key part of the process of creating a new domain is determining whether an observation represents an event, an intervention, or a finding.", "score": 0.4187, "match_basis": "verbatim_token+chapter_route:ch08"}, {"md_atom_id": "md_ch08_a258", "md_file": "knowledge_base/chapters/ch08_relationships.md", "md_atom_type": "SENTENCE", "md_parent_section": "§8.6.3 [Guidelines for Differentiating Between Interventions, Events, Findings, and Findings About Events or Interventions]", "md_verbatim": "The following table presents questions that may assist sponsors in deciding where data should be placed in SDTM.", "score": 0.4062, "match_basis": "verbatim_token+chapter_route:ch08"}, {"md_atom_id": "md_ch08_a257", "md_file": "knowledge_base/chapters/ch08_relationships.md", "md_atom_type": "SENTENCE", "md_parent_section": "§8.6.3 [Guidelines for Differentiating Between Interventions, Events, Findings, and Findings About Events or Interventions]", "md_verbatim": "The structure of the data being considered, although not definitive, will often help determine whether the data represent an event or a finding.", "score": 0.4029, "match_basis": "verbatim_token+chapter_route:ch08"}], "candidate_count": 5, "zero_candidate": false}
{"pdf_atom_id": "ig34_p0435_a026", "pdf_atom_type": "SENTENCE", "pdf_source": "SDTMIG_v3.4", "pdf_page": 435, "pdf_parent_section": "§8.6.2 Guidelines for Forming New Domains", "pdf_verbatim": "This implementation guide shows examples of both.", "figure_ref": null, "candidates": [{"md_atom_id": "md_ch08_a122", "md_file": "knowledge_base/chapters/ch08_relationships.md", "md_atom_type": "SENTENCE", "md_parent_section": "§8.3.1 [RELREC Dataset Relationship Example]", "md_verbatim": "In this example, the --LNKID variable is used as the key to identify the related observations.", "score": 0.4309, "match_basis": "verbatim_token+chapter_route:ch08"}, {"md_atom_id": "md_ch08_a200", "md_file": "knowledge_base/chapters/ch08_relationships.md", "md_atom_type": "SENTENCE", "md_parent_section": "§8.4.4 [When Not to Use Supplemental Qualifiers]", "md_verbatim": "The following are examples of data that should **not** be submitted as supplemental qualifiers:", "score": 0.4161, "match_basis": "verbatim_token+chapter_route:ch08"}, {"md_atom_id": "md_ch08_a033", "md_file": "knowledge_base/chapters/ch08_relationships.md", "md_atom_type": "SENTENCE", "md_parent_section": "§8.1.1 [--GRPID Example]", "md_verbatim": "This example illustrates how CMGRPID groups information only within a subject within a domain.", "score": 0.4031, "match_basis": "verbatim_token+chapter_route:ch08"}, {"md_atom_id": "md_ch08_a333", "md_file": "knowledge_base/chapters/ch08_relationships.md", "md_atom_type": "SENTENCE", "md_parent_section": "§8.8 [Related Specimens (RELSPEC)]", "md_verbatim": "**Figure. Sample Specimen Relationship**", "score": 0.3977, "match_basis": "verbatim_token+chapter_route:ch08"}, {"md_atom_id": "md_ch08_a332", "md_file": "knowledge_base/chapters/ch08_relationships.md", "md_atom_type": "SENTENCE", "md_parent_section": "§8.8 [Related Specimens (RELSPEC)]", "md_verbatim": "Example 1: This example uses the sample specimen lineage illustrated below.", "score": 0.3923, "match_basis": "verbatim_token+chapter_route:ch08"}], "candidate_count": 5, "zero_candidate": false}
{"pdf_atom_id": "ig34_p0435_a027", "pdf_atom_type": "SENTENCE", "pdf_source": "SDTMIG_v3.4", "pdf_page": 435, "pdf_parent_section": "§8.6.2 Guidelines for Forming New Domains", "pdf_verbatim": "In some cases, a single data structure works well for a variety of types of data.", "figure_ref": null, "candidates": [{"md_atom_id": "md_ch08_a141", "md_file": "knowledge_base/chapters/ch08_relationships.md", "md_atom_type": "SENTENCE", "md_parent_section": "§8.4 [Relating Non-standard Variable Values to a Parent Domain]", "md_verbatim": "The Supplemental Qualifiers dataset is structured similarly to the RELREC dataset, in that it uses the same set of keys to identify parent records.", "score": 0.3786, "match_basis": "verbatim_token+chapter_route:ch08"}, {"md_atom_id": "md_ch08_a257", "md_file": "knowledge_base/chapters/ch08_relationships.md", "md_atom_type": "SENTENCE", "md_parent_section": "§8.6.3 [Guidelines for Differentiating Between Interventions, Events, Findings, and Findings About Events or Interventions]", "md_verbatim": "The structure of the data being considered, although not definitive, will often help determine whether the data represent an event or a finding.", "score": 0.3682, "match_basis": "verbatim_token+chapter_route:ch08"}, {"md_atom_id": "md_ch08_a125", "md_file": "knowledge_base/chapters/ch08_relationships.md", "md_atom_type": "SENTENCE", "md_parent_section": "§8.3.1 [RELREC Dataset Relationship Example]", "md_verbatim": "The variable RELTYPE identifies the type of relationship between the datasets.", "score": 0.3646, "match_basis": "verbatim_token+chapter_route:ch08"}, {"md_atom_id": "md_ch08_a209", "md_file": "knowledge_base/chapters/ch08_relationships.md", "md_atom_type": "SENTENCE", "md_parent_section": "§8.5 [Relating Comments to a Parent Domain]", "md_verbatim": "The CO special-purpose domain is structured similarly to the Supplemental Qualifiers (SUPP--) dataset, in that it uses the same set of keys (STUDYID, RDOMAIN, USUBJID, IDVAR, and IDVARVAL) to identify related records.", "score": 0.3632, "match_basis": "verbatim_token+chapter_route:ch08"}, {"md_atom_id": "md_ch08_a123", "md_file": "knowledge_base/chapters/ch08_relationships.md", "md_atom_type": "SENTENCE", "md_parent_section": "§8.3.1 [RELREC Dataset Relationship Example]", "md_verbatim": "The values for the --LNKID variable in the 2 datasets are sponsor-defined.", "score": 0.3621, "match_basis": "verbatim_token+chapter_route:ch08"}], "candidate_count": 5, "zero_candidate": false}
{"pdf_atom_id": "ig34_p0435_a028", "pdf_atom_type": "SENTENCE", "pdf_source": "SDTMIG_v3.4", "pdf_page": 435, "pdf_parent_section": "§8.6.2 Guidelines for Forming New Domains", "pdf_verbatim": "For example, all questionnaire data are placed in the QS domain, with particular questionnaires identified by QSCAT (see Section 6.3.9, Questionnaires, Ratings, and Scales (QRS) Domains (FT, QS, RS)).", "figure_ref": null, "candidates": [{"md_atom_id": "md_ch08_a248", "md_file": "knowledge_base/chapters/ch08_relationships.md", "md_atom_type": "SENTENCE", "md_parent_section": "§8.6.3 [Guidelines for Differentiating Between Interventions, Events, Findings, and Findings About Events or Interventions]", "md_verbatim": "This section discusses events and findings generally, but it is particularly useful for understanding the distinction between the Clinical Events (CE) and FA domains.", "score": 0.4448, "match_basis": "verbatim_token+chapter_route:ch08"}, {"md_atom_id": "md_ch08_a224", "md_file": "knowledge_base/chapters/ch08_relationships.md", "md_atom_type": "SENTENCE", "md_parent_section": "§8.6.1 [Guidelines for Determining the General Observation Class]", "md_verbatim": "Section 2.6, Creating a New Domain, discusses when to place data in an existing domain and how to create a new domain.", "score": 0.4341, "match_basis": "verbatim_token+chapter_route:ch08"}, {"md_atom_id": "md_ch08_a237", "md_file": "knowledge_base/chapters/ch08_relationships.md", "md_atom_type": "SENTENCE", "md_parent_section": "§8.6.1 [Guidelines for Determining the General Observation Class]", "md_verbatim": "Where to place data on assessments of events can be particularly challenging, and is discussed further in Section 8.6.3, Guidelines for Differentiating Between Interventions, Events, Findings, and Findings About Events or Interventions.", "score": 0.4328, "match_basis": "verbatim_token+chapter_route:ch08"}, {"md_atom_id": "md_ch08_a185", "md_file": "knowledge_base/chapters/ch08_relationships.md", "md_atom_type": "SENTENCE", "md_parent_section": "§8.4.3 [Examples]", "md_verbatim": "These examples illustrate how a set of SUPP-- datasets could be used to relate non-standard information to a parent domain.", "score": 0.4282, "match_basis": "verbatim_token+chapter_route:ch08"}, {"md_atom_id": "md_ch08_a108", "md_file": "knowledge_base/chapters/ch08_relationships.md", "md_atom_type": "SENTENCE", "md_parent_section": "§8.2.2 [RELREC Dataset Examples]", "md_verbatim": "Additional examples may be found in the domain examples such as Section 6.2.4, Disposition, Example 4, and all of the Pharmacokinetics examples in Section 6.3.5.9.3, Relating PP Records to PC Records.", "score": 0.4245, "match_basis": "verbatim_token+chapter_route:ch08"}], "candidate_count": 5, "zero_candidate": false}
{"pdf_atom_id": "ig34_p0435_a029", "pdf_atom_type": "SENTENCE", "pdf_source": "SDTMIG_v3.4", "pdf_page": 435, "pdf_parent_section": "§8.6.2 Guidelines for Forming New Domains", "pdf_verbatim": "Although some operational databases may store urinalysis data in a separate dataset, the SDTM places all lab data in the LB domain (see Section 6.3.5.6, Laboratory Test Results (LB)) with urinalysis tests identified using LBSPEC.", "figure_ref": null, "candidates": [{"md_atom_id": "md_ch08_a198", "md_file": "knowledge_base/chapters/ch08_relationships.md", "md_atom_type": "SENTENCE", "md_parent_section": "§8.4.3 [Examples]", "md_verbatim": "Additional examples may be found in the domain examples such as Section 5.2 Demographics, Examples 3 and 4, in Section 6.3.3, ECG Test Results, Example 1, and in Section 6.3.5.6, Laboratory Test Results, Example 1.", "score": 0.4448, "match_basis": "verbatim_token+chapter_route:ch08"}, {"md_atom_id": "md_ch08_a120", "md_file": "knowledge_base/chapters/ch08_relationships.md", "md_atom_type": "SENTENCE", "md_parent_section": "§8.3.1 [RELREC Dataset Relationship Example]", "md_verbatim": "In the sponsor's operational database, these datasets may have existed as either separate datasets that were merged for analysis, or a single dataset that may have included observations from more than 1 general observation class (e.g., Events and Findings).", "score": 0.432, "match_basis": "verbatim_token+chapter_route:ch08"}, {"md_atom_id": "md_ch08_a082", "md_file": "knowledge_base/chapters/ch08_relationships.md", "md_atom_type": "SENTENCE", "md_parent_section": "§8.2.2 [RELREC Dataset Examples]", "md_verbatim": "**Example 1:** This example illustrates the use of the RELREC dataset to relate records stored in separate domains for USUBJID = \"123456\". This example represents a situation in which a single adverse event is part of 2 collected relationships, one with 2 concomitant medications and the other with 2 laboratory findings, but there is no collected relationship between the 2 laboratory findings and the 2 concomitant medications.", "score": 0.4143, "match_basis": "verbatim_token+chapter_route:ch08"}, {"md_atom_id": "md_ch08_a111", "md_file": "knowledge_base/chapters/ch08_relationships.md", "md_atom_type": "SENTENCE", "md_parent_section": "§8.3 [Relating Datasets Using RELREC]", "md_verbatim": "The relationship is defined by including a single record for each related dataset that identifies the key(s) of the dataset that can be used to relate the respective records.", "score": 0.4125, "match_basis": "verbatim_token+chapter_route:ch08"}, {"md_atom_id": "md_ch08_a023", "md_file": "knowledge_base/chapters/ch08_relationships.md", "md_atom_type": "SENTENCE", "md_parent_section": "§8.1 [Relating Groups of Records Within a Domain Using --GRPID]", "md_verbatim": "The optional grouping identifier variable --GRPID is Permissible in all domains that are based on the general observation classes.", "score": 0.4091, "match_basis": "verbatim_token+chapter_route:ch08"}], "candidate_count": 5, "zero_candidate": false}
{"pdf_atom_id": "ig34_p0435_a030", "pdf_atom_type": "SENTENCE", "pdf_source": "SDTMIG_v3.4", "pdf_page": 435, "pdf_parent_section": "§8.6.2 Guidelines for Forming New Domains", "pdf_verbatim": "In other cases, a particular topic may be very broad and/or require more than 1 data structure (and therefore require more than 1 dataset).", "figure_ref": null, "candidates": [{"md_atom_id": "md_ch08_a141", "md_file": "knowledge_base/chapters/ch08_relationships.md", "md_atom_type": "SENTENCE", "md_parent_section": "§8.4 [Relating Non-standard Variable Values to a Parent Domain]", "md_verbatim": "The Supplemental Qualifiers dataset is structured similarly to the RELREC dataset, in that it uses the same set of keys to identify parent records.", "score": 0.4085, "match_basis": "verbatim_token+chapter_route:ch08"}, {"md_atom_id": "md_ch08_a249", "md_file": "knowledge_base/chapters/ch08_relationships.md", "md_atom_type": "SENTENCE", "md_parent_section": "§8.6.3 [Guidelines for Differentiating Between Interventions, Events, Findings, and Findings About Events or Interventions]", "md_verbatim": "There may be several sources of confusion about whether a particular piece of data belongs in an Event record or a Findings record.", "score": 0.4011, "match_basis": "verbatim_token+chapter_route:ch08"}, {"md_atom_id": "md_ch08_a209", "md_file": "knowledge_base/chapters/ch08_relationships.md", "md_atom_type": "SENTENCE", "md_parent_section": "§8.5 [Relating Comments to a Parent Domain]", "md_verbatim": "The CO special-purpose domain is structured similarly to the Supplemental Qualifiers (SUPP--) dataset, in that it uses the same set of keys (STUDYID, RDOMAIN, USUBJID, IDVAR, and IDVARVAL) to identify related records.", "score": 0.3816, "match_basis": "verbatim_token+chapter_route:ch08"}, {"md_atom_id": "md_ch08_a237", "md_file": "knowledge_base/chapters/ch08_relationships.md", "md_atom_type": "SENTENCE", "md_parent_section": "§8.6.1 [Guidelines for Determining the General Observation Class]", "md_verbatim": "Where to place data on assessments of events can be particularly challenging, and is discussed further in Section 8.6.3, Guidelines for Differentiating Between Interventions, Events, Findings, and Findings About Events or Interventions.", "score": 0.3768, "match_basis": "verbatim_token+chapter_route:ch08"}, {"md_atom_id": "md_ch08_a120", "md_file": "knowledge_base/chapters/ch08_relationships.md", "md_atom_type": "SENTENCE", "md_parent_section": "§8.3.1 [RELREC Dataset Relationship Example]", "md_verbatim": "In the sponsor's operational database, these datasets may have existed as either separate datasets that were merged for analysis, or a single dataset that may have included observations from more than 1 general observation class (e.g., Events and Findings).", "score": 0.3762, "match_basis": "verbatim_token+chapter_route:ch08"}], "candidate_count": 5, "zero_candidate": false}
{"pdf_atom_id": "ig34_p0435_a031", "pdf_atom_type": "SENTENCE", "pdf_source": "SDTMIG_v3.4", "pdf_page": 435, "pdf_parent_section": "§8.6.2 Guidelines for Forming New Domains", "pdf_verbatim": "This implementation guide includes examples in microbiology and pharmacokinetics (see Section 6.3.5.7, Microbiology Domains, and Section 6.3.5.9, Pharmacokinetics Domains).", "figure_ref": null, "candidates": [{"md_atom_id": "md_ch08_a108", "md_file": "knowledge_base/chapters/ch08_relationships.md", "md_atom_type": "SENTENCE", "md_parent_section": "§8.2.2 [RELREC Dataset Examples]", "md_verbatim": "Additional examples may be found in the domain examples such as Section 6.2.4, Disposition, Example 4, and all of the Pharmacokinetics examples in Section 6.3.5.9.3, Relating PP Records to PC Records.", "score": 0.5044, "match_basis": "verbatim_token+chapter_route:ch08"}, {"md_atom_id": "md_ch08_a198", "md_file": "knowledge_base/chapters/ch08_relationships.md", "md_atom_type": "SENTENCE", "md_parent_section": "§8.4.3 [Examples]", "md_verbatim": "Additional examples may be found in the domain examples such as Section 5.2 Demographics, Examples 3 and 4, in Section 6.3.3, ECG Test Results, Example 1, and in Section 6.3.5.6, Laboratory Test Results, Example 1.", "score": 0.403, "match_basis": "verbatim_token+chapter_route:ch08"}, {"md_atom_id": "md_ch08_a033", "md_file": "knowledge_base/chapters/ch08_relationships.md", "md_atom_type": "SENTENCE", "md_parent_section": "§8.1.1 [--GRPID Example]", "md_verbatim": "This example illustrates how CMGRPID groups information only within a subject within a domain.", "score": 0.4021, "match_basis": "verbatim_token+chapter_route:ch08"}, {"md_atom_id": "md_ch08_a005", "md_file": "knowledge_base/chapters/ch08_relationships.md", "md_atom_type": "SENTENCE", "md_parent_section": "§8 [Representing Relationships and Data]", "md_verbatim": "Collected data that may not entirely fit includes relationships between records within a domain, records in separate domains, and sponsor-defined \"variables.\"", "score": 0.4008, "match_basis": "verbatim_token+chapter_route:ch08"}, {"md_atom_id": "md_ch08_a227", "md_file": "knowledge_base/chapters/ch08_relationships.md", "md_atom_type": "SENTENCE", "md_parent_section": "§8.6.1 [Guidelines for Determining the General Observation Class]", "md_verbatim": "For example, from a structural standpoint, one might expect events observations to include a start and stop date.", "score": 0.3941, "match_basis": "verbatim_token+chapter_route:ch08"}], "candidate_count": 5, "zero_candidate": false}
{"pdf_atom_id": "ig34_p0435_a032", "pdf_atom_type": "SENTENCE", "pdf_source": "SDTMIG_v3.4", "pdf_page": 435, "pdf_parent_section": "§8.6.2 Guidelines for Forming New Domains", "pdf_verbatim": "These examples use 2 domain datasets because within these scientific areas there is more than 1 topic, and each topic results in a different data structure.", "figure_ref": null, "candidates": [{"md_atom_id": "md_ch08_a185", "md_file": "knowledge_base/chapters/ch08_relationships.md", "md_atom_type": "SENTENCE", "md_parent_section": "§8.4.3 [Examples]", "md_verbatim": "These examples illustrate how a set of SUPP-- datasets could be used to relate non-standard information to a parent domain.", "score": 0.4485, "match_basis": "verbatim_token+chapter_route:ch08"}, {"md_atom_id": "md_ch08_a141", "md_file": "knowledge_base/chapters/ch08_relationships.md", "md_atom_type": "SENTENCE", "md_parent_section": "§8.4 [Relating Non-standard Variable Values to a Parent Domain]", "md_verbatim": "The Supplemental Qualifiers dataset is structured similarly to the RELREC dataset, in that it uses the same set of keys to identify parent records.", "score": 0.4211, "match_basis": "verbatim_token+chapter_route:ch08"}, {"md_atom_id": "md_ch08_a115", "md_file": "knowledge_base/chapters/ch08_relationships.md", "md_atom_type": "SENTENCE", "md_parent_section": "§8.3.1 [RELREC Dataset Relationship Example]", "md_verbatim": "**Example 1:** This example illustrates RELREC records used to represent the relationship between records in 2 datasets that have a one-to-many relationship. Note that because this is a dataset-to-dataset relationship, USUBJID and IDVARVAL are null.", "score": 0.42, "match_basis": "verbatim_token+chapter_route:ch08"}, {"md_atom_id": "md_ch08_a209", "md_file": "knowledge_base/chapters/ch08_relationships.md", "md_atom_type": "SENTENCE", "md_parent_section": "§8.5 [Relating Comments to a Parent Domain]", "md_verbatim": "The CO special-purpose domain is structured similarly to the Supplemental Qualifiers (SUPP--) dataset, in that it uses the same set of keys (STUDYID, RDOMAIN, USUBJID, IDVAR, and IDVARVAL) to identify related records.", "score": 0.4095, "match_basis": "verbatim_token+chapter_route:ch08"}, {"md_atom_id": "md_ch08_a132", "md_file": "knowledge_base/chapters/ch08_relationships.md", "md_atom_type": "SENTENCE", "md_parent_section": "§8.3.1 [RELREC Dataset Relationship Example]", "md_verbatim": "Because IDVAR identifies the keys that can be used to merge/join records between the datasets, --SEQ cannot be used.", "score": 0.403, "match_basis": "verbatim_token+chapter_route:ch08"}], "candidate_count": 5, "zero_candidate": false}
{"pdf_atom_id": "ig34_p0435_a033", "pdf_atom_type": "SENTENCE", "pdf_source": "SDTMIG_v3.4", "pdf_page": 435, "pdf_parent_section": "§8.6.2 Guidelines for Forming New Domains", "pdf_verbatim": "In the Pharmacokinetics domain example, the topic for PC is plasma (or other specimen) drug", "figure_ref": null, "candidates": [{"md_atom_id": "md_ch08_a108", "md_file": "knowledge_base/chapters/ch08_relationships.md", "md_atom_type": "SENTENCE", "md_parent_section": "§8.2.2 [RELREC Dataset Examples]", "md_verbatim": "Additional examples may be found in the domain examples such as Section 6.2.4, Disposition, Example 4, and all of the Pharmacokinetics examples in Section 6.3.5.9.3, Relating PP Records to PC Records.", "score": 0.4823, "match_basis": "verbatim_token+chapter_route:ch08"}, {"md_atom_id": "md_ch08_a332", "md_file": "knowledge_base/chapters/ch08_relationships.md", "md_atom_type": "SENTENCE", "md_parent_section": "§8.8 [Related Specimens (RELSPEC)]", "md_verbatim": "Example 1: This example uses the sample specimen lineage illustrated below.", "score": 0.4238, "match_basis": "verbatim_token+chapter_route:ch08"}, {"md_atom_id": "md_ch08_a337", "md_file": "knowledge_base/chapters/ch08_relationships.md", "md_atom_type": "SENTENCE", "md_parent_section": "§8.8 [Related Specimens (RELSPEC)]", "md_verbatim": "SPEC reflects the specimen type for the sample regardless of whether it is collected or derived.", "score": 0.4, "match_basis": "verbatim_token+chapter_route:ch08"}, {"md_atom_id": "md_ch08_a333", "md_file": "knowledge_base/chapters/ch08_relationships.md", "md_atom_type": "SENTENCE", "md_parent_section": "§8.8 [Related Specimens (RELSPEC)]", "md_verbatim": "**Figure. Sample Specimen Relationship**", "score": 0.3947, "match_basis": "verbatim_token+chapter_route:ch08"}, {"md_atom_id": "md_ch08_a033", "md_file": "knowledge_base/chapters/ch08_relationships.md", "md_atom_type": "SENTENCE", "md_parent_section": "§8.1.1 [--GRPID Example]", "md_verbatim": "This example illustrates how CMGRPID groups information only within a subject within a domain.", "score": 0.3825, "match_basis": "verbatim_token+chapter_route:ch08"}], "candidate_count": 5, "zero_candidate": false}
{"pdf_atom_id": "ig34_p0436_a001", "pdf_atom_type": "SENTENCE", "pdf_source": "SDTMIG_v3.4", "pdf_page": 436, "pdf_parent_section": "§8.6.2 Guidelines for Forming New Domains", "pdf_verbatim": "concentration as a function of time, and the structure is 1 record per analyte per time point per reference time point (e.g., dosing event) per subject.", "figure_ref": null, "candidates": [{"md_atom_id": "md_ch08_a227", "md_file": "knowledge_base/chapters/ch08_relationships.md", "md_atom_type": "SENTENCE", "md_parent_section": "§8.6.1 [Guidelines for Determining the General Observation Class]", "md_verbatim": "For example, from a structural standpoint, one might expect events observations to include a start and stop date.", "score": 0.4062, "match_basis": "verbatim_token+chapter_route:ch08"}, {"md_atom_id": "md_ch08_a240", "md_file": "knowledge_base/chapters/ch08_relationships.md", "md_atom_type": "SENTENCE", "md_parent_section": "§8.6.1 [Guidelines for Determining the General Observation Class]", "md_verbatim": "Sometimes the relationship between a subject and a finding is less direct; a finding may be about an event that happened to the subject or an intervention received.", "score": 0.4049, "match_basis": "verbatim_token+chapter_route:ch08"}, {"md_atom_id": "md_ch08_a319", "md_file": "knowledge_base/chapters/ch08_relationships.md", "md_atom_type": "SENTENCE", "md_parent_section": "§8.8 [Related Specimens (RELSPEC)]", "md_verbatim": "relspec.xpt, Related Specimens — Relationship. One record per specimen identifier per subject, Tabulation.", "score": 0.4047, "match_basis": "verbatim_token+chapter_route:ch08"}, {"md_atom_id": "md_ch08_a024", "md_file": "knowledge_base/chapters/ch08_relationships.md", "md_atom_type": "SENTENCE", "md_parent_section": "§8.1 [Relating Groups of Records Within a Domain Using --GRPID]", "md_verbatim": "It is used to identify relationships between records within a USUBJID within a single domain (e.g., intervention records for a combination therapy where treatments in the combination varies from subject to subject).", "score": 0.3958, "match_basis": "verbatim_token+chapter_route:ch08"}, {"md_atom_id": "md_ch08_a053", "md_file": "knowledge_base/chapters/ch08_relationships.md", "md_atom_type": "SENTENCE", "md_parent_section": "§8.2 [Relating Peer Records]", "md_verbatim": "The Related Records (RELREC) special-purpose dataset is used to describe relationships between records for a subject (as described in this section), and relationships between datasets (as described in Section 8.3, Relating Datasets).", "score": 0.3923, "match_basis": "verbatim_token+chapter_route:ch08"}], "candidate_count": 5, "zero_candidate": false}
{"pdf_atom_id": "ig34_p0436_a002", "pdf_atom_type": "SENTENCE", "pdf_source": "SDTMIG_v3.4", "pdf_page": 436, "pdf_parent_section": "§8.6.2 Guidelines for Forming New Domains", "pdf_verbatim": "PP contains characteristics of the time-concentration curve (e.g., AUC, Cmax, Tmax, half-life) and elimination rate constant; the structure is 1 record per parameter per analyte per reference time point per subject.", "figure_ref": null, "candidates": [{"md_atom_id": "md_ch08_a136", "md_file": "knowledge_base/chapters/ch08_relationships.md", "md_atom_type": "SENTENCE", "md_parent_section": "§8.4 [Relating Non-standard Variable Values to a Parent Domain]", "md_verbatim": "Therefore, the Supplemental Qualifiers special-purpose dataset model is used to capture non-standard variables (NSVs) and their association to parent records in general-observation class datasets (Events, Findings, Interventions), Demographics (DM), and Subject Visits (SV).", "score": 0.3928, "match_basis": "verbatim_token+chapter_route:ch08"}, {"md_atom_id": "md_ch08_a227", "md_file": "knowledge_base/chapters/ch08_relationships.md", "md_atom_type": "SENTENCE", "md_parent_section": "§8.6.1 [Guidelines for Determining the General Observation Class]", "md_verbatim": "For example, from a structural standpoint, one might expect events observations to include a start and stop date.", "score": 0.3877, "match_basis": "verbatim_token+chapter_route:ch08"}, {"md_atom_id": "md_ch08_a031", "md_file": "knowledge_base/chapters/ch08_relationships.md", "md_atom_type": "SENTENCE", "md_parent_section": "§8.1.1 [--GRPID Example]", "md_verbatim": "In this example, both subjects 1234 and 5678 have reported 2 combination therapies, each consisting of 3 separate medications.", "score": 0.3876, "match_basis": "verbatim_token+chapter_route:ch08"}, {"md_atom_id": "md_ch08_a024", "md_file": "knowledge_base/chapters/ch08_relationships.md", "md_atom_type": "SENTENCE", "md_parent_section": "§8.1 [Relating Groups of Records Within a Domain Using --GRPID]", "md_verbatim": "It is used to identify relationships between records within a USUBJID within a single domain (e.g., intervention records for a combination therapy where treatments in the combination varies from subject to subject).", "score": 0.3868, "match_basis": "verbatim_token+chapter_route:ch08"}, {"md_atom_id": "md_ch08_a055", "md_file": "knowledge_base/chapters/ch08_relationships.md", "md_atom_type": "SENTENCE", "md_parent_section": "§8.2 [Relating Peer Records]", "md_verbatim": "A relationship is defined by adding a record to RELREC for each record to be related and by assigning a unique character identifier value for the relationship.", "score": 0.3857, "match_basis": "verbatim_token+chapter_route:ch08"}], "candidate_count": 5, "zero_candidate": false}
{"pdf_atom_id": "ig34_p0436_a003", "pdf_atom_type": "HEADING", "pdf_source": "SDTMIG_v3.4", "pdf_page": 436, "pdf_parent_section": "§8.6 [HOW TO DETERMINE WHERE DATA BELONG IN SDTM-COMPLIANT DATA TABULATIONS]", "pdf_verbatim": "8.6.3 Guidelines for Differentiating Between Interventions, Events, Findings, and Findings About Events or Interventions", "figure_ref": null, "candidates": [{"md_atom_id": "md_ch08_a244", "md_file": "knowledge_base/chapters/ch08_relationships.md", "md_atom_type": "HEADING", "md_parent_section": "§8.6 [Where Data Belong]", "md_verbatim": "### 8.6.3 Guidelines for Differentiating Between Interventions, Events, Findings, and Findings About Events or Interventions", "score": 0.9, "match_basis": "verbatim_token+chapter_route:ch08"}, {"md_atom_id": "md_ch08_a223", "md_file": "knowledge_base/chapters/ch08_relationships.md", "md_atom_type": "HEADING", "md_parent_section": "§8.6 [Where Data Belong]", "md_verbatim": "### 8.6.1 Guidelines for Determining the General Observation Class", "score": 0.4324, "match_basis": "verbatim_token+chapter_route:ch08"}, {"md_atom_id": "md_ch08_a242", "md_file": "knowledge_base/chapters/ch08_relationships.md", "md_atom_type": "HEADING", "md_parent_section": "§8.6 [Where Data Belong]", "md_verbatim": "### 8.6.2 Guidelines for Forming New Domains", "score": 0.4071, "match_basis": "verbatim_token+chapter_route:ch08"}, {"md_atom_id": "md_ch08_a001", "md_file": "knowledge_base/chapters/ch08_relationships.md", "md_atom_type": "HEADING", "md_parent_section": "§8 [Representing Relationships and Data]", "md_verbatim": "# SDTMIG v3.4 — Chapter 8: Representing Relationships and Data", "score": 0.3857, "match_basis": "verbatim_token+chapter_route:ch08"}, {"md_atom_id": "md_ch08_a205", "md_file": "knowledge_base/chapters/ch08_relationships.md", "md_atom_type": "HEADING", "md_parent_section": "§8 [Representing Relationships and Data]", "md_verbatim": "## 8.5 Relating Comments to a Parent Domain", "score": 0.36, "match_basis": "verbatim_token+chapter_route:ch08"}], "candidate_count": 5, "zero_candidate": false}
{"pdf_atom_id": "ig34_p0436_a004", "pdf_atom_type": "SENTENCE", "pdf_source": "SDTMIG_v3.4", "pdf_page": 436, "pdf_parent_section": "§8.6.3 Guidelines for Differentiating Between Interventions, Events, Findings, and Findings About Events or Interventions", "pdf_verbatim": "This section discusses events, findings, and findings about events.", "figure_ref": null, "candidates": [{"md_atom_id": "md_ch08_a245", "md_file": "knowledge_base/chapters/ch08_relationships.md", "md_atom_type": "SENTENCE", "md_parent_section": "§8.6.3 [Guidelines for Differentiating Between Interventions, Events, Findings, and Findings About Events or Interventions]", "md_verbatim": "This section discusses events, findings, and findings about events.", "score": 0.9, "match_basis": "verbatim_token+chapter_route:ch08"}, {"md_atom_id": "md_ch08_a241", "md_file": "knowledge_base/chapters/ch08_relationships.md", "md_atom_type": "SENTENCE", "md_parent_section": "§8.6.1 [Guidelines for Determining the General Observation Class]", "md_verbatim": "Findings about events and interventions are discussed further in Section 8.6.3, Guidelines for Differentiating Between Interventions, Events, Findings, and Findings About Events or Interventions.", "score": 0.5273, "match_basis": "verbatim_token+chapter_route:ch08"}, {"md_atom_id": "md_ch08_a248", "md_file": "knowledge_base/chapters/ch08_relationships.md", "md_atom_type": "SENTENCE", "md_parent_section": "§8.6.3 [Guidelines for Differentiating Between Interventions, Events, Findings, and Findings About Events or Interventions]", "md_verbatim": "This section discusses events and findings generally, but it is particularly useful for understanding the distinction between the Clinical Events (CE) and FA domains.", "score": 0.4875, "match_basis": "verbatim_token+chapter_route:ch08"}, {"md_atom_id": "md_ch08_a224", "md_file": "knowledge_base/chapters/ch08_relationships.md", "md_atom_type": "SENTENCE", "md_parent_section": "§8.6.1 [Guidelines for Determining the General Observation Class]", "md_verbatim": "Section 2.6, Creating a New Domain, discusses when to place data in an existing domain and how to create a new domain.", "score": 0.4647, "match_basis": "verbatim_token+chapter_route:ch08"}, {"md_atom_id": "md_ch08_a237", "md_file": "knowledge_base/chapters/ch08_relationships.md", "md_atom_type": "SENTENCE", "md_parent_section": "§8.6.1 [Guidelines for Determining the General Observation Class]", "md_verbatim": "Where to place data on assessments of events can be particularly challenging, and is discussed further in Section 8.6.3, Guidelines for Differentiating Between Interventions, Events, Findings, and Findings About Events or Interventions.", "score": 0.4642, "match_basis": "verbatim_token+chapter_route:ch08"}], "candidate_count": 5, "zero_candidate": false}
{"pdf_atom_id": "ig34_p0436_a005", "pdf_atom_type": "SENTENCE", "pdf_source": "SDTMIG_v3.4", "pdf_page": 436, "pdf_parent_section": "§8.6.3 Guidelines for Differentiating Between Interventions, Events, Findings, and Findings About Events or Interventions", "pdf_verbatim": "The relationship between interventions, findings, and findings about interventions would be handled similarly.", "figure_ref": null, "candidates": [{"md_atom_id": "md_ch08_a246", "md_file": "knowledge_base/chapters/ch08_relationships.md", "md_atom_type": "SENTENCE", "md_parent_section": "§8.6.3 [Guidelines for Differentiating Between Interventions, Events, Findings, and Findings About Events or Interventions]", "md_verbatim": "The relationship between interventions, findings, and findings about interventions would be handled similarly.", "score": 0.9, "match_basis": "verbatim_token+chapter_route:ch08"}, {"md_atom_id": "md_ch08_a240", "md_file": "knowledge_base/chapters/ch08_relationships.md", "md_atom_type": "SENTENCE", "md_parent_section": "§8.6.1 [Guidelines for Determining the General Observation Class]", "md_verbatim": "Sometimes the relationship between a subject and a finding is less direct; a finding may be about an event that happened to the subject or an intervention received.", "score": 0.5475, "match_basis": "verbatim_token+chapter_route:ch08"}, {"md_atom_id": "md_ch08_a084", "md_file": "knowledge_base/chapters/ch08_relationships.md", "md_atom_type": "SENTENCE", "md_parent_section": "§8.2.2 [RELREC Dataset Examples]", "md_verbatim": "**Rows 4-6:** Show the representation of a relationship between the same AE record and 2 laboratory findings records.", "score": 0.5027, "match_basis": "verbatim_token+chapter_route:ch08"}, {"md_atom_id": "md_ch08_a241", "md_file": "knowledge_base/chapters/ch08_relationships.md", "md_atom_type": "SENTENCE", "md_parent_section": "§8.6.1 [Guidelines for Determining the General Observation Class]", "md_verbatim": "Findings about events and interventions are discussed further in Section 8.6.3, Guidelines for Differentiating Between Interventions, Events, Findings, and Findings About Events or Interventions.", "score": 0.5024, "match_basis": "verbatim_token+chapter_route:ch08"}, {"md_atom_id": "md_ch08_a237", "md_file": "knowledge_base/chapters/ch08_relationships.md", "md_atom_type": "SENTENCE", "md_parent_section": "§8.6.1 [Guidelines for Determining the General Observation Class]", "md_verbatim": "Where to place data on assessments of events can be particularly challenging, and is discussed further in Section 8.6.3, Guidelines for Differentiating Between Interventions, Events, Findings, and Findings About Events or Interventions.", "score": 0.4691, "match_basis": "verbatim_token+chapter_route:ch08"}], "candidate_count": 5, "zero_candidate": false}
{"pdf_atom_id": "ig34_p0436_a006", "pdf_atom_type": "SENTENCE", "pdf_source": "SDTMIG_v3.4", "pdf_page": 436, "pdf_parent_section": "§8.6.3 Guidelines for Differentiating Between Interventions, Events, Findings, and Findings About Events or Interventions", "pdf_verbatim": "The Findings About (FA) domain was initially created to represent findings about events, but can also be used for findings about interventions.", "figure_ref": null, "candidates": [{"md_atom_id": "md_ch08_a247", "md_file": "knowledge_base/chapters/ch08_relationships.md", "md_atom_type": "SENTENCE", "md_parent_section": "§8.6.3 [Guidelines for Differentiating Between Interventions, Events, Findings, and Findings About Events or Interventions]", "md_verbatim": "The Findings About (FA) domain was initially created to represent findings about events, but can also be used for findings about interventions.", "score": 0.9, "match_basis": "verbatim_token+chapter_route:ch08"}, {"md_atom_id": "md_ch08_a225", "md_file": "knowledge_base/chapters/ch08_relationships.md", "md_atom_type": "SENTENCE", "md_parent_section": "§8.6.1 [Guidelines for Determining the General Observation Class]", "md_verbatim": "A key part of the process of creating a new domain is determining whether an observation represents an event, an intervention, or a finding.", "score": 0.543, "match_basis": "verbatim_token+chapter_route:ch08"}, {"md_atom_id": "md_ch08_a180", "md_file": "knowledge_base/chapters/ch08_relationships.md", "md_atom_type": "SENTENCE", "md_parent_section": "§8.4.2 [Submitting Supplemental Qualifiers in Separate Datasets]", "md_verbatim": "In cases where data about associated persons have been collected, supplemental qualifiers for Findings About events or interventions for an associated person may need to be represented (see the SDTMIG for Associated Persons).", "score": 0.4829, "match_basis": "verbatim_token+chapter_route:ch08"}, {"md_atom_id": "md_ch08_a241", "md_file": "knowledge_base/chapters/ch08_relationships.md", "md_atom_type": "SENTENCE", "md_parent_section": "§8.6.1 [Guidelines for Determining the General Observation Class]", "md_verbatim": "Findings about events and interventions are discussed further in Section 8.6.3, Guidelines for Differentiating Between Interventions, Events, Findings, and Findings About Events or Interventions.", "score": 0.4733, "match_basis": "verbatim_token+chapter_route:ch08"}, {"md_atom_id": "md_ch08_a246", "md_file": "knowledge_base/chapters/ch08_relationships.md", "md_atom_type": "SENTENCE", "md_parent_section": "§8.6.3 [Guidelines for Differentiating Between Interventions, Events, Findings, and Findings About Events or Interventions]", "md_verbatim": "The relationship between interventions, findings, and findings about interventions would be handled similarly.", "score": 0.4575, "match_basis": "verbatim_token+chapter_route:ch08"}], "candidate_count": 5, "zero_candidate": false}
{"pdf_atom_id": "ig34_p0436_a007", "pdf_atom_type": "SENTENCE", "pdf_source": "SDTMIG_v3.4", "pdf_page": 436, "pdf_parent_section": "§8.6.3 Guidelines for Differentiating Between Interventions, Events, Findings, and Findings About Events or Interventions", "pdf_verbatim": "This section discusses events and findings generally, but it is particularly useful for understanding the distinction between the Clinical Events (CE) and FA domains.", "figure_ref": null, "candidates": [{"md_atom_id": "md_ch08_a248", "md_file": "knowledge_base/chapters/ch08_relationships.md", "md_atom_type": "SENTENCE", "md_parent_section": "§8.6.3 [Guidelines for Differentiating Between Interventions, Events, Findings, and Findings About Events or Interventions]", "md_verbatim": "This section discusses events and findings generally, but it is particularly useful for understanding the distinction between the Clinical Events (CE) and FA domains.", "score": 0.9, "match_basis": "verbatim_token+chapter_route:ch08"}, {"md_atom_id": "md_ch08_a237", "md_file": "knowledge_base/chapters/ch08_relationships.md", "md_atom_type": "SENTENCE", "md_parent_section": "§8.6.1 [Guidelines for Determining the General Observation Class]", "md_verbatim": "Where to place data on assessments of events can be particularly challenging, and is discussed further in Section 8.6.3, Guidelines for Differentiating Between Interventions, Events, Findings, and Findings About Events or Interventions.", "score": 0.5031, "match_basis": "verbatim_token+chapter_route:ch08"}, {"md_atom_id": "md_ch08_a245", "md_file": "knowledge_base/chapters/ch08_relationships.md", "md_atom_type": "SENTENCE", "md_parent_section": "§8.6.3 [Guidelines for Differentiating Between Interventions, Events, Findings, and Findings About Events or Interventions]", "md_verbatim": "This section discusses events, findings, and findings about events.", "score": 0.4875, "match_basis": "verbatim_token+chapter_route:ch08"}, {"md_atom_id": "md_ch08_a241", "md_file": "knowledge_base/chapters/ch08_relationships.md", "md_atom_type": "SENTENCE", "md_parent_section": "§8.6.1 [Guidelines for Determining the General Observation Class]", "md_verbatim": "Findings about events and interventions are discussed further in Section 8.6.3, Guidelines for Differentiating Between Interventions, Events, Findings, and Findings About Events or Interventions.", "score": 0.4706, "match_basis": "verbatim_token+chapter_route:ch08"}, {"md_atom_id": "md_ch08_a224", "md_file": "knowledge_base/chapters/ch08_relationships.md", "md_atom_type": "SENTENCE", "md_parent_section": "§8.6.1 [Guidelines for Determining the General Observation Class]", "md_verbatim": "Section 2.6, Creating a New Domain, discusses when to place data in an existing domain and how to create a new domain.", "score": 0.4355, "match_basis": "verbatim_token+chapter_route:ch08"}], "candidate_count": 5, "zero_candidate": false}
{"pdf_atom_id": "ig34_p0436_a008", "pdf_atom_type": "SENTENCE", "pdf_source": "SDTMIG_v3.4", "pdf_page": 436, "pdf_parent_section": "§8.6.3 Guidelines for Differentiating Between Interventions, Events, Findings, and Findings About Events or Interventions", "pdf_verbatim": "There may be several sources of confusion about whether a particular piece of data belongs in an Event record or a Findings record.", "figure_ref": null, "candidates": [{"md_atom_id": "md_ch08_a249", "md_file": "knowledge_base/chapters/ch08_relationships.md", "md_atom_type": "SENTENCE", "md_parent_section": "§8.6.3 [Guidelines for Differentiating Between Interventions, Events, Findings, and Findings About Events or Interventions]", "md_verbatim": "There may be several sources of confusion about whether a particular piece of data belongs in an Event record or a Findings record.", "score": 0.9, "match_basis": "verbatim_token+chapter_route:ch08"}, {"md_atom_id": "md_ch08_a237", "md_file": "knowledge_base/chapters/ch08_relationships.md", "md_atom_type": "SENTENCE", "md_parent_section": "§8.6.1 [Guidelines for Determining the General Observation Class]", "md_verbatim": "Where to place data on assessments of events can be particularly challenging, and is discussed further in Section 8.6.3, Guidelines for Differentiating Between Interventions, Events, Findings, and Findings About Events or Interventions.", "score": 0.4328, "match_basis": "verbatim_token+chapter_route:ch08"}, {"md_atom_id": "md_ch08_a248", "md_file": "knowledge_base/chapters/ch08_relationships.md", "md_atom_type": "SENTENCE", "md_parent_section": "§8.6.3 [Guidelines for Differentiating Between Interventions, Events, Findings, and Findings About Events or Interventions]", "md_verbatim": "This section discusses events and findings generally, but it is particularly useful for understanding the distinction between the Clinical Events (CE) and FA domains.", "score": 0.4125, "match_basis": "verbatim_token+chapter_route:ch08"}, {"md_atom_id": "md_ch08_a245", "md_file": "knowledge_base/chapters/ch08_relationships.md", "md_atom_type": "SENTENCE", "md_parent_section": "§8.6.3 [Guidelines for Differentiating Between Interventions, Events, Findings, and Findings About Events or Interventions]", "md_verbatim": "This section discusses events, findings, and findings about events.", "score": 0.4099, "match_basis": "verbatim_token+chapter_route:ch08"}, {"md_atom_id": "md_ch08_a228", "md_file": "knowledge_base/chapters/ch08_relationships.md", "md_atom_type": "SENTENCE", "md_parent_section": "§8.6.1 [Guidelines for Determining the General Observation Class]", "md_verbatim": "However, medical history data (data about previous conditions or events) is events data regardless of whether dates were collected.", "score": 0.4091, "match_basis": "verbatim_token+chapter_route:ch08"}], "candidate_count": 5, "zero_candidate": false}
{"pdf_atom_id": "ig34_p0436_a009", "pdf_atom_type": "SENTENCE", "pdf_source": "SDTMIG_v3.4", "pdf_page": 436, "pdf_parent_section": "§8.6.3 Guidelines for Differentiating Between Interventions, Events, Findings, and Findings About Events or Interventions", "pdf_verbatim": "Although an \"event\" is generally perceived as something that happens spontaneously, and has a beginning and end, one should consider the following:", "figure_ref": null, "candidates": [{"md_atom_id": "md_ch08_a250", "md_file": "knowledge_base/chapters/ch08_relationships.md", "md_atom_type": "SENTENCE", "md_parent_section": "§8.6.3 [Guidelines for Differentiating Between Interventions, Events, Findings, and Findings About Events or Interventions]", "md_verbatim": "Although an \"event\" is generally perceived as something that happens spontaneously, and has a beginning and end, one should consider the following:", "score": 0.9, "match_basis": "verbatim_token+chapter_route:ch08"}, {"md_atom_id": "md_ch08_a233", "md_file": "knowledge_base/chapters/ch08_relationships.md", "md_atom_type": "SENTENCE", "md_parent_section": "§8.6.1 [Guidelines for Determining the General Observation Class]", "md_verbatim": "An event is something that happens to a subject spontaneously.", "score": 0.5127, "match_basis": "verbatim_token+chapter_route:ch08"}, {"md_atom_id": "md_ch08_a240", "md_file": "knowledge_base/chapters/ch08_relationships.md", "md_atom_type": "SENTENCE", "md_parent_section": "§8.6.1 [Guidelines for Determining the General Observation Class]", "md_verbatim": "Sometimes the relationship between a subject and a finding is less direct; a finding may be about an event that happened to the subject or an intervention received.", "score": 0.4068, "match_basis": "verbatim_token+chapter_route:ch08"}, {"md_atom_id": "md_ch08_a272", "md_file": "knowledge_base/chapters/ch08_relationships.md", "md_atom_type": "SENTENCE", "md_parent_section": "§8.6.3 [Guidelines for Differentiating Between Interventions, Events, Findings, and Findings About Events or Interventions]", "md_verbatim": "When data related to an event do not fit into one of the existing Event general observation class qualifiers, the first question to consider is whether the data represent information about the event itself, or about something (a finding or intervention) that is associated with the event.", "score": 0.3974, "match_basis": "verbatim_token+chapter_route:ch08"}, {"md_atom_id": "md_ch08_a258", "md_file": "knowledge_base/chapters/ch08_relationships.md", "md_atom_type": "SENTENCE", "md_parent_section": "§8.6.3 [Guidelines for Differentiating Between Interventions, Events, Findings, and Findings About Events or Interventions]", "md_verbatim": "The following table presents questions that may assist sponsors in deciding where data should be placed in SDTM.", "score": 0.3964, "match_basis": "verbatim_token+chapter_route:ch08"}], "candidate_count": 5, "zero_candidate": false}
{"pdf_atom_id": "ig34_p0436_a010", "pdf_atom_type": "LIST_ITEM", "pdf_source": "SDTMIG_v3.4", "pdf_page": 436, "pdf_parent_section": "§8.6.3 Guidelines for Differentiating Between Interventions, Events, Findings, and Findings About Events or Interventions", "pdf_verbatim": "•    Events of interest in a particular trial may be prespecified, rather than collected as free text.", "figure_ref": null, "candidates": [{"md_atom_id": "md_ch08_a251", "md_file": "knowledge_base/chapters/ch08_relationships.md", "md_atom_type": "LIST_ITEM", "md_parent_section": "§8.6.3 [Guidelines for Differentiating Between Interventions, Events, Findings, and Findings About Events or Interventions]", "md_verbatim": "- Events of interest in a particular trial may be prespecified, rather than collected as free text.", "score": 0.9, "match_basis": "verbatim_token+chapter_route:ch08"}, {"md_atom_id": "md_ch08_a252", "md_file": "knowledge_base/chapters/ch08_relationships.md", "md_atom_type": "LIST_ITEM", "md_parent_section": "§8.6.3 [Guidelines for Differentiating Between Interventions, Events, Findings, and Findings About Events or Interventions]", "md_verbatim": "- Some events may be so long-lasting that they are perceived as \"conditions\" rather than events, and their beginning and end dates are not of interest.", "score": 0.4146, "match_basis": "verbatim_token+chapter_route:ch08"}, {"md_atom_id": "md_ch08_a284", "md_file": "knowledge_base/chapters/ch08_relationships.md", "md_atom_type": "LIST_ITEM", "md_parent_section": "§8.7 [Related Subjects (RELSUB)]", "md_verbatim": "1. RELSUB is used to represent relationships between persons, both of whom are study subjects. A relationship between a study subject and a person who is not a study subject may not be represented in RELSUB; this may only be reported in APRELSUB. The existence of the RELSUB dataset should not affect whether relationships are collected; that should remain a decision based on the needs of the particular study.", "score": 0.4067, "match_basis": "verbatim_token+chapter_route:ch08"}, {"md_atom_id": "md_ch08_a254", "md_file": "knowledge_base/chapters/ch08_relationships.md", "md_atom_type": "LIST_ITEM", "md_parent_section": "§8.6.3 [Guidelines for Differentiating Between Interventions, Events, Findings, and Findings About Events or Interventions]", "md_verbatim": "- Properties of an event may be measured or assessed, and these are then treated as findings about events, rather than as events.", "score": 0.3929, "match_basis": "verbatim_token+chapter_route:ch08"}, {"md_atom_id": "md_ch08_a215", "md_file": "knowledge_base/chapters/ch08_relationships.md", "md_atom_type": "LIST_ITEM", "md_parent_section": "§8.5 [Relating Comments to a Parent Domain]", "md_verbatim": "3. Comments related to specific domain record(s) for a subject would populate the RDOMAIN, IDVAR, and IDVARVAL variables with values that identify the specific parent record(s).", "score": 0.3824, "match_basis": "verbatim_token+chapter_route:ch08"}], "candidate_count": 5, "zero_candidate": false}
